time,seconds_elapsed,z,y,x
1707006232270838500,0.112838623046875,4.0319061279296875,7.910671710968018,0.029910283163189888
1707006232289796900,0.131796875,4.024727821350098,7.975277900695801,0.4019941985607147
1707006232308755000,0.1507548828125,3.737588882446289,8.880961418151855,1.129412293434143
1707006232327713000,0.169713134765625,3.5784661769866943,9.516255378723145,1.4033905267715454
1707006232346671400,0.18867138671875,3.4719855785369873,8.723034858703613,0.882951557636261
1707006232365629400,0.20762939453125,3.8021950721740723,8.202595710754395,0.8578268885612488
1707006232384587500,0.22658740234375,4.3310089111328125,7.891529083251953,1.6259230375289917
1707006232403545900,0.2455458984375,4.7234320640563965,8.648857116699219,2.8319056034088135
1707006232422504000,0.26450390625,4.610969066619873,9.695717811584473,3.52103853225708
1707006232441462000,0.2834619140625,4.423132419586182,10.065408706665039,3.0317063331604004
1707006232460420400,0.30242041015625,4.230510234832764,9.53659439086914,2.135594129562378
1707006232479378400,0.32137841796875,3.6442689895629883,8.518448829650879,1.6785650253295898
1707006232498336500,0.34033642578125,3.7399818897247314,8.2157564163208,1.9010975360870361
1707006232517294600,0.359294677734375,3.404986619949341,8.401200294494629,1.8233308792114258
1707006232536253000,0.3782529296875,3.2709884643554688,8.514859199523926,1.466800332069397
1707006232555211000,0.3972109375,3.1238300800323486,8.973084449768066,1.5433706045150757
1707006232574169000,0.416169189453125,3.0041887760162354,9.145368576049805,2.1379871368408203
1707006232593127400,0.43512744140625,3.073580741882324,8.902496337890625,2.372483730316162
1707006232612085500,0.45408544921875,2.592623233795166,8.276773452758789,1.633101463317871
1707006232631043600,0.473043701171875,1.9968105554580688,8.210970878601074,0.8219345808029175
1707006232650002000,0.492001953125,2.0721843242645264,9.189635276794434,1.0911271572113037
1707006232668960000,0.5109599609375,3.129812002182007,9.790233612060547,3.2279176712036133
1707006232687918000,0.52991796875,4.398007869720459,8.980263710021973,5.00578498840332
1707006232706876200,0.548876220703125,4.351347923278809,8.534002304077148,4.852644443511963
1707006232725834500,0.56783447265625,3.957728624343872,8.754141807556152,3.5437703132629395
1707006232744792600,0.58679248046875,3.649054527282715,9.017352104187012,2.7314071655273438
1707006232763750700,0.605750732421875,3.5234313011169434,9.000602722167969,2.8594231605529785
1707006232782709000,0.624708984375,3.1728827953338623,9.147761344909668,2.864208698272705
1707006232801667000,0.6436669921875,2.7182464599609375,9.438488960266113,2.124826431274414
1707006232820625200,0.662625244140625,2.2887349128723145,9.641879081726074,1.389033555984497
1707006232839583500,0.68158349609375,2.0542383193969727,9.501898765563965,1.495514154434204
1707006232858541600,0.70054150390625,2.2791635990142822,9.22433090209961,2.1643080711364746
1707006232877500000,0.7195,2.8893332481384277,8.650053977966309,3.2267212867736816
1707006232896458000,0.7384580078125,3.507878065109253,8.280363082885742,3.9349968433380127
1707006232915416000,0.757416015625,3.724428415298462,8.629714965820312,4.285545349121094
1707006232934374400,0.77637451171875,3.4947173595428467,8.906085968017578,4.497310161590576
1707006232953332500,0.79533251953125,3.2027931213378906,8.83071231842041,3.972085475921631
1707006232972290600,0.81429052734375,3.208775281906128,8.935996055603027,3.238685369491577
1707006232991249000,0.833248779296875,3.1477582454681396,9.287740707397461,2.6536402702331543
1707006233010207000,0.85220703125,2.5974090099334717,9.577272415161133,2.337787628173828
1707006233029165000,0.8711650390625,2.420340061187744,9.558130264282227,2.159522533416748
1707006233048123400,0.890123291015625,2.7625136375427246,9.2255277633667,2.20737886428833
1707006233067081500,0.90908154296875,2.9359934329986572,9.024530410766602,2.5639095306396484
1707006233086039800,0.928039794921875,3.266202926635742,8.963513374328613,2.8965117931365967
1707006233104998000,0.946997802734375,3.5533416271209717,8.993423461914062,2.93001127243042
1707006233123956000,0.9659560546875,3.346362352371216,9.156135559082031,2.709871530532837
1707006233142914300,0.984914306640625,2.7182464599609375,9.33440113067627,2.6249263286590576
1707006233161872400,1.003872314453125,2.5292134284973145,8.998209953308105,2.368894338607788
1707006233180830700,1.022830810546875,2.65842604637146,8.798408508300781,2.115255117416382
1707006233199788800,1.041788818359375,2.3880369663238525,8.997013092041016,2.337787628173828
1707006233218747100,1.0607470703125,2.1786649227142334,9.083154678344727,2.623729944229126
1707006233237705200,1.079705322265625,2.273181438446045,8.828319549560547,2.7828526496887207
1707006233256663600,1.09866357421875,2.5842485427856445,9.087940216064453,2.8869404792785645
1707006233275621600,1.11762158203125,2.6943182945251465,9.522237777709961,3.0867412090301514
1707006233294579700,1.136579833984375,2.630908489227295,9.495916366577148,3.047259569168091
1707006233313538000,1.1555380859375,2.6775684356689453,9.287740707397461,2.5591237545013428
1707006233332496400,1.174496337890625,2.768495798110962,9.549755096435547,2.4945175647735596
1707006233351454500,1.193454345703125,2.7038896083831787,9.841679573059082,2.524427890777588
1707006233370412800,1.212412841796875,3.0388846397399902,9.562915802001953,2.434697151184082
1707006233389371000,1.231370849609375,3.603590965270996,9.10827922821045,2.1296122074127197
1707006233408329200,1.2503291015625,3.4121651649475098,9.31047248840332,2.124826431274414
1707006233427287600,1.26928759765625,3.451646566390991,8.803194046020508,1.9489539861679077
1707006233446245600,1.28824560546875,3.686143398284912,8.416753768920898,1.597209095954895
1707006233465204000,1.307203857421875,3.4779677391052246,8.748159408569336,1.4488540887832642
1707006233484162000,1.326162109375,3.0759735107421875,9.025727272033691,1.3902299404144287
1707006233503120400,1.345120361328125,2.8630123138427734,9.121439933776855,0.9978070259094238
1707006233522078500,1.364078369140625,2.7122645378112793,9.010173797607422,0.6843472719192505
1707006233541036800,1.383036865234375,2.56510591506958,8.80798053741455,0.3936193287372589
1707006233559995100,1.4019951171875,2.3365912437438965,9.040083885192871,0.28594231605529785
1707006233578953200,1.420953125,2.1535403728485107,9.45045280456543,0.24047867953777313
1707006233597911600,1.43991162109375,2.3270199298858643,9.268598556518555,-0.11964113265275955
1707006233616869600,1.45886962890625,2.383251428604126,9.198010444641113,-0.4821537733078003
1707006233635828000,1.477827880859375,2.403590440750122,9.163313865661621,-0.7238288521766663
1707006233654786300,1.496786376953125,2.562713146209717,9.129815101623535,-0.8757730722427368
1707006233673744400,1.515744384765625,2.768495798110962,8.981459617614746,-1.046859860420227
1707006233692702700,1.53470263671875,2.837887763977051,8.892925262451172,-1.1341979503631592
1707006233711661000,1.5536611328125,2.750549554824829,9.095118522644043,-1.3651052713394165
1707006233730619400,1.572619384765625,2.7984061241149902,9.276973724365234,-1.9489539861679077
1707006233749577700,1.59157763671875,2.8582265377044678,8.855836868286133,-2.451446771621704
1707006233768535800,1.610535888671875,2.9001009464263916,9.607182502746582,-2.1930220127105713
1707006233787494100,1.629494140625,3.1513473987579346,10.585846900939941,-0.8901300430297852
1707006233806452500,1.648452392578125,3.8536407947540283,10.546365737915039,0.6352944374084473
1707006233825410800,1.667410888671875,4.609772682189941,9.827322959899902,1.786242127418518
1707006233844369000,1.686368896484375,5.212764263153076,9.608379364013672,2.6452653408050537
1707006233863327200,1.7053271484375,5.4556355476379395,8.930013656616211,3.9086756706237793
1707006233882285600,1.72428564453125,5.3802618980407715,7.999206066131592,4.2987060546875
1707006233901244000,1.743243896484375,5.139782905578613,7.704888820648193,4.237689018249512
1707006233920202200,1.7622021484375,4.692325115203857,7.660621643066406,4.106083869934082
1707006233939160600,1.78116064453125,4.080958843231201,7.905886173248291,4.211368083953857
1707006233958118700,1.80011865234375,3.5150563716888428,8.069794654846191,4.092923164367676
1707006233977077000,1.819076904296875,3.4241292476654053,7.835297584533691,4.575077056884766
1707006233996035300,1.838035400390625,3.45882511138916,7.3399834632873535,4.954339504241943
1707006234014993700,1.85699365234375,3.266202926635742,6.973881721496582,5.522634506225586
1707006234033952000,1.875951904296875,3.0687949657440186,7.071987152099609,6.5180487632751465
1707006234052910300,1.894910400390625,3.4504501819610596,7.048058986663818,7.465606689453125
1707006234071868700,1.91386865234375,3.332005500793457,6.80877685546875,8.167900085449219
1707006234090827000,1.932826904296875,3.108276605606079,6.479763507843018,8.58903694152832
1707006234109785300,1.951785400390625,2.8965117931365967,6.027520179748535,8.685946464538574
1707006234128743700,1.97074365234375,2.781656265258789,5.618347644805908,8.951549530029297
1707006234147702000,1.989701904296875,2.196611166000366,5.429314613342285,9.21117115020752
1707006234166660400,2.008660400390625,1.659422516822815,5.015356063842773,9.482755661010742
1707006234185618700,2.02761865234375,1.9022940397262573,4.374079704284668,9.839286804199219
1707006234204577000,2.046576904296875,1.8305093050003052,4.1730828285217285,10.277173042297363
1707006234223535400,2.065535400390625,1.8604196310043335,4.445864677429199,11.290534019470215
1707006234242493700,2.08449365234375,1.817348837852478,4.17427921295166,11.105090141296387
1707006234261452000,2.1034521484375,1.5852450132369995,4.095315933227539,10.864611625671387
1707006234280410400,2.122410400390625,1.2143574953079224,4.153940200805664,10.627721786499023
1707006234299368700,2.14136865234375,0.7214360237121582,3.9565322399139404,9.768698692321777
1707006234318327000,2.1603271484375,0.23330020904541016,3.7292141914367676,9.05444049835205
1707006234337285600,2.17928564453125,0.0933200865983963,2.7672994136810303,8.733802795410156
1707006234356244000,2.198243896484375,0.15074782073497772,2.0398812294006348,8.591429710388184
1707006234375202300,2.217202392578125,0.1902294009923935,2.104487419128418,8.62014389038086
1707006234394160600,2.23616064453125,0.5132604837417603,2.073380708694458,9.229117393493652
1707006234413119000,2.255118896484375,0.656829833984375,1.7001005411148071,9.279366493225098
1707006234432077300,2.274077392578125,0.5467599630355835,1.23589289188385,8.916853904724121
1707006234451035600,2.29303564453125,0.1495514214038849,0.7645068168640137,8.654839515686035
1707006234469994000,2.311993896484375,0.11724831163883209,0.3696911036968231,9.007781028747559
1707006234488952600,2.33095263671875,0.5312066078186035,0.25722843408584595,9.267401695251465
1707006234507911000,2.349910888671875,0.6687939167022705,0.39481574296951294,9.615557670593262
1707006234526869200,2.368869140625,-0.11605189740657806,0.12442677468061447,8.882157325744629
1707006234545827600,2.38782763671875,-1.4021940231323242,-0.5467599630355835,8.555537223815918
1707006234564786200,2.4067861328125,-2.3270199298858643,-0.9643075466156006,8.888139724731445
1707006234583744500,2.42574462890625,-2.669193744659424,-0.9643075466156006,8.930013656616211
1707006234602702800,2.444702880859375,-2.5878376960754395,-0.5491527915000916,8.47178840637207
1707006234621661200,2.4636611328125,-1.3854442834854126,-0.47258245944976807,8.964710235595703
1707006234640619500,2.48261962890625,0.4295116662979126,-0.40797626972198486,10.036694526672363
1707006234659578000,2.501578125,1.196411371231079,-0.9152546525001526,11.190034866333008
1707006234678536400,2.520536376953125,1.568495273590088,-1.1988041400909424,11.248659133911133
1707006234697494800,2.539494873046875,1.1928220987319946,-0.6340979933738708,10.671989440917969
1707006234716453400,2.558453369140625,0.09690931439399719,-0.1902294009923935,9.233902931213379
1707006234735411700,2.57741162109375,-0.6831508874893188,0.06580262631177902,7.7491559982299805
1707006234754370000,2.5963701171875,-2.366501569747925,-0.11605189740657806,6.416353702545166
1707006234773328400,2.615328369140625,-2.4885356426239014,-0.6137589812278748,7.2227349281311035
1707006234792287000,2.634286865234375,-0.3326023519039154,-0.16390834748744965,8.752944946289062
1707006234811245300,2.653245361328125,0.6352944374084473,0.10408778488636017,10.627721786499023
1707006234830203600,2.67220361328125,1.3902299404144287,-1.2430713176727295,12.051451683044434
1707006234849162200,2.691162353515625,1.8831514120101929,-1.3938192129135132,11.649456977844238
1707006234868120600,2.71012060546875,1.0277173519134521,0.0323031060397625,10.863414764404297
1707006234887079000,2.729078857421875,0.34217363595962524,0.714257538318634,9.957731246948242
1707006234906037500,2.74803759765625,-0.010767702013254166,0.0933200865983963,8.679964065551758
1707006234924995800,2.766995849609375,0.13519448041915894,-0.6185446381568909,8.323433876037598
1707006234943954200,2.7859541015625,0.6927221417427063,-0.7010970115661621,8.657232284545898
1707006234962912500,2.80491259765625,0.534795880317688,-0.19621145725250244,9.041280746459961
1707006234981871000,2.82387109375,-0.2715853750705719,-0.12801600992679596,9.631111145019531
1707006235000829400,2.842829345703125,-0.9236295223236084,-0.013160524889826775,10.261619567871094
1707006235019788000,2.8617880859375,-1.2239288091659546,-0.39481574296951294,10.838290214538574
1707006235038746400,2.880746337890625,-1.140179991722107,-0.6508477330207825,10.698309898376465
1707006235057704700,2.89970458984375,-0.9248259663581848,-0.04426721855998039,9.912267684936523
1707006235076663300,2.918663330078125,-0.5395814776420593,0.3720839321613312,9.757930755615234
1707006235095621600,2.93762158203125,-0.2667997181415558,0.3086741268634796,9.912267684936523
1707006235114580200,2.956580322265625,-0.04187439754605293,0.2105683982372284,10.249655723571777
1707006235133538600,2.97553857421875,-0.24885354936122894,-0.1579262912273407,10.305887222290039
1707006235152497000,2.994496826171875,-0.5300102233886719,-0.17108681797981262,10.240084648132324
1707006235171455500,3.01345556640625,-0.46420758962631226,0.1543370634317398,10.052248001098633
1707006235190413800,3.032413818359375,-0.1866401731967926,-0.014356935396790504,10.009177207946777
1707006235209372400,3.051372314453125,-0.42352959513664246,0.1698904037475586,10.272387504577637
1707006235228330800,3.070330810546875,-0.9080761671066284,0.5563312768936157,9.976874351501465
1707006235247289300,3.089289306640625,-0.9930213689804077,0.778863787651062,9.927821159362793
1707006235266247700,3.10824755859375,-0.8147560954093933,1.074377417564392,9.750752449035645
1707006235285206300,3.127206298828125,-0.3314059376716614,0.37806597352027893,9.446864128112793
1707006235304164600,3.14616455078125,-0.19142581522464752,-0.22971096634864807,9.1716890335083
1707006235323123000,3.165123046875,0.33858439326286316,0.19262222945690155,9.253045082092285
1707006235342081500,3.18408154296875,-0.12921242415905,0.5778666734695435,10.206584930419922
1707006235361040100,3.2030400390625,-0.6029912829399109,0.5467599630355835,10.744970321655273
1707006235379998500,3.22199853515625,-0.4043870270252228,1.23589289188385,10.04267692565918
1707006235398956800,3.240956787109375,-0.07657032459974289,1.604387640953064,9.305686950683594
1707006235417915400,3.259915283203125,-0.07776673883199692,1.200000524520874,9.657432556152344
1707006235436873700,3.278873779296875,-0.2225325107574463,1.1413763761520386,9.91107177734375
1707006235455832300,3.297832275390625,-0.15553347766399384,1.01814603805542,9.81535816192627
1707006235474790700,3.316790771484375,0.12681959569454193,0.9631111025810242,9.674181938171387
1707006235493749200,3.335749267578125,-0.2512463629245758,1.0516455173492432,10.108479499816895
1707006235512707600,3.35470751953125,-0.5252245664596558,0.9176474809646606,10.340582847595215
1707006235531666200,3.373666259765625,-0.25244277715682983,0.8841479420661926,9.753145217895508
1707006235550624500,3.39262451171875,-0.08015955984592438,1.210768222808838,9.454042434692383
1707006235569583000,3.4115830078125,-0.05024927482008934,1.6271194219589233,9.77109146118164
1707006235588541400,3.43054150390625,0.10169496387243271,1.2610175609588623,10.039087295532227
1707006235607500000,3.4495,0.2309073805809021,1.0839486122131348,9.750752449035645
1707006235626458400,3.468458251953125,0.349352091550827,0.9846464991569519,9.978070259094238
1707006235645417000,3.4874169921875,0.6352944374084473,1.23589289188385,10.055837631225586
1707006235664375300,3.506375244140625,0.6340979933738708,1.2562319040298462,10.070194244384766
1707006235683334000,3.525333984375,0.6125625967979431,0.9786644577980042,9.81535816192627
1707006235702292200,3.544292236328125,0.8039883971214294,1.0061819553375244,10.131211280822754
1707006235721250800,3.563250732421875,0.43549370765686035,0.882951557636261,10.853843688964844
1707006235740209200,3.582209228515625,0.39960137009620667,0.9188438653945923,10.463813781738281
1707006235759167700,3.601167724609375,0.2105683982372284,1.357926845550537,9.667003631591797
1707006235778126000,3.6201259765625,0.08853443711996078,1.357926845550537,9.21715259552002
1707006235797084700,3.639084716796875,-0.07776673883199692,0.8410771489143372,9.382257461547852
1707006235816043300,3.658043212890625,-0.28115665912628174,0.8183453679084778,10.232906341552734
1707006235835001600,3.677001708984375,-0.06340979784727097,0.8817551732063293,10.419546127319336
1707006235853960000,3.6959599609375,-0.09451649338006973,0.5419743061065674,9.710074424743652
1707006235872918500,3.71491845703125,-0.08733802288770676,0.5467599630355835,9.607182502746582
1707006235891877000,3.733877197265625,-0.25722843408584595,0.7345965504646301,9.748359680175781
1707006235910835500,3.75283544921875,-0.592223584651947,0.4546363055706024,9.806983947753906
1707006235929794000,3.7717939453125,-0.5694918036460876,0.43549370765686035,9.93978500366211
1707006235948752400,3.79075244140625,-0.5359922647476196,0.7824530005455017,10.162318229675293
1707006235967711000,3.8097109375,-0.7680960893630981,0.9236295223236084,10.01156997680664
1707006235986669300,3.82866943359375,-0.6544370055198669,0.9092726111412048,9.19442081451416
1707006236005628000,3.8476279296875,-0.14356936514377594,0.7501499056816101,9.050851821899414
1707006236024586500,3.86658642578125,-0.22013968229293823,0.7549355626106262,9.482755661010742
1707006236043544800,3.885544921875,0.058624155819416046,1.0947163105010986,9.437292098999023
1707006236062503400,3.90450341796875,0.7369893789291382,1.1150553226470947,9.542576789855957
1707006236081461800,3.923461669921875,0.7070791125297546,1.1808580160140991,9.996016502380371
1707006236100420400,3.94242041015625,0.30628129839897156,1.290927767753601,10.04985523223877
1707006236119378700,3.961378662109375,0.7094719409942627,1.179661512374878,9.645467758178711
1707006236138337300,3.980337158203125,0.5970092415809631,0.9224331378936768,9.632308006286621
1707006236157295900,3.9992958984375,0.4893322288990021,0.8709874153137207,9.66819953918457
1707006236176254200,4.018254150390625,0.46899324655532837,0.9954141974449158,9.542576789855957
1707006236195212800,4.037212890625,0.4019941985607147,1.211964726448059,9.804591178894043
1707006236214171100,4.056171142578125,0.3577269911766052,1.085145115852356,9.899106979370117
1707006236233129700,4.075129638671875,0.13519448041915894,0.8279166221618652,9.578469276428223
1707006236252088000,4.094088134765625,0.007178467698395252,0.9690931439399719,9.321240425109863
1707006236271046700,4.113046630859375,-0.2392822653055191,1.2251251935958862,9.156135559082031
1707006236290005200,4.132005126953125,-0.5694918036460876,1.0145567655563354,9.10827922821045
1707006236308963600,4.150963623046875,-0.5742774605751038,0.9415757060050964,9.391828536987305
1707006236327922200,4.169922119140625,-0.0849452018737793,1.098305583000183,9.664610862731934
1707006236346880500,4.188880615234375,0.33020952343940735,1.1222338676452637,9.8871431350708
1707006236365839000,4.207839111328125,0.4211367964744568,0.9786644577980042,10.108479499816895
1707006236384797400,4.22679736328125,0.4211367964744568,0.9224331378936768,9.968499183654785
1707006236403756000,4.245756103515625,0.3038884699344635,1.129412293434143,10.043872833251953
1707006236422714600,4.264714599609375,0.35413774847984314,1.113858938217163,10.345368385314941
1707006236441673000,4.2836728515625,0.39840495586395264,0.8482556343078613,10.53799057006836
1707006236460631600,4.302631591796875,0.2153540402650833,0.7465606927871704,10.466206550598145
1707006236479590100,4.321590087890625,0.10408778488636017,0.8626125454902649,10.395618438720703
1707006236498548500,4.340548583984375,-0.007178467698395252,1.058824062347412,10.153943061828613
1707006236517507000,4.359507080078125,-0.31465616822242737,0.9451649188995361,10.256834030151367
1707006236536465400,4.37846533203125,-0.5359922647476196,0.8973084688186646,10.122836112976074
1707006236555424000,4.397424072265625,-0.7250252366065979,0.836291491985321,10.028319358825684
1707006236574382300,4.41638232421875,-0.9954141974449158,0.5778666734695435,9.649057388305664
1707006236593341000,4.4353408203125,-1.0648061037063599,0.6520441770553589,9.053244590759277
1707006236612299500,4.454299560546875,-1.0947163105010986,0.7381857633590698,9.133403778076172
1707006236631257900,4.4732578125,-0.7130611538887024,0.7046862840652466,9.875179290771484
1707006236650216400,4.492216552734375,-0.4666004180908203,0.4534398913383484,10.110872268676758
1707006236669175000,4.511175048828125,-0.08135596662759781,0.5611169338226318,10.405189514160156
1707006236688133400,4.53013330078125,0.2955136001110077,0.6137589812278748,10.332208633422852
1707006236707092000,4.549092041015625,-0.3122633695602417,0.6281159520149231,10.269994735717773
1707006236726050300,4.56805029296875,-0.7058826684951782,0.8865407705307007,9.956535339355469
1707006236745009000,4.5870087890625,-0.5216353535652161,1.0193424224853516,8.396414756774902
1707006236763967200,4.60596728515625,-0.3206382393836975,0.5982056856155396,8.94676399230957
1707006236782925800,4.62492578125,-0.8542376756668091,0.5395814776420593,9.383454322814941
1707006236801884400,4.643884521484375,-0.8374879360198975,0.4175475537776947,10.415956497192383
1707006236820842800,4.6628427734375,-0.1746760457754135,0.9176474809646606,9.617950439453125
1707006236839801300,4.68180126953125,-0.794417142868042,0.5132604837417603,9.841679573059082
1707006236858760000,4.700760009765625,-0.6221339106559753,-0.21176479756832123,10.65523910522461
1707006236877718300,4.71971826171875,-0.5862415432929993,-0.20817556977272034,11.6123685836792
1707006236896676900,4.7386767578125,-0.15074782073497772,0.02153540402650833,12.410374641418457
1707006236915635200,4.75763525390625,0.3577269911766052,-0.015553346835076809,12.753745079040527
1707006236934593800,4.77659375,0.5551348328590393,-0.13040883839130402,12.175877571105957
1707006236953552100,4.79555224609375,0.4785645306110382,0.09930214285850525,10.518848419189453
1707006236972510700,4.8145107421875,-0.18424734473228455,1.0875378847122192,7.533802032470703
1707006236991469300,4.83346923828125,-0.5156532526016235,1.5002998113632202,7.048058986663818
1707006237010427600,4.852427734375,0.39960137009620667,1.222732424736023,7.573283672332764
1707006237029386200,4.87138623046875,0.5599204897880554,0.43549370765686035,7.8388872146606445
1707006237048344800,4.8903447265625,0.6951149702072144,-0.13639089465141296,8.617751121520996
1707006237067303200,4.90930322265625,0.4749752879142761,-0.010767702013254166,9.65503978729248
1707006237086261800,4.92826171875,0.28235307335853577,-0.0729810893535614,9.868000984191895
1707006237105220400,4.947220458984375,-0.49651068449020386,0.26201409101486206,9.806983947753906
1707006237124178700,4.9661787109375,-0.8291130661964417,0.34576287865638733,10.110872268676758
1707006237143137300,4.98513720703125,-0.42711883783340454,0.059820566326379776,10.013962745666504
1707006237162095600,5.004095703125,-0.3122633695602417,-0.14356936514377594,10.182656288146973
1707006237181054200,5.02305419921875,0.029910283163189888,-0.40319061279296875,10.680363655090332
1707006237200012500,5.042012451171875,0.17587246000766754,-0.36251261830329895,10.482955932617188
1707006237218971100,5.06097119140625,-0.24406790733337402,-0.13280165195465088,10.308279991149902
1707006237237929700,5.0799296875,-0.607776939868927,-0.11964113265275955,10.212567329406738
1707006237256888000,5.09888818359375,-0.7106683254241943,-0.2991028428077698,9.728020668029785
1707006237275846700,5.1178466796875,-0.7322037220001221,-0.30987054109573364,9.395418167114258
1707006237294805200,5.13680517578125,-0.6592226624488831,-0.40319061279296875,10.145567893981934
1707006237313763600,5.155763671875,-0.31106695532798767,-0.5467599630355835,10.588240623474121
1707006237332722200,5.17472216796875,-0.12203395366668701,-0.31465616822242737,10.547562599182129
1707006237351680800,5.1936806640625,-0.07776673883199692,-0.3170489966869354,9.93260669708252
1707006237370639000,5.21263916015625,-0.3194418251514435,-0.21176479756832123,9.243474006652832
1707006237389597700,5.23159765625,-0.20578274130821228,0.1543370634317398,8.61057186126709
1707006237408556000,5.25055615234375,-0.03349951654672623,-0.10289137065410614,7.9621171951293945
1707006237427514600,5.2695146484375,-0.09930214285850525,-0.5300102233886719,8.444271087646484
1707006237446473000,5.288472900390625,-0.1136590763926506,-0.0729810893535614,9.096315383911133
1707006237465431600,5.307431640625,-0.7154539823532104,-0.1136590763926506,10.229316711425781
1707006237484390100,5.32639013671875,-0.8662018179893494,-0.6125625967979431,11.00578784942627
1707006237503348500,5.345348388671875,-0.6041877269744873,-0.5096712112426758,10.819147109985352
1707006237522307000,5.36430712890625,-0.05144568532705307,-0.05144568532705307,10.61695384979248
1707006237541265700,5.383265625,0.26919254660606384,0.275174617767334,10.319047927856445
1707006237560224000,5.40222412109375,0.45583271980285645,0.2105683982372284,10.023533821105957
1707006237579182600,5.4211826171875,0.381655216217041,-0.06819544732570648,9.991230964660645
1707006237598141200,5.44014111328125,0.3326023519039154,-0.37088751792907715,10.106086730957031
1707006237617099500,5.459099609375,0.3696911036968231,-0.23808585107326508,10.15035343170166
1707006237636058000,5.47805810546875,0.3529413342475891,0.32303106784820557,10.262816429138184
1707006237655016400,5.497016357421875,0.3732803463935852,0.3756731450557709,9.984052658081055
1707006237673975000,5.51597509765625,0.1663011759519577,0.017946170642971992,9.829715728759766
1707006237692933400,5.534933349609375,-0.14476576447486877,-0.23449662327766418,9.626325607299805
1707006237711892000,5.55389208984375,-0.21655045449733734,0.0011964113218709826,9.579665184020996
1707006237730850600,5.5728505859375,-0.019142581149935722,0.04905286431312561,9.738788604736328
1707006237749809000,5.591808837890625,-0.031106693670153618,-0.13040883839130402,9.716055870056152
1707006237768767500,5.610767578125,-0.13160525262355804,-0.09571290761232376,9.7005033493042
1707006237787726000,5.62972607421875,-0.04546362906694412,0.06819544732570648,9.789037704467773
1707006237806684400,5.648684326171875,-0.20937198400497437,0.18305093050003052,10.02592658996582
1707006237825643000,5.66764306640625,-0.4977070987224579,0.2584248483181,9.976874351501465
1707006237844601600,5.6866015625,-0.4989035129547119,0.42711883783340454,9.67777156829834
1707006237863560000,5.705559814453125,-0.37926238775253296,0.31106695532798767,9.469595909118652
1707006237882518500,5.7245185546875,0.03469592705368996,0.20817556977272034,9.633503913879395
1707006237901476900,5.743476806640625,-0.08853443711996078,0.1256231814622879,9.747162818908691
1707006237920435500,5.762435546875,-0.15912270545959473,0.2727817893028259,9.791430473327637
1707006237939393800,5.781393798828125,0.039481572806835175,0.22013968229293823,10.102497100830078
1707006237958352400,5.800352294921875,0.23210379481315613,0.059820566326379776,10.003194808959961
1707006237977311000,5.81931103515625,0.16749759018421173,0.02751746028661728,9.747162818908691
1707006237996269300,5.838269287109375,0.059820566326379776,0.3481557071208954,9.759127616882324
1707006238015228000,5.857227783203125,0.24646073579788208,0.5455635786056519,10.05703353881836
1707006238034186500,5.8761865234375,0.14715859293937683,0.43190449476242065,9.830911636352539
1707006238053144800,5.895144775390625,-0.17347964644432068,0.7106683254241943,9.743574142456055
1707006238072103400,5.914103515625,-0.13040883839130402,1.0564311742782593,9.975677490234375
1707006238091062000,5.93306201171875,0.031106693670153618,0.9762716293334961,10.03310489654541
1707006238110020400,5.952020263671875,0.07537391036748886,0.6675975322723389,9.797411918640137
1707006238128979000,5.97097900390625,0.09690931439399719,0.7513462901115417,9.781859397888184
1707006238147937300,5.989937255859375,0.2153540402650833,0.7872386574745178,10.039087295532227
1707006238166895900,6.008895751953125,0.3445664644241333,0.7465606927871704,10.210174560546875
1707006238185854500,6.0278544921875,0.31345975399017334,0.6520441770553589,10.118050575256348
1707006238204812800,6.046812744140625,0.27756741642951965,0.9750752449035645,9.93978500366211
1707006238223771400,6.065771484375,0.2919243574142456,1.171286702156067,10.045069694519043
1707006238242729700,6.084729736328125,0.45104706287384033,0.9463613629341125,10.218548774719238
1707006238261688300,6.103688232421875,0.3840480446815491,1.2346965074539185,10.192228317260742
1707006238280647000,6.12264697265625,0.4247260093688965,1.597209095954895,10.107282638549805
1707006238299605200,6.141605224609375,0.14835500717163086,1.1868400573730469,10.04985523223877
1707006238318563800,6.160563720703125,-0.07417750358581543,0.7345965504646301,9.81535816192627
1707006238337522400,6.1795224609375,-0.12442677468061447,0.6317051649093628,9.470791816711426
1707006238356480800,6.198480712890625,-0.12442677468061447,0.8566305041313171,9.359525680541992
1707006238375439400,6.217439453125,-0.0023928226437419653,1.0947163105010986,9.979267120361328
1707006238394398000,6.23639794921875,-0.2883351147174835,0.8697910308837891,10.109675407409668
1707006238413356300,6.255356201171875,-0.5204389095306396,0.6544370055198669,9.592825889587402
1707006238432315000,6.27431494140625,-0.49172505736351013,0.698704183101654,9.233902931213379
1707006238451273500,6.2932734375,-0.5659025311470032,1.1318050622940063,9.507881164550781
1707006238470231800,6.312231689453125,-0.38763725757598877,1.1066805124282837,9.82373332977295
1707006238489190400,6.3311904296875,-0.2871387302875519,0.8554341197013855,9.850054740905762
1707006238508149000,6.35014892578125,-0.18783657252788544,0.8697910308837891,9.822537422180176
1707006238527107300,6.369107421875,-0.016749758273363113,1.0193424224853516,9.945767402648926
1707006238546066000,6.38806591796875,-0.29790642857551575,0.9200403094291687,9.923035621643066
1707006238565024500,6.4070244140625,-0.2715853750705719,0.7932206988334656,9.595218658447266
1707006238583982800,6.42598291015625,-0.16151553392410278,0.882951557636261,9.540184020996094
1707006238602941400,6.44494140625,-0.15194423496723175,1.042074203491211,9.92423152923584
1707006238621900000,6.463900146484375,-0.09451649338006973,0.9990034699440002,10.009177207946777
1707006238640858600,6.482858642578125,0.05503492057323456,0.8614161610603333,9.817750930786133
1707006238659817200,6.501817138671875,0.09092725813388824,0.9439685344696045,9.78544807434082
1707006238678775600,6.520775634765625,-0.0323031060397625,0.9726824164390564,9.858428955078125
1707006238697734100,6.539734130859375,-0.07417750358581543,0.9212366938591003,9.829715728759766
1707006238716693200,6.558693359375,0.19740787148475647,0.9427721500396729,9.760323524475098
1707006238735651000,6.577651123046875,0.058624155819416046,1.1078768968582153,9.934999465942383
1707006238754609700,6.596609619140625,0.10767702013254166,1.1186445951461792,9.938589096069336
1707006238773568300,6.615568359375,0.20578274130821228,1.0109676122665405,9.768698692321777
1707006238792526600,6.634526611328125,0.08733802288770676,1.0660024881362915,9.919445991516113
1707006238811485200,6.653485107421875,0.30628129839897156,1.4500504732131958,10.189835548400879
1707006238830443800,6.67244384765625,0.259621262550354,1.5409778356552124,10.442277908325195
1707006238849402400,6.69140234375,-0.04785645380616188,1.4871392250061035,10.225728034973145
1707006238868361000,6.71036083984375,0.3242274820804596,1.542174220085144,9.798608779907227
1707006238887319300,6.7293193359375,0.37447673082351685,2.0721843242645264,10.419546127319336
1707006238906278000,6.74827783203125,-0.14715859293937683,2.228914260864258,10.85862922668457
1707006238925236500,6.767236572265625,0.4127618968486786,1.7587246894836426,10.138389587402344
1707006238944194800,6.78619482421875,0.7190431952476501,1.5397813320159912,9.908679008483887
1707006238963153400,6.8051533203125,0.33858439326286316,1.9896320104599,10.315458297729492
1707006238982112000,6.824112060546875,-0.2919243574142456,2.4263222217559814,10.402796745300293
1707006239001070600,6.843070556640625,0.35533416271209717,1.552941918373108,9.559326171875
1707006239020029200,6.862029296875,0.25363919138908386,0.2991028428077698,9.154939651489258
1707006239038987500,6.880987548828125,0.672383189201355,-0.3158525824546814,9.215956687927246
1707006239057946000,6.899946044921875,0.6711867451667786,0.22372891008853912,9.750752449035645
1707006239076904700,6.91890478515625,-0.11246266216039658,1.4213366508483887,10.417153358459473
1707006239095863300,6.93786328125,-0.23688943684101105,1.5002998113632202,9.903892517089844
1707006239114822000,6.95682177734375,-0.05742774158716202,1.5242279767990112,9.239884376525879
1707006239133780200,6.9757802734375,-0.2787638306617737,1.6522440910339355,9.760323524475098
1707006239152738800,6.99473876953125,-0.3840480446815491,1.160519003868103,9.836894035339355
1707006239171697400,7.013697509765625,-0.5826523303985596,0.5479564070701599,8.532805442810059
1707006239190656000,7.032656005859375,-0.3326023519039154,0.19142581522464752,7.774280548095703
1707006239209614600,7.051614501953125,-0.29431718587875366,0.8003991842269897,8.902496337890625
1707006239228573200,7.0705732421875,-0.02273181453347206,0.9607182741165161,9.851250648498535
1707006239247531800,7.08953173828125,0.6101697683334351,-0.03349951654672623,9.56052303314209
1707006239266490000,7.108489990234375,1.7312071323394775,0.2907279431819916,10.258030891418457
1707006239285448700,7.12744873046875,1.6450655460357666,1.7288143634796143,11.58963680267334
1707006239304407300,7.1464072265625,2.0614166259765625,1.4715858697891235,10.572687149047852
1707006239323366000,7.165365966796875,2.410768747329712,0.836291491985321,9.382257461547852
1707006239342324500,7.184324462890625,2.4023938179016113,1.1700903177261353,10.030712127685547
1707006239361283000,7.203282958984375,2.403590440750122,0.8733802437782288,10.565508842468262
1707006239380241700,7.22224169921875,2.723032236099243,0.4175475537776947,10.48534870147705
1707006239399200300,7.2412001953125,1.7682958841323853,1.1497513055801392,10.753344535827637
1707006239418158600,7.26015869140625,1.5553346872329712,1.2430713176727295,10.667202949523926
1707006239437117200,7.2791171875,1.3148560523986816,0.3768695592880249,9.920642852783203
1707006239456075800,7.29807568359375,0.6747759580612183,0.06939185410737991,9.862018585205078
1707006239475034400,7.317034423828125,0.10767702013254166,0.07657032459974289,10.171889305114746
1707006239493993000,7.335992919921875,0.3852444589138031,-0.2667997181415558,9.672985076904297
1707006239512951600,7.35495166015625,0.7776673436164856,-0.3601198196411133,9.376275062561035
1707006239531910100,7.37391015625,0.5551348328590393,-0.3326023519039154,9.390632629394531
1707006239550868500,7.392868408203125,0.8183453679084778,-0.6580262184143066,8.986245155334473
1707006239569827000,7.4118271484375,1.1102696657180786,-0.33738797903060913,8.86780071258545
1707006239588785700,7.43078564453125,1.0827522277832031,0.137587308883667,9.464810371398926
1707006239607744300,7.449744140625,1.2346965074539185,-0.37806597352027893,9.556933403015137
1707006239626702800,7.468702880859375,1.794616937637329,-0.6735795736312866,8.896514892578125
1707006239645661400,7.487661376953125,1.6618152856826782,-0.2763710021972656,8.98385238647461
1707006239664620000,7.5066201171875,1.4739787578582764,0.10648060590028763,9.481559753417969
1707006239683578600,7.52557861328125,1.5852450132369995,-0.019142581149935722,9.4061861038208
1707006239702537200,7.544537109375,1.3040883541107178,0,9.262616157531738
1707006239721495600,7.56349560546875,1.215553879737854,0.19621145725250244,9.554540634155273
1707006239740454400,7.582454345703125,1.690529227256775,0.09092725813388824,9.498309135437012
1707006239759412700,7.601412841796875,1.92741858959198,0.08853443711996078,9.347561836242676
1707006239778371300,7.620371337890625,1.6618152856826782,0.5694918036460876,9.531808853149414
1707006239797330000,7.639329833984375,1.9932212829589844,0.33858439326286316,9.524630546569824
1707006239816288500,7.65828857421875,2.691925525665283,0.30987054109573364,9.013762474060059
1707006239835247000,7.6772470703125,2.7361927032470703,1.3100703954696655,9.33440113067627
1707006239854205700,7.696205810546875,1.4632110595703125,2.007578134536743,10.795219421386719
1707006239873164300,7.715164306640625,1.8436698913574219,0.7800601720809937,10.557133674621582
1707006239892123000,7.734122802734375,2.252842426300049,0.8757730722427368,9.535398483276367
1707006239911081500,7.75308154296875,2.159522533416748,1.5122638940811157,10.540383338928223
1707006239930040000,7.7720400390625,1.95852530002594,0.9475577473640442,10.590633392333984
1707006239948998700,7.79099853515625,1.9262222051620483,-0.33499518036842346,10.429117202758789
1707006239967957200,7.809957275390625,1.26699960231781,0.37926238775253296,9.686145782470703
1707006239986915800,7.828915771484375,1.4081761837005615,1.1485549211502075,9.089137077331543
1707006240005874200,7.847874267578125,1.4715858697891235,1.054038405418396,9.561718940734863
1707006240024833000,7.8668330078125,1.4225330352783203,0.9355936646461487,9.884750366210938
1707006240043791600,7.88579150390625,1.3411771059036255,0.6245267391204834,9.77109146118164
1707006240062750200,7.904750244140625,1.5122638940811157,0.7657032608985901,9.847661972045898
1707006240081708800,7.923708740234375,1.1066805124282837,1.195214867591858,9.53061294555664
1707006240100667100,7.942667236328125,1.2263215780258179,1.5792629718780518,9.220742225646973
1707006240119626000,7.9616259765625,1.3399807214736938,1.6139588356018066,9.564111709594727
1707006240138584300,7.980584228515625,1.5397813320159912,1.534995675086975,9.678967475891113
1707006240157543200,7.999543212890625,1.908276081085205,1.592423439025879,9.962516784667969
1707006240176501500,8.01850146484375,1.8305093050003052,1.7886348962783813,9.907482147216797
1707006240195460000,8.037460205078125,1.6821542978286743,1.8915263414382935,9.67777156829834
1707006240214418700,8.056418701171875,0.9056833982467651,1.825723648071289,9.56770133972168
1707006240233377300,8.075377197265626,1.0432707071304321,1.5708880424499512,9.511469841003418
1707006240252335900,8.0943359375,1.0683952569961548,1.1593226194381714,9.515059471130371
1707006240271294500,8.11329443359375,1.1676974296569824,0.6855437159538269,10.326226234436035
1707006240290253000,8.132253173828126,1.6737794876098633,0.7058826684951782,10.669595718383789
1707006240309211600,8.151211669921874,1.2538390159606934,0.8171489238739014,10.72702407836914
1707006240328170200,8.170170166015625,0.5670989751815796,0.6520441770553589,10.235299110412598
1707006240347128800,8.18912890625,0.35892340540885925,0.4342973232269287,9.523433685302734
1707006240366087400,8.20808740234375,0.35533416271209717,0.9499505758285522,8.635697364807129
1707006240385046000,8.2270458984375,0.6675975322723389,1.0253244638442993,8.993423461914062
1707006240404004600,8.246004638671875,-0.008374879136681557,1.4117653369903564,9.773484230041504
1707006240422963200,8.264963134765624,0.5623133182525635,1.191625714302063,9.504291534423828
1707006240441921800,8.283921875,0.7668996453285217,0.9930213689804077,9.598808288574219
1707006240460880400,8.30288037109375,0.8159525394439697,1.3854442834854126,9.891928672790527
1707006240479839000,8.3218388671875,0.9343972206115723,1.7910277843475342,10.01874828338623
1707006240498797600,8.340797607421875,0.9092726111412048,1.8544375896453857,10.01994514465332
1707006240517756200,8.359756103515625,0.8937192559242249,1.6510475873947144,9.863214492797852
1707006240536714800,8.37871484375,0.8410771489143372,1.6259230375289917,9.866804122924805
1707006240555673300,8.39767333984375,0.9212366938591003,1.7252250909805298,9.948160171508789
1707006240574632000,8.4166318359375,0.9846464991569519,1.521835207939148,9.78664493560791
1707006240593590800,8.4355908203125,0.833898663520813,1.5170495510101318,9.853643417358398
1707006240612549000,8.454549072265625,0.9391828775405884,1.4225330352783203,9.984052658081055
1707006240631508000,8.473508056640625,1.0707881450653076,1.1413763761520386,9.754341125488281
1707006240650466300,8.49246630859375,0.29431718587875366,1.683350682258606,9.732806205749512
1707006240669425200,8.511425048828125,0.3242274820804596,1.5792629718780518,9.261420249938965
1707006240688383500,8.530383544921875,0.40797626972198486,1.5649060010910034,9.091529846191406
1707006240707342300,8.54934228515625,0.9104689955711365,1.4979069232940674,9.598808288574219
1707006240726300700,8.56830078125,1.01814603805542,1.4213366508483887,10.040284156799316
1707006240745259500,8.587259521484375,1.1437692642211914,1.470389485359192,9.784252166748047
1707006240764217900,8.6062177734375,1.0037890672683716,1.6091731786727905,9.817750930786133
1707006240783176700,8.6251767578125,1.144965648651123,1.542174220085144,9.884750366210938
1707006240802135300,8.64413525390625,1.200000524520874,1.3160524368286133,9.851250648498535
1707006240821094000,8.663093994140626,1.2646067142486572,1.6151553392410278,9.643074989318848
1707006240840052500,8.682052490234375,0.8470591902732849,1.8544375896453857,9.871589660644531
1707006240859011000,8.701010986328125,0.7645068168640137,1.8735800981521606,9.718449592590332
1707006240877969700,8.7199697265625,0.7680960893630981,1.6019947528839111,9.53659439086914
1707006240896928300,8.73892822265625,0.867398202419281,1.8963119983673096,9.889535903930664
1707006240915886800,8.757886962890625,0.9499505758285522,2.012363910675049,9.958928108215332
1707006240934845400,8.776845458984376,0.8865407705307007,1.7001005411148071,9.663414001464844
1707006240953804000,8.795803955078124,0.833898663520813,1.3818551301956177,9.722038269042969
1707006240972762600,8.8147626953125,0.7800601720809937,1.7288143634796143,9.760323524475098
1707006240991721200,8.83372119140625,0.7010970115661621,2.427518606185913,11.002198219299316
1707006241010679800,8.8526796875,0.914058268070221,1.6510475873947144,10.922039031982422
1707006241029638400,8.871638427734375,0.914058268070221,0.9487541913986206,9.984052658081055
1707006241048597000,8.890596923828125,0.6831508874893188,1.9968105554580688,10.650453567504883
1707006241067555600,8.9095556640625,0.9056833982467651,2.9108686447143555,11.154142379760742
1707006241086514200,8.92851416015625,2.0757737159729004,2.1583259105682373,11.111071586608887
1707006241105472800,8.94747265625,2.5531418323516846,3.1070802211761475,11.564512252807617
1707006241124431400,8.966431396484374,3.4061830043792725,3.397808074951172,10.575079917907715
1707006241143390000,8.985389892578125,3.4265220165252686,3.597608804702759,9.42173957824707
1707006241162348500,9.0043486328125,3.3272199630737305,2.196611166000366,9.474381446838379
1707006241181307100,9.02330712890625,2.885744094848633,1.8951154947280884,7.922635555267334
1707006241200265700,9.042265625,2.0482561588287354,3.219542980194092,8.737391471862793
1707006241219224300,9.061224365234375,1.5433706045150757,2.7936203479766846,8.37727165222168
1707006241238183200,9.08018310546875,1.3148560523986816,3.31884503364563,8.206185340881348
1707006241257141500,9.0991416015625,0.6544370055198669,2.3952155113220215,9.036494255065918
1707006241276100400,9.118100341796875,1.00259268283844,1.9453648328781128,8.435895919799805
1707006241295058700,9.13705859375,1.3794622421264648,2.5016961097717285,7.221538543701172
1707006241314017500,9.156017578125,1.4488540887832642,3.212364435195923,8.13679313659668
1707006241332975900,9.174975830078125,1.0372886657714844,4.116851329803467,8.45743179321289
1707006241351934700,9.193934814453126,2.1128623485565186,1.9465612173080444,7.45364236831665
1707006241370893000,9.21289306640625,1.6295121908187866,3.7016966342926025,8.202595710754395
1707006241389852000,9.231851806640625,2.1547367572784424,5.2941203117370605,9.7005033493042
1707006241408810500,9.250810546875,1.5182459354400635,2.9048867225646973,9.388239860534668
1707006241427769000,9.26976904296875,2.480160713195801,2.504088878631592,6.1435723304748535
1707006241446727700,9.288727783203125,1.6522440910339355,9.879964828491211,7.877171993255615
1707006241465686300,9.307686279296876,2.9144580364227295,5.491528034210205,11.85165023803711
1707006241484644900,9.326644775390625,2.9623143672943115,1.3208380937576294,9.248259544372559
1707006241503603500,9.345603515625,2.6763720512390137,1.7431713342666626,5.880361557006836
1707006241522562000,9.36456201171875,1.5517455339431763,6.154339790344238,8.338987350463867
1707006241541520600,9.383520751953125,1.3519448041915894,5.548955917358398,11.959327697753906
1707006241560479200,9.402479248046875,2.3772692680358887,2.757728099822998,9.079565048217773
1707006241579437800,9.421437744140626,2.124826431274414,3.662214994430542,7.345965385437012
1707006241598396400,9.440396484375,0.37447673082351685,3.159722328186035,9.517452239990234
1707006241617355000,9.45935498046875,0.03349951654672623,4.599005222320557,9.115457534790039
1707006241636313600,9.478313720703126,1.5409778356552124,3.7710886001586914,8.908478736877441
1707006241655272200,9.497272216796874,2.169093608856201,3.9326040744781494,8.344968795776367
1707006241674230800,9.516230712890625,1.648654818534851,3.4779677391052246,8.512466430664062
1707006241693189400,9.535189453125,2.3784656524658203,3.332005500793457,7.6666035652160645
1707006241712148000,9.55414794921875,3.266202926635742,4.315455436706543,8.176275253295898
1707006241731106600,9.5731064453125,1.9166508913040161,4.709074974060059,10.177870750427246
1707006241750065200,9.592065185546875,2.011167526245117,5.108676433563232,7.668996810913086
1707006241769023700,9.611023681640624,4.122833251953125,3.6083765029907227,6.720242500305176
1707006241787982300,9.629982421875,3.724428415298462,5.48793888092041,7.813762187957764
1707006241806941000,9.64894091796875,3.4169507026672363,5.419743061065674,9.42772102355957
1707006241825899500,9.6678994140625,1.9657038450241089,4.061816215515137,8.280363082885742
1707006241844858000,9.686858154296875,1.2717852592468262,4.033102512359619,9.369096755981445
1707006241863816700,9.705816650390625,1.9896320104599,4.374079704284668,7.654639720916748
1707006241882775300,9.724775390625,1.0755738019943237,4.490131855010986,8.756534576416016
1707006241901734000,9.74373388671875,1.2801600694656372,4.470989227294922,9.019744873046875
1707006241920692500,9.7626923828125,0.8075776696205139,3.724428415298462,7.216753005981445
1707006241939651000,9.781651123046874,0.8937192559242249,4.030709743499756,8.550751686096191
1707006241958609700,9.800609619140625,1.3950155973434448,3.5054850578308105,8.933603286743164
1707006241977568300,9.819568359375,1.8759729862213135,3.6430723667144775,7.5565338134765625
1707006241996527000,9.838527099609376,2.1571295261383057,4.302295207977295,7.427321434020996
1707006242015485400,9.8574853515625,2.317448616027832,4.643272399902344,8.773283958435059
1707006242034444300,9.8764443359375,2.5986053943634033,4.758127689361572,9.207581520080566
1707006242053402600,9.895402587890626,2.4263222217559814,3.88594388961792,8.504091262817383
1707006242072361500,9.914361572265625,2.3054845333099365,3.871587038040161,8.825926780700684
1707006242091319800,9.93331982421875,2.2504496574401855,4.110869407653809,9.008976936340332
1707006242110278700,9.952278564453126,2.0578274726867676,3.871587038040161,8.25523853302002
1707006242129237000,9.971237060546875,1.5948163270950317,4.125226020812988,8.441878318786621
1707006242148195800,9.99019580078125,1.2729816436767578,4.673182487487793,9.038887977600098
1707006242167154200,10.009154296875,1.1473584175109863,4.095315933227539,8.688339233398438
1707006242186113000,10.028113037109375,1.0408778190612793,3.087937593460083,8.285148620605469
1707006242205071600,10.047071533203125,0.7429714202880859,3.129812002182007,8.407182693481445
1707006242224030200,10.0660302734375,0.6951149702072144,3.87876558303833,8.534002304077148
1707006242242988800,10.08498876953125,0.6771687865257263,3.9661035537719727,8.343772888183594
1707006242261947400,10.103947509765625,0.6867401003837585,3.937389612197876,8.569893836975098
1707006242280906000,10.122906005859376,0.48454657196998596,4.187439441680908,9.300901412963867
1707006242299864600,10.141864501953124,0.4211367964744568,4.1623148918151855,9.174081802368164
1707006242318823200,10.1608232421875,0.7704889178276062,3.5748770236968994,8.557929992675781
1707006242337781800,10.17978173828125,0.8147560954093933,3.2027931213378906,8.065009117126465
1707006242356740400,10.198740234375,0.7585247755050659,3.2231321334838867,8.940781593322754
1707006242375699000,10.217698974609375,0.6209374666213989,3.0173492431640625,9.992427825927734
1707006242394657500,10.236657470703125,0.5515456199645996,2.957528829574585,9.282955169677734
1707006242413616000,10.2556162109375,0.31106695532798767,3.06999135017395,8.274380683898926
1707006242432574700,10.27457470703125,0.16151553392410278,3.221935749053955,8.080561637878418
1707006242451533300,10.293533203125,-0.003589233849197626,3.0113673210144043,8.396414756774902
1707006242470492000,10.312491943359374,0.0011964113218709826,2.9551360607147217,8.959924697875977
1707006242489450500,10.331450439453125,-0.13639089465141296,2.940778970718384,9.670592308044434
1707006242508409000,10.3504091796875,-0.17108681797981262,2.4430718421936035,8.956335067749023
1707006242527367700,10.36936767578125,-0.6508477330207825,2.091326951980591,8.342576026916504
1707006242546326300,10.388326171875,-0.6376872062683105,2.2372891902923584,9.032905578613281
1707006242565284900,10.407284912109375,-0.26440688967704773,2.475374937057495,9.164510726928711
1707006242584243500,10.426243408203124,-0.6831508874893188,2.276770830154419,8.886942863464355
1707006242603202000,10.4452021484375,-1.01814603805542,2.2755744457244873,9.131011009216309
1707006242622160600,10.46416064453125,-0.8051848411560059,2.6117658615112305,9.979267120361328
1707006242641119200,10.483119140625,-0.5575276613235474,3.136990547180176,10.278369903564453
1707006242660077800,10.502077880859375,-0.7262216806411743,2.950350284576416,10.14437198638916
1707006242679036200,10.5210361328125,-0.5264210104942322,2.0315065383911133,9.78544807434082
1707006242697995000,10.5399951171875,-0.47976094484329224,0.8578268885612488,9.524630546569824
1707006242716953300,10.558953369140625,-0.9607182741165161,0.6149554252624512,9.674181938171387
1707006242735912200,10.577912109375,-0.8997012972831726,1.1078768968582153,10.109675407409668
1707006242754870800,10.596870849609376,-0.8590233325958252,1.9752750396728516,10.456634521484375
1707006242773829400,10.615829345703125,-0.7357929348945618,2.2648067474365234,10.138389587402344
1707006242792788000,10.6347880859375,-1.0839486122131348,1.4321043491363525,9.58325481414795
1707006242811746600,10.65374658203125,-1.0707881450653076,0.19142581522464752,9.631111145019531
1707006242830705200,10.672705078125,-0.9499505758285522,-0.22133609652519226,9.741181373596191
1707006242849663500,10.69166357421875,-0.9750752449035645,-0.15553347766399384,9.594022750854492
1707006242868622300,10.710622314453126,-1.0995019674301147,0.3361915946006775,10.063015937805176
1707006242887580700,10.72958056640625,-0.833898663520813,0.3409772217273712,10.74257755279541
1707006242906539500,10.74853955078125,-0.9080761671066284,-0.349352091550827,9.996016502380371
1707006242925497900,10.767497802734376,-1.4117653369903564,-1.301695466041565,9.05444049835205
1707006242944456700,10.786456787109374,-1.7647067308425903,-1.5900306701660156,8.550751686096191
1707006242963415000,10.8054150390625,-1.8843477964401245,-1.4464613199234009,9.399007797241211
1707006242982374000,10.824373779296875,-1.9310078620910645,-1.3902299404144287,10.125228881835938
1707006243001332200,10.843332275390624,-1.9441684484481812,-1.4093725681304932,10.351350784301758
1707006243020290800,10.862290771484375,-2.008774518966675,-1.892722725868225,9.908679008483887
1707006243039249400,10.88124951171875,-1.923829436302185,-2.6464617252349854,9.328418731689453
1707006243058208000,10.9002080078125,-1.5804593563079834,-3.2446675300598145,9.470791816711426
1707006243077166600,10.91916650390625,-1.5194423198699951,-3.5473594665527344,9.32602596282959
1707006243096125200,10.938125244140625,-1.9357935190200806,-3.2446675300598145,8.794819831848145
1707006243115083800,10.957083740234374,-2.449054002761841,-3.170490026473999,9.249456405639648
1707006243134042400,10.97604248046875,-2.0003998279571533,-3.812962770462036,9.56770133972168
1707006243153001000,10.9950009765625,-1.841277003288269,-4.265206336975098,8.848658561706543
1707006243171959600,11.01395947265625,-1.6462619304656982,-3.9900317192077637,9.572486877441406
1707006243190918100,11.032918212890625,-0.6675975322723389,-4.778466701507568,10.122836112976074
1707006243209876700,11.051876708984375,-0.13519448041915894,-5.745167255401611,9.177671432495117
1707006243228835300,11.07083544921875,-0.20458634197711945,-5.960521221160889,8.142775535583496
1707006243247794000,11.0897939453125,-0.9176474809646606,-5.02133846282959,8.562715530395508
1707006243266752500,11.10875244140625,-0.7597211599349976,-4.8813581466674805,9.814162254333496
1707006243285711000,11.127711181640626,-0.6197410821914673,-5.827719688415527,8.998209953308105
1707006243304669700,11.146669677734375,-0.8697910308837891,-6.567101955413818,7.6666035652160645
1707006243323628300,11.165628173828125,-0.8219345808029175,-7.039684295654297,7.112665176391602
1707006243342587100,11.184587158203126,-0.7034898400306702,-7.05763053894043,7.140182971954346
1707006243361545500,11.20354541015625,-1.4021940231323242,-6.302694797515869,8.02074146270752
1707006243380504300,11.22250439453125,-1.3399807214736938,-6.125626087188721,8.242077827453613
1707006243399462700,11.241462646484376,-0.9403793215751648,-6.673582553863525,7.219145774841309
1707006243418421500,11.26042138671875,-0.6364908218383789,-6.760920524597168,7.4261250495910645
1707006243437379800,11.2793798828125,0.06340979784727097,-7.596015453338623,7.916653633117676
1707006243456338700,11.298338623046876,0.39601215720176697,-7.82692289352417,7.433303356170654
1707006243475297000,11.317297119140624,0.11126625537872314,-6.98704195022583,6.673582553863525
1707006243494255900,11.336255859375,0.26919254660606384,-7.0683979988098145,6.952346324920654
1707006243513214500,11.35521435546875,0.5694918036460876,-7.52423095703125,7.1473612785339355
1707006243532173000,11.374173095703124,0.33379876613616943,-7.083951473236084,6.807580471038818
1707006243551131600,11.393131591796875,0.3900300860404968,-7.0648088455200195,7.060023307800293
1707006243570090200,11.41209033203125,0.5431707501411438,-7.605587005615234,7.714460372924805
1707006243589048800,11.431048828125,0.4749752879142761,-7.64028263092041,7.2921271324157715
1707006243608007400,11.45000732421875,0.21296121180057526,-7.823333740234375,5.794219970703125
1707006243626966000,11.468966064453125,-0.1698904037475586,-8.118846893310547,5.123033046722412
1707006243645924600,11.487924560546874,-0.5455635786056519,-7.369893550872803,5.944967746734619
1707006243664883200,11.50688330078125,-0.035892341285943985,-7.186842918395996,6.638886451721191
1707006243683841800,11.525841796875,1.0863415002822876,-8.566305160522461,6.703492641448975
1707006243702800400,11.54480029296875,0.882951557636261,-8.015955924987793,7.683353424072266
1707006243721759000,11.563759033203125,0.4905286431312561,-7.051648139953613,7.246663570404053
1707006243740717600,11.582717529296875,1.1282159090042114,-8.061419486999512,5.662614822387695
1707006243759676200,11.60167626953125,0.5874379873275757,-8.545966148376465,5.842076301574707
1707006243778634800,11.620634765625,-0.13040883839130402,-7.671389579772949,5.758327484130859
1707006243797593300,11.63959326171875,0.7417750358581543,-8.492127418518066,5.111069202423096
1707006243816552000,11.658552001953124,0.24406790733337402,-9.263813018798828,5.533402442932129
1707006243835510800,11.6775107421875,-0.20817556977272034,-9.360722541809082,5.527420520782471
1707006243854469400,11.696469482421875,0.5264210104942322,-8.556734085083008,5.373083114624023
1707006243873428000,11.715427978515624,0.8781659007072449,-8.090133666992188,5.617151260375977
1707006243892386600,11.734386474609375,1.9046868085861206,-8.073383331298828,4.627718925476074
1707006243911345200,11.75334521484375,2.2121646404266357,-7.636693477630615,4.122833251953125
1707006243930303700,11.7723037109375,3.1106693744659424,-7.605587005615234,4.518845558166504
1707006243949262300,11.791262451171875,3.8189449310302734,-8.044670104980469,6.156732559204102
1707006243968221000,11.810220947265625,2.572284460067749,-8.640482902526855,5.850451469421387
1707006243987179500,11.829179443359376,1.085145115852356,-8.053044319152832,4.559523582458496
1707006244006138400,11.848138427734375,0.46061834692955017,-8.256434440612793,4.068994998931885
1707006244025096700,11.8670966796875,1.1832507848739624,-8.755337715148926,3.345165967941284
1707006244044055600,11.8860556640625,2.4945175647735596,-9.32722282409668,4.264009952545166
1707006244063014100,11.90501416015625,1.5672988891601562,-9.41336441040039,5.720042705535889
1707006244081972700,11.92397265625,0.32662028074264526,-8.823533058166504,5.851647853851318
1707006244100931300,11.942931396484376,-0.23449662327766418,-8.846264839172363,5.8851470947265625
1707006244119890000,11.961889892578125,0.6424728631973267,-9.346364974975586,6.3254265785217285
1707006244138848500,11.9808486328125,1.3543375730514526,-7.915457248687744,6.93320369720459
1707006244157807000,11.99980712890625,2.4287149906158447,-7.8041911125183105,7.17368221282959
1707006244176766000,12.018765869140625,2.087737798690796,-8.050651550292969,8.848658561706543
1707006244195724300,12.037724365234375,0.10767702013254166,-6.516852378845215,8.353343963623047
1707006244214683100,12.05668310546875,-0.6759724020957947,-6.87099027633667,7.514659404754639
1707006244233641700,12.075641845703124,-1.3854442834854126,-7.908278942108154,7.295716285705566
1707006244252600300,12.094600341796875,-1.4967105388641357,-7.864011764526367,7.071987152099609
1707006244271559000,12.113558837890626,-1.0325030088424683,-7.891529083251953,7.304090976715088
1707006244290517500,12.132517578125,-0.5814558863639832,-7.027719974517822,8.555537223815918
1707006244309476000,12.15147607421875,-1.0911271572113037,-6.573083877563477,8.349754333496094
1707006244328435000,12.17043505859375,-1.031306505203247,-5.5968122482299805,8.094919204711914
1707006244347393500,12.1893935546875,-1.2251251935958862,-5.866004943847656,8.605786323547363
1707006244366352100,12.20835205078125,-2.135594129562378,-6.661618232727051,8.811569213867188
1707006244385310700,12.227310791015626,-3.0927233695983887,-6.275177478790283,7.8424763679504395
1707006244404269300,12.246269287109374,-3.469592809677124,-4.5714874267578125,8.670392990112305
1707006244423228000,12.265227783203125,-1.6462619304656982,-4.436293125152588,9.042476654052734
1707006244442186500,12.2841865234375,-1.3830515146255493,-4.972285270690918,9.418149948120117
1707006244461145300,12.303145263671874,-1.6809579133987427,-4.575077056884766,9.744770050048828
1707006244480104000,12.32210400390625,-1.0600204467773438,-3.1680972576141357,9.324830055236816
1707006244499062500,12.3410625,-0.638883650302887,-2.5710878372192383,9.857233047485352
1707006244518021000,12.360021240234374,-0.7202396392822266,-2.7146573066711426,10.262816429138184
1707006244536979700,12.378979736328125,-1.3304094076156616,-1.5182459354400635,10.401599884033203
1707006244555938300,12.397938232421875,-0.9607182741165161,-1.5278172492980957,10.26760196685791
1707006244574897000,12.41689697265625,-0.5359922647476196,-2.093719720840454,10.303494453430176
1707006244593855700,12.435855712890625,-0.05503492057323456,-2.076970100402832,9.602396965026855
1707006244612814300,12.454814453125,-1.0253244638442993,-0.8410771489143372,9.667003631591797
1707006244631773000,12.47377294921875,-2.1343977451324463,0.3002992272377014,9.768698692321777
1707006244650731500,12.4927314453125,-1.1114661693572998,-0.1986042857170105,10.341779708862305
1707006244669690000,12.511690185546875,-0.7848458290100098,-0.5479564070701599,9.399007797241211
1707006244688648700,12.530648681640624,-1.9657038450241089,0.7728816866874695,11.352746963500977
1707006244707607600,12.549607666015625,-0.4450650215148926,0.4749752879142761,10.63968563079834
1707006244726566100,12.568566162109375,-0.8925228714942932,-0.19740787148475647,9.7064847946167
1707006244745524700,12.587524658203124,-2.445464849472046,1.0360921621322632,9.950552940368652
1707006244764483300,12.6064833984375,-0.9128618240356445,-0.0849452018737793,9.321240425109863
1707006244783442000,12.62544189453125,-2.355733871459961,0.5096712112426758,7.156932353973389
1707006244802400800,12.64440087890625,-3.3643085956573486,1.2693923711776733,9.719645500183105
1707006244821359000,12.663359130859375,-2.148754835128784,-0.26440688967704773,8.360522270202637
1707006244840318000,12.68231787109375,-1.4165509939193726,1.568495273590088,8.13798999786377
1707006244859276500,12.701276611328124,-2.7086751461029053,4.692325115203857,10.222138404846191
1707006244878235100,12.720235107421875,-4.748556613922119,3.352344512939453,10.944770812988281
1707006244897193700,12.73919384765625,-2.6464617252349854,-0.672383189201355,8.458627700805664
1707006244916152300,12.75815234375,-1.306481122970581,2.7984061241149902,6.709474563598633
1707006244935111200,12.777111083984375,-2.575873613357544,6.692724704742432,10.327422142028809
1707006244954069500,12.796069580078125,-0.4259224236011505,3.3822548389434814,9.934999465942383
1707006244973028400,12.8150283203125,2.3306093215942383,2.366501569747925,8.042277336120605
1707006244991987000,12.833987060546875,0.26440688967704773,6.02393102645874,9.351150512695312
1707006245010945500,12.852945556640625,-1.9262222051620483,5.848058700561523,6.909275531768799
1707006245029904100,12.871904052734376,-1.8448662757873535,3.1585259437561035,7.8628153800964355
1707006245048862700,12.89086279296875,0.48574298620224,3.1824541091918945,8.017151832580566
1707006245067821600,12.909821533203125,0.6400800347328186,7.769495010375977,9.384650230407715
1707006245086780000,12.92877978515625,-1.1545369625091553,5.78345251083374,8.810373306274414
1707006245105738800,12.94773876953125,-0.34217363595962524,4.719842433929443,7.167700290679932
1707006245124697300,12.966697265625,-0.7262216806411743,1.5134602785110474,5.368297576904297
1707006245143656000,12.985656005859376,-1.2646067142486572,4.346562385559082,8.922835350036621
1707006245162614500,13.004614501953125,0.20338992774486542,6.44387149810791,9.402596473693848
1707006245181573400,13.023573486328125,-0.18903298676013947,4.604987144470215,7.176074981689453
1707006245200532000,13.042531982421876,-1.9202401638031006,3.1657042503356934,6.276373863220215
1707006245219490600,13.061490478515625,-1.6821542978286743,5.7032928466796875,7.549355506896973
1707006245238449200,13.08044921875,-0.11724831163883209,5.1840500831604,7.987242221832275
1707006245257407700,13.09940771484375,0.6891329288482666,3.64546537399292,7.668996810913086
1707006245276366300,13.118366455078124,0.4055834412574768,4.109673023223877,8.2695951461792
1707006245295325000,13.137324951171875,-0.727418065071106,4.085744857788086,7.714460372924805
1707006245314283800,13.15628369140625,-1.25144624710083,4.100101470947266,6.619743824005127
1707006245333242000,13.1752421875,-0.6879364848136902,4.216153621673584,7.056434154510498
1707006245352201000,13.194200927734375,-0.04426721855998039,4.540380954742432,7.841279983520508
1707006245371159600,13.21315966796875,-0.5694918036460876,4.425525665283203,7.688138961791992
1707006245390118100,13.2321181640625,-1.2993026971817017,4.0797624588012695,6.80159854888916
1707006245409076700,13.25107666015625,-2.2121646404266357,3.7196428775787354,6.997809886932373
1707006245428035300,13.270035400390626,-1.3076776266098022,4.164707660675049,7.0683979988098145
1707006245446994000,13.288993896484374,-1.0013962984085083,4.686343193054199,6.776473522186279
1707006245465952500,13.307952392578125,-1.0325030088424683,5.385047435760498,7.710870742797852
1707006245484911400,13.326911376953126,-0.9415757060050964,4.164707660675049,8.12123966217041
1707006245503870000,13.345869873046874,-0.9930213689804077,3.7806596755981445,8.073383331298828
1707006245522828500,13.36482861328125,-1.29810631275177,4.335794448852539,8.12123966217041
1707006245541787100,13.383787109375,-1.5469598770141602,3.759124279022217,7.690532207489014
1707006245560745700,13.402745849609374,-1.703689694404602,3.5341989994049072,7.741977691650391
1707006245579704300,13.421704345703125,-1.4967105388641357,3.6777684688568115,8.111668586730957
1707006245598663200,13.4406630859375,-1.2490534782409668,3.6430723667144775,8.380861282348633
1707006245617621800,13.459621826171874,-1.6007983684539795,3.6885361671447754,8.441878318786621
1707006245636580400,13.478580322265625,-1.5756736993789673,3.9732820987701416,9.474381446838379
1707006245655539000,13.4975390625,-1.5672988891601562,2.977867841720581,9.091529846191406
1707006245674497500,13.51649755859375,-1.552941918373108,2.5196423530578613,8.760123252868652
1707006245693456100,13.5354560546875,-1.1880364418029785,3.428914785385132,9.135796546936035
1707006245712414700,13.554414794921875,-1.9465612173080444,3.6131622791290283,10.155138969421387
1707006245731373600,13.57337353515625,-2.6117658615112305,1.576870083808899,10.683953285217285
1707006245750332000,13.592331787109375,-2.700300455093384,0.6867401003837585,9.578469276428223
1707006245769290800,13.611290771484375,-3.4205398559570312,1.3794622421264648,9.346364974975586
1707006245788249300,13.630249267578124,-3.2506494522094727,0.9463613629341125,10.132407188415527
1707006245807208000,13.6492080078125,-2.39401912689209,-0.20458634197711945,9.31884765625
1707006245826166500,13.66816650390625,-2.7349963188171387,0.3924229145050049,7.841279983520508
1707006245845125000,13.687125,-2.3270199298858643,1.5146567821502686,9.570094108581543
1707006245864083700,13.706083740234375,-2.029113531112671,1.0289137363433838,11.241480827331543
1707006245883042300,13.725042236328125,-1.7587246894836426,0.45104706287384033,10.559526443481445
1707006245902001200,13.744001220703124,-1.5840486288070679,0.26440688967704773,9.400203704833984
1707006245920959700,13.762959716796875,-1.4979069232940674,-0.2021935135126114,10.311869621276855
1707006245939918300,13.78191845703125,-1.0648061037063599,-0.550349235534668,11.426924705505371
1707006245958877000,13.800876953125,-1.2095718383789062,-0.5527420043945312,10.780862808227539
1707006245977835500,13.81983544921875,-1.612762451171875,-1.0803594589233398,9.408578872680664
1707006245996794000,13.838794189453125,-2.2337000370025635,-1.4775680303573608,9.351150512695312
1707006246015752700,13.857752685546876,-2.864208698272705,-1.95852530002594,10.311869621276855
1707006246034711300,13.876711181640625,-3.0317063331604004,-3.177668571472168,9.856036186218262
1707006246053670100,13.895670166015625,-2.5986053943634033,-2.9419753551483154,8.179863929748535
1707006246072628700,13.914628662109376,-1.8783657550811768,-2.5770699977874756,7.945367813110352
1707006246091587300,13.93358740234375,-1.872383713722229,-2.847458839416504,9.45763111114502
1707006246110546000,13.9525458984375,-1.3806586265563965,-3.487539052963257,10.654043197631836
1707006246129504500,13.97150439453125,-1.1665010452270508,-3.731606960296631,10.289137840270996
1707006246148463000,13.990463134765625,-1.4428720474243164,-3.4504501819610596,8.889336585998535
1707006246167421700,14.009421630859375,-2.0315065383911133,-3.387040376663208,8.85942554473877
1707006246186380300,14.02838037109375,-1.7575281858444214,-4.727021217346191,8.524430274963379
1707006246205339000,14.0473388671875,-2.252842426300049,-5.542973518371582,7.612765312194824
1707006246224297700,14.066297607421875,-3.014956474304199,-5.076373100280762,8.2157564163208
1707006246243256300,14.08525634765625,-2.0207388401031494,-4.941178798675537,9.181260108947754
1707006246262215000,14.10421484375,-1.7694923877716064,-5.824130535125732,8.203792572021484
1707006246281173500,14.123173583984375,-2.4837498664855957,-6.6939215660095215,7.299305438995361
1707006246300132000,14.142132080078126,-2.7601208686828613,-6.672386169433594,7.0025954246521
1707006246319090700,14.161090576171874,-1.8221344947814941,-6.323033809661865,8.039883613586426
1707006246338049300,14.18004931640625,-1.1485549211502075,-6.689135551452637,8.492127418518066
1707006246357008000,14.1990078125,-1.3399807214736938,-7.525427341461182,8.352147102355957
1707006246375966700,14.217966796875,-1.3028919696807861,-8.6967134475708,7.8903326988220215
1707006246394925300,14.23692529296875,-1.215553879737854,-8.93838882446289,7.183253765106201
1707006246413884000,14.2558837890625,-0.7848458290100098,-7.76470947265625,6.9068827629089355
1707006246432842500,14.274842529296874,0.12323036789894104,-8.608179092407227,6.179464340209961
1707006246451801000,14.293801025390625,-0.2021935135126114,-8.761320114135742,5.749952793121338
1707006246470759700,14.312759765625,-0.27756741642951965,-7.194021224975586,5.598008632659912
1707006246489718300,14.33171826171875,1.2275179624557495,-6.960721015930176,7.6474609375
1707006246508676900,14.3506767578125,1.397408366203308,-7.793423175811768,9.734002113342285
1707006246527635500,14.369635498046875,-0.5682953596115112,-10.426724433898926,7.2813591957092285
1707006246546594000,14.388593994140624,-0.9643075466156006,-9.708877563476562,4.535595417022705
1707006246565552600,14.407552734375,-1.4979069232940674,-8.498109817504883,3.5617165565490723
1707006246584511500,14.426511474609375,-1.1892328262329102,-8.679964065551758,3.9038901329040527
1707006246603469800,14.4454697265625,2.0159530639648438,-7.322037220001221,5.32403039932251
1707006246622428700,14.4644287109375,2.7565317153930664,-8.139185905456543,6.275177478790283
1707006246641387300,14.48338720703125,2.0961127281188965,-8.6967134475708,5.441278457641602
1707006246660345900,14.502345947265624,1.5433706045150757,-8.673981666564941,2.9383862018585205
1707006246679304400,14.521304443359375,0.9511470198631287,-6.756134510040283,3.5222349166870117
1707006246698263000,14.540262939453125,0.42352959513664246,-10.557133674621582,5.036891460418701
1707006246717221600,14.5592216796875,-0.9332008361816406,-11.559725761413574,4.163511276245117
1707006246736180200,14.57818017578125,-0.8063812255859375,-8.447860717773438,4.944767951965332
1707006246755138800,14.597138916015625,-0.7537391185760498,-8.629714965820312,6.5491557121276855
1707006246774097400,14.616097412109376,0.17587246000766754,-7.814958572387695,8.793622970581055
1707006246793056000,14.635055908203125,0.7680960893630981,-6.911668300628662,7.579265594482422
1707006246812014600,14.6540146484375,2.368894338607788,-7.793423175811768,5.7750773429870605
1707006246830973200,14.67297314453125,3.0580272674560547,-8.023134231567383,7.079165935516357
1707006246849932000,14.69193212890625,-0.5850451588630676,-7.3160552978515625,10.065408706665039
1707006246868890400,14.710890380859375,-2.108076810836792,-7.0648088455200195,8.067401885986328
1707006246887849200,14.72984912109375,-1.2574282884597778,-7.947760581970215,6.538387775421143
1707006246906807800,14.748807861328125,-1.195214867591858,-8.063812255859375,6.544369697570801
1707006246925766400,14.767766357421875,-1.9417755603790283,-6.595815658569336,7.992027759552002
1707006246944725000,14.78672509765625,-1.1389836072921753,-6.154339790344238,9.175278663635254
1707006246963683600,14.80568359375,0.45104706287384033,-6.646064758300781,8.61894702911377
1707006246982642200,14.82464208984375,-0.8937192559242249,-6.574280261993408,9.168100357055664
1707006247001600800,14.843600830078126,-1.9417755603790283,-4.253242015838623,10.271191596984863
1707006247020559400,14.862559326171874,-0.5455635786056519,-3.8799619674682617,9.367900848388672
1707006247039518000,14.88151806640625,-0.7465606927871704,-5.003392219543457,9.292527198791504
1707006247058476500,14.9004765625,-2.7326035499572754,-5.07517671585083,10.48534870147705
1707006247077435100,14.91943505859375,-2.6967110633850098,-3.6849467754364014,8.751749038696289
1707006247096393700,14.938393798828125,-1.6630117893218994,-3.6155550479888916,8.167900085449219
1707006247115352300,14.957352294921876,-2.1475582122802734,-4.66361141204834,9.126225471496582
1707006247134311000,14.976310791015624,-2.819941520690918,-3.2865419387817383,9.720842361450195
1707006247153269500,14.99526953125,-2.203789710998535,-2.26959228515625,9.512666702270508
1707006247172228000,15.01422802734375,-1.0528420209884644,-3.2315070629119873,10.000802040100098
1707006247191186700,15.033186767578124,-1.9525432586669922,-2.919243574142456,9.013762474060059
1707006247210145300,15.052145263671875,-3.332005500793457,-0.760917603969574,9.535398483276367
1707006247229103900,15.071103759765625,-1.8041882514953613,-1.038485050201416,10.012765884399414
1707006247248062500,15.0900625,-2.0997018814086914,-1.2789636850357056,9.678967475891113
1707006247267021000,15.10902099609375,-1.3363914489746094,-1.3004990816116333,10.147960662841797
1707006247285980000,15.12797998046875,-1.1150553226470947,-0.8757730722427368,8.616554260253906
1707006247304938200,15.146938232421874,-3.0305099487304688,0.08255238085985184,9.068798065185547
1707006247323897000,15.16589697265625,-3.9038901329040527,1.6785650253295898,8.451449394226074
1707006247342855700,15.184855712890625,-3.6047873497009277,0.5204389095306396,10.445867538452148
1707006247361814300,15.203814208984374,-0.9978070259094238,-1.592423439025879,8.57348346710205
1707006247380772900,15.22277294921875,-3.139383316040039,0.5862415432929993,9.641879081726074
1707006247399731500,15.2417314453125,-2.737389087677002,2.6979074478149414,9.729216575622559
1707006247418690000,15.26068994140625,-2.135594129562378,0.3086741268634796,8.227720260620117
1707006247437648600,15.279648681640625,-2.0099709033966064,1.0133603811264038,9.658628463745117
1707006247456607200,15.298607177734375,-1.7383856773376465,3.7292141914367676,9.2255277633667
1707006247475565800,15.31756591796875,-2.2791635990142822,2.9048867225646973,8.139185905456543
1707006247494524400,15.3365244140625,-4.320241451263428,2.2408783435821533,9.66221809387207
1707006247513483000,15.35548291015625,-2.3306093215942383,0.5910272002220154,8.797212600708008
1707006247532441600,15.374441650390626,0.1663011759519577,4.146761417388916,8.918049812316895
1707006247551400200,15.393400146484375,-2.2097716331481934,4.792823791503906,10.810772895812988
1707006247570358800,15.41235888671875,-2.1822543144226074,2.6572296619415283,7.657032489776611
1707006247589317400,15.4313173828125,0.13160525262355804,3.1728827953338623,6.869793891906738
1707006247608276000,15.45027587890625,-1.4189438819885254,5.340780258178711,9.492327690124512
1707006247627234600,15.469234619140625,-2.0338993072509766,2.968296527862549,9.547362327575684
1707006247646193200,15.488193115234376,-0.7968099117279053,3.487539052963257,7.521838188171387
1707006247665151700,15.50715185546875,-0.13160525262355804,6.308676719665527,7.836493968963623
1707006247684110300,15.5261103515625,-2.2719850540161133,4.028316974639893,8.403593063354492
1707006247703069000,15.54506884765625,-2.6668007373809814,3.0029923915863037,7.338787078857422
1707006247722027500,15.564027587890624,-1.7754744291305542,4.268795490264893,6.546762943267822
1707006247740986000,15.582986083984375,-1.9657038450241089,4.5786662101745605,8.762516975402832
1707006247759944700,15.60194482421875,-2.0745773315429688,4.560719966888428,9.09392261505127
1707006247778903300,15.6209033203125,-1.8065811395645142,3.9326040744781494,7.6498541831970215
1707006247797862000,15.63986181640625,-1.2179467678070068,4.254438877105713,6.646064758300781
1707006247816820500,15.658820556640626,-0.9511470198631287,4.852644443511963,6.900900363922119
1707006247835779000,15.677779052734374,-1.322034478187561,4.9878387451171875,7.684549808502197
1707006247854737700,15.696737548828125,-1.397408366203308,4.11924409866333,8.276773452758789
1707006247873696300,15.7156962890625,-1.5206388235092163,3.8009986877441406,7.501499176025391
1707006247892654800,15.73465478515625,-1.719243049621582,3.5198421478271484,7.196413993835449
1707006247911613400,15.753613525390625,-1.4344971179962158,3.4277184009552,7.408178806304932
1707006247930572000,15.772572021484375,-1.2897313833236694,3.9146578311920166,7.99083137512207
1707006247949530600,15.791530517578124,-0.8638089895248413,3.814159393310547,8.082955360412598
1707006247968489200,15.8104892578125,-0.8267202377319336,3.3690943717956543,7.910671710968018
1707006247987447800,15.82944775390625,-1.7623138427734375,3.8285162448883057,8.170292854309082
1707006248006406400,15.848406494140624,-1.97407865524292,4.0905303955078125,7.417750358581543
1707006248025365000,15.867364990234375,-1.7395820617675781,3.8392839431762695,6.902096748352051
1707006248044323600,15.886323486328125,-1.7156537771224976,4.0666022300720215,7.433303356170654
1707006248063282200,15.9052822265625,-1.6965112686157227,3.9158542156219482,8.423932075500488
1707006248082240800,15.92424072265625,-1.4488540887832642,3.655036687850952,8.70628547668457
1707006248101199400,15.943199462890625,-1.6546368598937988,3.3176486492156982,8.508877754211426
1707006248120158000,15.962157958984376,-1.950150489807129,3.324826955795288,8.614161491394043
1707006248139116500,15.981116455078125,-2.1128623485565186,3.641875982284546,8.48016357421875
1707006248158075100,16.0000751953125,-1.9752750396728516,3.2889347076416016,8.39282512664795
1707006248177033700,16.01903369140625,-1.8640087842941284,2.720639228820801,8.287541389465332
1707006248195992300,16.037992431640625,-1.8269200325012207,2.5328028202056885,8.912068367004395
1707006248214951000,16.056950927734373,-2.1415762901306152,2.557927370071411,9.404989242553711
1707006248233909500,16.075909423828126,-2.3700907230377197,2.1619153022766113,9.521040916442871
1707006248252868000,16.0948681640625,-2.383251428604126,1.8245272636413574,9.437292098999023
1707006248271826700,16.11382666015625,-2.5914268493652344,2.7589244842529297,9.907482147216797
1707006248290785300,16.132785400390624,-3.2243285179138184,3.0520453453063965,10.280762672424316
1707006248309743900,16.151743896484376,-3.6442689895629883,1.6211373805999756,9.787840843200684
1707006248328702500,16.170702392578125,-3.4432718753814697,0.28953152894973755,8.778069496154785
1707006248347661000,16.1896611328125,-2.669193744659424,-0.16749759018421173,7.654639720916748
1707006248366619600,16.20861962890625,-2.715853691101074,-0.40319061279296875,7.886743545532227
1707006248385578200,16.227578125,-2.720639228820801,-0.3170489966869354,9.45045280456543
1707006248404536800,16.246536865234376,-2.823530673980713,0.037088751792907715,10.273584365844727
1707006248423495400,16.265495361328124,-2.775674343109131,1.0396814346313477,10.310672760009766
1707006248442454000,16.2844541015625,-2.7290141582489014,1.2047861814498901,10.642078399658203
1707006248461412600,16.30341259765625,-2.311466693878174,-1.2502498626708984,10.663614273071289
1707006248480371200,16.32237109375,-2.194218397140503,-2.8319056034088135,9.04845905303955
1707006248499329800,16.341329833984375,-2.902493953704834,-1.3722838163375854,9.06999397277832
1707006248518288400,16.360288330078124,-2.3880369663238525,-0.47617170214653015,9.7005033493042
1707006248537247000,16.3792470703125,-2.427518606185913,-1.6235301494598389,9.030512809753418
1707006248556205600,16.39820556640625,-2.9599215984344482,-2.5124638080596924,9.300901412963867
1707006248575164400,16.417164306640625,-2.8450660705566406,-2.008774518966675,9.737591743469238
1707006248594122800,16.436122802734374,-2.0925233364105225,-1.6965112686157227,9.633503913879395
1707006248613081600,16.45508154296875,-1.7443677186965942,-2.7732813358306885,9.089137077331543
1707006248632040200,16.474040283203124,-2.007578134536743,-3.7710886001586914,9.294919967651367
1707006248650998800,16.492998779296876,-1.6402798891067505,-3.570091485977173,10.146764755249023
1707006248669957400,16.511957275390625,-1.648654818534851,-3.4719855785369873,9.573683738708496
1707006248688916000,16.530916015625,-1.92741858959198,-4.013959884643555,9.243474006652832
1707006248707874600,16.54987451171875,-1.9226330518722534,-4.4135613441467285,8.73499870300293
1707006248726833200,16.568833251953127,-2.1200408935546875,-4.468596458435059,8.827122688293457
1707006248745791700,16.587791748046875,-1.9716858863830566,-4.962714195251465,8.82233715057373
1707006248764750300,16.606750244140624,-2.3401806354522705,-4.84187650680542,7.646264553070068
1707006248783709000,16.625708984375,-2.076970100402832,-5.058426856994629,8.684749603271484
1707006248802667500,16.64466748046875,-1.430907964706421,-6.2536420822143555,9.200403213500977
1707006248821626000,16.663626220703126,-1.6917256116867065,-7.341179847717285,8.565108299255371
1707006248840584700,16.682584716796875,-2.6117658615112305,-7.544569969177246,7.207181930541992
1707006248859543600,16.70154345703125,-3.219542980194092,-7.001399040222168,7.020541667938232
1707006248878502000,16.720501953125,-2.6632115840911865,-7.404589653015137,6.93320369720459
1707006248897460700,16.739460693359376,-2.410768747329712,-7.549355506896973,6.271588325500488
1707006248916419300,16.75841943359375,-2.063809633255005,-6.952346324920654,6.716653347015381
1707006248935378000,16.7773779296875,-1.2765709161758423,-7.312466144561768,7.384250640869141
1707006248954336500,16.79633642578125,-0.38644084334373474,-8.880961418151855,6.988238334655762
1707006248973295000,16.815295166015623,0.3888336718082428,-8.324629783630371,6.900900363922119
1707006248992253700,16.834253662109376,2.2265214920043945,-6.951149940490723,8.958727836608887
1707006249011212500,16.853212646484376,1.9968105554580688,-9.410971641540527,9.347561836242676
1707006249030171000,16.8721708984375,0.21176479756832123,-10.53799057006836,6.110072612762451
1707006249049129700,16.891129638671874,-1.4009976387023926,-9.29731273651123,3.2518460750579834
1707006249068088300,16.91008837890625,-2.7625136375427246,-8.428717613220215,3.0281169414520264
1707006249087047000,16.929046875,-2.6177480220794678,-8.640482902526855,2.256431818008423
1707006249106005500,16.948005615234376,-1.672582983970642,-9.270991325378418,4.009174346923828
1707006249124964000,16.966964111328124,0.37806597352027893,-8.669196128845215,6.892525672912598
1707006249143922700,16.985922607421877,4.277170658111572,-7.530212879180908,7.8317084312438965
1707006249162881300,17.00488134765625,3.996013879776001,-7.658228874206543,8.793622970581055
1707006249181840100,17.023840087890626,1.1282159090042114,-8.83071231842041,4.3549370765686035
1707006249200798700,17.042798828125,-0.5072783827781677,-9.181260108947754,2.001596212387085
1707006249219757300,17.06175732421875,-0.6616154313087463,-9.241081237792969,4.158725738525391
1707006249238716000,17.0807158203125,-0.6580262184143066,-8.484949111938477,6.819544315338135
1707006249257674500,17.099674560546877,-1.4524433612823486,-9.095118522644043,7.652246952056885
1707006249276633000,17.118633056640626,-0.9595218896865845,-8.403593063354492,6.2189459800720215
1707006249295591700,17.137591796875,0.37447673082351685,-7.377072334289551,5.670989513397217
1707006249314550500,17.156550537109375,0.4163511395454407,-8.593822479248047,5.828916072845459
1707006249333509000,17.175509033203124,-0.6891329288482666,-8.553144454956055,6.374479293823242
1707006249352467700,17.1944677734375,-0.50129634141922,-7.027719974517822,6.812366008758545
1707006249371426300,17.21342626953125,0.5216353535652161,-7.584051132202148,8.175078392028809
1707006249390385000,17.232385009765625,-1.2287144660949707,-8.079365730285645,9.686145782470703
1707006249409343500,17.251343505859374,-2.2444677352905273,-7.568498134613037,7.836493968963623
1707006249428302300,17.27030224609375,-1.246660590171814,-7.293323516845703,5.720042705535889
1707006249447261000,17.289260986328124,-1.3710874319076538,-6.681957244873047,7.159325122833252
1707006249466219500,17.308219482421876,-2.2612173557281494,-6.378068923950195,9.140582084655762
1707006249485178000,17.32717822265625,-1.9298114776611328,-6.169893264770508,9.035298347473145
1707006249504136700,17.34613671875,-1.4081761837005615,-5.830112457275391,8.21695327758789
1707006249523095600,17.365095458984374,-2.1296122074127197,-5.401797294616699,8.58066177368164
1707006249542054100,17.38405419921875,-2.4598217010498047,-4.833501815795898,8.9312105178833
1707006249561012700,17.4030126953125,-1.4620146751403809,-5.0464630126953125,8.48853874206543
1707006249579971300,17.421971435546876,-0.7956135272979736,-5.553741455078125,9.153742790222168
1707006249598930000,17.440929931640625,-3.2279176712036133,-4.187439441680908,10.650453567504883
1707006249617888800,17.459888671875,-3.6634113788604736,-2.592623233795166,9.957731246948242
1707006249636847400,17.478847412109374,-1.0803594589233398,-3.64546537399292,7.95134973526001
1707006249655806000,17.497805908203127,-1.31365966796875,-4.2209391593933105,8.846264839172363
1707006249674764500,17.5167646484375,-3.6059837341308594,-2.700300455093384,10.262816429138184
1707006249693723100,17.53572314453125,-2.4538395404815674,-2.1332013607025146,9.437292098999023
1707006249712681700,17.554681640625,-1.8867406845092773,-2.5160529613494873,9.680164337158203
1707006249731640300,17.573640380859374,-2.9934210777282715,-1.8544375896453857,10.353743553161621
1707006249750599200,17.59259912109375,-3.376272678375244,-0.7680960893630981,10.242477416992188
1707006249769557800,17.611557861328127,-2.4717857837677,-1.4524433612823486,8.6907320022583
1707006249788516400,17.630516357421875,-2.455035924911499,-1.069591760635376,9.286544799804688
1707006249807475000,17.649474853515624,-2.612962245941162,-0.9343972206115723,10.169496536254883
1707006249826433800,17.668433837890625,-2.706282377243042,0.21176479756832123,8.81515884399414
1707006249845392400,17.687392333984373,-2.256431818008423,1.100698471069336,9.647860527038574
1707006249864351000,17.70635107421875,-3.38105845451355,-0.2991028428077698,9.832108497619629
1707006249883309600,17.7253095703125,-2.6249263286590576,1.2203395366668701,7.861618995666504
1707006249902268200,17.74426806640625,-2.3605196475982666,1.5242279767990112,8.670392990112305
1707006249921227000,17.76322705078125,-3.7710886001586914,0.5060819983482361,9.718449592590332
1707006249940185600,17.782185546875,-2.181057929992676,0.7465606927871704,7.7838521003723145
1707006249959144200,17.801144287109373,-1.3351950645446777,2.915654420852661,7.39980411529541
1707006249978102800,17.820102783203126,-4.369294166564941,2.6153552532196045,10.224531173706055
1707006249997061400,17.839061279296875,-5.015356063842773,1.2873386144638062,10.798809051513672
1707006250016020200,17.858020263671875,-2.1332013607025146,1.8592232465744019,5.312066078186035
1707006250034978600,17.876978515625,-2.4634108543395996,4.023531436920166,6.173482418060303
1707006250053937400,17.8959375,-3.946960926055908,2.871387243270874,10.542776107788086
1707006250072896000,17.91489599609375,-2.885744094848633,2.307877540588379,8.271987915039062
1707006250091854600,17.9338544921875,-3.1657042503356934,4.569094657897949,8.609375953674316
1707006250110813200,17.952813232421875,-1.428515076637268,3.761517286300659,10.145567893981934
1707006250129772000,17.97177197265625,-0.9942178130149841,1.7575281858444214,7.546962738037109
1707006250148730600,17.990730712890624,-1.1222338676452637,2.9934210777282715,7.3878397941589355
1707006250167689200,18.009689208984376,-2.3222343921661377,4.956732273101807,7.568498134613037
1707006250186647800,18.028647705078125,-2.919243574142456,4.642076015472412,9.113064765930176
1707006250205606400,18.0476064453125,-2.2755744457244873,4.080958843231201,8.751749038696289
1707006250224565200,18.066565185546875,-1.7754744291305542,3.7256247997283936,7.313662528991699
1707006250243523800,18.08552392578125,-1.9010975360870361,3.7112679481506348,6.476174354553223
1707006250262482400,18.104482421875,-3.071187973022461,3.428914785385132,7.3986077308654785
1707006250281441000,18.12344091796875,-3.22552490234375,4.384847640991211,8.648857116699219
1707006250300399600,18.142399658203125,-2.8247270584106445,4.577469825744629,8.489734649658203
1707006250319358500,18.1613583984375,-2.159522533416748,3.0448668003082275,6.973881721496582
1707006250338317000,18.180317138671874,-2.3222343921661377,2.4083759784698486,6.128018856048584
1707006250357275600,18.199275634765623,-2.641676187515259,3.555734395980835,7.2813591957092285
1707006250376234200,18.218234130859376,-2.616551637649536,4.671986103057861,8.353343963623047
1707006250395192800,18.23719287109375,-2.2468605041503906,3.8392839431762695,7.689335346221924
1707006250414151400,18.2561513671875,-1.8041882514953613,3.174079179763794,7.410571575164795
1707006250433110000,18.275110107421874,-1.8687944412231445,3.6119658946990967,8.076972961425781
1707006250452068900,18.29406884765625,-2.190629243850708,4.260420799255371,8.779266357421875
1707006250471027500,18.31302734375,-2.148754835128784,4.201796531677246,8.797212600708008
1707006250489986000,18.331986083984376,-2.2480568885803223,3.796213150024414,8.105687141418457
1707006250508944600,18.350944580078124,-2.5328028202056885,3.401397466659546,7.635497093200684
1707006250527903500,18.369903564453125,-2.4646072387695312,3.4133615493774414,7.981259822845459
1707006250546862000,18.388862060546874,-2.289931297302246,3.462414264678955,8.201399803161621
1707006250565820700,18.407820556640626,-2.438286304473877,3.3714871406555176,8.237292289733887
1707006250584779300,18.426779296875,-2.8582265377044678,3.3020951747894287,8.352147102355957
1707006250603737900,18.44573779296875,-2.819941520690918,2.9491539001464844,8.483752250671387
1707006250622696700,18.46469677734375,-2.6727828979492188,2.3533411026000977,8.538787841796875
1707006250641655300,18.4836552734375,-2.620140790939331,2.33180570602417,8.988637924194336
1707006250660614000,18.50261376953125,-2.6560330390930176,2.647658348083496,8.924032211303711
1707006250679572500,18.521572509765626,-2.8043880462646484,2.2504496574401855,8.709874153137207
1707006250698531000,18.540531005859375,-2.589034080505371,2.0231316089630127,8.685946464538574
1707006250717489700,18.55948974609375,-2.830709218978882,1.7922241687774658,8.868997573852539
1707006250736448300,18.5784482421875,-2.772084951400757,1.29810631275177,9.376275062561035
1707006250755407000,18.597406982421877,-2.6141586303710938,1.3543375730514526,9.6466646194458
1707006250774365700,18.61636572265625,-2.482553482055664,1.5002998113632202,9.68494987487793
1707006250793324300,18.63532421875,-2.682354211807251,0.9882357716560364,9.651450157165527
1707006250812283000,18.654282958984375,-2.89172625541687,0.8434699773788452,9.610772132873535
1707006250831241500,18.673241455078124,-2.837887763977051,0.6711867451667786,10.350153923034668
1707006250850200300,18.692200439453124,-2.7768707275390625,0.5611169338226318,10.575079917907715
1707006250869159000,18.711158935546877,-3.2482566833496094,0.9355936646461487,9.638289451599121
1707006250888117500,18.730117431640625,-3.7292141914367676,0.4223332107067108,7.964509963989258
1707006250907076000,18.749076171875,-3.7567315101623535,-0.6903293132781982,7.506284713745117
1707006250926034700,18.76803466796875,-3.4133615493774414,-1.7324036359786987,7.867600917816162
1707006250944993300,18.7869931640625,-3.466003656387329,-2.306680917739868,8.242077827453613
1707006250963952000,18.8059521484375,-3.1692936420440674,-2.410768747329712,8.922835350036621
1707006250982910700,18.82491064453125,-3.136990547180176,-2.2396819591522217,10.27597713470459
1707006251001869300,18.843869384765625,-2.792423963546753,-1.7838492393493652,10.41476058959961
1707006251020828000,18.862827880859374,-3.073580741882324,-1.5397813320159912,9.528220176696777
1707006251039786500,18.881786376953126,-2.7493531703948975,-2.5902304649353027,9.376275062561035
1707006251058745300,18.900745361328124,-2.069791555404663,-3.5330026149749756,9.144171714782715
1707006251077703700,18.91970361328125,-2.273181438446045,-3.4923245906829834,9.339186668395996
1707006251096662500,18.93866259765625,-2.297109842300415,-3.899104595184326,10.009177207946777
1707006251115621000,18.95762109375,-2.2683959007263184,-3.9804604053497314,9.524630546569824
1707006251134579700,18.976579833984374,-1.950150489807129,-3.8703906536102295,8.941978454589844
1707006251153538300,18.995538330078126,-2.122433662414551,-3.4911282062530518,8.897710800170898
1707006251172497000,19.014496826171875,-2.018345832824707,-3.8297126293182373,9.381061553955078
1707006251191455700,19.033455810546876,-2.0398812294006348,-4.711467742919922,8.933603286743164
1707006251210414300,19.052414306640625,-1.8185452222824097,-5.5728840827941895,8.264809608459473
1707006251229373000,19.071373046875,-1.0636097192764282,-5.825326919555664,8.921639442443848
1707006251248331500,19.09033154296875,-0.04307080805301666,-5.866004943847656,9.912267684936523
1707006251267290000,19.1092900390625,-1.7276179790496826,-5.535795211791992,9.743574142456055
1707006251286248700,19.128248779296875,-3.2650065422058105,-5.8612189292907715,8.959924697875977
1707006251305207600,19.14720751953125,-3.7232320308685303,-5.787041664123535,7.2574310302734375
1707006251324166100,19.166166259765625,-2.258824586868286,-6.355337142944336,5.079962253570557
1707006251343124700,19.185124755859373,-1.7048860788345337,-8.309076309204102,5.497509956359863
1707006251362083300,19.204083251953126,-1.4057832956314087,-9.89551830291748,6.283552169799805
1707006251381042000,19.2230419921875,-0.8027920126914978,-9.116654396057129,6.7932233810424805
1707006251400000500,19.24200048828125,-0.6317051649093628,-7.146164894104004,8.23968505859375
1707006251418959000,19.260958984375,-0.2476571500301361,-8.803194046020508,7.661818027496338
1707006251437917700,19.279917724609376,0.2679961323738098,-9.370293617248535,6.067001819610596
1707006251456876300,19.298876220703125,-0.017946170642971992,-7.304090976715088,5.947360515594482
1707006251475835100,19.317835205078126,-0.8757730722427368,-8.389236450195312,5.076373100280762
1707006251494793700,19.336793701171874,-1.970489501953125,-10.036694526672363,3.31884503364563
1707006251513752300,19.35575244140625,-2.6668007373809814,-10.237691879272461,5.614758491516113
1707006251532711000,19.3747109375,-2.0518453121185303,-8.529216766357422,6.251249313354492
1707006251551669500,19.39366943359375,-0.33020952343940735,-8.34855842590332,4.920839786529541
1707006251570628000,19.412628173828125,-0.23330020904541016,-6.795616149902344,5.9198431968688965
1707006251589586700,19.431586669921874,1.4225330352783203,-7.380661487579346,5.040481090545654
1707006251608545500,19.450545654296874,2.348555326461792,-9.663414001464844,6.561119556427002
1707006251627503900,19.46950390625,2.445464849472046,-7.822137355804443,7.463213920593262
1707006251646462700,19.488462646484376,-0.4713860750198364,-7.992027759552002,6.8410797119140625
1707006251665421300,19.50742138671875,-2.344966173171997,-7.759923934936523,6.4594244956970215
1707006251684380000,19.5263798828125,-0.7752745151519775,-8.209774017333984,5.794219970703125
1707006251703338500,19.54533837890625,-0.24047867953777313,-9.087940216064453,6.234499454498291
1707006251722297000,19.564297119140626,-1.4572290182113647,-8.11406135559082,6.8279194831848145
1707006251741255700,19.583255615234375,-1.4177473783493042,-8.434700012207031,5.170889854431152
1707006251760214500,19.602214599609376,-1.074377417564392,-8.756534576416016,4.5714874267578125
1707006251779172900,19.6211728515625,-1.3830515146255493,-7.244270324707031,6.929614543914795
1707006251798131700,19.640131591796877,-0.3888336718082428,-6.271588325500488,8.544769287109375
1707006251817090300,19.65909033203125,0.7202396392822266,-6.873383045196533,8.586644172668457
1707006251836049000,19.678048828125,1.306481122970581,-7.1270222663879395,8.778069496154785
1707006251855007500,19.697007568359375,0.4259224236011505,-7.09711217880249,8.486145973205566
1707006251873966000,19.715966064453124,-1.7168502807617188,-6.169893264770508,9.07119083404541
1707006251892924700,19.734924560546876,-1.4009976387023926,-6.087340831756592,8.520841598510742
1707006251911883300,19.75388330078125,-0.9200403094291687,-6.512066841125488,6.989434719085693
1707006251930841900,19.772841796875,-1.7742780447006226,-5.600401401519775,8.191828727722168
1707006251949800400,19.791800537109374,-1.2430713176727295,-6.029912948608398,9.1716890335083
1707006251968759000,19.810759033203126,-1.0109676122665405,-7.518248558044434,8.642875671386719
1707006251987717600,19.829717529296875,-4.0319061279296875,-6.129215240478516,8.403593063354492
1707006252006676500,19.848676513671876,-4.024727821350098,-3.665804386138916,7.470392227172852
1707006252025634800,19.867634765625,-0.8614161610603333,-5.222335338592529,7.3292155265808105
1707006252044593700,19.88659375,-0.04546362906694412,-6.8554368019104,9.299705505371094
1707006252063552300,19.90555224609375,-2.1415762901306152,-4.435096740722656,10.749755859375
1707006252082510800,19.9245107421875,-2.4610180854797363,-1.9214365482330322,9.998409271240234
1707006252101469400,19.943469482421875,-2.1332013607025146,-3.276970624923706,8.848658561706543
1707006252120428000,19.962427978515624,-3.3439695835113525,-5.126622676849365,8.701499938964844
1707006252139386600,19.98138671875,-4.156332969665527,-3.2207393646240234,7.661818027496338
1707006252158345200,20.00034521484375,-1.6019947528839111,-2.4131617546081543,9.022137641906738
1707006252177303800,20.0193037109375,-1.5170495510101318,-0.6687939167022705,10.900503158569336
1707006252196262400,20.038262451171875,-1.196411371231079,-0.7932206988334656,12.88654613494873
1707006252215221000,20.057220947265623,-0.8315058946609497,-3.284149169921875,10.846665382385254
1707006252234179800,20.076179931640624,-0.7597211599349976,-2.9383862018585205,8.908478736877441
1707006252253138200,20.09513818359375,-3.067598581314087,0.3206382393836975,7.99083137512207
1707006252272097000,20.114096923828125,-3.456432342529297,0.5587241053581238,10.533205032348633
1707006252291055400,20.133055419921874,-1.7754744291305542,-1.482353687286377,10.022337913513184
1707006252310014200,20.15201416015625,-2.5710878372192383,-0.8159525394439697,10.0343017578125
1707006252328972800,20.170972900390623,-4.475774765014648,0.7740781307220459,9.597611427307129
1707006252347931400,20.189931396484376,-5.2115678787231445,0.9786644577980042,8.441878318786621
1707006252366890000,20.208889892578124,-3.434896945953369,0.46779683232307434,8.662017822265625
1707006252385848600,20.2278486328125,-2.417947292327881,1.168893814086914,8.95513916015625
1707006252404807200,20.24680712890625,-3.4887354373931885,2.008774518966675,9.026923179626465
1707006252423765800,20.265765869140626,-1.9657038450241089,1.6007983684539795,9.806983947753906
1707006252442724400,20.284724365234375,-1.573280930519104,2.392822742462158,9.212367057800293
1707006252461683000,20.303682861328124,-2.6452653408050537,4.357329845428467,8.50169849395752
1707006252480641500,20.3226416015625,-3.5437703132629395,4.47697114944458,9.390632629394531
1707006252499600100,20.34160009765625,-2.142772674560547,2.11405873298645,8.429914474487305
1707006252518558700,20.360558837890625,-2.018345832824707,3.3020951747894287,9.33320426940918
1707006252537517300,20.379517333984374,-2.447857618331909,4.454239368438721,9.359525680541992
1707006252556476000,20.398475830078127,-3.2554352283477783,1.934597134590149,7.179664134979248
1707006252575434500,20.4174345703125,-1.939382791519165,3.5341989994049072,8.155936241149902
1707006252594393000,20.43639306640625,-1.801795482635498,5.371886730194092,8.303094863891602
1707006252613351700,20.4553515625,-2.0063817501068115,4.852644443511963,7.433303356170654
1707006252632310300,20.474310302734374,-2.139183521270752,4.738985061645508,7.089933395385742
1707006252651268900,20.493268798828126,-1.0061819553375244,5.447260856628418,7.685746192932129
1707006252670227500,20.5122275390625,-1.2610175609588623,4.5583271980285645,8.34018325805664
1707006252689186000,20.53118603515625,-2.0003998279571533,4.572684288024902,7.846065521240234
1707006252708144600,20.55014453125,-2.001596212387085,5.948556900024414,7.168896675109863
1707006252727103200,20.569103271484376,-1.6809579133987427,5.146961688995361,7.322037220001221
1707006252746061800,20.588061767578125,-1.719243049621582,3.950550079345703,6.540780544281006
1707006252765020400,20.6070205078125,-2.2648067474365234,4.3657050132751465,6.516852378845215
1707006252783979000,20.62597900390625,-2.0207388401031494,5.236692428588867,7.326822757720947
1707006252802937900,20.644937744140623,-1.92741858959198,5.172086238861084,7.624729156494141
1707006252821896200,20.663896240234376,-1.836491346359253,4.614558696746826,7.1162543296813965
1707006252840855000,20.68285498046875,-1.7635103464126587,3.7459638118743896,6.439085960388184
1707006252859813400,20.7018134765625,-1.6115660667419434,4.179064750671387,6.447460651397705
1707006252878772200,20.720772216796874,-1.7180466651916504,4.5475592613220215,6.67717170715332
1707006252897730600,20.73973046875,-1.8903298377990723,3.834498405456543,6.196214199066162
1707006252916689400,20.758689453125,-1.5876377820968628,4.398007869720459,6.928418159484863
1707006252935647700,20.777647705078124,-1.1210373640060425,4.627718925476074,7.499105930328369
1707006252954606600,20.796606689453125,-1.1318050622940063,4.668396949768066,7.658228874206543
1707006252973565000,20.81556494140625,-1.435693621635437,4.90408992767334,7.356733322143555
1707006252992523800,20.834523681640626,-1.404586911201477,5.19960355758667,7.306483745574951
1707006253011482000,20.853482177734374,-1.3555340766906738,5.0979084968566895,7.427321434020996
1707006253030441000,20.87244091796875,-1.451246976852417,4.780859470367432,7.70249605178833
1707006253049399300,20.8913994140625,-1.6271194219589233,4.459024906158447,7.776673793792725
1707006253068358100,20.910358154296876,-1.8400806188583374,4.252045631408691,7.816154956817627
1707006253087316500,20.92931640625,-1.8831514120101929,4.091726779937744,7.921439170837402
1707006253106275300,20.948275390625,-1.9465612173080444,3.8153557777404785,8.171489715576172
1707006253125233700,20.967233642578126,-2.063809633255005,3.814159393310547,8.103293418884277
1707006253144192500,20.986192626953127,-2.097309112548828,4.204189300537109,7.970492362976074
1707006253163150800,21.00515087890625,-2.2229323387145996,4.508078098297119,7.953742504119873
1707006253182109700,21.024109619140624,-2.149951219558716,4.158725738525391,8.076972961425781
1707006253201068300,21.043068359375,-2.128415822982788,3.867997884750366,8.763712882995605
1707006253220027000,21.06202685546875,-2.524427890777588,3.363112211227417,9.430113792419434
1707006253238985500,21.0809853515625,-2.691925525665283,2.968296527862549,9.17288589477539
1707006253257944000,21.099944091796875,-2.682354211807251,3.5126636028289795,8.656036376953125
1707006253276902700,21.118902587890624,-3.029313564300537,3.0484559535980225,9.403793334960938
1707006253295861200,21.137861328125,-2.878565549850464,2.444268226623535,9.596415519714355
1707006253314819800,21.15681982421875,-2.737389087677002,2.909672260284424,9.357132911682129
1707006253333778400,21.1757783203125,-2.6572296619415283,2.671586513519287,9.384650230407715
1707006253352737000,21.194737060546874,-3.078366279602051,1.6558332443237305,9.29611587524414
1707006253371695600,21.213695556640626,-3.568894863128662,1.6187444925308228,8.835497856140137
1707006253390654200,21.232654296875,-4.130012035369873,1.1976077556610107,8.863015174865723
1707006253409612800,21.25161279296875,-4.253242015838623,0.48454657196998596,7.9142608642578125
1707006253428571400,21.2705712890625,-4.872983455657959,-0.28953152894973755,7.898707389831543
1707006253447530000,21.289530029296873,-4.575077056884766,-0.29790642857551575,8.621339797973633
1707006253466488600,21.308488525390626,-3.603590965270996,0.08733802288770676,9.633503913879395
1707006253485447200,21.327447265625,-2.6321048736572266,-0.32542386651039124,9.992427825927734
1707006253504405800,21.34640576171875,-1.9609181880950928,-0.9523434042930603,10.066604614257812
1707006253523364600,21.365364501953124,-1.8843477964401245,-0.7034898400306702,10.094121932983398
1707006253542323000,21.384322998046876,-2.2325034141540527,-0.6376872062683105,10.869397163391113
1707006253561281800,21.40328173828125,-2.392822742462158,-1.100698471069336,9.908679008483887
1707006253580240400,21.422240478515626,-3.0939197540283203,-1.5708880424499512,9.073583602905273
1707006253599199000,21.441198974609375,-3.3714871406555176,-2.3676979541778564,9.020941734313965
1707006253618157600,21.460157470703123,-3.025724172592163,-2.8893332481384277,9.638289451599121
1707006253637116200,21.4791162109375,-3.040081262588501,-3.0029923915863037,9.262616157531738
1707006253656074800,21.49807470703125,-2.4059832096099854,-3.1345977783203125,8.892925262451172
1707006253675033300,21.517033447265625,-1.9920248985290527,-4.159922122955322,8.207381248474121
1707006253693992000,21.535991943359374,-2.348555326461792,-4.898108005523682,8.055437088012695
1707006253712950500,21.554950439453126,-2.902493953704834,-4.319045066833496,8.895318031311035
1707006253731909000,21.5739091796875,-3.311666488647461,-3.4097721576690674,9.626325607299805
1707006253750868000,21.592867919921876,-3.544966697692871,-3.702893018722534,9.701699256896973
1707006253769826300,21.611826416015624,-2.8522446155548096,-5.002195835113525,9.321240425109863
1707006253788785200,21.63078515625,-2.2743778228759766,-6.3122663497924805,8.788837432861328
1707006253807743700,21.64974365234375,-2.3030917644500732,-6.368497371673584,8.321041107177734
1707006253826702300,21.668702392578126,-2.311466693878174,-6.008377552032471,8.109275817871094
1707006253845661000,21.687660888671875,-1.8987047672271729,-6.7178497314453125,7.825726509094238
1707006253864619500,21.70661962890625,-1.3435698747634888,-7.977670669555664,6.854240417480469
1707006253883578000,21.725578125,-1.062413215637207,-8.015955924987793,6.55992317199707
1707006253902536700,21.74453662109375,-1.0995019674301147,-7.451249599456787,6.805187702178955
1707006253921495600,21.76349560546875,-1.3399807214736938,-7.489534854888916,7.138986587524414
1707006253940454000,21.782453857421874,-2.554338216781616,-7.947760581970215,7.067201614379883
1707006253959412700,21.801412841796875,-3.2817561626434326,-7.402196884155273,7.0887370109558105
1707006253978371300,21.820371337890624,-3.7196428775787354,-7.195217609405518,7.259823799133301
1707006253997330000,21.839329833984376,-2.796013355255127,-8.681160926818848,6.394818305969238
1707006254016288500,21.85828857421875,-1.2430713176727295,-9.91825008392334,4.962714195251465
1707006254035247000,21.8772470703125,-0.6161518096923828,-8.645268440246582,5.077569484710693
1707006254054205700,21.896205810546874,0.8219345808029175,-7.557730197906494,6.5766730308532715
1707006254073164300,21.915164306640627,2.0745773315429688,-7.385447025299072,8.123632431030273
1707006254092123100,21.934123046875,2.321038007736206,-8.09252643585205,8.126026153564453
1707006254111081700,21.953081787109376,0.607776939868927,-9.20997428894043,7.8388872146606445
1707006254130040300,21.972040283203125,-2.0685951709747314,-8.560322761535645,6.772884368896484
1707006254148999000,21.9909990234375,-5.254638671875,-7.630711555480957,4.965106964111328
1707006254167957800,22.009957763671874,-3.812962770462036,-7.731209754943848,3.3415768146514893
1707006254186916400,22.028916259765627,-0.031106693670153618,-8.38564682006836,3.1680972576141357
1707006254205875000,22.047875,2.451446771621704,-9.091529846191406,5.2283172607421875
1707006254224833500,22.06683349609375,1.8496519327163696,-8.031509399414062,6.821937561035156
1707006254243792100,22.085792236328125,-0.07537391036748886,-8.709874153137207,5.041677474975586
1707006254262750700,22.104750732421873,0.45583271980285645,-9.863214492797852,4.006781578063965
1707006254281709300,22.123709228515626,0.9631111025810242,-8.397610664367676,6.08614444732666
1707006254300668200,22.142668212890626,1.2382856607437134,-7.183253765106201,8.95513916015625
1707006254319626800,22.161626708984375,0.5300102233886719,-7.161718368530273,8.171489715576172
1707006254338585300,22.18058544921875,-1.0325030088424683,-9.294919967651367,6.4354963302612305
1707006254357544000,22.1995439453125,-2.0279171466827393,-9.717252731323242,4.82751989364624
1707006254376502500,22.21850244140625,-1.963310956954956,-7.682157039642334,5.391029357910156
1707006254395461400,22.23746142578125,-2.8965117931365967,-6.453442573547363,7.800601959228516
1707006254414420000,22.256419921875,-1.9465612173080444,-6.9583282470703125,7.8819580078125
1707006254433378600,22.275378662109375,0.19262222945690155,-7.8628153800964355,7.156932353973389
1707006254452337200,22.294337158203124,-0.17946170270442963,-7.170093059539795,8.50289535522461
1707006254471295700,22.313295654296876,-1.1042876243591309,-6.7070817947387695,9.351150512695312
1707006254490254600,22.332254638671873,-1.8472590446472168,-6.223731517791748,8.554341316223145
1707006254509213200,22.351213134765626,0.24885354936122894,-6.457031726837158,6.452246189117432
1707006254528171800,22.370171875,-0.5108676552772522,-6.092126369476318,7.420143127441406
1707006254547130400,22.38913037109375,-1.6307085752487183,-5.746363639831543,10.176674842834473
1707006254566089200,22.408089111328124,-1.3351950645446777,-6.361319065093994,9.577272415161133
1707006254585047800,22.4270478515625,-1.5254244804382324,-5.740381717681885,8.646464347839355
1707006254604006400,22.44600634765625,-2.8115665912628174,-4.628915309906006,8.796015739440918
1707006254622965000,22.464965087890626,-1.672582983970642,-5.319244861602783,9.300901412963867
1707006254641923600,22.483923583984375,-1.511067509651184,-5.6207404136657715,8.949156761169434
1707006254660882200,22.502882080078123,-2.5112674236297607,-3.696911096572876,9.619147300720215
1707006254679841000,22.521841064453124,-1.537388563156128,-3.0305099487304688,9.160921096801758
1707006254698799600,22.540799560546876,-0.3768695592880249,-4.287938117980957,9.109476089477539
1707006254717758200,22.55975830078125,-1.5493526458740234,-4.157529354095459,10.199406623840332
1707006254736716800,22.578716796875,-2.89890456199646,-2.86061954498291,10.518848419189453
1707006254755675600,22.597675537109374,-2.8223342895507812,-2.049452543258667,9.388239860534668
1707006254774634200,22.61663427734375,-2.7254250049591064,-2.623729944229126,9.081958770751953
1707006254793592800,22.6355927734375,-2.9072794914245605,-3.0173492431640625,9.82373332977295
1707006254812551400,22.654551513671876,-3.249453067779541,-1.6510475873947144,10.311869621276855
1707006254831510000,22.673510009765625,-3.0233314037323,-0.5659025311470032,9.535398483276367
1707006254850468900,22.69246875,-3.22552490234375,-0.867398202419281,8.854640007019043
1707006254869427500,22.711427490234374,-2.717050075531006,-0.8051848411560059,8.760123252868652
1707006254888386000,22.730385986328123,-2.059023857116699,-0.1746760457754135,9.505488395690918
1707006254907344600,22.7493447265625,-2.1439690589904785,0.9678967595100403,10.082158088684082
1707006254926303500,22.768303466796876,-1.4213366508483887,0.36610186100006104,10.254441261291504
1707006254945262000,22.787261962890625,-2.2995026111602783,0.9308080077171326,8.900103569030762
1707006254964220700,22.806220703125,-2.851048231124878,1.5194423198699951,9.245866775512695
1707006254983179300,22.82517919921875,-2.7493531703948975,2.3844478130340576,7.694121360778809
1707006255002137900,22.844137939453127,-1.9357935190200806,2.581855535507202,9.404989242553711
1707006255021096700,22.8630966796875,-1.5553346872329712,2.715853691101074,8.368897438049316
1707006255040055300,22.88205517578125,-3.8943188190460205,4.8227338790893555,10.077372550964355
1707006255059014000,22.901013916015625,-2.0925233364105225,2.726621389389038,10.045069694519043
1707006255077972500,22.919972412109374,-0.44027936458587646,2.779263496398926,6.382854461669922
1707006255096931000,22.93893115234375,-3.239881753921509,4.828716278076172,9.839286804199219
1707006255115890000,22.957889892578127,-2.748156785964966,3.5952160358428955,8.818747520446777
1707006255134848500,22.9768486328125,-1.7371892929077148,3.4947173595428467,6.893722057342529
1707006255153807000,22.99580712890625,-2.389233350753784,5.335994720458984,8.250452041625977
1707006255172765700,23.014765625,-2.5938198566436768,4.3070807456970215,8.34138011932373
1707006255191724300,23.033724365234374,-2.7900311946868896,2.912065267562866,7.326822757720947
1707006255210683100,23.05268310546875,-1.3495519161224365,4.535595417022705,7.384250640869141
1707006255229641700,23.071641845703127,-0.259621262550354,6.400800704956055,8.24566650390625
1707006255248600300,23.090600341796875,-1.2442678213119507,4.363312244415283,6.448657035827637
1707006255267559000,23.109558837890624,-2.633301258087158,4.304687976837158,6.8410797119140625
1707006255286517800,23.128517822265625,-1.7934205532073975,7.247859954833984,7.665407180786133
1707006255305476400,23.147476318359374,-1.1629117727279663,6.082555294036865,7.89631462097168
1707006255324435000,23.16643505859375,-1.604387640953064,4.503292083740234,7.501499176025391
1707006255343393500,23.1853935546875,-2.172683000564575,4.681557655334473,7.70249605178833
1707006255362352000,23.20435205078125,-1.6893328428268433,5.894718647003174,6.463014125823975
1707006255381311000,23.22331103515625,-1.1054840087890625,5.577669620513916,5.059623718261719
1707006255400269600,23.24226953125,-0.885344386100769,4.991427898406982,6.187839508056641
1707006255419228200,23.261228271484374,-1.3256237506866455,4.506881237030029,6.653243541717529
1707006255438186800,23.280186767578126,-0.9966106414794922,4.634897232055664,6.558726787567139
1707006255457145300,23.299145263671875,-0.2835494875907898,5.243870735168457,6.364908218383789
1707006255476104200,23.318104248046875,-0.24646073579788208,5.291727066040039,6.692724704742432
1707006255495062800,23.337062744140624,-0.711864709854126,5.4628143310546875,7.094718933105469
1707006255514021400,23.356021484375,-0.8159525394439697,5.909075736999512,7.39980411529541
1707006255532980000,23.37497998046875,-0.9559326171875,5.529813289642334,7.5565338134765625
1707006255551938600,23.3939384765625,-1.1521440744400024,5.13739013671875,7.031309127807617
1707006255570897400,23.4128974609375,-1.2550355195999146,5.036891460418701,6.673582553863525
1707006255589856000,23.43185595703125,-1.0815558433532715,5.133800983428955,7.024130821228027
1707006255608814600,23.450814697265624,-1.2095718383789062,5.216353416442871,7.325626373291016
1707006255627773200,23.469773193359377,-1.5314065217971802,4.643272399902344,7.368697166442871
1707006255646732000,23.48873193359375,-1.5517455339431763,4.420739650726318,7.471588611602783
1707006255665690600,23.507690673828126,-1.8352949619293213,4.59421968460083,7.628318786621094
1707006255684649200,23.526649169921875,-2.0135602951049805,4.572684288024902,7.823333740234375
1707006255703607800,23.54560791015625,-1.9932212829589844,4.442275047302246,7.65583610534668
1707006255722566400,23.56456640625,-2.0039889812469482,4.347758769989014,7.477570533752441
1707006255741525200,23.583525146484376,-2.3748764991760254,4.60857629776001,7.432106971740723
1707006255760483800,23.60248388671875,-2.5363919734954834,4.316651821136475,7.808976650238037
1707006255779442400,23.6214423828125,-2.3030917644500732,3.87876558303833,8.331808090209961
1707006255798401000,23.640401123046875,-2.056631088256836,4.304687976837158,8.884550094604492
1707006255817359600,23.659359619140623,-2.146361827850342,4.49252462387085,8.86660385131836
1707006255836318500,23.678318359375,-2.056631088256836,4.001996040344238,8.672785758972168
1707006255855277000,23.697277099609376,-2.173879384994507,3.7435710430145264,8.624929428100586
1707006255874235600,23.716235595703125,-2.36291241645813,3.869194269180298,9.052047729492188
1707006255893194200,23.7351943359375,-2.2504496574401855,3.52103853225708,9.352347373962402
1707006255912152800,23.75415283203125,-2.163111686706543,3.0664021968841553,9.359525680541992
1707006255931111700,23.773111572265623,-2.641676187515259,3.0903303623199463,9.158528327941895
1707006255950070000,23.792070068359376,-3.0233314037323,2.575873613357544,9.306883811950684
1707006255969028900,23.81102880859375,-2.853440999984741,1.6510475873947144,8.840283393859863
1707006255987987500,23.829987548828125,-3.053241729736328,1.4883357286453247,8.0350980758667
1707006256006946000,23.848946044921874,-3.284149169921875,2.50289249420166,8.858229637145996
1707006256025904600,23.867904541015626,-3.1334011554718018,2.1583259105682373,10.029516220092773
1707006256044863500,23.886863525390623,-3.0185458660125732,0.7992027401924133,9.900303840637207
1707006256063822000,23.905822021484376,-3.1800613403320312,-0.3888336718082428,8.684749603271484
1707006256082780700,23.92478076171875,-3.4672000408172607,-0.21655045449733734,8.171489715576172
1707006256101739300,23.9437392578125,-3.6155550479888916,0.6017948985099792,9.081958770751953
1707006256120697900,23.96269775390625,-3.704089403152466,0.8039883971214294,9.381061553955078
1707006256139656700,23.98165673828125,-3.55214524269104,0.22013968229293823,8.889336585998535
1707006256158615300,24.000615234375,-4.043870449066162,0.3194418251514435,8.95394229888916
1707006256177574000,24.019573974609376,-2.9168508052825928,-1.069591760635376,10.554740905761719
1707006256196532500,24.038532470703124,-2.344966173171997,-2.0195422172546387,10.108479499816895
1707006256215491000,24.057490966796873,-2.6057839393615723,-1.7276179790496826,9.523433685302734
1707006256234450000,24.076449951171874,-1.892722725868225,-1.8317056894302368,10.097711563110352
1707006256253408500,24.095408447265626,-1.1078768968582153,-2.306680917739868,10.730612754821777
1707006256272367000,24.1143671875,-0.6915257573127747,-3.421736478805542,10.935199737548828
1707006256291325700,24.13332568359375,-1.3950155973434448,-3.8321053981781006,9.814162254333496
1707006256310284300,24.1522841796875,-2.6763720512390137,-3.483949661254883,9.375079154968262
1707006256329243000,24.171242919921873,-3.355933666229248,-3.3547372817993164,9.527023315429688
1707006256348201500,24.190201416015626,-4.1730828285217285,-3.4265220165252686,8.252845764160156
1707006256367160300,24.209160400390626,-4.151547431945801,-4.348955154418945,7.8077802658081055
1707006256386119000,24.228118896484375,-3.4480574131011963,-6.087340831756592,7.164111137390137
1707006256405077500,24.247077392578124,-2.8965117931365967,-7.319644451141357,6.620940208435059
1707006256424036000,24.2660361328125,-3.418147087097168,-6.837490558624268,5.98444938659668
