time,seconds_elapsed,z,y,x
1707006232193899000,0.03589892578125,0,0,0
1707006232212857000,0.054857177734375,-0.0008025169372558594,0.08214473724365234,0.10861825942993164
1707006232231815400,0.0738154296875,0.011456489562988281,-0.07674694061279297,0.0949506163597107
1707006232250773500,0.0927734375,-0.04124736785888672,0.02198028564453125,-0.17326396703720093
1707006232269731600,0.111731689453125,-0.062129974365234375,-0.2706413269042969,-0.37763869762420654
1707006232288690000,0.13068994140625,-0.18000173568725586,-0.42961597442626953,-0.40712442994117737
1707006232307648000,0.14964794921875,-0.1936635971069336,-0.027219772338867188,0.13489258289337158
1707006232326606000,0.168606201171875,-0.24804925918579102,0.8784303665161133,0.5240798592567444
1707006232345564400,0.187564453125,-0.3756439685821533,0.6298837661743164,0.11904633045196533
1707006232364522500,0.2065224609375,-0.164961576461792,-0.1667041778564453,-0.32098984718322754
1707006232383480600,0.22548046875,0.34618139266967773,-0.590571403503418,-0.09405267238616943
1707006232402438700,0.244438720703125,0.9167609214782715,-0.35359859466552734,0.8258053064346313
1707006232421397000,0.26339697265625,1.033008098602295,0.6860151290893555,1.646837592124939
1707006232440355000,0.28235498046875,0.7732503414154053,1.3823823928833008,1.5907267332077026
1707006232459313200,0.301313232421875,0.599452018737793,1.0510740280151367,0.6725450754165649
1707006232478271500,0.320271484375,0.19333577156066895,0.26163387298583984,-0.11503303050994873
1707006232497229600,0.3392294921875,-0.06484317779541016,-0.5266323089599609,-0.15768396854400635
1707006232516187600,0.358187744140625,-0.030879974365234375,-0.4213981628417969,-0.04430580139160156
1707006232535146000,0.37714599609375,-0.2703514099121094,-0.3070220947265625,-0.34973931312561035
1707006232554104000,0.39610400390625,-0.3945345878601074,-0.0066204071044921875,-0.6598465442657471
1707006232573062100,0.415062255859375,-0.5138370990753174,0.3188047409057617,-0.19943809509277344
1707006232592020200,0.434020263671875,-0.3414280414581299,0.3342914581298828,0.2570352554321289
1707006232610978600,0.452978515625,-0.48642396926879883,-0.22072696685791016,-0.035732269287109375
1707006232629936600,0.4719365234375,-0.972404956817627,-0.6716032028198242,-0.9622418880462646
1707006232648894700,0.490894775390625,-1.1028536558151245,-0.23185062408447266,-1.347977876663208
1707006232667853000,0.50985302734375,-0.4589667320251465,0.8121576309204102,-0.18495512008666992
1707006232686811100,0.52881103515625,1.004239797592163,0.5311717987060547,2.0318613052368164
1707006232705769200,0.547769287109375,1.7325828075408936,-0.2882223129272461,2.6894209384918213
1707006232724727600,0.5667275390625,1.3126771450042725,-0.3109569549560547,1.6988158226013184
1707006232743685600,0.585685546875,1.0471596717834473,-0.05485343933105469,0.49183058738708496
1707006232762643700,0.604643798828125,0.8127455711364746,0.04927349090576172,0.2579355239868164
1707006232781602000,0.62360205078125,0.6074473857879639,0.028375625610351562,0.4170413017272949
1707006232800560000,0.64256005859375,0.17266845703125,0.3151283264160156,0.0802910327911377
1707006232819518200,0.661518310546875,-0.2431473731994629,0.5538787841796875,-0.8206679821014404
1707006232838476500,0.6804765625,-0.5728015899658203,0.5747547149658203,-1.1102595329284668
1707006232857434600,0.6994345703125,-0.5229637622833252,0.3300600051879883,-0.7017412185668945
1707006232876393000,0.71839306640625,-0.04918956756591797,-0.06867027282714844,0.19863057136535645
1707006232895351000,0.73735107421875,0.6348497867584229,-0.6463890075683594,1.0324273109436035
1707006232914309000,0.75630908203125,1.1090750694274902,-0.6459054946899414,1.4642093181610107
1707006232933267200,0.77526708984375,1.107114315032959,-0.17255210876464844,1.752382755279541
1707006232952225500,0.7942255859375,0.7493047714233398,-0.1708841323852539,1.5374207496643066
1707006232971183600,0.81318359375,0.6054420471191406,-0.20867347717285156,0.9048149585723877
1707006232990141700,0.8321416015625,0.6523394584655762,0.061463356018066406,0.2303466796875
1707006233009100000,0.85110009765625,0.3241465091705322,0.4056119918823242,-0.2001497745513916
1707006233028058000,0.87005810546875,-0.16706156730651855,0.5522842407226562,-0.4017329216003418
1707006233047016400,0.889016357421875,0.02128458023071289,0.2994728088378906,-0.41966938972473145
1707006233065974500,0.907974609375,0.2990376949310303,-0.016429901123046875,-0.2456831932067871
1707006233084932900,0.926932861328125,0.48233866691589355,-0.13586902618408203,0.12514114379882812
1707006233103891000,0.945890869140625,0.8751683235168457,-0.11765670776367188,0.43883609771728516
1707006233122849000,0.96484912109375,0.8929152488708496,-0.058388710021972656,0.2681863307952881
1707006233141807400,0.983807373046875,0.40539979934692383,0.18322181701660156,0.1853642463684082
1707006233160765400,1.002765380859375,-0.14550232887268066,0.12047576904296875,0.1261284351348877
1707006233179723800,1.021723876953125,-0.06989145278930664,-0.33587169647216797,-0.1285114288330078
1707006233198681900,1.040681884765625,-0.15991520881652832,-0.24962139129638672,-0.14229345321655273
1707006233217640000,1.059639892578125,-0.4444763660430908,-0.05629158020019531,0.22262120246887207
1707006233236598300,1.078598388671875,-0.5354843139648438,-0.1913776397705078,0.5072681903839111
1707006233255556600,1.097556640625,-0.24947333335876465,-0.31300926208496094,0.6162993907928467
1707006233274514700,1.1165146484375,-0.01730942726135254,0.1598987579345703,0.8665156364440918
1707006233293472800,1.13547265625,-0.0693519115447998,0.40921783447265625,1.0323803424835205
1707006233312431000,1.15443115234375,-0.11068582534790039,0.14621829986572266,0.7456786632537842
1707006233331389200,1.17338916015625,-0.07554745674133301,0.16359424591064453,0.5077998638153076
1707006233350347500,1.192347412109375,-0.08740830421447754,0.5282096862792969,0.5538115501403809
1707006233369305900,1.211305908203125,-0.09926033020019531,0.6053676605224609,0.6499788761138916
1707006233388264000,1.230263916015625,0.427170991897583,0.01639080047607422,0.4828472137451172
1707006233407222300,1.24922216796875,0.5556530952453613,-0.012876510620117188,0.3043285608291626
1707006233426180400,1.268180419921875,0.2965428829193115,-0.07422733306884766,0.45608365535736084
1707006233445138700,1.287138671875,0.3878934383392334,-0.6798572540283203,0.14744329452514648
1707006233464097000,1.306096923828125,0.39511823654174805,-0.6174173355102539,-0.04705321788787842
1707006233483055000,1.32505517578125,-0.10757994651794434,-0.19398975372314453,-0.04529702663421631
1707006233502013400,1.344013427734375,-0.4847426414489746,-0.0056171417236328125,-0.2575265169143677
1707006233520971500,1.362971435546875,-0.7327227592468262,0.03690052032470703,-0.4997190237045288
1707006233539929900,1.381929931640625,-0.9720637798309326,-0.1382913589477539,-0.7507554292678833
1707006233558888000,1.400887939453125,-1.2310011386871338,-0.15100669860839844,-0.9189978837966919
1707006233577846300,1.41984619140625,-1.5082368850708008,0.3492889404296875,-0.8952119946479797
1707006233596804600,1.4388046875,-1.5166230201721191,0.40199756622314453,-1.013235330581665
1707006233615762700,1.4577626953125,-1.449385166168213,0.2704429626464844,-1.4077926874160767
1707006233634721000,1.476720947265625,-1.4643783569335938,0.2405223846435547,-1.6615073680877686
1707006233653679400,1.495679443359375,-1.3841133117675781,0.2672414779663086,-1.8138689994812012
1707006233672637400,1.514637451171875,-1.2171974182128906,0.15928363800048828,-1.996280312538147
1707006233691595800,1.533595703125,-1.0978612899780273,0.05418586730957031,-2.165071487426758
1707006233710554000,1.55255419921875,-1.173628330230713,0.08905220031738281,-2.310382843017578
1707006233729512400,1.571512451171875,-1.2260911464691162,0.4252281188964844,-2.773300886154175
1707006233748470800,1.590470703125,-1.2101655006408691,0.27901458740234375,-3.4265313148498535
1707006233767428900,1.609428955078125,-1.1699542999267578,0.29855918884277344,-3.677926540374756
1707006233786387200,1.62838720703125,-1.1854753494262695,1.4522209167480469,-3.0011043548583984
1707006233805345500,1.647345458984375,-0.6410627365112305,2.0634918212890625,-1.5949807167053223
1707006233824303900,1.666303955078125,-0.010082721710205078,1.489776611328125,-0.4118187427520752
1707006233843262000,1.685261962890625,0.7907185554504395,1.0752649307250977,0.41970181465148926
1707006233862220300,1.70422021484375,1.1354618072509766,0.8218050003051758,1.316184163093567
1707006233881178600,1.7231787109375,0.9941868782043457,-0.10176563262939453,2.0364511013031006
1707006233900137000,1.742136962890625,0.8408503532409668,-0.5855488777160645,1.9810550212860107
1707006233919095300,1.76109521484375,0.12456893920898438,-0.700218677520752,1.8416643142700195
1707006233938053600,1.7800537109375,-0.20032596588134766,-0.36026763916015625,1.588181734085083
1707006233957011700,1.79901171875,-1.037644386291504,-0.06052589416503906,1.1341731548309326
1707006233975970000,1.817969970703125,-1.4100313186645508,0.032695770263671875,0.8682799339294434
1707006233994928400,1.836928466796875,-1.1792011260986328,-0.09686613082885742,1.1846034526824951
1707006234013886700,1.85588671875,-1.3497791290283203,-0.5687370300292969,1.0492401123046875
1707006234032845000,1.874844970703125,-1.4107379913330078,-0.3122272491455078,1.517043113708496
1707006234051803400,1.893803466796875,-1.0541434288024902,-0.0174713134765625,2.054163932800293
1707006234070761700,1.91276171875,-0.8292965888977051,-0.1437063217163086,2.0267372131347656
1707006234089720000,1.931719970703125,-0.6165237426757812,0.08837366104125977,2.488525867462158
1707006234108678400,1.950678466796875,-0.6311750411987305,-0.12347650527954102,2.2741007804870605
1707006234127636700,1.96963671875,-0.39308786392211914,-0.16803550720214844,1.9092392921447754
1707006234146595000,1.988594970703125,-0.5483434200286865,-0.3077549934387207,1.5321455001831055
1707006234165553400,2.007553466796875,-0.7019574642181396,-0.14406919479370117,1.457603931427002
1707006234184511700,2.02651171875,-0.38600826263427734,-0.3104829788208008,1.5497026443481445
1707006234203470000,2.045469970703125,0.32113850116729736,-0.5124039649963379,1.3657751083374023
1707006234222428400,2.064428466796875,0.638850212097168,0.03223896026611328,1.8059053421020508
1707006234241386800,2.08338671875,1.1921576261520386,0.5836181640625,2.335677146911621
1707006234260345000,2.102344970703125,1.3666691780090332,0.5686702728271484,1.605860710144043
1707006234279303400,2.121303466796875,1.3541783094406128,1.1276569366455078,1.3312320709228516
1707006234298261800,2.14026171875,1.0749661922454834,1.3169057369232178,0.7030611038208008
1707006234317220000,2.15922021484375,0.72088223695755,1.6653501987457275,-0.3335714340209961
1707006234336178700,2.1781787109375,0.5264283418655396,1.427176833152771,-0.9065971374511719
1707006234355137000,2.197136962890625,0.5838791131973267,0.7354373931884766,-1.132059097290039
1707006234374095400,2.216095458984375,0.7890509963035583,0.7715378999710083,-1.3415422439575195
1707006234393053700,2.2350537109375,1.0401034355163574,1.1841859817504883,-0.8630313873291016
1707006234412012000,2.254011962890625,1.3846523761749268,1.2072114944458008,-0.5484781265258789
1707006234430970400,2.272970458984375,1.3625988960266113,1.0014593601226807,-0.7732505798339844
1707006234449928700,2.2919287109375,1.1155235767364502,0.6884187459945679,-1.1152772903442383
1707006234468887000,2.310886962890625,0.7224276065826416,0.5063668489456177,-1.0546140670776367
1707006234487845600,2.329845703125,0.9924692511558533,0.3067196011543274,-0.7244510650634766
1707006234506804000,2.348803955078125,1.2613643407821655,0.6800696849822998,-0.3739767074584961
1707006234525762300,2.36776220703125,0.9338013529777527,0.6039972305297852,-0.5015544891357422
1707006234544720600,2.386720703125,-0.459907203912735,0.3734506070613861,-1.2050580978393555
1707006234563679000,2.405678955078125,-1.6697449684143066,-0.20830678939819336,-1.2014789581298828
1707006234582637300,2.42463720703125,-2.5505292415618896,-0.43633002042770386,-0.6715183258056641
1707006234601596000,2.443595947265625,-2.656444549560547,-0.07070589065551758,-1.2368173599243164
1707006234620554200,2.46255419921875,-2.0026848316192627,0.3093634843826294,-1.1738042831420898
1707006234639512600,2.4815126953125,0.04610484838485718,0.41668012738227844,-0.36270999908447266
1707006234658471200,2.50047119140625,1.6346330642700195,0.370652973651886,0.9283390045166016
1707006234677429500,2.519429443359375,2.2200024127960205,-0.20629370212554932,1.5791826248168945
1707006234696387800,2.538387939453125,2.158287763595581,0.12777352333068848,1.3112707138061523
1707006234715346200,2.55734619140625,1.1081013679504395,0.6522995233535767,0.1541280746459961
1707006234734304800,2.5763046875,-0.18174445629119873,1.0430651903152466,-1.220855712890625
1707006234753263000,2.59526318359375,-1.253151774406433,1.052639365196228,-2.8465795516967773
1707006234772221400,2.614221435546875,-3.026251792907715,0.6356092691421509,-3.1492061614990234
1707006234791180000,2.633179931640625,-1.3391292095184326,0.20893055200576782,-1.841059684753418
1707006234810138400,2.652138427734375,0.6811999678611755,1.0122125148773193,-0.10153579711914062
1707006234829096700,2.6710966796875,1.456668496131897,0.27099883556365967,1.7846403121948242
1707006234848055000,2.690054931640625,2.3462843894958496,-0.9443961977958679,2.2482080459594727
1707006234867013600,2.709013671875,2.162146806716919,-0.11171311140060425,1.382451057434082
1707006234885972000,2.727971923828125,1.1278495788574219,1.1429351568222046,0.7152910232543945
1707006234904930600,2.7469306640625,0.5108345746994019,1.0590147972106934,-0.5073204040527344
1707006234923889000,2.765888916015625,0.3292851150035858,0.11527162790298462,-1.437830924987793
1707006234942847200,2.78484716796875,0.6784005165100098,-0.38221314549446106,-1.2950725555419922
1707006234961805600,2.8038056640625,1.0226103067398071,-0.06704956293106079,-0.9754772186279297
1707006234980764200,2.82276416015625,0.2736915349960327,0.10568195581436157,-0.45496177673339844
1707006234999722500,2.841722412109375,-0.5092276930809021,0.12570540606975555,0.11296653747558594
1707006235018681000,2.86068115234375,-1.0778785943984985,-0.02182929217815399,0.8263092041015625
1707006235037639400,2.879639404296875,-1.159075140953064,-0.5798653364181519,1.1070566177368164
1707006235056597800,2.89859765625,-1.01345956325531,-0.36389482021331787,0.4779529571533203
1707006235075556400,2.917556396484375,-0.6285271048545837,0.25050461292266846,-0.03769111633300781
1707006235094514700,2.9365146484375,-0.22674019634723663,0.3507682979106903,-0.013082504272460938
1707006235113473300,2.955473388671875,0.02363067865371704,0.18973398208618164,0.2806406021118164
1707006235132431600,2.974431640625,0.116160549223423,-0.06283360719680786,0.5104341506958008
1707006235151390000,2.993389892578125,-0.2472946047782898,-0.43330177664756775,0.4971904754638672
1707006235170348500,3.0123486328125,-0.3648684620857239,-0.16796085238456726,0.33153820037841797
1707006235189307000,3.031306884765625,-0.0639999657869339,-0.09714016318321228,0.19484424591064453
1707006235208265500,3.050265380859375,-0.0396992564201355,-0.292438268661499,0.3404245376586914
1707006235227223800,3.069223876953125,-0.43871933221817017,0.10911732912063599,0.3538379669189453
1707006235246182400,3.088182373046875,-0.7293959856033325,0.23592692613601685,0.1191864013671875
1707006235265140700,3.107140625,-0.6525184512138367,0.5693801641464233,0.053707122802734375
1707006235284099000,3.12609912109375,-0.2049606740474701,0.3447834253311157,-0.17579364776611328
1707006235303057700,3.1450576171875,0.19187253713607788,-0.6425195336341858,-0.5162057876586914
1707006235322016000,3.16401611328125,0.5078182220458984,-0.6721433997154236,-0.6193761825561523
1707006235340974600,3.182974609375,0.7399203777313232,-0.2253456711769104,-0.21083927154541016
1707006235359933000,3.201932861328125,0.0029038190841674805,-0.13593381643295288,0.894500732421875
1707006235378891500,3.2208916015625,-0.0802222490310669,0.1415814757347107,0.6695175170898438
1707006235397849900,3.239849853515625,0.3229621648788452,0.7907878756523132,-0.1923084259033203
1707006235416808400,3.258808349609375,0.440774142742157,0.6781783103942871,-0.3563394546508789
1707006235435766800,3.277766845703125,0.3746456205844879,0.3679977059364319,0.03930854797363281
1707006235454725000,3.29672509765625,0.24882769584655762,0.3243294954299927,0.1360921859741211
1707006235473683700,3.31568359375,0.45434749126434326,0.17275089025497437,-0.08790302276611328
1707006235492642300,3.334642333984375,0.4315906763076782,0.20009088516235352,0.029561996459960938
1707006235511600600,3.3536005859375,-0.14326700568199158,0.16471731662750244,0.5913286209106445
1707006235530559000,3.37255908203125,-0.0887487530708313,0.003200352191925049,0.25980663299560547
1707006235549517600,3.391517578125,0.17768320441246033,0.14593851566314697,-0.24371814727783203
1707006235568476200,3.41047607421875,0.21193179488182068,0.6621447205543518,-0.21528339385986328
1707006235587434500,3.4294345703125,0.3251887559890747,0.6416038870811462,0.17704200744628906
1707006235606392800,3.448392822265625,0.44580593705177307,0.2508177161216736,0.1794300079345703
1707006235625351400,3.467351318359375,0.5908551216125488,0.1865459680557251,0.10744571685791016
1707006235644310000,3.48631005859375,0.8258267045021057,0.17624551057815552,0.25432682037353516
1707006235663268400,3.505268310546875,1.0173313617706299,0.4388682246208191,0.2821359634399414
1707006235682226700,3.524226806640625,0.8668175935745239,0.1781480312347412,0.1783132553100586
1707006235701185300,3.543185302734375,1.02199387550354,0.07489842176437378,0.058182716369628906
1707006235720144000,3.562143798828125,0.8933537602424622,0.07277172803878784,0.7269573211669922
1707006235739102200,3.581102294921875,0.5707351565361023,-0.10169863700866699,1.0687532424926758
1707006235758060800,3.600060791015625,0.4756837487220764,0.26093393564224243,0.19596195220947266
1707006235777019100,3.61901904296875,0.26866990327835083,0.5150385499000549,-0.37152767181396484
1707006235795977700,3.637977783203125,0.04528075456619263,0.13621312379837036,-0.5598020553588867
1707006235814936000,3.65693603515625,-0.12975046038627625,-0.1634889841079712,0.01256561279296875
1707006235833894700,3.675894775390625,-0.1662667691707611,-0.05269825458526611,0.7513895034790039
1707006235852853000,3.69485302734375,0.04430990666151047,-0.21571040153503418,0.25926876068115234
1707006235871811600,3.7138115234375,-0.09106974303722382,-0.4663032293319702,-0.21736526489257812
1707006235890770000,3.73277001953125,-0.16072919964790344,-0.23355567455291748,-0.12313270568847656
1707006235909728500,3.751728515625,-0.4990643858909607,-0.3007253408432007,0.0025930404663085938
1707006235928687000,3.77068701171875,-0.8345309495925903,-0.5144742131233215,0.09087657928466797
1707006235947645400,3.7896455078125,-0.6325439810752869,-0.27171170711517334,0.25608062744140625
1707006235966604000,3.80860400390625,-0.9193545579910278,-0.009736418724060059,0.3974323272705078
1707006235985562400,3.827562255859375,-1.0294783115386963,0.03198152780532837,-0.18195629119873047
1707006236004521000,3.84652099609375,-0.7147667407989502,-0.07294034957885742,-0.8139438629150391
1707006236023479300,3.865479248046875,-0.4195272624492645,-0.2304726243019104,-0.46512603759765625
1707006236042438000,3.88443798828125,-0.4914616346359253,-0.01688528060913086,-0.24091434478759766
1707006236061396500,3.903396484375,0.0676933228969574,0.22277259826660156,-0.2802619934082031
1707006236080354800,3.922354736328125,0.5765446424484253,0.09082871675491333,0.016013145446777344
1707006236099313200,3.941313232421875,0.06200167536735535,0.2745528221130371,0.4429636001586914
1707006236118271700,3.960271728515625,0.15137979388237,0.2853759527206421,0.10035228729248047
1707006236137230300,3.979230224609375,0.3389720916748047,0.048578858375549316,-0.14533329010009766
1707006236156188700,3.998188720703125,0.1265399158000946,-0.15443354845046997,-0.0108795166015625
1707006236175147300,4.017147216796875,0.11669620871543884,-0.09116417169570923,-0.14396381378173828
1707006236194105900,4.03610595703125,0.07330358028411865,0.1370302438735962,-0.057478904724121094
1707006236213064200,4.055064208984375,0.05014771223068237,0.18263715505599976,0.17516517639160156
1707006236232022500,4.0740224609375,-0.0708477795124054,-0.05216646194458008,0.034317970275878906
1707006236250981000,4.092981201171875,-0.2332341969013214,-0.13945865631103516,-0.2854747772216797
1707006236269939700,4.111939697265625,-0.35133999586105347,0.18508237600326538,-0.4976167678833008
1707006236288898000,4.13089794921875,-0.5513659715652466,0.17893797159194946,-0.5993900299072266
1707006236307856600,4.149856689453125,-0.6735988259315491,-0.016203761100769043,-0.44812870025634766
1707006236326815200,4.168815185546875,-0.20906473696231842,0.1125144362449646,-0.13314533233642578
1707006236345773600,4.187773681640625,0.3896116018295288,0.17898404598236084,0.0726470947265625
1707006236364732200,4.206732177734375,0.735579252243042,0.165787935256958,0.3258953094482422
1707006236383690500,4.2256904296875,0.8424034118652344,0.02288985252380371,0.35640716552734375
1707006236402649000,4.244649169921875,0.7963100671768188,0.10583120584487915,0.2664012908935547
1707006236421607400,4.263607421875,0.8186743259429932,0.30693280696868896,0.4931449890136719
1707006236440566000,4.28256591796875,0.8801501989364624,0.10674172639846802,0.733281135559082
1707006236459524600,4.301524658203125,0.8835141658782959,-0.046250760555267334,0.7431221008300781
1707006236478483000,4.32048291015625,0.6525484919548035,-0.007274270057678223,0.6753196716308594
1707006236497441500,4.339441650390625,0.5802014470100403,0.21931791305541992,0.43735790252685547
1707006236516400000,4.358400146484375,0.2947273254394531,0.30216288566589355,0.3469562530517578
1707006236535358500,4.3773583984375,-0.017127633094787598,0.14605790376663208,0.35326194763183594
1707006236554317000,4.396317138671875,-0.2347756028175354,0.1878255009651184,0.23160934448242188
1707006236573275400,4.415275390625,-0.5060505867004395,-0.011762022972106934,0.0038194656372070312
1707006236592234000,4.43423388671875,-0.6779166460037231,-0.12027275562286377,-0.4586811065673828
1707006236611192300,4.4531923828125,-0.7454292178153992,0.011345446109771729,-0.9335727691650391
1707006236630151000,4.47215087890625,-0.5175644755363464,0.06360918283462524,-0.2446880340576172
1707006236649109500,4.491109619140625,-0.10057881474494934,-0.13681310415267944,0.15848636627197266
1707006236668067800,4.51006787109375,0.21732881665229797,-0.18585878610610962,0.493682861328125
1707006236687026400,4.5290263671875,0.6606086492538452,-0.11085289716720581,0.5993824005126953
1707006236705985000,4.547985107421875,0.6014569997787476,-0.04204756021499634,0.4399223327636719
1707006236724943400,4.566943359375,-0.3391241431236267,0.0013149380683898926,0.5435094833374023
1707006236743902000,4.58590185546875,-0.4127018451690674,0.3348323106765747,-0.8177156448364258
1707006236762860300,4.6048603515625,-0.15338553488254547,0.12097221612930298,-1.3068780899047852
1707006236781819000,4.62381884765625,-0.2698257565498352,-0.22435370087623596,-0.6488046646118164
1707006236800777200,4.642777099609375,-0.8800700902938843,-0.17991745471954346,0.12682723999023438
1707006236819735800,4.66173583984375,-0.13329878449440002,-0.1269090175628662,0.40017127990722656
1707006236838694400,4.6806943359375,-0.3741533160209656,0.22489190101623535,-0.41610240936279297
1707006236857652700,4.69965283203125,-0.4721927046775818,-0.6584335565567017,0.45185375213623047
1707006236876611300,4.718611328125,-0.2856265604496002,-0.9032692909240723,1.3270244598388672
1707006236895570000,4.73756982421875,-0.006619900465011597,-0.5873091816902161,2.231390953063965
1707006236914528300,4.7565283203125,0.618972897529602,-0.3658004701137543,2.8316879272460938
1707006236933486800,4.77548681640625,1.0733351707458496,-0.33090656995773315,2.684244155883789
1707006236952445200,4.794445068359375,0.8995389938354492,-0.1393711268901825,1.71319580078125
1707006236971403800,4.81340380859375,0.6716474294662476,0.589134931564331,-0.8634939193725586
1707006236990362400,4.8323623046875,-0.5036965012550354,1.6110223531723022,-3.018714427947998
1707006237009320700,4.85132080078125,0.25182288885116577,1.623762845993042,-2.4947519302368164
1707006237028279300,4.870279296875,0.83006751537323,1.1992919445037842,-2.146817207336426
1707006237047237600,4.889237548828125,0.9866858720779419,0.3172818720340729,-1.673995018005371
1707006237066196200,4.9081962890625,0.9411351680755615,0.28675007820129395,-0.5886459350585938
1707006237085154800,4.92715478515625,0.7888656854629517,0.2724915146827698,0.09481525421142578
1707006237104113200,4.946113037109375,0.28183338046073914,0.38984134793281555,-0.12386226654052734
1707006237123071700,4.96507177734375,-0.49065276980400085,0.6415303945541382,0.13984298706054688
1707006237142030300,4.9840302734375,-0.25640416145324707,0.5046714544296265,0.3028564453125
1707006237160988700,5.00298876953125,-0.018626123666763306,0.15062251687049866,0.17328929901123047
1707006237179947300,5.021947265625,0.20306208729743958,-0.059474796056747437,0.6407804489135742
1707006237198905600,5.040905517578125,0.564277172088623,-0.2223518341779709,0.7984104156494141
1707006237217864200,5.0598642578125,0.3510918915271759,-0.057462140917778015,0.47028541564941406
1707006237236822500,5.078822509765625,-0.13839191198349,0.16303560137748718,0.47582054138183594
1707006237255781000,5.097781005859375,-0.4329034984111786,-0.013441964983940125,0.10577392578125
1707006237274739700,5.11673974609375,-0.471055805683136,-0.16657699644565582,-0.39380645751953125
1707006237293698000,5.135697998046875,-0.5367253422737122,-0.031084194779396057,-0.11589336395263672
1707006237312656600,5.15465673828125,-0.21895238757133484,-0.32048484683036804,0.5814380645751953
1707006237331615200,5.173615234375,0.06581321358680725,-0.13331955671310425,0.7234001159667969
1707006237350573600,5.192573486328125,0.21918393671512604,-0.016071587800979614,0.4863882064819336
1707006237369532200,5.2115322265625,-0.005691409111022949,0.025445371866226196,-0.2893819808959961
1707006237388490800,5.23049072265625,-0.1473492980003357,0.33291587233543396,-0.8990993499755859
1707006237407449000,5.249448974609375,0.1588984578847885,0.4869946241378784,-1.6337413787841797
1707006237426407700,5.26840771484375,0.07908092439174652,-0.09068834781646729,-1.770035743713379
1707006237445366000,5.287365966796875,0.1527935266494751,-0.08124375343322754,-1.0114145278930664
1707006237464324600,5.30632470703125,-0.23090407252311707,0.26588502526283264,-0.24360275268554688
1707006237483283000,5.325282958984375,-0.6916370391845703,-0.19824326038360596,0.9243907928466797
1707006237502241500,5.344241455078125,-0.6276745200157166,-0.4716107249259949,1.1072769165039062
1707006237521200000,5.3632001953125,-0.16678817570209503,-0.1459563970565796,0.8311738967895508
1707006237540158500,5.382158447265625,0.3294317424297333,0.2997163236141205,0.6315135955810547
1707006237559117000,5.401116943359375,0.5948183536529541,0.4030665457248688,0.3208789825439453
1707006237578075600,5.42007568359375,0.6047697067260742,0.23330123722553253,0.11183929443359375
1707006237597034000,5.439033935546875,0.5070479512214661,-0.12577424943447113,0.17900753021240234
1707006237615992600,5.45799267578125,0.5303694605827332,-0.25880932807922363,0.26610374450683594
1707006237634951200,5.476951171875,0.5079182386398315,0.20576399564743042,0.34435367584228516
1707006237653909500,5.495909423828125,0.42839863896369934,0.5467316508293152,0.33481693267822266
1707006237672868000,5.5148681640625,0.32307004928588867,0.36063921451568604,-0.005603790283203125
1707006237691826400,5.533826416015625,-0.062061406672000885,-0.037784650921821594,-0.10090065002441406
1707006237710785000,5.552784912109375,-0.3429546058177948,-0.006873592734336853,-0.2965049743652344
1707006237729743400,5.571743408203125,-0.30232810974121094,0.18504451215267181,-0.18933582305908203
1707006237748702000,5.590701904296875,-0.20764891803264618,0.05181175470352173,-0.10872459411621094
1707006237767660500,5.60966064453125,-0.38686805963516235,-0.044915467500686646,-0.1708822250366211
1707006237786619000,5.628618896484375,-0.4700377583503723,0.032587986439466476,-0.11416435241699219
1707006237805577500,5.647577392578125,-0.509948194026947,0.19462570548057556,0.09916210174560547
1707006237824536000,5.6665361328125,-0.8874565362930298,0.18462903797626495,0.21619129180908203
1707006237843494400,5.685494384765625,-1.0644179582595825,0.2933059334754944,-0.03665637969970703
1707006237862453000,5.704452880859375,-1.015838384628296,0.2947758734226227,-0.29796600341796875
1707006237881411600,5.72341162109375,-0.6076127290725708,0.04265668988227844,-0.3154268264770508
1707006237900370000,5.742369873046875,-0.3864254653453827,-0.08767849206924438,-0.11353778839111328
1707006237919328500,5.76132861328125,-0.48393771052360535,-0.13768114149570465,-0.1203145980834961
1707006237938286800,5.780286865234375,-0.3313676118850708,-0.08786264061927795,0.13087844848632812
1707006237957245400,5.799245361328125,0.011091545224189758,-0.3018553853034973,0.2652854919433594
1707006237976203800,5.818203857421875,0.12324400991201401,-0.46383553743362427,0.012727737426757812
1707006237995162400,5.837162353515625,0.011692587286233902,-0.333714097738266,-0.15586280822753906
1707006238014121000,5.856120849609375,0.14117085933685303,-0.033292800188064575,0.11108207702636719
1707006238033079300,5.875079345703125,0.236765518784523,-0.09798067808151245,0.09726333618164062
1707006238052038000,5.894037841796875,0.020144004374742508,-0.07910948991775513,-0.06775379180908203
1707006238070996500,5.91299658203125,-0.10162050276994705,0.276542067527771,0.05047607421875
1707006238089954800,5.931954833984375,0.13008807599544525,0.3560273051261902,0.22258472442626953
1707006238108913400,5.950913330078125,0.2941800355911255,0.06196713447570801,0.07333183288574219
1707006238127872000,5.9698720703125,0.3745468854904175,-0.10310792922973633,-0.09839439392089844
1707006238146830300,5.988830322265625,0.4678412675857544,-0.0540318489074707,0.0757608413696289
1707006238165789000,6.007788818359375,0.6961665153503418,-0.07960498332977295,0.2938852310180664
1707006238184747500,6.02674755859375,0.7297021746635437,-0.1701335906982422,0.3850536346435547
1707006238203705900,6.045705810546875,0.7122182846069336,-0.09763151407241821,0.17893600463867188
1707006238222664400,6.06466455078125,0.620437741279602,0.2687617540359497,0.10188102722167969
1707006238241622800,6.083622802734375,0.7441080212593079,0.12947148084640503,0.3165121078491211
1707006238260581400,6.102581298828125,0.7554391622543335,0.13273262977600098,0.3576850891113281
1707006238279540000,6.1215400390625,0.6640418767929077,0.52068030834198,0.2665262222290039
1707006238298498300,6.140498291015625,0.5250270366668701,0.5504876375198364,0.19610214233398438
1707006238317457000,6.159456787109375,0.15203261375427246,-0.07017379999160767,0.0699911117553711
1707006238336415500,6.17841552734375,-0.03118716925382614,-0.2604385018348694,-0.23744583129882812
1707006238355373800,6.197373779296875,-0.07779797911643982,-0.23151302337646484,-0.5270195007324219
1707006238374332400,6.21633251953125,-0.021684952080249786,0.15770184993743896,-0.24285888671875
1707006238393290800,6.235290771484375,-0.10963034629821777,0.11782670021057129,0.29977893829345703
1707006238412249300,6.254249267578125,-0.4864129424095154,-0.13657259941101074,0.03553009033203125
1707006238431208000,6.2732080078125,-0.5847814679145813,-0.25476616621017456,-0.5273962020874023
1707006238450166500,6.29216650390625,-0.6008272171020508,0.042242586612701416,-0.5380792617797852
1707006238469124900,6.311124755859375,-0.5803608298301697,0.32874155044555664,-0.11462974548339844
1707006238488083500,6.33008349609375,-0.33289092779159546,0.08054465055465698,0.014474868774414062
1707006238507042000,6.3490419921875,-0.2489750236272812,-0.0595165491104126,0.018777847290039062
1707006238526000400,6.36800048828125,-0.081145279109478,0.11201387643814087,-0.0025033950805664062
1707006238544959000,6.386958984375,-0.12258387356996536,0.10367608070373535,0.1580181121826172
1707006238563917600,6.40591748046875,-0.31620609760284424,-0.03900200128555298,-0.0731191635131836
1707006238582876000,6.4248759765625,-0.12718474864959717,-0.09256654977798462,-0.3077125549316406
1707006238601834500,6.44383447265625,-0.09689338505268097,0.1268603801727295,-0.12809181213378906
1707006238620793000,6.46279296875,-0.018032662570476532,0.14326339960098267,0.19869041442871094
1707006238639751700,6.481751708984375,0.04985709488391876,0.022557735443115234,0.0799722671508789
1707006238658710000,6.5007099609375,0.2577360272407532,-0.004737198352813721,-0.06296253204345703
1707006238677668600,6.519668701171875,0.13891537487506866,0.07684320211410522,0.0027666091918945312
1707006238696627200,6.538627197265625,0.07613864541053772,0.037979960441589355,0.034389495849609375
1707006238715586300,6.55758642578125,0.21491268277168274,-0.017261385917663574,-0.04239177703857422
1707006238734544100,6.576544189453125,0.2869115471839905,0.0952025055885315,-0.009981155395507812
1707006238753502700,6.595502685546875,0.20636913180351257,0.22544074058532715,0.15060138702392578
1707006238772461000,6.6144609375,0.2662120461463928,0.15085071325302124,0.005839347839355469
1707006238791419600,6.633419677734375,0.2744981646537781,0.06820881366729736,-0.011879920959472656
1707006238810378200,6.652378173828125,0.2732246220111847,0.3905128836631775,0.1654062271118164
1707006238829336800,6.6713369140625,0.4191311299800873,0.6163100004196167,0.49825572967529297
1707006238848295400,6.69029541015625,0.03908204287290573,0.5669966340065002,0.5456295013427734
1707006238867253800,6.709253662109375,0.25879666209220886,0.5271004438400269,-0.0028629302978515625
1707006238886212400,6.72821240234375,0.33024996519088745,0.8588934540748596,0.16755390167236328
1707006238905171000,6.7471708984375,0.2931915819644928,1.212023377418518,0.8163251876831055
1707006238924129300,6.76612939453125,-0.2747415602207184,1.0024465322494507,0.6750984191894531
1707006238943087900,6.785087890625,0.7903997302055359,0.4767411947250366,-0.03693580627441406
1707006238962046500,6.80404638671875,0.3098726272583008,0.5390359163284302,0.13979625701904297
1707006238981005000,6.823005126953125,-0.09433072805404663,1.1925742626190186,0.5193262100219727
1707006238999963600,6.841963623046875,-0.34571415185928345,0.943522572517395,0.050293922424316406
1707006239018922200,6.860922119140625,0.11532491445541382,-0.3288419246673584,-0.6449213027954102
1707006239037880600,6.879880615234375,0.1792745590209961,-1.2817100286483765,-0.8096065521240234
1707006239056839200,6.898839111328125,0.38269510865211487,-1.4076131582260132,-0.5383129119873047
1707006239075797800,6.9177978515625,-0.22342801094055176,-0.23746800422668457,0.29685401916503906
1707006239094756400,6.93675634765625,-0.8234654664993286,0.5139902830123901,0.3976907730102539
1707006239113715000,6.95571484375,-0.6873525977134705,0.32804250717163086,-0.5003061294555664
1707006239132673300,6.97467333984375,-0.9132159948348999,0.5851572751998901,-0.4842844009399414
1707006239151632000,6.9936318359375,-1.1626555919647217,0.3456127643585205,0.033435821533203125
1707006239170590500,7.012590576171875,-1.6449402570724487,-0.23895549774169922,-0.5783510208129883
1707006239189549000,7.031549072265625,-1.799536943435669,-0.7423844933509827,-1.5449838638305664
1707006239208507600,7.050507568359375,-1.2190711498260498,-0.6846824288368225,-1.9286508560180664
1707006239227466200,7.06946630859375,-1.1057262420654297,-0.03664505481719971,-0.2604227066040039
1707006239246424800,7.0884248046875,-0.7060551643371582,-0.6572244167327881,-0.08189773559570312
1707006239265383200,7.107383056640625,0.2760224938392639,-1.1743488311767578,-0.19466400146484375
1707006239284341800,7.126341796875,0.9101908206939697,-0.02774834632873535,1.3825693130493164
1707006239303300400,7.14530029296875,1.025848627090454,0.7398734092712402,1.3603143692016602
1707006239322259000,7.164259033203125,1.4345474243164062,-0.19388264417648315,-0.08123111724853516
1707006239341217500,7.183217529296875,1.3879292011260986,-0.129114031791687,-0.2985811233520508
1707006239360175900,7.20217578125,1.3167824745178223,0.014713168144226074,0.5252161026000977
1707006239379134700,7.221134765625,1.751244306564331,-0.5838363766670227,0.6688108444213867
1707006239398093000,7.240093017578125,1.0609540939331055,-0.3211555480957031,0.7528581619262695
1707006239417051600,7.2590517578125,0.5774424076080322,0.3739750385284424,0.9563732147216797
1707006239436010200,7.27801025390625,0.1751842498779297,-0.11630904674530029,0.40847015380859375
1707006239454968800,7.29696875,-0.368921160697937,-0.8197391629219055,-0.10007953643798828
1707006239473927400,7.315927490234375,-1.2670170068740845,-0.7575883269309998,0.2840433120727539
1707006239492886000,7.334885986328125,-1.232399821281433,-0.9096899032592773,0.18741703033447266
1707006239511844600,7.3538447265625,-1.0261437892913818,-1.1864017248153687,-0.45281124114990234
1707006239530803000,7.372802978515625,-1.195325255393982,-1.1514699459075928,-0.3472452163696289
1707006239549761500,7.391761474609375,-1.2678101062774658,-1.2824807167053223,-0.5202836990356445
1707006239568720100,7.41072021484375,-1.0069754123687744,-1.4502824544906616,-0.9400520324707031
1707006239587678700,7.4296787109375,-1.0246766805648804,-0.7780863642692566,-0.5783939361572266
1707006239606637300,7.44863720703125,-0.9346051216125488,-0.8489648699760437,-0.009517669677734375
1707006239625596000,7.467595947265625,-0.49781620502471924,-1.4308364391326904,-0.5243120193481445
1707006239644554500,7.486554443359375,-0.45473599433898926,-1.3416695594787598,-0.8113880157470703
1707006239663513000,7.50551318359375,-0.6440818309783936,-0.8149376511573792,-0.4302072525024414
1707006239682471700,7.5244716796875,-0.8070254325866699,-0.6888502240180969,-0.15904808044433594
1707006239701430000,7.543429931640625,-0.7731838226318359,-0.8682631850242615,-0.3658123016357422
1707006239720388600,7.562388671875,-1.1750311851501465,-0.6773240566253662,-0.2394237518310547
1707006239739347200,7.58134716796875,-0.7707396745681763,-0.6880534887313843,-0.10070323944091797
1707006239758305800,7.600305908203125,-0.2398291826248169,-0.8469719886779785,-0.29698657989501953
1707006239777264400,7.619264404296875,-0.17698991298675537,-0.5549159049987793,-0.2898244857788086
1707006239796223000,7.638222900390625,-0.35103726387023926,-0.33417409658432007,-0.09320831298828125
1707006239815181600,7.657181640625,0.43234479427337646,-0.6376711130142212,-0.4698829650878906
1707006239834140200,7.67614013671875,1.0910875797271729,-0.23258960247039795,-0.7103633880615234
1707006239853098800,7.6950986328125,-0.040493130683898926,1.010319471359253,0.41335391998291016
1707006239872057300,7.714057373046875,-0.3655247688293457,0.577531635761261,1.2125539779663086
1707006239891016000,7.733015869140625,0.4440826177597046,-0.2959047555923462,0.1297931671142578
1707006239909974500,7.751974609375,0.526900053024292,0.3846033215522766,0.18594741821289062
1707006239928933000,7.77093310546875,0.32349395751953125,0.5293413996696472,0.9602594375610352
1707006239947891700,7.7898916015625,0.40709948539733887,-0.7511996030807495,0.7420377731323242
1707006239966850300,7.808850341796875,0.011897444725036621,-1.1238783597946167,0.3528871536254883
1707006239985809000,7.827808837890625,-0.3694000244140625,-0.09088349342346191,-0.5514307022094727
1707006240004767200,7.846767333984375,-0.030924677848815918,0.15558117628097534,-0.4981231689453125
1707006240023726000,7.86572607421875,-0.12003684043884277,0.023627638816833496,-0.04206657409667969
1707006240042684400,7.884684326171875,-0.1649012565612793,-0.2450527548789978,0.07586383819580078
1707006240061643300,7.903643310546875,-0.017767906188964844,-0.4705800414085388,-0.029836654663085938
1707006240080601600,7.9226015625,-0.37668752670288086,-0.16508138179779053,0.04268455505371094
1707006240099560200,7.941560302734375,-0.1464245319366455,0.25458824634552,-0.48177051544189453
1707006240118518800,7.960518798828125,-0.1929260492324829,0.41949188709259033,-0.4287223815917969
1707006240137477400,7.979477294921875,0.1379469633102417,0.34741830825805664,-0.12840652465820312
1707006240156436000,7.99843603515625,0.499761700630188,0.19220340251922607,0.02997303009033203
1707006240175394600,8.01739453125,0.4658682346343994,0.3655043840408325,0.2579364776611328
1707006240194353200,8.036353271484375,0.42137205600738525,0.5781068801879883,-0.00038623809814453125
1707006240213311700,8.055311767578125,-0.15364623069763184,0.4920109510421753,-0.03232002258300781
1707006240232270300,8.074270263671876,-0.5599343776702881,0.4234964847564697,-0.20685577392578125
1707006240251229000,8.09322900390625,0.056978821754455566,0.09199225902557373,-0.3372793197631836
1707006240270187500,8.1121875,-0.20184683799743652,-0.39397478103637695,-0.016165733337402344
1707006240289146000,8.13114599609375,0.6196726560592651,-0.5964512825012207,0.840794563293457
1707006240308104700,8.150104736328124,0.4747934341430664,-0.5388795137405396,0.9910659790039062
1707006240327063300,8.169063232421875,0.12166893482208252,-0.5192580223083496,0.6463327407836914
1707006240346022000,8.18802197265625,-0.5832688212394714,-0.8487802743911743,0.10367488861083984
1707006240364980500,8.20698046875,-0.6464647054672241,-0.612700343132019,-0.8366069793701172
1707006240383939000,8.22593896484375,-0.3196280598640442,-0.42704689502716064,-1.196640968322754
1707006240402897700,8.244897705078126,-0.6669543981552124,-0.1392589807510376,-0.2897024154663086
1707006240421856300,8.263856201171874,-0.7967860102653503,-0.01576364040374756,-0.10433578491210938
1707006240440814800,8.28281494140625,-0.17919468879699707,-0.40988826751708984,-0.30411720275878906
1707006240459773400,8.3017734375,-0.14426594972610474,-0.24752986431121826,-0.061344146728515625
1707006240478732000,8.32073193359375,0.05636441707611084,0.12539267539978027,0.1628875732421875
1707006240497690600,8.339690673828125,0.052699148654937744,0.41259872913360596,0.24338626861572266
1707006240516649200,8.358649169921875,0.09913641214370728,0.24597418308258057,0.13280582427978516
1707006240535607800,8.37760791015625,0.04613018035888672,0.13702833652496338,0.014933586120605469
1707006240554566400,8.39656640625,0.031429946422576904,0.19735753536224365,0.14139556884765625
1707006240573525000,8.41552490234375,0.22498178482055664,0.14980542659759521,0.11479377746582031
1707006240592483600,8.434483642578124,0.045041680335998535,-0.039643049240112305,-0.09133052825927734
1707006240611442200,8.453442138671875,-0.048856258392333984,0.05417776107788086,0.1231985092163086
1707006240630400800,8.47240087890625,0.2798089385032654,-0.3396167755126953,0.12086677551269531
1707006240649359400,8.491359375,-0.2772676348686218,-0.09590935707092285,-0.036808013916015625
1707006240668318000,8.51031787109375,-0.8251118063926697,0.19686543941497803,-0.2470254898071289
1707006240687276500,8.529276611328125,-0.6865717768669128,-0.014726877212524414,-0.7170877456665039
1707006240706235100,8.548235107421876,-0.3811835050582886,0.02934849262237549,-0.4953451156616211
1707006240725193700,8.56719384765625,0.049443960189819336,-0.15215790271759033,0.1508655548095703
1707006240744152300,8.58615234375,0.06235772371292114,-0.1652209758758545,0.17611217498779297
1707006240763111000,8.60511083984375,0.08712577819824219,-0.021675467491149902,-0.008404731750488281
1707006240782069500,8.624069580078125,-0.0075522661209106445,-0.01425790786743164,0.13056468963623047
1707006240801028400,8.6430283203125,0.16917049884796143,-0.20225906372070312,0.08757400512695312
1707006240819986700,8.661986572265626,0.2226964235305786,-0.2780568599700928,-0.015040397644042969
1707006240838945500,8.680945556640625,-0.08027088642120361,0.24322450160980225,-0.04807472229003906
1707006240857903900,8.69990380859375,-0.15125811100006104,0.1539762020111084,0.12932205200195312
1707006240876862700,8.71886279296875,-0.3575707674026489,0.04723775386810303,-0.15832996368408203
1707006240895821000,8.737821044921875,-0.3200955390930176,0.04485344886779785,-0.08144569396972656
1707006240914780000,8.75677978515625,-0.0093156099319458,0.32769250869750977,0.31503963470458984
1707006240933738500,8.775738525390626,-0.17599016427993774,0.0482097864151001,0.025201797485351562
1707006240952697000,8.794697021484374,-0.2325984239578247,-0.2074282169342041,0.0066623687744140625
1707006240971655700,8.81365576171875,-0.29837846755981445,-0.3688002824783325,-0.082763671875
1707006240990614300,8.8326142578125,-0.40002119541168213,0.38824915885925293,0.6900835037231445
1707006241009572900,8.85157275390625,-0.2723988890647888,0.45786821842193604,1.4186363220214844
1707006241028531500,8.870531494140625,-0.1002124547958374,-0.8916350603103638,0.5927934646606445
1707006241047490000,8.889489990234376,-0.5014657974243164,-0.7277125120162964,0.49364471435546875
1707006241066448600,8.90844873046875,-0.518122673034668,0.6595029830932617,1.2431249618530273
1707006241085407200,8.9274072265625,0.2823605537414551,0.24148297309875488,1.1227340698242188
1707006241104365800,8.94636572265625,1.3434972763061523,0.023557186126708984,1.7465476989746094
1707006241123324400,8.965324462890624,1.9205286502838135,0.8744871616363525,1.4201087951660156
1707006241142283000,8.984282958984375,2.2886950969696045,0.4867713451385498,0.14770889282226562
1707006241161241600,9.00324169921875,1.8393880128860474,0.1297626495361328,0.15830421447753906
1707006241180200200,9.0222001953125,1.7927602529525757,-1.9174106121063232,-0.7335662841796875
1707006241199158800,9.04115869140625,0.25182461738586426,-0.05007052421569824,-0.9161863327026367
1707006241218117400,9.060117431640625,-0.0326235294342041,-0.4723179340362549,-0.6988086700439453
1707006241237076000,9.079075927734374,-0.19545531272888184,-0.3110928535461426,-1.2301950454711914
1707006241256034600,9.09803466796875,-0.8814021348953247,-0.7453219890594482,-1.0260772705078125
1707006241274993200,9.1169931640625,-1.091735601425171,-1.7342171669006348,0.11862659454345703
1707006241293951700,9.13595166015625,-0.5893309116363525,-1.3893001079559326,-1.3404908180236816
1707006241312910300,9.154910400390625,-0.24461185932159424,-1.1114370822906494,-1.8888053894042969
1707006241331869000,9.173868896484375,-0.9024580717086792,-0.07197427749633789,-0.5578994750976562
1707006241350827500,9.19282763671875,-0.7063608169555664,-0.8453207015991211,-0.8596286773681641
1707006241369786000,9.2117861328125,0.316228985786438,-1.6196784973144531,-1.7865257263183594
1707006241388744700,9.23074462890625,-0.3364534378051758,0.5516452789306641,0.24408626556396484
1707006241407703600,9.24970361328125,-0.11640679836273193,0.7576642036437988,0.9546051025390625
1707006241426662000,9.268661865234375,-0.07723057270050049,-2.7444519996643066,-0.9961481094360352
1707006241445620700,9.287620849609375,0.25382351875305176,2.8640451431274414,-3.39620304107666
1707006241464579000,9.3065791015625,-0.13391494750976562,4.760582447052002,1.7486658096313477
1707006241483538000,9.325537841796875,0.9349274635314941,-1.57688570022583,2.2375049591064453
1707006241502496500,9.34449658203125,0.6945993900299072,-3.2902679443359375,-1.7683124542236328
1707006241521455000,9.363455078125,0.18278050422668457,-0.1095585823059082,-2.680769920349121
1707006241540413700,9.38241357421875,-1.1592493057250977,2.3424625396728516,2.1899614334106445
1707006241559372300,9.401372314453125,-0.167924165725708,-0.036205291748046875,1.8922996520996094
1707006241578331000,9.420330810546876,0.17424345016479492,-1.2282235622406006,-0.9451274871826172
1707006241597289500,9.43928955078125,-1.5298418998718262,-0.6071305274963379,-0.8667316436767578
1707006241616248000,9.458248046875,-1.9476450681686401,-0.26117491722106934,0.991450309753418
1707006241635206700,9.47720654296875,-2.2043988704681396,0.3115108013153076,0.13916969299316406
1707006241654165200,9.496165283203124,0.016733884811401367,-0.1849069595336914,-0.5687408447265625
1707006241673123800,9.515123779296875,-0.6545723676681519,-0.12299251556396484,-0.18841934204101562
1707006241692082400,9.53408251953125,-0.5068517923355103,-0.909771203994751,-0.7097530364990234
1707006241711041000,9.553041015625,0.4944307804107666,-0.3106575012207031,-1.1530075073242188
1707006241729999600,9.57199951171875,0.4565012454986572,0.18218469619750977,0.3249387741088867
1707006241748958200,9.590958251953126,-1.5378403663635254,1.4586224555969238,0.7016820907592773
1707006241767916800,9.609916748046874,1.2133612632751465,-0.5674488544464111,-1.8722891807556152
1707006241786875400,9.62887548828125,1.5333349704742432,0.6126890182495117,-1.860295295715332
1707006241805834000,9.647833984375,1.1328456401824951,1.4389772415161133,0.2965078353881836
1707006241824792600,9.66679248046875,0.3214547634124756,0.511509895324707,-0.052333831787109375
1707006241843751200,9.685751220703125,-1.2173247337341309,-0.28552675247192383,-0.00305938720703125
1707006241862709800,9.704709716796875,-0.4625598192214966,0.19988346099853516,-0.04649543762207031
1707006241881668400,9.72366845703125,-1.023261308670044,0.12828636169433594,-1.1516036987304688
1707006241900627000,9.742626953125,-1.3346788883209229,0.49769020080566406,0.7490005493164062
1707006241919585500,9.76158544921875,-1.2473219633102417,-0.033194541931152344,-1.0738821029663086
1707006241938544000,9.780544189453124,-1.730530023574829,-0.31980109214782715,-1.0845012664794922
1707006241957502700,9.799502685546875,-1.0875585079193115,-0.6114530563354492,0.3181123733520508
1707006241976461300,9.81846142578125,-0.4910140037536621,-0.6559638977050781,-0.45818328857421875
1707006241995420000,9.837419921875,-0.07851767539978027,-0.5103344917297363,-1.5393223762512207
1707006242014378500,9.85637841796875,0.15921461582183838,0.07422399520874023,-0.7514123916625977
1707006242033337300,9.87533740234375,0.6258090734481812,0.4985795021057129,0.5769052505493164
1707006242052295700,9.894295654296876,0.7595977783203125,-0.15633201599121094,0.04833984375
1707006242071254500,9.913254638671875,0.5771502256393433,-0.7550911903381348,-0.18486976623535156
1707006242090212900,9.932212890625,0.5990535020828247,-0.4385380744934082,0.16624736785888672
1707006242109171700,9.951171630859376,0.5879278182983398,-0.4768815040588379,-0.11923408508300781
1707006242128130000,9.970130126953125,0.27738726139068604,-0.610184907913208,-0.6387720108032227
1707006242147089000,9.9890888671875,-0.03251373767852783,0.03526163101196289,-0.00017547607421875
1707006242166047200,10.008047119140626,-0.21181762218475342,0.17879247665405273,0.048140525817871094
1707006242185006000,10.027006103515625,-0.24176204204559326,-0.944242000579834,-0.4264717102050781
1707006242203964400,10.04596435546875,-0.37369030714035034,-1.3587255477905273,-0.5910348892211914
1707006242222923300,10.06492333984375,-0.5387318134307861,-0.7755270004272461,-0.41283226013183594
1707006242241881600,10.083881591796874,-0.49080657958984375,-0.27608513832092285,-0.5133123397827148
1707006242260840400,10.10284033203125,-0.3613789677619934,-0.24130821228027344,-0.5694398880004883
1707006242279798800,10.121798828125,-0.4164443016052246,-0.1603403091430664,-0.09563350677490234
1707006242298757600,10.140757568359374,-0.4876630902290344,0.1872243881225586,0.33800315856933594
1707006242317716000,10.159716064453125,-0.21072173118591309,-0.19197344779968262,-0.12187480926513672
1707006242336674800,10.1786748046875,0.07412761449813843,-0.7720580101013184,-0.9701862335205078
1707006242355633200,10.197633056640624,0.21637177467346191,-0.7591385841369629,-0.7196283340454102
1707006242374592000,10.216592041015625,0.09008288383483887,-0.780005931854248,0.5764141082763672
1707006242393550300,10.23555029296875,0.080355703830719,-0.8213503360748291,0.5379676818847656
1707006242412509200,10.25450927734375,-0.029621362686157227,-0.7648632526397705,-0.47072792053222656
1707006242431467500,10.273467529296875,-0.15622259676456451,-0.4471445083618164,-1.183588981628418
1707006242450426400,10.29242626953125,-0.2759915292263031,-0.36778903007507324,-1.1247663497924805
1707006242469384700,10.311384765625,-0.14723163843154907,-0.4731462001800537,-0.814671516418457
1707006242488343600,10.330343505859375,-0.15133322775363922,-0.2615211009979248,0.07388114929199219
1707006242507302000,10.349302001953125,-0.1782398819923401,-0.4648094177246094,0.06190013885498047
1707006242526260700,10.3682607421875,-0.32444363832473755,-0.7880988121032715,-1.0968503952026367
1707006242545219000,10.387218994140625,-0.6240445971488953,-0.7695362567901611,-0.8070459365844727
1707006242564178000,10.406177978515625,-0.19083550572395325,-0.3078598976135254,-0.3578176498413086
1707006242583136500,10.425136474609374,0.061836302280426025,-0.14719462394714355,-0.5904512405395508
1707006242602095000,10.44409521484375,-0.39983677864074707,-0.18357014656066895,-0.6223649978637695
1707006242621053700,10.4630537109375,-0.3381008505821228,0.26830625534057617,-0.17952919006347656
1707006242640012300,10.48201220703125,0.2668105363845825,0.8082849979400635,0.5544319152832031
1707006242658971000,10.500970947265625,0.25005900859832764,1.3700720071792603,0.5349655151367188
1707006242677929200,10.51992919921875,0.4044184684753418,0.8362202644348145,0.2560291290283203
1707006242696888000,10.53888818359375,0.6581859588623047,-0.08301782608032227,-0.1654224395751953
1707006242715846400,10.557846435546875,0.48760831356048584,-0.6284056305885315,-0.2929525375366211
1707006242734805200,10.57680517578125,0.21422815322875977,-0.2783810496330261,0.12354660034179688
1707006242753763600,10.595763671875,0.39783775806427,0.6773170232772827,0.4631175994873047
1707006242772722400,10.614722412109375,0.6253315210342407,1.6463558673858643,0.6356801986694336
1707006242791680800,10.6336806640625,0.5020631551742554,1.5263571739196777,-0.07089614868164062
1707006242810639600,10.6526396484375,0.3603360652923584,0.4735358953475952,-0.15322017669677734
1707006242829598000,10.671597900390625,0.47999799251556396,-0.13463851809501648,-0.22268104553222656
1707006242848556500,10.690556640625,0.7443792819976807,0.02377384901046753,-0.0655508041381836
1707006242867515100,10.70951513671875,0.4874969720840454,0.4374275207519531,-0.0832366943359375
1707006242886473700,10.7284736328125,0.7227045297622681,1.1931917667388916,0.7657890319824219
1707006242905432300,10.747432373046875,0.801284670829773,1.0196210145950317,0.6806001663208008
1707006242924391000,10.766390869140626,0.4750096797943115,0.321286678314209,-0.16222190856933594
1707006242943349500,10.785349609375,0.021783947944641113,-0.1489931344985962,-1.039358139038086
1707006242962308000,10.80430810546875,-0.2507723569869995,0.22552716732025146,-0.8418426513671875
1707006242981266700,10.8232666015625,-0.33048200607299805,0.5649462938308716,0.27301502227783203
1707006243000225300,10.842225341796874,-0.34355103969573975,0.8574144840240479,0.8264131546020508
1707006243019183900,10.861183837890625,-0.4014934301376343,0.9859362840652466,0.6246061325073242
1707006243038142500,10.880142578125,-0.44815051555633545,0.4298219680786133,0.17171287536621094
1707006243057101000,10.89910107421875,-0.26999902725219727,0.0035355091094970703,0.061435699462890625
1707006243076059600,10.9180595703125,0.02718937397003174,-0.22726845741271973,0.15209579467773438
1707006243095018200,10.937018310546875,-0.24495327472686768,0.0531611442565918,-0.16146278381347656
1707006243113976800,10.955976806640624,-0.9046773910522461,0.5686888694763184,-0.14840316772460938
1707006243132935400,10.974935302734375,-0.9969321489334106,0.6307132244110107,0.5347509384155273
1707006243151894000,10.99389404296875,-0.42788612842559814,0.03130054473876953,0.30089664459228516
1707006243170852600,11.0128525390625,-0.6029180288314819,0.36313295364379883,0.2774667739868164
1707006243189811200,11.031811279296875,0.1919703483581543,0.40567493438720703,1.3490829467773438
1707006243208769800,11.050769775390625,0.9501938223838806,-0.4387826919555664,1.1411457061767578
1707006243227728400,11.069728271484376,1.214930772781372,-0.9610905647277832,0.1427173614501953
1707006243246687000,11.08868701171875,0.4190712571144104,-0.2855186462402344,-0.24571514129638672
1707006243265645600,11.1076455078125,-0.0426483154296875,0.7294583320617676,1.016310691833496
1707006243284604200,11.126604248046876,0.14893978834152222,0.38313961029052734,1.5987396240234375
1707006243303562800,11.145562744140625,-0.09321433305740356,-0.4221196174621582,0.1890401840209961
1707006243322521300,11.164521240234375,-0.3573615550994873,-0.8168363571166992,-0.59747314453125
1707006243341480000,11.18347998046875,-0.2961955666542053,-0.9083309173583984,-0.7568511962890625
1707006243360438500,11.2024384765625,-0.7822173237800598,-0.40139150619506836,-0.15150785446166992
1707006243379397000,11.221397216796875,-1.3467235565185547,0.38898277282714844,0.7158617973327637
1707006243398355700,11.240355712890626,-0.9776453375816345,0.21180248260498047,0.3359050750732422
1707006243417314300,11.259314208984375,-0.7655279040336609,0.010554313659667969,-0.2643899917602539
1707006243436273000,11.27827294921875,-0.2984310984611511,-0.2461709976196289,0.6036992073059082
1707006243455231500,11.2972314453125,0.3286890387535095,-0.9291515350341797,0.6031579971313477
1707006243474190000,11.316190185546875,0.15397855639457703,-0.40007495880126953,-0.0618128776550293
1707006243493148700,11.335148681640625,-0.04997347295284271,0.3164224624633789,-0.2462754249572754
1707006243512107500,11.354107421875,0.33606645464897156,-0.20782947540283203,0.285491943359375
1707006243531065900,11.37306591796875,0.25556787848472595,-0.0355219841003418,0.2039794921875
1707006243550024700,11.392024658203125,0.1259194016456604,0.4004526138305664,0.16621732711791992
1707006243568983000,11.410983154296876,0.12284150719642639,0.12555789947509766,0.7863483428955078
1707006243587942000,11.42994189453125,0.1619810163974762,-0.19411754608154297,1.1966204643249512
1707006243606900500,11.448900390625,-0.13537541031837463,-0.07576322555541992,0.14068937301635742
1707006243625859000,11.467859130859376,-0.4986347556114197,-0.3986091613769531,-1.1368341445922852
1707006243644817700,11.486817626953124,-1.0777804851531982,-0.11534595489501953,-0.8272762298583984
1707006243663776300,11.5057763671875,-1.192594051361084,0.6435375213623047,0.21484851837158203
1707006243682734800,11.52473486328125,-0.12180525064468384,0.0330662727355957,0.5073838233947754
1707006243701693400,11.543693359375,0.3696656823158264,-0.7996492385864258,0.992434024810791
1707006243720652000,11.562652099609375,-0.40437406301498413,0.653343677520752,1.837052345275879
1707006243739610600,11.581610595703125,0.0008924603462219238,0.5296988487243652,0.4668412208557129
1707006243758569200,11.6005693359375,0.1205301284790039,-0.4976043701171875,-0.37903451919555664
1707006243777527800,11.61952783203125,-1.3818565607070923,0.012178421020507812,0.31307554244995117
1707006243796486400,11.638486328125,-0.5992187261581421,0.3715176582336426,-0.3660273551940918
1707006243815445000,11.657445068359374,-0.6576806306838989,-0.8593225479125977,-0.42865467071533203
1707006243834403600,11.676403564453125,-1.287225365638733,-1.2069072723388672,0.2277994155883789
1707006243853362400,11.695362548828125,-1.1304619312286377,-0.546412467956543,0.02755880355834961
1707006243872321000,11.714321044921874,-0.4416115880012512,-0.20884132385253906,0.13184452056884766
1707006243891279600,11.733279541015625,0.0741424560546875,0.5736427307128906,-0.19844341278076172
1707006243910238200,11.75223828125,1.1591941118240356,0.3021059036254883,-0.8897595405578613
1707006243929196800,11.77119677734375,1.4018231630325317,0.9426116943359375,-1.171945571899414
1707006243948155400,11.7901552734375,2.626359462738037,0.623560905456543,0.1320953369140625
1707006243967114000,11.809114013671875,2.26765513420105,-0.007321357727050781,1.1811294555664062
1707006243986072600,11.828072509765626,0.904857873916626,0.07166671752929688,-0.321321964263916
1707006244005031200,11.84703125,-0.38592541217803955,0.3023958206176758,-0.9202170372009277
1707006244023989800,11.86598974609375,-0.08854377269744873,-0.1970987319946289,-1.6576762199401855
1707006244042948400,11.8849482421875,1.4768235683441162,-0.49407005310058594,-2.015373706817627
1707006244061907200,11.9039072265625,1.4544659852981567,-1.1312665939331055,-0.07848548889160156
1707006244080865800,11.92286572265625,0.8641124963760376,-0.9805965423583984,0.06767702102661133
1707006244099824400,11.941824462890626,-0.5165860652923584,-0.3685646057128906,0.3267807960510254
1707006244118783000,11.960782958984375,0.5375410318374634,-1.2538318634033203,0.07602500915527344
1707006244137741600,11.979741455078125,0.9921513795852661,-0.6649465560913086,0.7401142120361328
1707006244156700200,11.9987001953125,1.9306449890136719,0.27939891815185547,0.7875833511352539
1707006244175659000,12.017658935546875,3.108713388442993,-0.5051436424255371,1.750373363494873
1707006244194617300,12.036617431640625,1.480191707611084,0.25738048553466797,2.121438980102539
1707006244213576200,12.055576171875,-0.2547982335090637,1.1143641471862793,1.3004684448242188
1707006244232534800,12.07453466796875,-0.40263211727142334,-0.43320751190185547,0.34197282791137695
1707006244251493400,12.093493408203125,-1.1495519876480103,-0.8005285263061523,0.1049652099609375
1707006244270452000,12.112451904296876,-0.6118078827857971,-1.148984432220459,-0.10917806625366211
1707006244289410600,12.13141064453125,0.06159454584121704,-0.6905002593994141,0.2305312156677246
1707006244308369200,12.150369140625,-0.1932033896446228,-0.5174994468688965,1.2134590148925781
1707006244327327700,12.16932763671875,-0.2095131278038025,0.3056626319885254,0.21010398864746094
1707006244346286600,12.18828662109375,-0.140092670917511,0.2965846061706543,0.4339113235473633
1707006244365245200,12.2072451171875,-0.49719154834747314,-0.5931253433227539,0.7415199279785156
1707006244384203800,12.226203857421876,-1.584295630455017,-1.1599798202514648,-0.05586528778076172
1707006244403162400,12.245162353515624,-2.351487874984741,-0.209136962890625,-0.5502667427062988
1707006244422121000,12.264120849609375,-1.3717892169952393,0.6914153099060059,0.5092105865478516
1707006244441079600,12.28307958984375,0.32885217666625977,-0.16003131866455078,0.33777523040771484
1707006244460038100,12.3020380859375,0.1552821397781372,-0.8524718284606934,0.8116779327392578
1707006244478997000,12.3209970703125,0.09522819519042969,0.26368069648742676,0.3632545471191406
1707006244497955600,12.33995556640625,0.8255836963653564,0.8653955459594727,0.25612735748291016
1707006244516914200,12.3589140625,1.3692392110824585,0.5308327674865723,0.8739700317382812
1707006244535872800,12.377872802734375,0.9692798852920532,0.7221875190734863,0.9949226379394531
1707006244554831400,12.396831298828126,0.7707077264785767,1.2574195861816406,0.9624738693237305
1707006244573790000,12.4157900390625,1.0677739381790161,0.2501106262207031,0.7038555145263672
1707006244592748800,12.434748779296875,1.5256600379943848,-0.3136179447174072,0.10803508758544922
1707006244611707400,12.453707275390625,1.831522822380066,-0.03704798221588135,-0.34435462951660156
1707006244630666000,12.472666015625,0.2844998836517334,0.9170238971710205,0.2538337707519531
1707006244649624600,12.49162451171875,-0.04742574691772461,1.1389151811599731,0.09900856018066406
1707006244668583200,12.510583251953125,1.1738898754119873,-0.31466543674468994,-0.1223459243774414
1707006244687541800,12.529541748046874,0.12358748912811279,0.281070351600647,0.4750213623046875
1707006244706500400,12.548500244140625,0.712683916091919,0.855341911315918,1.4763002395629883
1707006244725459200,12.567459228515625,1.4617995023727417,-1.0266010761260986,0.29359912872314453
1707006244744417800,12.586417724609374,-0.8836977481842041,0.01917511224746704,-0.39170169830322266
1707006244763376400,12.60537646484375,-0.2857084274291992,-0.6292789578437805,-0.019886016845703125
1707006244782335000,12.6243349609375,0.4438908100128174,-1.571738839149475,-1.8400487899780273
1707006244801293600,12.64329345703125,-1.942284345626831,-0.5299463272094727,-1.4517507553100586
1707006244820252200,12.662252197265625,-1.6746726036071777,-1.4758169651031494,-0.1840372085571289
1707006244839210800,12.681210693359375,-0.5716814994812012,-1.892303466796875,-2.301840305328369
1707006244858169600,12.700169677734374,-0.9096614122390747,0.7577230930328369,-0.6859674453735352
1707006244877128200,12.719128173828125,-2.989846706390381,2.014436721801758,1.9112529754638672
1707006244896086800,12.738086669921875,-2.6165647506713867,-2.019253969192505,0.4286527633666992
1707006244915045400,12.75704541015625,-0.09723234176635742,-3.323951005935669,-2.6588401794433594
1707006244934004000,12.77600390625,-1.1524264812469482,1.8197834491729736,-0.9615612030029297
1707006244952962600,12.794962646484375,-0.7826901078224182,1.9085004329681396,1.9089117050170898
1707006244971921400,12.81392138671875,2.8707118034362793,-2.6744184494018555,-0.26150035858154297
1707006244990880000,12.8328798828125,1.5381863117218018,0.35486650466918945,-0.3212594985961914
1707006245009838600,12.851838623046875,0.4732288420200348,1.6224875450134277,-1.0739011764526367
1707006245028797200,12.870797119140626,-1.8429372310638428,0.025577545166015625,-1.2739896774291992
1707006245047755800,12.889755859375,-0.030121326446533203,-2.8758411407470703,-0.871612548828125
1707006245066714600,12.908714599609375,2.100186824798584,1.1892070770263672,0.20182228088378906
1707006245085673000,12.9276728515625,-0.16383594274520874,1.2709312438964844,1.135080337524414
1707006245104631800,12.9466318359375,-0.44505566358566284,0.03984975814819336,-0.3271369934082031
1707006245123590400,12.96559033203125,0.2545550465583801,-2.7987709045410156,-2.2975921630859375
1707006245142549000,12.984549072265626,-1.248347520828247,-3.0721936225891113,-1.3619146347045898
1707006245161507600,13.003507568359375,-0.27408474683761597,-0.04065418243408203,1.4565792083740234
1707006245180466200,13.022466064453125,0.6024949550628662,0.18343353271484375,0.20501708984375
1707006245199425000,13.041425048828126,-1.137575626373291,-2.528658390045166,-1.7034378051757812
1707006245218383400,13.06038330078125,-1.9659849405288696,-1.5537519454956055,-1.2225151062011719
1707006245237342200,13.07934228515625,-0.9728167057037354,0.06569051742553711,-0.11478996276855469
1707006245256300800,13.09830078125,0.58634352684021,-1.7730703353881836,-0.11215686798095703
1707006245275259400,13.11725927734375,0.7005900144577026,-2.1838717460632324,-0.08649682998657227
1707006245294218000,13.136218017578125,-0.11329389363527298,-1.8863425254821777,0.2514057159423828
1707006245313176600,13.155176513671876,-1.177544355392456,-1.8844585418701172,-0.8125462532043457
1707006245332135200,13.17413525390625,-1.0266698598861694,-1.795158863067627,-1.3183479309082031
1707006245351093800,13.19309375,-0.22144150733947754,-1.520266056060791,-0.42299938201904297
1707006245370052600,13.212052490234376,-0.04143892973661423,-1.237403392791748,-0.14987611770629883
1707006245389011200,13.23101123046875,-0.8657722473144531,-1.450019359588623,-0.8444342613220215
1707006245407969800,13.2499697265625,-1.3223246335983276,-1.8267743587493896,-1.4486570358276367
1707006245426928400,13.268928466796876,-1.5834983587265015,-1.5091466903686523,-1.1237854957580566
1707006245445887000,13.287886962890624,-0.3018534183502197,-1.1753144264221191,-1.3760204315185547
1707006245464845600,13.306845458984375,-0.14173054695129395,0.14707612991333008,-1.1019320487976074
1707006245483804400,13.325804443359376,-0.11560976505279541,-0.18728923797607422,-0.4863772392272949
1707006245502763000,13.344762939453124,0.33775919675827026,-1.1416873931884766,-0.3985624313354492
1707006245521721600,13.3637216796875,0.02016925811767578,-0.5216622352600098,-0.4381246566772461
1707006245540680200,13.38268017578125,-0.08274304866790771,-0.29771900177001953,-0.7665138244628906
1707006245559638800,13.401638671875,-0.1117171049118042,-0.646324634552002,-1.16839599609375
1707006245578597400,13.420597412109375,0.013495922088623047,-0.3072829246520996,-0.8842439651489258
1707006245597556000,13.439555908203126,0.3867889642715454,-0.05656266212463379,-0.6365251541137695
1707006245616514800,13.458514892578124,0.6844414472579956,0.10878515243530273,-0.566035270690918
1707006245635473400,13.477473388671875,0.2215484380722046,0.8264877796173096,-0.20250415802001953
1707006245654432000,13.496431884765625,0.6696650981903076,0.7196211814880371,0.3643531799316406
1707006245673390600,13.515390625,0.5365447998046875,-0.11615872383117676,-0.5235271453857422
1707006245692349200,13.53434912109375,1.0773725509643555,0.5463290214538574,-0.2757587432861328
1707006245711307800,13.553307861328125,0.793588399887085,1.7253272533416748,0.2450551986694336
1707006245730266400,13.572266357421874,-0.0977790355682373,1.0133637189865112,1.1114158630371094
1707006245749225000,13.591224853515625,-0.2880675792694092,-0.754419207572937,0.8221664428710938
1707006245768183600,13.61018359375,-0.8233180046081543,-0.11917507648468018,-0.2173299789428711
1707006245787142400,13.629142333984374,-1.206892967224121,0.4578866958618164,0.1814250946044922
1707006245806101000,13.64810107421875,-0.5958101749420166,-0.33454573154449463,0.38100433349609375
1707006245825059600,13.6670595703125,-0.06133008003234863,-0.6582680940628052,-1.2552299499511719
1707006245844018200,13.68601806640625,-0.39286327362060547,1.0880061388015747,-1.062596321105957
1707006245862976800,13.704976806640625,0.13146042823791504,1.6053013801574707,0.9281005859375
1707006245881935400,13.723935302734375,0.4427189826965332,1.2863482236862183,1.657841682434082
1707006245900894200,13.742894287109374,0.7355818748474121,1.0516924858093262,0.34033203125
1707006245919852800,13.761852783203125,0.7216715812683105,1.2823081016540527,0.061141014099121094
1707006245938811400,13.780811279296875,1.2082916498184204,0.9262450337409973,1.5999116897583008
1707006245957770000,13.79977001953125,1.3633840084075928,1.1147706508636475,1.9055099487304688
1707006245976728600,13.818728515625,1.0174471139907837,1.245069980621338,0.7608652114868164
1707006245995687200,13.837687255859375,0.3691939115524292,0.7934068441390991,-0.3711843490600586
1707006246014645800,13.856645751953126,-0.44799375534057617,0.9537941217422485,0.5776224136352539
1707006246033604400,13.875604248046875,-0.7468807697296143,0.04045915603637695,1.2227983474731445
1707006246052563000,13.89456298828125,-0.7592778205871582,-0.253798246383667,-0.23320674896240234
1707006246071521800,13.913521728515626,-0.13419818878173828,0.5527174472808838,-1.3125648498535156
1707006246090480400,13.93248046875,0.19041287899017334,0.9270937442779541,-0.35038280487060547
1707006246109439000,13.95143896484375,0.4283338785171509,0.5947678089141846,1.3704586029052734
1707006246128397600,13.9703974609375,0.5545443296432495,0.3793003559112549,1.7480478286743164
1707006246147356200,13.989356201171875,0.6336524486541748,0.6471600532531738,0.950657844543457
1707006246166314800,14.008314697265625,-0.16135573387145996,1.2675962448120117,0.0714731216430664
1707006246185273300,14.0272734375,-0.4613666534423828,0.9217205047607422,0.29791259765625
1707006246204232000,14.04623193359375,-0.5286657810211182,-0.26326417922973633,-0.3402442932128906
1707006246223190500,14.0651904296875,-1.6401289701461792,-0.0516047477722168,-0.5798139572143555
1707006246242149400,14.0841494140625,-1.502591848373413,0.7484230995178223,0.8335351943969727
1707006246261108000,14.10310791015625,-0.714881420135498,0.4949016571044922,1.0176200866699219
1707006246280066600,14.122066650390625,-1.1669223308563232,-0.28452062606811523,-0.13454151153564453
1707006246299025200,14.141025146484376,-1.9391443729400635,-0.5186929702758789,-0.58203125
1707006246317983700,14.159983642578124,-1.629438877105713,0.08668661117553711,0.13426971435546875
1707006246336942300,14.1789423828125,-0.6260707378387451,0.23239994049072266,1.1287956237792969
1707006246355901000,14.19790087890625,-0.5609046816825867,-0.09396743774414062,1.4330763816833496
1707006246374859500,14.216859619140624,-0.6752811670303345,-1.0403680801391602,1.380202293395996
1707006246393818400,14.235818359375,-0.747090756893158,-1.8279056549072266,0.742375373840332
1707006246412776700,14.254776611328126,-0.5898860692977905,-0.9072360992431641,0.47435522079467773
1707006246431735600,14.273735595703124,0.030534088611602783,-0.2559776306152344,0.29291391372680664
1707006246450694100,14.292694091796875,0.560529351234436,-1.422576904296875,-0.3754153251647949
1707006246469652700,14.31165283203125,-0.31359973549842834,-0.12569093704223633,-0.5075774192810059
1707006246488611300,14.330611328125,0.7811279296875,0.9282050132751465,0.29354238510131836
1707006246507570000,14.34956982421875,1.7232052087783813,0.9800357818603516,3.4926939010620117
1707006246526528500,14.368528564453126,0.577127993106842,-1.0171594619750977,3.188076972961426
1707006246545487000,14.387487060546874,-1.0592650175094604,-2.3940277099609375,0.051143646240234375
1707006246564445700,14.40644580078125,-1.4049675464630127,-0.35218238830566406,-1.4384021759033203
1707006246583404300,14.425404296875,-1.78666353225708,-0.6765298843383789,-2.09987211227417
1707006246602363000,14.44436279296875,0.15004107356071472,0.3001270294189453,-0.9502382278442383
1707006246621321500,14.463321533203125,2.5080676078796387,1.1292448043823242,0.44848108291625977
1707006246640280300,14.4822802734375,2.0324089527130127,-0.559840202331543,0.9367985725402832
1707006246659238700,14.50123876953125,2.048253059387207,-0.043251991271972656,-1.2383313179016113
1707006246678197500,14.520197509765625,0.7147216796875,0.4833412170410156,-2.5036511421203613
1707006246697156000,14.539156005859375,1.493491291999817,0.23028182983398438,-0.9615206718444824
1707006246716114700,14.55811474609375,-0.693131685256958,-3.742588996887207,-0.7620434761047363
1707006246735073300,14.5770732421875,-0.6513580083847046,-1.6244850158691406,-1.410189151763916
1707006246754031900,14.596031982421875,-0.34543588757514954,-0.36280345916748047,-0.2828035354614258
1707006246772990500,14.614990478515624,0.26987433433532715,-0.5496368408203125,1.8833718299865723
1707006246791949000,14.633948974609375,0.9867361783981323,0.5896306037902832,2.213380813598633
1707006246810907600,14.65290771484375,2.0381035804748535,0.3045620918273926,0.12230682373046875
1707006246829866200,14.6718662109375,3.9198546409606934,-0.6050138473510742,-0.5695652961730957
1707006246848824800,14.690824951171875,2.449613094329834,-0.32514524459838867,2.546335220336914
1707006246867783400,14.709783447265625,-1.079798936843872,0.0441737174987793,2.315911293029785
1707006246886742000,14.728741943359376,-0.9306159615516663,-0.4456048011779785,0.11334848403930664
1707006246905700900,14.747700927734375,-0.0921165943145752,-1.499673843383789,-1.089177131652832
1707006246924659200,14.7666591796875,-0.7228202819824219,-0.6948800086975098,-0.043933868408203125
1707006246943618000,14.7856181640625,-0.5264574289321899,0.1638479232788086,1.1351065635681152
1707006246962576600,14.80457666015625,0.8348546624183655,-0.17356061935424805,1.130906581878662
1707006246981535200,14.82353515625,1.6353803873062134,-1.0643606185913086,0.798637866973877
1707006247000493800,14.842493896484376,-0.5310468673706055,0.19360733032226562,1.6551885604858398
1707006247019452400,14.861452392578125,0.20450282096862793,1.5890564918518066,1.7324657440185547
1707006247038411000,14.880410888671875,1.263238549232483,0.6321272850036621,0.4570350646972656
1707006247057369600,14.89936962890625,-0.24677670001983643,-0.5762829780578613,1.456167221069336
1707006247076328200,14.918328125,-1.4783178567886353,-0.00782155990600586,1.0439872741699219
1707006247095286800,14.937286865234375,-0.48126864433288574,0.6557741165161133,-0.8612470626831055
1707006247114245400,14.956245361328126,0.0067147016525268555,-0.6554977893829346,-0.6847667694091797
1707006247133204000,14.975203857421874,-1.1074355840682983,-0.751039981842041,0.4023857116699219
1707006247152162600,14.99416259765625,-0.6883307695388794,0.4180564880371094,0.24827289581298828
1707006247171121200,15.01312109375,0.24074316024780273,0.0349268913269043,0.44071483612060547
1707006247190079700,15.032079833984374,0.6617553234100342,-1.054699420928955,-0.18334197998046875
1707006247209038300,15.051038330078125,-1.0651159286499023,0.3205857276916504,-0.47090625762939453
1707006247227997000,15.069996826171876,-0.6474581956863403,1.0015122890472412,0.4424276351928711
1707006247246955500,15.08895556640625,0.3176530599594116,-0.04604995250701904,-0.3106241226196289
1707006247265914000,15.1079140625,0.11781454086303711,-0.16236144304275513,0.5722970962524414
1707006247284873000,15.126873046875,1.1691819429397583,-0.677014946937561,-0.4373960494995117
1707006247303831300,15.145831298828124,-0.458223819732666,-0.19861885905265808,-1.1372318267822266
1707006247322790100,15.1647900390625,-1.3753901720046997,1.0583076477050781,-1.1073102951049805
1707006247341748500,15.18374853515625,-2.4272208213806152,1.2598919868469238,-0.4558115005493164
1707006247360707300,15.202707275390624,0.1000509262084961,-1.6151456832885742,0.4339942932128906
1707006247379665700,15.221665771484375,-0.214666485786438,-2.0281100273132324,-1.6359529495239258
1707006247398624500,15.24062451171875,-1.1539303064346313,1.12567937374115,0.7938928604125977
1707006247417582800,15.259582763671874,-0.44675588607788086,0.1092221736907959,-0.9948396682739258
1707006247436541700,15.278541748046875,-0.061417579650878906,-1.8385058641433716,-0.85308837890625
1707006247455500000,15.2975,-0.21293890476226807,0.48644018173217773,-0.22548961639404297
1707006247474459000,15.316458984375,-0.22806692123413086,0.9857485294342041,-0.5002908706665039
1707006247493417200,15.335417236328125,-1.2252482175827026,-0.05437874794006348,-0.8435745239257812
1707006247512376000,15.3543759765625,-2.30315899848938,-1.6365106105804443,0.5510625839233398
1707006247531334700,15.373334716796874,1.4734795093536377,-1.2503790855407715,-1.6609649658203125
1707006247550293200,15.392293212890625,0.6642146110534668,1.3185641765594482,1.2866153717041016
1707006247569251800,15.411251953125,-0.6510639190673828,-0.0734715461730957,0.5245990753173828
1707006247588210400,15.43021044921875,1.2437667846679688,-1.7689623832702637,-2.094010353088379
1707006247607169000,15.4491689453125,1.0970642566680908,0.6275634765625,-1.2404823303222656
1707006247626127600,15.468127685546875,-0.3937948942184448,-0.2725534439086914,1.2501087188720703
1707006247645086200,15.487086181640626,0.28736376762390137,-1.9675800800323486,-0.021965980529785156
1707006247664044800,15.506044921875,1.4652740955352783,0.6996212005615234,-1.3215217590332031
1707006247683003100,15.525003173828125,0.4907177686691284,0.44991254806518555,-0.11170196533203125
1707006247701962000,15.5439619140625,-1.358672857284546,-1.6011896133422852,-0.5497221946716309
1707006247720920300,15.56292041015625,-0.5964287519454956,-1.6583237648010254,-1.604250431060791
1707006247739879200,15.581879150390625,-0.5631816387176514,-0.5779223442077637,-0.957857608795166
1707006247758837800,15.600837646484376,-0.4301183223724365,-0.7449941635131836,1.1051836013793945
1707006247777796400,15.61979638671875,-0.6812751293182373,-1.1439390182495117,0.16071605682373047
1707006247796755000,15.6387548828125,-0.16414058208465576,-1.522176742553711,-1.0008106231689453
1707006247815713500,15.657713623046876,0.25241756439208984,-0.8684425354003906,-1.4916362762451172
1707006247834672000,15.676672119140624,0.1518855094909668,-0.5420761108398438,-0.9448013305664062
1707006247853630700,15.695630615234375,-0.16775810718536377,-0.9127445220947266,0.12931346893310547
1707006247872589300,15.71458935546875,-0.20898723602294922,-1.713587999343872,-0.10158729553222656
1707006247891548000,15.7335478515625,-0.46309077739715576,-1.8113727569580078,-0.966209888458252
1707006247910506500,15.752506591796875,-0.2628394365310669,-2.1726737022399902,-0.8421225547790527
1707006247929465000,15.771465087890626,-0.08198392391204834,-1.6146392822265625,-0.37480926513671875
1707006247948423700,15.790423583984374,0.2716383934020996,-1.3653783798217773,-0.2156839370727539
1707006247967382300,15.80938232421875,0.7595996260643005,-1.6598243713378906,-0.22434139251708984
1707006247986340900,15.8283408203125,0.20763874053955078,-1.4707632064819336,-0.3519573211669922
1707006248005299500,15.847299560546874,-0.5301237106323242,-0.8110580444335938,-0.5119543075561523
1707006248024258000,15.866258056640625,0.016175150871276855,-0.7287018299102783,-1.4795942306518555
1707006248043216600,15.885216552734375,0.04315221309661865,-0.5561468601226807,-1.5228261947631836
1707006248062175200,15.90417529296875,0.29069066047668457,-0.24238014221191406,-0.6112661361694336
1707006248081133800,15.9231337890625,0.5313915014266968,-0.27848196029663086,-0.1168813705444336
1707006248100092400,15.942092529296875,0.6378653049468994,-0.48330068588256836,-0.16763591766357422
1707006248119051000,15.961051025390624,0.4392862319946289,-0.4126923084259033,-0.2941112518310547
1707006248138009600,15.980009521484375,0.1782093048095703,0.10446476936340332,-0.4451942443847656
1707006248156968200,15.99896826171875,0.2646827697753906,0.31304430961608887,-0.5564727783203125
1707006248175926800,16.0179267578125,0.5224424600601196,0.06897139549255371,-0.8017559051513672
1707006248194885400,16.036885498046875,0.5379406213760376,-0.12318611145019531,-0.6014547348022461
1707006248213844000,16.055843994140623,0.5201783180236816,0.20013022422790527,-0.04916572570800781
1707006248232802600,16.074802490234376,0.21394920349121094,0.30498528480529785,0.26923179626464844
1707006248251761200,16.09376123046875,0.04457902908325195,0.10113060474395752,0.14820289611816406
1707006248270719700,16.1127197265625,0.001844644546508789,0.6213314533233643,0.11418533325195312
1707006248289678300,16.13167822265625,-0.37740278244018555,2.0240418910980225,0.7342119216918945
1707006248308637000,16.150636962890626,-1.1666457653045654,1.4238741397857666,0.7340145111083984
1707006248327595500,16.169595458984375,-1.3528342247009277,0.14315462112426758,-0.238555908203125
1707006248346554000,16.18855419921875,-0.5856649875640869,-0.49064069986343384,-1.3814620971679688
1707006248365512700,16.2075126953125,-0.10481905937194824,-0.48186761140823364,-1.9392690658569336
1707006248384471300,16.22647119140625,-0.24427318572998047,-0.3595042824745178,-0.8092508316040039
1707006248403430000,16.245429931640626,-0.1515650749206543,0.2534593939781189,0.4742012023925781
1707006248422388500,16.264388427734374,-0.15674924850463867,1.1882960796356201,0.8697729110717773
1707006248441347000,16.28334716796875,-0.06671452522277832,2.4092068672180176,1.130112648010254
1707006248460305700,16.3023056640625,0.1289386749267578,1.4819287061691284,1.3724021911621094
1707006248479264300,16.32126416015625,0.7119524478912354,-0.9397842884063721,0.5325794219970703
1707006248498222800,16.340222900390625,0.021268129348754883,-0.5485754013061523,-0.46083927154541016
1707006248517181400,16.359181396484374,-0.00016498565673828125,1.4740322828292847,0.26586055755615234
1707006248536140000,16.37814013671875,0.2669851779937744,1.4576849937438965,0.21337604522705078
1707006248555098600,16.3970986328125,-0.10255980491638184,0.37942028045654297,0.04060173034667969
1707006248574057200,16.41605712890625,-0.5213370323181152,0.5651552677154541,0.4706745147705078
1707006248593015800,16.435015869140624,0.07472419738769531,1.5314152240753174,0.8153572082519531
1707006248611974400,16.453974365234377,0.6349698305130005,1.3408124446868896,0.5687837600708008
1707006248630933200,16.472933349609374,0.6408741474151611,0.33158087730407715,0.2813119888305664
1707006248649891600,16.4918916015625,0.37261855602264404,0.2914419174194336,1.021784782409668
1707006248668850400,16.510850341796875,0.7292114496231079,0.8039755821228027,1.4703664779663086
1707006248687808800,16.529808837890624,0.2918577194213867,0.8552265167236328,0.8345870971679688
1707006248706767600,16.548767578125,0.011680126190185547,0.5125951766967773,0.5839624404907227
1707006248725726200,16.567726318359377,-0.19644486904144287,0.539313793182373,0.4672574996948242
1707006248744684800,16.586684814453125,-0.38570737838745117,0.5882358551025391,0.8730964660644531
1707006248763643400,16.605643310546874,-0.49693477153778076,0.5494370460510254,0.045907020568847656
1707006248782602000,16.62460205078125,-0.9637149572372437,0.9640712738037109,0.14237689971923828
1707006248801560600,16.643560546875,-0.25644779205322266,0.29921913146972656,1.4654812812805176
1707006248820519200,16.662519287109376,-0.303281307220459,-0.6163702011108398,1.3225793838500977
1707006248839477800,16.681477783203125,-0.915528416633606,-1.2441730499267578,0.5388507843017578
1707006248858436600,16.7004365234375,-2.228525161743164,-0.6001381874084473,-0.3687863349914551
1707006248877395000,16.71939501953125,-2.2250006198883057,-0.39670324325561523,0.0032486915588378906
1707006248896353800,16.738353759765626,-1.6952917575836182,-0.5228691101074219,-0.4165201187133789
1707006248915312400,16.7573125,-1.5926752090454102,-0.2036433219909668,-0.4574565887451172
1707006248934271000,16.77627099609375,-0.9404563903808594,0.5289802551269531,0.6588625907897949
1707006248953229600,16.7952294921875,-0.02144753932952881,-0.7334771156311035,0.7864480018615723
1707006248972188200,16.814188232421873,0.9012205600738525,-1.302454948425293,0.5626678466796875
1707006248991146800,16.833146728515626,1.9427602291107178,0.6252331733703613,1.7873988151550293
1707006249010105300,16.852105224609375,3.2336905002593994,0.05844926834106445,3.9151177406311035
1707006249029064000,16.87106396484375,1.5164072513580322,-2.334336280822754,2.2324070930480957
1707006249048022500,16.8900224609375,-0.25210073590278625,-1.934967041015625,-1.3415870666503906
1707006249066981400,16.9089814453125,-2.1380457878112793,-0.281707763671875,-2.3098325729370117
1707006249085940000,16.92793994140625,-2.993520498275757,-0.2761697769165039,-2.7416763305664062
1707006249104898600,16.946898681640626,-1.8515691757202148,-0.6475353240966797,-2.6816399097442627
1707006249123857200,16.965857177734375,-0.9572823643684387,-0.7742338180541992,0.42855405807495117
1707006249142815700,16.984815673828123,2.8107118606567383,0.45018911361694336,2.2170023918151855
1707006249161774300,17.0037744140625,5.257228374481201,0.8849978446960449,3.346958637237549
1707006249180733000,17.02273291015625,2.8032970428466797,0.2624683380126953,1.7928533554077148
1707006249199691800,17.04169189453125,0.6180707812309265,-0.8405704498291016,-3.1037545204162598
1707006249218650400,17.060650390625,-0.4425336420536041,-1.0783863067626953,-2.51518177986145
1707006249237609000,17.07960888671875,0.07537341117858887,-0.6333742141723633,-0.07606363296508789
1707006249256567600,17.098567626953123,-0.5083354115486145,-0.5376396179199219,2.0274500846862793
1707006249275526100,17.117526123046876,-0.5694531202316284,-1.142221450805664,1.0580148696899414
1707006249294484700,17.136484619140624,0.33731570839881897,0.30001306533813477,-0.049626827239990234
1707006249313443600,17.155443603515625,1.5412218570709229,-0.06821823120117188,-0.48272228240966797
1707006249332402200,17.174402099609374,0.7088099122047424,-1.2963943481445312,-0.21693801879882812
1707006249351360800,17.19336083984375,0.12975502014160156,-0.15193700790405273,0.1604766845703125
1707006249370319400,17.2123193359375,1.259598970413208,0.20869827270507812,0.7602558135986328
1707006249389278000,17.23127783203125,0.9822216033935547,-0.8254408836364746,2.386106014251709
1707006249408236500,17.250236572265624,-0.874092698097229,-0.9243869781494141,2.0947327613830566
1707006249427195100,17.269195068359377,-0.6119948625564575,-0.5538930892944336,-0.5195202827453613
1707006249446154000,17.288154052734374,0.33343780040740967,-0.5584602355957031,-1.6103143692016602
1707006249465112600,17.307112548828126,-0.6256381273269653,-0.02994251251220703,1.015122890472412
1707006249484071200,17.3260712890625,-0.9326130151748657,-0.21892738342285156,1.5291390419006348
1707006249503029800,17.34502978515625,0.13013863563537598,-0.14932489395141602,0.4948692321777344
1707006249521988400,17.36398828125,-0.0005077123641967773,-0.013514995574951172,0.32192134857177734
1707006249540947200,17.382947265625,-0.6623190641403198,0.21521997451782227,0.7212162017822266
1707006249559905800,17.40190576171875,-0.17532920837402344,0.19783544540405273,0.34575748443603516
1707006249578864400,17.420864501953126,1.1661291122436523,-0.7261900901794434,-0.19624042510986328
1707006249597823000,17.439822998046875,0.2562919855117798,-0.6593480110168457,1.3775434494018555
1707006249616781800,17.45878173828125,-1.9769458770751953,1.017167329788208,1.9441041946411133
1707006249635740400,17.477740478515624,-0.08109712600708008,0.8260345458984375,-0.1371622085571289
1707006249654699000,17.496698974609377,1.5341694355010986,-0.8364400863647461,-1.0458126068115234
1707006249673657600,17.51565771484375,-0.3117341995239258,-0.4380033016204834,0.37595272064208984
1707006249692616200,17.5346162109375,-0.9370217323303223,0.45192742347717285,0.9584617614746094
1707006249711574800,17.55357470703125,0.6470001935958862,0.053414344787597656,-0.28072357177734375
1707006249730533400,17.572533447265624,0.24194097518920898,-0.48862457275390625,0.9214706420898438
1707006249749492200,17.5914921875,-1.1334738731384277,0.6972293257713318,0.8190689086914062
1707006249768450800,17.610450927734377,-0.1515185832977295,0.21761548519134521,-0.2539949417114258
1707006249787409400,17.629409423828125,0.1731727123260498,-0.5638166666030884,-0.8722705841064453
1707006249806368000,17.648367919921874,-0.07189416885375977,-0.34086811542510986,0.44447803497314453
1707006249825326600,17.66732666015625,0.37067580223083496,-0.3795003294944763,-0.3206462860107422
1707006249844285400,17.686285400390624,0.5156762599945068,0.5552447438240051,-0.03403282165527344
1707006249863244000,17.705244140625,-0.5311660766601562,-0.21786272525787354,0.13796710968017578
1707006249882202600,17.72420263671875,-0.5274865627288818,-0.622988224029541,-0.758885383605957
1707006249901161200,17.7431611328125,0.2714056968688965,0.22399818897247314,-1.7396774291992188
1707006249920119800,17.762119873046874,-0.4992067813873291,-0.542544960975647,0.04110240936279297
1707006249939078700,17.78107861328125,-0.7063131332397461,-1.503028154373169,-0.4594745635986328
1707006249958037200,17.800037353515624,0.8373615741729736,-0.2993307113647461,-2.2482972145080566
1707006249976995800,17.818995849609376,0.18943452835083008,1.1282293796539307,-0.6903066635131836
1707006249995954400,17.837954345703125,-3.1428544521331787,-0.8472421169281006,2.3273048400878906
1707006250014913300,17.856913330078125,-1.255152940750122,-1.4596028327941895,-1.25079345703125
1707006250033871600,17.87587158203125,0.8491659164428711,-0.16036176681518555,-4.877795219421387
1707006250052830500,17.89483056640625,-1.2436270713806152,0.4313368797302246,0.2852134704589844
1707006250071789000,17.9137890625,-1.1929349899291992,-1.8465644121170044,0.5986509323120117
1707006250090747600,17.93274755859375,-0.2018125057220459,0.08271169662475586,-1.0546483993530273
1707006250109706200,17.951706298828125,-0.03194546699523926,0.4410080909729004,1.3917627334594727
1707006250128664800,17.970664794921873,1.643986701965332,-1.705185890197754,-0.016580581665039062
1707006250147623700,17.989623779296874,1.6252985000610352,-2.3466954231262207,-1.0887117385864258
1707006250166582300,18.008582275390626,0.9639096260070801,-0.25287818908691406,-1.1170001029968262
1707006250185540900,18.027540771484375,-0.41511082649230957,0.2661609649658203,-0.13035011291503906
1707006250204499500,18.04649951171875,-0.02676868438720703,-0.2495861053466797,0.9375677108764648
1707006250223458000,18.0654580078125,0.385209321975708,-1.1705284118652344,-0.3947577476501465
1707006250242417000,18.0844169921875,0.8492255210876465,-1.019650936126709,-1.5603294372558594
1707006250261375500,18.10337548828125,-0.22904253005981445,-1.5713813304901123,-1.5928888320922852
1707006250280334000,18.122333984375,-0.9195044040679932,-1.0671806335449219,-0.019483566284179688
1707006250299292700,18.141292724609375,-0.8141796588897705,-0.35575437545776367,0.47523021697998047
1707006250318251300,18.160251220703124,-0.12160468101501465,-1.1869332790374756,-0.33914756774902344
1707006250337210000,18.179210205078125,0.20058226585388184,-2.5461902618408203,-1.9617366790771484
1707006250356168700,18.198168701171873,-0.16142964363098145,-2.2703146934509277,-1.5830497741699219
1707006250375127300,18.217127197265626,-0.345719575881958,-0.5588579177856445,-0.22925281524658203
1707006250394086000,18.2360859375,-0.05508613586425781,-0.46286678314208984,-0.03682708740234375
1707006250413044500,18.25504443359375,0.49719905853271484,-1.4897964000701904,-0.9118766784667969
1707006250432003000,18.274003173828124,0.8447742462158203,-1.3608522415161133,-0.5466179847717285
1707006250450962000,18.2929619140625,0.5429821014404297,-0.5998728275299072,0.10737991333007812
1707006250469920500,18.31192041015625,0.4311187267303467,-0.1258983612060547,0.5604171752929688
1707006250488879000,18.330879150390626,0.5731127262115479,-0.24217939376831055,-0.060207366943359375
1707006250507837700,18.349837646484374,0.2396385669708252,-0.5981109142303467,-0.6722116470336914
1707006250526796300,18.36879638671875,0.2135789394378662,-0.5645220279693604,-0.8643746376037598
1707006250545755100,18.387755126953124,0.449326753616333,-0.28807950019836426,-0.4676809310913086
1707006250564713700,18.406713623046876,0.5452001094818115,-0.1330714225769043,-0.5417823791503906
1707006250583672300,18.42567236328125,0.16466474533081055,0.0032138824462890625,-0.5554237365722656
1707006250602631000,18.444630859375,-0.021945476531982422,0.03312420845031738,-0.48195552825927734
1707006250621589500,18.463589599609374,0.1796875,-0.2516171932220459,-0.39037227630615234
1707006250640548400,18.48254833984375,0.1820049285888672,-0.399625301361084,-0.25792884826660156
1707006250659507000,18.5015068359375,0.34134411811828613,0.14426445960998535,-0.0961008071899414
1707006250678465500,18.520465576171876,0.11377692222595215,0.38707566261291504,-0.24674415588378906
1707006250697424100,18.539424072265625,0.10709309577941895,0.22839009761810303,-0.578770637512207
1707006250716382700,18.5583828125,0.24677777290344238,0.3896758556365967,-0.5326471328735352
1707006250735341300,18.57734130859375,-0.07497048377990723,0.3129614591598511,-0.16173362731933594
1707006250754300000,18.5962998046875,0.17621588706970215,0.18372631072998047,0.163848876953125
1707006250773258800,18.6152587890625,0.3019423484802246,0.8102085590362549,0.31205272674560547
1707006250792217300,18.63421728515625,0.18722796440124512,0.8933626413345337,0.23633193969726562
1707006250811176000,18.653176025390625,-0.09095501899719238,0.6763933300971985,0.11042976379394531
1707006250830134500,18.672134521484374,-0.41160058975219727,0.9754381775856018,0.44481563568115234
1707006250849093400,18.69109326171875,-0.15819787979125977,0.9150031208992004,1.1572237014770508
1707006250868052000,18.710052001953127,-0.5727174282073975,1.4437224864959717,0.6935796737670898
1707006250887010600,18.729010498046875,-1.2009706497192383,1.7002477645874023,-0.718571662902832
1707006250905969200,18.74796923828125,-1.518009901046753,0.9700894951820374,-1.8079032897949219
1707006250924927700,18.766927734375,-1.2179241180419922,0.13509654998779297,-1.8775091171264648
1707006250943886300,18.78588623046875,-1.0845487117767334,-0.3998640775680542,-1.338334083557129
1707006250962845000,18.804844970703126,-0.7474513053894043,-0.538475751876831,-0.6674623489379883
1707006250981803800,18.8238037109375,-0.5680112838745117,-0.06747293472290039,0.3093271255493164
1707006251000762400,18.842762451171875,-0.3307356834411621,0.4078843593597412,1.4344253540039062
1707006251019721000,18.861720947265624,-0.21571016311645508,1.269927978515625,0.9931859970092773
1707006251038679600,18.880679443359377,-0.4106740951538086,1.0767006874084473,0.4052715301513672
1707006251057638100,18.89963818359375,0.31554079055786133,0.11829495429992676,0.37172508239746094
1707006251076596700,18.9185966796875,0.5486781597137451,0.04792165756225586,0.4279356002807617
1707006251095555300,18.937555419921875,0.3650014400482178,0.18715858459472656,1.0906696319580078
1707006251114514200,18.95651416015625,0.2579989433288574,0.08046579360961914,1.2490854263305664
1707006251133472800,18.97547265625,0.36641430854797363,0.4702596664428711,0.9073257446289062
1707006251152431400,18.994431396484377,0.46654701232910156,0.9171409606933594,0.4151935577392578
1707006251171390000,19.013389892578125,0.15922164916992188,1.3940510749816895,0.9369277954101562
1707006251190348800,19.032348876953126,0.26478028297424316,0.8944668769836426,1.2747249603271484
1707006251209307400,19.051307373046875,0.1529637575149536,0.2597317695617676,0.5529346466064453
1707006251228266000,19.070265869140623,0.5168901681900024,-0.1670842170715332,0.4694056510925293
1707006251247224600,19.089224609375,1.3836935758590698,0.09775400161743164,1.7751030921936035
1707006251266183200,19.10818310546875,0.8673292398452759,0.5921745300292969,2.7614283561706543
1707006251285141800,19.127141845703125,-1.3109947443008423,0.60772705078125,1.6483540534973145
1707006251304100400,19.146100341796874,-2.556084632873535,0.8086252212524414,1.079432487487793
1707006251323059200,19.16505908203125,-1.962477684020996,1.0066776275634766,-0.996300220489502
1707006251342017500,19.184017578125,-0.9169932007789612,-0.36901378631591797,-1.9281439781188965
1707006251360976400,19.202976318359376,-0.6944587826728821,-1.9952731132507324,-0.6553544998168945
1707006251379935000,19.22193505859375,-0.06847131252288818,-2.562863349914551,-0.03381681442260742
1707006251398893600,19.2408935546875,0.23204076290130615,-0.2056560516357422,1.3423194885253906
1707006251417852200,19.25985205078125,0.2778669595718384,0.034811973571777344,2.2141757011413574
1707006251436810800,19.278810791015626,0.8993379473686218,-1.8209776878356934,0.7918853759765625
1707006251455769300,19.297769287109375,0.6953808069229126,-0.1682453155517578,0.06396245956420898
1707006251474728000,19.31672802734375,0.27899593114852905,0.34554386138916016,0.0699472427368164
1707006251493686800,19.335686767578125,-0.8934186697006226,-1.0114870071411133,-1.77366042137146
1707006251512645400,19.354645263671873,-2.1903746128082275,-2.6673622131347656,-1.6205534934997559
1707006251531604000,19.37360400390625,-1.9166524410247803,-0.9679956436157227,0.9481916427612305
1707006251550562600,19.3925625,-0.7857288122177124,-0.3760700225830078,-0.2806429862976074
1707006251569521200,19.411521240234375,0.33046382665634155,0.4433784484863281,-0.17417430877685547
1707006251588479700,19.430479736328124,1.026991367340088,1.7725958824157715,-0.07993268966674805
1707006251607438600,19.4494384765625,2.456577777862549,-0.9988412857055664,-0.17563199996948242
1707006251626397000,19.46839697265625,3.4596993923187256,-0.658355712890625,1.6586809158325195
1707006251645355800,19.487355712890626,1.6903128623962402,0.3518638610839844,1.2890872955322266
1707006251664314400,19.506314453125,-1.2212588787078857,-0.12299919128417969,0.9183897972106934
1707006251683273000,19.52527294921875,-1.2349114418029785,0.11822891235351562,-0.056458473205566406
1707006251702231600,19.5442314453125,0.6781030297279358,-1.0663604736328125,-0.1379551887512207
1707006251721190100,19.563190185546876,-0.04750502109527588,-0.9243030548095703,0.5778613090515137
1707006251740148700,19.582148681640625,-0.7436581254005432,-0.48483800888061523,-0.15046024322509766
1707006251759107300,19.601107421875,-0.134210467338562,-1.1680121421813965,-2.005289077758789
1707006251778066000,19.62006591796875,-0.23045837879180908,-0.8341846466064453,-0.8574771881103516
1707006251797024500,19.6390244140625,0.019708633422851562,0.9104518890380859,1.4024643898010254
1707006251815983400,19.6579833984375,1.764662265777588,0.500974178314209,1.9158220291137695
1707006251834941700,19.676941650390624,2.415315628051758,-0.03165721893310547,1.8041281700134277
1707006251853900500,19.695900634765625,2.4538960456848145,-0.28961658477783203,1.572385311126709
1707006251872859100,19.714859130859374,0.7707092761993408,-0.05784749984741211,1.4538354873657227
1707006251891817700,19.733817626953126,-0.5339982509613037,0.5634160041809082,1.6702251434326172
1707006251910776300,19.7527763671875,0.4914740324020386,-0.17903661727905273,0.021560192108154297
1707006251929735000,19.77173486328125,0.20188462734222412,-0.07218074798583984,-0.4809913635253906
1707006251948693500,19.790693603515624,-0.5199599266052246,0.32015562057495117,0.9771924018859863
1707006251967652000,19.809652099609377,0.6819446086883545,-1.224100112915039,0.8165931701660156
1707006251986610700,19.828610595703125,-0.7512943744659424,-2.0228323936462402,0.4423027038574219
1707006252005569300,19.8475693359375,-3.358584403991699,0.5111222267150879,-0.5944452285766602
1707006252024528000,19.86652783203125,-0.7967064380645752,0.8979008197784424,-1.2720928192138672
1707006252043486700,19.88548681640625,1.6392745971679688,-1.8981003761291504,-0.4881172180175781
1707006252062445300,19.9044453125,1.1077388525009155,-1.867380142211914,1.4459114074707031
1707006252081404000,19.92340380859375,-0.8794058561325073,1.3005928993225098,1.6298322677612305
1707006252100362500,19.942362548828125,-0.5383976697921753,1.4712445735931396,0.2909584045410156
1707006252119321000,19.961321044921874,-0.6761940717697144,-1.186784029006958,-0.1978616714477539
1707006252138279700,19.98027978515625,-2.1373817920684814,-1.2312781810760498,-1.6156511306762695
1707006252157238300,19.99923828125,-0.9380524158477783,0.21879291534423828,-0.8418483734130859
1707006252176196900,20.01819677734375,1.0038361549377441,0.8313069343566895,0.06016826629638672
1707006252195155500,20.037155517578125,0.7014789581298828,1.9130066633224487,3.4367427825927734
1707006252214114000,20.056114013671873,1.4957458972930908,-0.25875163078308105,2.2471771240234375
1707006252233072600,20.07507275390625,1.430361032485962,-2.1135594844818115,0.40128231048583984
1707006252252031200,20.09403125,0.43377208709716797,-0.3868272304534912,-1.6548547744750977
1707006252270989800,20.11298974609375,-1.4277701377868652,1.960919737815857,-0.27151012420654297
1707006252289948400,20.131948486328124,-0.17027568817138672,-0.16696330904960632,0.579920768737793
1707006252308907000,20.150906982421876,0.34735798835754395,-1.5031442642211914,0.3943490982055664
1707006252327865900,20.169865966796873,-1.617656946182251,0.059989094734191895,0.2710905075073242
1707006252346824200,20.18882421875,-2.542318344116211,0.21747732162475586,-0.6508693695068359
1707006252365783000,20.207782958984374,-2.2630674839019775,-0.25230467319488525,-1.132554054260254
1707006252384741400,20.226741455078123,-0.36458563804626465,-0.8026108741760254,-1.0190601348876953
1707006252403700200,20.2457001953125,-0.6796731948852539,-0.01748025417327881,-0.3793373107910156
1707006252422658800,20.264658935546876,-0.3365745544433594,-0.24031496047973633,-0.10102558135986328
1707006252441617400,20.283617431640625,1.1003544330596924,-0.4696338176727295,0.5738525390625
1707006252460576000,20.302575927734374,0.05549192428588867,0.5762791633605957,-1.0193157196044922
1707006252479534600,20.32153466796875,-1.0854496955871582,2.038773536682129,-0.23355960845947266
1707006252498493200,20.3404931640625,-0.3258402347564697,-0.26961684226989746,0.21343231201171875
1707006252517451800,20.35945166015625,0.4107668399810791,-1.3014028072357178,-0.509333610534668
1707006252536410400,20.378410400390624,0.16502666473388672,0.5584220886230469,0.9703664779663086
1707006252555369000,20.397368896484377,-0.9312171936035156,-1.1497931480407715,-0.6593589782714844
1707006252574327600,20.41632763671875,-0.3437321186065674,-2.1505563259124756,-1.1999483108520508
1707006252593286100,20.4352861328125,0.10849690437316895,0.16030359268188477,-0.09577560424804688
1707006252612244700,20.45424462890625,0.321885347366333,0.31929683685302734,-0.6290693283081055
1707006252631203300,20.473203369140624,-0.23705124855041504,-0.7112822532653809,-1.1604971885681152
1707006252650162000,20.492161865234376,0.35808050632476807,0.0669398307800293,-0.6970968246459961
1707006252669120500,20.51112060546875,1.004705786705017,-0.6694917678833008,-0.02213287353515625
1707006252688079000,20.5300791015625,0.14957785606384277,-1.266289234161377,0.3274497985839844
1707006252707037700,20.54903759765625,-0.3948657512664795,-0.6158962249755859,-0.44267797470092773
1707006252725996300,20.567996337890627,-0.188726544380188,-0.02407360076904297,-0.5164198875427246
1707006252744955000,20.586954833984375,-0.15939748287200928,-1.811023235321045,-0.7532753944396973
1707006252763913500,20.60591357421875,-0.6395411491394043,-2.1328492164611816,-1.1977143287658691
1707006252782872000,20.6248720703125,-0.8803702592849731,-1.2929391860961914,-0.7806777954101562
1707006252801830700,20.64383056640625,-0.5773724317550659,-1.0156621932983398,0.10702705383300781
1707006252820789200,20.662789306640626,-0.6017930507659912,-1.3970928192138672,-0.012287616729736328
1707006252839747800,20.681747802734375,-0.5112549066543579,-2.3000845909118652,-0.664301872253418
1707006252858706400,20.70070654296875,-0.36974453926086426,-2.5745596885681152,-1.1410822868347168
1707006252877665000,20.7196650390625,-0.3577258586883545,-1.8583478927612305,-0.6728324890136719
1707006252896623600,20.73862353515625,-0.4238680601119995,-2.255711555480957,-0.9803204536437988
1707006252915582200,20.757582275390625,-0.4404183626174927,-2.2775235176086426,-1.0196423530578613
1707006252934540800,20.776540771484374,0.2504143714904785,-1.6365532875061035,-0.1210794448852539
1707006252953499400,20.79549951171875,0.4851267337799072,-1.4793081283569336,0.08716201782226562
1707006252972458000,20.8144580078125,0.4342108964920044,-1.2613615989685059,-0.1056661605834961
1707006252991416600,20.83341650390625,0.2921257019042969,-0.8314194679260254,-0.32720375061035156
1707006253010375200,20.852375244140624,0.511540412902832,-0.5349726676940918,-0.4163031578063965
1707006253029333800,20.871333740234373,0.5514481067657471,-0.6389584541320801,-0.3216543197631836
1707006253048292400,20.890292236328126,0.5272343158721924,-0.8400106430053711,-0.16192388534545898
1707006253067251200,20.909251220703126,0.36004137992858887,-0.8978743553161621,-0.18084383010864258
1707006253086209500,20.92820947265625,0.3359677791595459,-0.8903617858886719,-0.21707630157470703
1707006253105168400,20.94716845703125,0.3694087266921997,-0.9109392166137695,-0.1450824737548828
1707006253124126700,20.966126708984376,0.3932313919067383,-0.8594746589660645,-0.12236785888671875
1707006253143085600,20.98508544921875,0.4090559482574463,-0.4309988021850586,-0.37082576751708984
1707006253162044000,21.0040439453125,0.33225512504577637,0.277559757232666,-0.5851449966430664
1707006253181002800,21.023002685546874,0.3880136013031006,0.5165271759033203,-0.6411972045898438
1707006253199961300,21.04196142578125,0.5884377956390381,0.36907958984375,-0.36830902099609375
1707006253218920000,21.060919921875,0.46196508407592773,0.38262319564819336,0.3798503875732422
1707006253237878500,21.07987841796875,0.015013456344604492,-0.07018637657165527,0.4866046905517578
1707006253256837000,21.098837158203125,0.17534971237182617,0.5865685939788818,-0.24207210540771484
1707006253275795700,21.117795654296874,-0.09508132934570312,1.0023565292358398,-0.052791595458984375
1707006253294754300,21.13675439453125,-0.17877888679504395,0.5103251934051514,0.4588918685913086
1707006253313713000,21.155712890625,0.09658098220825195,0.8770825862884521,0.13179779052734375
1707006253332671500,21.17467138671875,0.09735751152038574,1.5787343978881836,0.19190597534179688
1707006253351630000,21.193630126953124,-0.10099267959594727,0.9904079437255859,0.027068138122558594
1707006253370588700,21.212588623046877,-0.5934669971466064,0.6651934385299683,-0.26424503326416016
1707006253389547300,21.23154736328125,-1.291344165802002,0.9855728149414062,-0.6416044235229492
1707006253408505900,21.250505859375,-1.3686046600341797,0.5798042416572571,-0.9701128005981445
1707006253427464400,21.26946435546875,-1.962336778640747,0.11366593092679977,-1.6175518035888672
1707006253446423000,21.288423095703124,-2.1121466159820557,-0.1087130606174469,-1.192112922668457
1707006253465381600,21.307381591796876,-1.248692512512207,0.653940737247467,-0.33943939208984375
1707006253484340200,21.32634033203125,0.022118806838989258,0.9630235433578491,0.8595666885375977
1707006253503298800,21.345298828125,0.9107372760772705,0.5817580223083496,0.8229761123657227
1707006253522257400,21.36425732421875,1.4244647026062012,0.6961701512336731,0.81878662109375
1707006253541216000,21.383216064453126,1.1496789455413818,1.3522489070892334,1.4776611328125
1707006253560174600,21.402174560546875,1.1052141189575195,1.4211502075195312,1.7812423706054688
1707006253579133400,21.421133544921876,0.25117993354797363,1.149458646774292,0.2900667190551758
1707006253598092000,21.440092041015625,-0.24577641487121582,0.9709165096282959,0.015199661254882812
1707006253617050600,21.459050537109373,-0.1553800106048584,0.4202394485473633,0.7683620452880859
1707006253636009200,21.47800927734375,-0.025537967681884766,0.4540064334869385,0.6775102615356445
1707006253654967800,21.4969677734375,0.06489920616149902,0.7403149604797363,0.4656200408935547
1707006253673926400,21.515926513671875,0.7658205032348633,0.4806704521179199,0.18716907501220703
1707006253692885000,21.534885009765624,0.6928222179412842,-0.4159998893737793,-0.4734840393066406
1707006253711843600,21.553843505859376,-0.03148984909057617,-0.046038150787353516,0.24590492248535156
1707006253730802200,21.57280224609375,-0.6305031776428223,1.1938583850860596,1.3277997970581055
1707006253749760800,21.5917607421875,-1.1768667697906494,1.8810882568359375,1.8081188201904297
1707006253768719400,21.61071923828125,-0.9581146240234375,1.174055576324463,1.6376166343688965
1707006253787678000,21.629677978515623,-0.24998974800109863,0.039216041564941406,1.5102272033691406
1707006253806636800,21.64863671875,-0.07929253578186035,-0.6400160789489746,1.0679545402526855
1707006253825595400,21.667595458984376,-0.32472753524780273,0.06390953063964844,0.6410212516784668
1707006253844554000,21.686553955078125,-0.2848426103591919,0.0962839126586914,0.8317980766296387
1707006253863512600,21.7055126953125,0.4221668243408203,-0.8619804382324219,0.23069190979003906
1707006253882471200,21.72447119140625,0.4965195655822754,-1.502671241760254,-0.3711414337158203
1707006253901429800,21.7434296875,0.6857670545578003,-0.8598361015319824,-0.20253849029541016
1707006253920388400,21.762388427734376,0.47489309310913086,-0.18666553497314453,0.39873838424682617
1707006253939347000,21.781346923828124,-0.47170209884643555,-0.5077404975891113,0.6877522468566895
1707006253958305500,21.800305419921877,-1.8376516103744507,-0.3114438056945801,0.7415404319763184
1707006253977264400,21.819264404296874,-2.4770264625549316,0.39197254180908203,0.8978214263916016
1707006253996223000,21.838222900390626,-2.486327648162842,0.01924276351928711,1.039039134979248
1707006254015181600,21.857181640625,-0.7727358341217041,-1.7597465515136719,-0.4115571975708008
1707006254034140200,21.87614013671875,0.06759035587310791,-1.8040223121643066,-1.070770263671875
1707006254053098800,21.8950986328125,1.1835275888442993,0.09974527359008789,-0.14232921600341797
1707006254072057300,21.914057373046877,2.5682685375213623,0.6955437660217285,1.920590877532959
1707006254091016200,21.93301611328125,3.4921140670776367,0.2706775665283203,2.5326437950134277
1707006254109974800,21.951974853515626,2.308534622192383,-0.6175136566162109,2.2008728981018066
1707006254128933400,21.970933349609375,0.07602310180664062,-1.066452980041504,1.794029712677002
1707006254147892000,21.98989208984375,-3.6345932483673096,0.10431194305419922,0.22848939895629883
1707006254166850600,22.0088505859375,-4.518461227416992,0.422060489654541,-1.775413990020752
1707006254185809400,22.027809326171877,-1.5349245071411133,0.05852508544921875,-2.631499767303467
1707006254204767700,22.046767822265625,2.485008955001831,-0.7974996566772461,-1.7688179016113281
1707006254223726600,22.0657265625,3.2044262886047363,-0.6506919860839844,0.779853343963623
1707006254242685200,22.084685302734375,1.5177524089813232,0.1144108772277832,0.5024113655090332
1707006254261643800,22.103643798828124,0.58223557472229,-1.5304384231567383,-1.590756893157959
1707006254280602400,22.122602294921876,1.5894174575805664,-1.1180543899536133,-0.8812723159790039
1707006254299561000,22.14156103515625,1.9937403202056885,0.056353092193603516,1.891462802886963
1707006254318519800,22.160519775390625,1.8707222938537598,1.1769509315490723,3.1103906631469727
1707006254337478400,22.179478515625,0.6357429623603821,-0.28581762313842773,1.2265195846557617
1707006254356437000,22.19843701171875,-0.794749915599823,-2.361363410949707,-0.601283073425293
1707006254375395600,22.2173955078125,-1.358246088027954,-1.1246986389160156,-1.7629375457763672
1707006254394354200,22.236354248046876,-1.3318564891815186,0.5579347610473633,0.20790863037109375
1707006254413313000,22.25531298828125,-1.9614324569702148,0.8398318290710449,1.654740810394287
1707006254432271600,22.274271728515625,0.421076238155365,-0.31128931045532227,0.5084214210510254
1707006254451230200,22.293230224609374,1.4711214303970337,-0.7346367835998535,0.8841719627380371
1707006254470188800,22.312188720703126,0.6508625745773315,0.007239818572998047,1.7827095985412598
1707006254489147600,22.331147705078124,-0.7358709573745728,0.22389554977416992,2.1401634216308594
1707006254508106200,22.350106201171876,0.5231884717941284,0.052117347717285156,-0.11814355850219727
1707006254527064800,22.36906494140625,1.5548312664031982,-0.21015310287475586,-1.0704021453857422
1707006254546023400,22.3880234375,0.3783731460571289,0.1700754165649414,0.8921465873718262
1707006254564982000,22.40698193359375,-0.34385716915130615,-0.1715536117553711,2.4577741622924805
1707006254583940900,22.42594091796875,0.14250802993774414,-0.8652739524841309,0.9001674652099609
1707006254602899200,22.444899169921875,-0.5873396396636963,0.11674308776855469,0.20108699798583984
1707006254621858000,22.463858154296876,-0.9217647314071655,0.14192962646484375,0.6387643814086914
1707006254640816600,22.482816650390625,0.09354007244110107,-1.1232481002807617,0.3913240432739258
1707006254659775200,22.501775146484373,-0.23727595806121826,-0.5402364730834961,0.5033655166625977
1707006254678734000,22.520734130859374,-0.43838608264923096,1.004662036895752,0.4625053405761719
1707006254697692400,22.5396923828125,0.8157063722610474,0.02338719367980957,-0.055045127868652344
1707006254716651300,22.5586513671875,1.0351006984710693,-1.128749132156372,0.4649181365966797
1707006254735609900,22.57760986328125,-0.40875935554504395,-0.6569907665252686,1.2565746307373047
1707006254754568400,22.596568359375,-0.8668872117996216,0.26055192947387695,0.17816543579101562
1707006254773527300,22.61552734375,-1.034635305404663,-0.047075510025024414,-0.1535959243774414
1707006254792486000,22.63448583984375,-0.798546314239502,-1.153494954109192,-0.2897520065307617
1707006254811444500,22.653444580078126,-1.0315592288970947,-1.1236168146133423,0.3344764709472656
1707006254830403000,22.672403076171875,-1.1088236570358276,0.05299997329711914,0.558354377746582
1707006254849362000,22.69136181640625,-1.3233128786087036,0.08747982978820801,-0.8259611129760742
1707006254868320500,22.710320556640625,-0.6221542358398438,-0.7624772787094116,-0.8273944854736328
1707006254887279000,22.729279052734373,-0.8208038806915283,-0.7653167843818665,-0.5600090026855469
1707006254906237700,22.74823779296875,0.42728400230407715,-0.09338539838790894,-0.23702526092529297
1707006254925196300,22.7671962890625,0.12589216232299805,0.01773655414581299,0.8393125534057617
1707006254944155100,22.786155029296875,0.3069484233856201,-0.9710709452629089,-0.31825733184814453
1707006254963113700,22.80511376953125,-0.5570416450500488,-0.2007598876953125,-0.25277137756347656
1707006254982072300,22.824072265625,-0.516599178314209,-0.41510963439941406,-1.3251352310180664
1707006255001031000,22.843031005859373,-0.6913800239562988,0.5083978176116943,-0.5016651153564453
1707006255019989500,22.861989501953126,0.980396032333374,-0.5295867919921875,-0.2644767761230469
1707006255038948400,22.8809482421875,-0.8892192840576172,0.9429283142089844,-0.864384651184082
1707006255057907000,22.899906982421875,-1.4128227233886719,0.7940728664398193,1.851034164428711
1707006255076865500,22.918865478515624,1.6409521102905273,-1.7744837999343872,-1.25103759765625
1707006255095824100,22.93782421875,-0.1957409381866455,0.583282470703125,-1.333395004272461
1707006255114782700,22.95678271484375,-1.5770752429962158,0.010164737701416016,1.1834611892700195
1707006255133741600,22.975741455078126,-0.29779887199401855,-1.3074007034301758,-1.0545148849487305
1707006255152700200,22.9947001953125,0.3246021270751953,-0.29296112060546875,-1.33652925491333
1707006255171658800,23.01365869140625,-0.9240928888320923,0.3003363609313965,0.47841835021972656
1707006255190617300,23.032617431640624,-1.3448926210403442,-1.89202880859375,-0.6583957672119141
1707006255209576200,23.051576171875,-0.3143296241760254,-2.3549880981445312,-0.9489202499389648
1707006255228534800,23.07053466796875,0.9980257153511047,0.5795984268188477,-0.03247642517089844
1707006255247493400,23.089493408203126,1.053726315498352,-0.5923867225646973,-0.4293832778930664
1707006255266452000,23.108451904296874,-0.8462382555007935,-1.974463939666748,-1.4423928260803223
1707006255285410600,23.12741064453125,-0.8200269937515259,-0.3154587745666504,-0.44162511825561523
1707006255304369400,23.146369384765624,-0.2157752513885498,0.996039867401123,0.4427475929260254
1707006255323328000,23.165327880859376,0.17434406280517578,-1.2450499534606934,-0.09086942672729492
1707006255342286600,23.18428662109375,-0.811301589012146,-2.1080164909362793,0.5206356048583984
1707006255361245200,23.2032451171875,-0.8825361728668213,-1.1801786422729492,-0.14418792724609375
1707006255380203800,23.222203857421874,-0.20075440406799316,-0.8107814788818359,-1.7325806617736816
1707006255399162600,23.24116259765625,0.10258328914642334,-1.4970612525939941,-1.6376123428344727
1707006255418121200,23.260121337890624,0.03807973861694336,-1.9980435371398926,-0.391873836517334
1707006255437079800,23.279079833984376,-0.17856884002685547,-2.3473782539367676,-0.3859720230102539
1707006255456038400,23.298038330078125,0.642683207988739,-1.7817463874816895,-0.693450927734375
1707006255474997000,23.3169970703125,0.9931370615959167,-1.4831595420837402,-0.5898284912109375
1707006255493955800,23.335955810546874,0.7672834396362305,-1.3804841041564941,-0.17336034774780273
1707006255512914400,23.35491455078125,0.42448854446411133,-0.958646297454834,0.19982147216796875
1707006255531873000,23.373873046875,0.27575600147247314,-0.9476919174194336,0.3851447105407715
1707006255550831600,23.39283154296875,0.2119532823562622,-1.103339672088623,0.013095378875732422
1707006255569790500,23.41179052734375,0.10090363025665283,-1.4369816780090332,-0.5614256858825684
1707006255588749000,23.4307490234375,0.12372946739196777,-1.1943778991699219,-0.5348591804504395
1707006255607707600,23.449707763671874,0.2895810604095459,-1.007765293121338,-0.34692907333374023
1707006255626666200,23.468666259765627,0.07659637928009033,-1.1433849334716797,-0.2740755081176758
1707006255645624800,23.487624755859375,-0.025180578231811523,-1.3054766654968262,-0.24783039093017578
