time,seconds_elapsed,z,y,x
1710891155422563000,0.04256298828125,0,0,0
1710891155441523200,0.061523193359375,-0.03446221351623535,0.033003807067871094,0.09743547439575195
1710891155460483600,0.080483642578125,-0.05446600914001465,0.06286334991455078,0.030476808547973633
1710891155479444000,0.09944384765625,-0.09722638130187988,0.045098304748535156,-0.17262983322143555
1710891155498404000,0.118404052734375,-0.1835387945175171,0.007886886596679688,-0.3539762496948242
1710891155517364500,0.137364501953125,-0.24642109870910645,-0.021432876586914062,-0.4886054992675781
1710891155536324900,0.156324951171875,-0.2618405818939209,-0.02955913543701172,-0.5825278759002686
1710891155555285000,0.175284912109375,-0.23365050554275513,-0.009992599487304688,-0.5766541957855225
1710891155574245400,0.194245361328125,-0.20142865180969238,0.05195426940917969,-0.4922049045562744
1710891155593205500,0.21320556640625,-0.12987208366394043,0.10249614715576172,-0.3483853340148926
1710891155612166000,0.232165771484375,-0.06216883659362793,0.12683486938476562,-0.2034318447113037
1710891155631126300,0.251126220703125,-0.014627277851104736,0.11593055725097656,-0.12574124336242676
1710891155650086400,0.27008642578125,-0.008357763290405273,0.0895538330078125,-0.0583491325378418
1710891155669046800,0.289046875,-0.042057812213897705,0.0812978744506836,0.0025949478149414062
1710891155688007200,0.308007080078125,-0.07115888595581055,0.08050346374511719,0.003287792205810547
1710891155706967300,0.32696728515625,-0.11108791828155518,0.061374664306640625,-0.03204607963562012
1710891155725927700,0.345927734375,-0.17517048120498657,0.06802845001220703,-0.09134364128112793
1710891155744888000,0.36488818359375,-0.21817541122436523,0.047878265380859375,-0.1333174705505371
1710891155763848200,0.38384814453125,-0.28728145360946655,0.052471160888671875,-0.15255427360534668
1710891155782808600,0.40280859375,-0.326252818107605,0.0783243179321289,-0.11786556243896484
1710891155801769000,0.42176904296875,-0.2970649003982544,0.0726022720336914,-0.06175947189331055
1710891155820729000,0.44072900390625,-0.2635304927825928,-0.006717681884765625,-0.05575728416442871
1710891155839689500,0.459689453125,-0.23652911186218262,-0.07871818542480469,-0.03628420829772949
1710891155858649600,0.478649658203125,-0.2627190947532654,-0.05057811737060547,0.04179668426513672
1710891155877610000,0.49760986328125,-0.2801946997642517,0.012655258178710938,0.1565709114074707
1710891155896570400,0.5165703125,-0.26287537813186646,-0.04172801971435547,0.183319091796875
1710891155915530500,0.535530517578125,-0.19885313510894775,-0.1616201400756836,0.09088945388793945
1710891155934491000,0.554490966796875,-0.19940543174743652,-0.2483663558959961,0.008735418319702148
1710891155953451300,0.573451171875,-0.22792094945907593,-0.25998592376708984,-0.01780843734741211
1710891155972411400,0.592411376953125,-0.2516852021217346,-0.20918941497802734,-0.007066965103149414
1710891155991371800,0.611371826171875,-0.2506052851676941,-0.19253921508789062,-0.036010026931762695
1710891156010332200,0.630332275390625,-0.22313255071640015,-0.18096446990966797,-0.038694143295288086
1710891156029292300,0.649292236328125,-0.1811736822128296,-0.19544124603271484,-0.0489041805267334
1710891156048252700,0.668252685546875,-0.1438118815422058,-0.17540740966796875,-0.07506394386291504
1710891156067212800,0.687212890625,-0.13360899686813354,-0.20145320892333984,-0.07060503959655762
1710891156086173200,0.706173095703125,-0.08022528886795044,-0.24997997283935547,-0.08173942565917969
1710891156105133600,0.725133544921875,-0.027445852756500244,-0.29161834716796875,-0.13685345649719238
1710891156124094000,0.744093994140625,0.08652985095977783,-0.4056224822998047,-0.19756841659545898
1710891156143054000,0.76305419921875,0.19318264722824097,-0.4864501953125,-0.3165090084075928
1710891156162014500,0.782014404296875,0.2091233730316162,-0.6223049163818359,-0.5270699262619019
1710891156180974600,0.800974609375,0.2239559292793274,-0.6805515289306641,-0.7387959957122803
1710891156199935000,0.81993505859375,0.24886298179626465,-0.671116828918457,-0.8872692584991455
1710891156218895400,0.838895263671875,0.3310447931289673,-0.4548015594482422,-0.8564243316650391
1710891156237855700,0.857855712890625,0.4206223487854004,0.14212608337402344,-0.5481957197189331
1710891156256815900,0.87681591796875,0.5177689790725708,0.9179182052612305,-0.08551645278930664
1710891156275776300,0.8957763671875,0.6570611596107483,1.5251855850219727,0.447678804397583
1710891156294736400,0.914736328125,0.8435018658638,1.8030290603637695,0.9184863567352295
1710891156313696800,0.93369677734375,1.2422661781311035,2.1429271697998047,0.8386261463165283
1710891156332657200,0.9526572265625,1.171529769897461,1.6566438674926758,0.33623576164245605
1710891156351617300,0.9716171875,0.8018161058425903,0.6545486450195312,-0.37505030632019043
1710891156370577700,0.99057763671875,0.40091121196746826,0.042275428771972656,-0.3731815814971924
1710891156389538000,1.0095380859375,0.06648299843072891,-0.2082204818725586,0.2486119270324707
1710891156408498400,1.02849853515625,-0.06433109939098358,-0.3180875778198242,0.8397312164306641
1710891156427458600,1.04745849609375,-0.005123108625411987,-0.5144882202148438,1.2903094291687012
1710891156446419000,1.0664189453125,0.19271031022071838,-0.686309814453125,1.744516372680664
1710891156465379300,1.08537939453125,0.5084977149963379,-0.6820449829101562,2.145749092102051
1710891156484339500,1.10433935546875,0.6648122668266296,-0.5836963653564453,2.387352228164673
1710891156503299800,1.1232998046875,0.5057312846183777,-0.6319866180419922,2.2724616527557373
1710891156522260200,1.14226025390625,0.30150628089904785,-0.7489376068115234,2.013437032699585
1710891156541220600,1.161220703125,0.1771586835384369,-0.7711105346679688,1.6592636108398438
1710891156560180700,1.1801806640625,0.04017841815948486,-0.8098859786987305,1.2119255065917969
1710891156579141000,1.19914111328125,-0.04211902618408203,-0.9127483367919922,0.9252371788024902
1710891156598101500,1.2181015625,0.048680126667022705,-1.0832881927490234,0.8332703113555908
1710891156617062000,1.237061767578125,0.20715439319610596,-1.1835079193115234,0.946491003036499
1710891156636022000,1.25602197265625,0.3327236771583557,-1.3023242950439453,1.1987979412078857
1710891156654982400,1.274982421875,0.4653646945953369,-1.2491683959960938,1.3464598655700684
1710891156673942800,1.29394287109375,0.5341449975967407,-0.9416933059692383,1.2966952323913574
1710891156692903000,1.31290283203125,0.44146475195884705,-0.5009994506835938,1.1079027652740479
1710891156711863300,1.33186328125,0.058573365211486816,0.19246196746826172,0.7240085601806641
1710891156730823700,1.35082373046875,-0.24950382113456726,1.3366012573242188,0.2270982265472412
1710891156749784000,1.3697841796875,-0.3159055709838867,2.4632530212402344,0.38252854347229004
1710891156768744400,1.388744384765625,-0.05635973811149597,2.396754264831543,0.7576949596405029
1710891156787704600,1.40770458984375,0.2561867833137512,1.4508304595947266,0.46257781982421875
1710891156806665000,1.4266650390625,0.6165800094604492,0.3786916732788086,-0.08930635452270508
1710891156825625300,1.445625244140625,0.8938767910003662,-0.6376819610595703,-0.6604840755462646
1710891156844585700,1.464585693359375,0.91462641954422,-1.3992557525634766,-1.2414295673370361
1710891156863546000,1.483546142578125,0.6093334555625916,-1.728123664855957,-1.8036030530929565
1710891156882506200,1.50250634765625,0.14522621035575867,-1.2748394012451172,-2.3891403675079346
1710891156901466600,1.521466552734375,-0.4671325385570526,-0.05029106140136719,-2.6194095611572266
1710891156920427000,1.540427001953125,-1.0190452337265015,1.329824447631836,-2.5981409549713135
1710891156939387400,1.559387451171875,-1.1595927476882935,2.4451122283935547,-2.4498291015625
1710891156958347800,1.57834765625,-0.8914403319358826,2.822087287902832,-2.3836288452148438
1710891156977308000,1.597307861328125,-0.024371132254600525,2.5899553298950195,-2.2733612060546875
1710891156996268300,1.616268310546875,0.3223212957382202,2.1461286544799805,-2.0272750854492188
1710891157015228700,1.635228759765625,0.48734915256500244,1.3757286071777344,-1.8863532543182373
1710891157034189000,1.65418896484375,0.5750457048416138,0.6300668716430664,-1.9170838594436646
1710891157053149400,1.6731494140625,0.45020902156829834,0.08716678619384766,-1.906856656074524
1710891157072109600,1.692109619140625,0.18122437596321106,-0.23612213134765625,-1.8752093315124512
1710891157091070200,1.7110703125,-0.13590455055236816,-0.3446836471557617,-1.6723518371582031
1710891157110030300,1.7300302734375,-0.37004387378692627,-0.29306507110595703,-1.3220481872558594
1710891157128990700,1.74899072265625,-0.4205959141254425,-0.19775867462158203,-0.9060931205749512
1710891157147951000,1.767951171875,-0.3627413213253021,-0.16459941864013672,-0.5517318248748779
1710891157166911500,1.786911376953125,-0.3395288288593292,-0.16301250457763672,-0.2969038486480713
1710891157185872000,1.805871826171875,-0.3858233094215393,-0.14507198333740234,-0.12209510803222656
1710891157204832300,1.824832275390625,-0.4526413381099701,-0.09610652923583984,0.031139373779296875
1710891157223792400,1.84379248046875,-0.5594145059585571,-0.015204429626464844,0.20885586738586426
1710891157242753000,1.8627529296875,-0.6176241636276245,0.04952526092529297,0.42360758781433105
1710891157261713200,1.881713134765625,-0.6082276105880737,0.04290771484375,0.6227741241455078
1710891157280673500,1.900673583984375,-0.5866543054580688,0.04041290283203125,0.7462685108184814
1710891157299634000,1.919634033203125,-0.5683358907699585,0.04371166229248047,0.8645572662353516
1710891157318594300,1.93859423828125,-0.48773911595344543,-0.0500335693359375,0.8882255554199219
1710891157337554700,1.9575546875,-0.4069499671459198,-0.24134349822998047,0.8059210777282715
1710891157356515000,1.97651513671875,-0.40616273880004883,-0.3599405288696289,0.5997419357299805
1710891157375475500,1.995475341796875,-0.5151904821395874,-0.32372283935546875,0.5131638050079346
1710891157394435800,2.014435791015625,-0.7219698429107666,-0.11971378326416016,0.5052664279937744
1710891157413396200,2.033396240234375,-0.9055701494216919,0.1695413589477539,0.6268486976623535
1710891157432356400,2.0523564453125,-0.8816494345664978,0.3466958999633789,0.757749080657959
1710891157451317000,2.07131689453125,-0.7354844808578491,0.3955678939819336,0.6390700340270996
1710891157470277000,2.090277099609375,-0.5933444499969482,0.3500804901123047,0.45527172088623047
1710891157489237500,2.109237548828125,-0.4844866693019867,0.37862110137939453,0.22627019882202148
1710891157508198000,2.128197998046875,-0.614616334438324,0.5515403747558594,-0.13392400741577148
1710891157527158300,2.147158203125,-0.7946819067001343,0.8669643402099609,-0.6423678398132324
1710891157546118700,2.16611865234375,-0.7509264945983887,1.8367815017700195,-1.0765459537506104
1710891157565079000,2.1850791015625,-0.7947665452957153,2.92464542388916,-0.7824039459228516
1710891157584039400,2.204039306640625,-0.6717429757118225,3.123093605041504,-0.0748434066772461
1710891157602999800,2.222999755859375,-0.3263148069381714,2.4652414321899414,0.21814441680908203
1710891157621960200,2.241960205078125,0.4204721450805664,1.5105619430541992,0.07706284523010254
1710891157640920600,2.260920654296875,0.9890782833099365,0.6039142608642578,-0.15045523643493652
1710891157659881000,2.279880859375,1.0963279008865356,-0.27024269104003906,-0.21558165550231934
1710891157678841300,2.29884130859375,0.9117679595947266,-1.3385086059570312,-0.3718273639678955
1710891157697801700,2.3178017578125,0.7053366899490356,-2.33787202835083,-0.6180189847946167
1710891157716762000,2.33676220703125,0.5478436946868896,-2.969252586364746,-0.8827180862426758
1710891157735722500,2.355722412109375,0.4187568426132202,-3.141932487487793,-1.0522770881652832
1710891157754683000,2.374682861328125,0.22144341468811035,-2.884082794189453,-1.0762660503387451
1710891157773643300,2.393643310546875,-0.00961923599243164,-2.2865381240844727,-0.9027185440063477
1710891157792603600,2.412603759765625,-0.2794443964958191,-1.5001211166381836,-0.6401534080505371
1710891157811564000,2.43156396484375,-0.3835029602050781,-0.6070470809936523,-0.2857680320739746
1710891157830524400,2.4505244140625,-0.21444332599639893,0.2007436752319336,0.17113351821899414
1710891157849484800,2.46948486328125,0.09827947616577148,0.5603017807006836,0.6406075954437256
1710891157868445200,2.488445068359375,0.5549109578132629,0.3405017852783203,1.078627347946167
1710891157887405600,2.507405517578125,1.0292675495147705,-0.02628326416015625,1.3263802528381348
1710891157906366000,2.526365966796875,1.1037951707839966,-0.19394874572753906,1.587395191192627
1710891157925326300,2.545326416015625,1.2050185203552246,-0.2843132019042969,1.8920477628707886
1710891157944286700,2.56428662109375,1.2005943059921265,-0.3787546157836914,2.079638957977295
1710891157963247000,2.5832470703125,1.2731099128723145,-0.4700479507446289,2.096815586090088
1710891157982207500,2.60220751953125,1.4484704732894897,-0.34153270721435547,1.8917263746261597
1710891158001168100,2.621168212890625,1.4000170230865479,-0.23228931427001953,1.8112902641296387
1710891158020128300,2.640128173828125,1.3158094882965088,-0.6567907333374023,1.974393606185913
1710891158039088600,2.659088623046875,1.2634427547454834,-1.0524473190307617,1.8185487985610962
1710891158058049300,2.67804931640625,0.8677757978439331,-0.9428577423095703,1.1863353252410889
1710891158077009700,2.697009765625,0.4725211560726166,-0.7959136962890625,0.3937598466873169
1710891158095970000,2.715969970703125,0.3062233030796051,-0.7296648025512695,-0.13318824768066406
1710891158114930400,2.734930419921875,0.2744714915752411,-0.7435426712036133,-0.017550230026245117
1710891158133890800,2.753890869140625,0.6137548089027405,-0.8358650207519531,0.2631218433380127
1710891158152851200,2.772851318359375,1.0060601234436035,-0.7710046768188477,0.40601396560668945
1710891158171811600,2.7918115234375,1.3165181875228882,-0.6419010162353516,0.3679344654083252
1710891158190772000,2.81077197265625,1.312030553817749,-0.6605548858642578,0.019332170486450195
1710891158209732400,2.829732421875,0.9612767696380615,-0.7268161773681641,-0.35317742824554443
1710891158228692700,2.848692626953125,0.4038297235965729,-0.6389093399047852,-0.2883192300796509
1710891158247653000,2.867653076171875,-0.33434730768203735,-0.3612537384033203,0.102699875831604
1710891158266613500,2.886613525390625,-0.8024929165840149,0.1964435577392578,0.8703476190567017
1710891158285574000,2.905573974609375,-0.7638539671897888,1.1043205261230469,1.9231032133102417
1710891158304534300,2.9245341796875,-0.20271587371826172,1.9459619522094727,3.254481792449951
1710891158323495000,2.943494873046875,0.3127557039260864,2.2473459243774414,4.3285908699035645
1710891158342455300,2.962455322265625,0.7161957621574402,2.326610565185547,4.679295539855957
1710891158361415700,2.981415771484375,0.8074829578399658,2.1675567626953125,4.501736640930176
1710891158380375800,3.000375732421875,0.5905335545539856,1.384871482849121,3.9090142250061035
1710891158399336400,3.01933642578125,0.25751879811286926,0.694727897644043,3.0856637954711914
1710891158418296800,3.038296875,-0.21862894296646118,0.062125205993652344,2.2343435287475586
1710891158437257200,3.05725732421875,-0.39398276805877686,-0.6432256698608398,1.202298879623413
1710891158456217600,3.076217529296875,-0.38438257575035095,-1.1500482559204102,-0.1463015079498291
1710891158475178000,3.095177978515625,-0.5757459402084351,-1.2138671875,-1.5824482440948486
1710891158494138400,3.114138427734375,-0.9326616525650024,-0.6683807373046875,-2.8978352546691895
1710891158513098800,3.1330986328125,-1.1820549964904785,0.2902975082397461,-3.773263454437256
1710891158532059100,3.15205908203125,-1.8448586463928223,1.335637092590332,-4.144033432006836
1710891158551019500,3.17101953125,-2.0485191345214844,1.7827997207641602,-4.195713043212891
1710891158569980000,3.18997998046875,-1.8379184007644653,1.6783008575439453,-4.152853488922119
1710891158588940300,3.208940185546875,-1.3995506763458252,1.268808364868164,-4.069408416748047
1710891158607901000,3.22790087890625,-1.0100932121276855,0.8086442947387695,-3.7058849334716797
1710891158626861300,3.246861328125,-0.9774942994117737,0.4719266891479492,-3.141981840133667
1710891158645821700,3.26582177734375,-0.8689168691635132,0.22811508178710938,-2.5888333320617676
1710891158664782000,3.284781982421875,-0.5090268850326538,-0.057094573974609375,-2.2280116081237793
1710891158683742500,3.303742431640625,-0.0057582855224609375,-0.37145328521728516,-1.9894582033157349
1710891158702702800,3.322702880859375,0.36391520500183105,-0.5987367630004883,-1.7940596342086792
1710891158721663200,3.341663330078125,0.44434213638305664,-0.5777454376220703,-1.5916262865066528
1710891158740623600,3.36062353515625,0.25839221477508545,-0.4357318878173828,-1.4833292961120605
1710891158759584000,3.379583984375,-0.052447497844696045,-0.2772331237792969,-1.4314824342727661
1710891158778544400,3.39854443359375,-0.3832593560218811,-0.21594715118408203,-1.4055691957473755
1710891158797504800,3.4175048828125,-0.6396000385284424,-0.25742435455322266,-1.3676338195800781
1710891158816465400,3.43646533203125,-0.7163111567497253,-0.2750978469848633,-1.3052692413330078
1710891158835425800,3.45542578125,-0.6274552941322327,-0.13868236541748047,-1.1539583206176758
1710891158854386200,3.47438623046875,-0.4675525724887848,0.012776374816894531,-0.9387927055358887
1710891158873346600,3.4933466796875,-0.2507767081260681,0.179473876953125,-0.6738054752349854
1710891158892307000,3.512306884765625,-0.03528565168380737,0.22378158569335938,-0.5243139266967773
1710891158911267300,3.531267333984375,0.07426351308822632,0.1539745330810547,-0.5841593742370605
1710891158930227700,3.550227783203125,0.01388317346572876,0.18889713287353516,-0.7978065013885498
1710891158949188000,3.56918798828125,-0.18035930395126343,0.40618133544921875,-0.9440984725952148
1710891158968148700,3.588148681640625,-0.41462966799736023,0.6917190551757812,-1.0689363479614258
1710891158987108900,3.60710888671875,-0.6501147747039795,0.9597501754760742,-1.2113454341888428
1710891159006069200,3.6260693359375,-0.8575661182403564,1.0417261123657227,-1.2883235216140747
1710891159025030000,3.64502978515625,-0.9325268268585205,1.0234298706054688,-1.3060474395751953
1710891159043990300,3.663990234375,-0.9765690565109253,1.1101179122924805,-1.2498260736465454
1710891159062950700,3.68295068359375,-1.0086078643798828,1.1232538223266602,-1.0670878887176514
1710891159081911000,3.7019111328125,-0.8967746496200562,1.0563478469848633,-0.8914871215820312
1710891159100871400,3.720871337890625,-0.7404964566230774,0.9242057800292969,-0.6628596782684326
1710891159119831800,3.739831787109375,-0.586219072341919,0.7853422164916992,-0.44049644470214844
1710891159138792200,3.758792236328125,-0.44401389360427856,0.6244783401489258,-0.24535346031188965
1710891159157752600,3.777752685546875,-0.2655768096446991,0.4839954376220703,-0.13492655754089355
1710891159176713000,3.796712890625,-0.11502200365066528,0.3620290756225586,-0.18527603149414062
1710891159195673300,3.81567333984375,0.04154294729232788,0.17548656463623047,-0.45156025886535645
1710891159214633700,3.8346337890625,0.03668588399887085,-0.021498680114746094,-0.7800157070159912
1710891159233594400,3.853594482421875,-0.030727118253707886,-0.16159820556640625,-1.1957800388336182
1710891159252554800,3.8725546875,-0.019046664237976074,-0.1870288848876953,-1.6228035688400269
1710891159271515100,3.89151513671875,-0.017777740955352783,-0.09523963928222656,-1.952608585357666
1710891159290475500,3.9104755859375,-0.08060568571090698,0.19866466522216797,-2.1627724170684814
1710891159309436000,3.929435791015625,-0.136712908744812,0.7208471298217773,-2.125687599182129
1710891159328396300,3.948396240234375,-0.11641457676887512,1.5105485916137695,-1.696343183517456
1710891159347356700,3.967356689453125,-0.07851740717887878,2.334789276123047,-0.8638911247253418
1710891159366317000,3.986317138671875,0.09009197354316711,2.8733701705932617,0.12983167171478271
1710891159385277400,4.00527734375,0.43843874335289,3.0467586517333984,0.936627984046936
1710891159404237800,4.02423779296875,0.6295955181121826,2.9602365493774414,1.5427439212799072
1710891159423198200,4.0431982421875,0.7084445357322693,2.754457473754883,1.6914235353469849
1710891159442158800,4.062158935546875,1.0113906860351562,2.4489974975585938,1.5164008140563965
1710891159461119200,4.081119140625,1.3108222484588623,1.5604438781738281,1.1787241697311401
1710891159480079600,4.10007958984375,1.3076268434524536,0.3760347366333008,0.7984308004379272
1710891159499040000,4.1190400390625,1.1426069736480713,-0.5245723724365234,0.2481377124786377
1710891159518000400,4.13800048828125,1.0445353984832764,-0.8248128890991211,-0.08161675930023193
1710891159536960800,4.156960693359375,0.8368708491325378,-0.5295658111572266,-0.074790358543396
1710891159555921200,4.175921142578125,0.6992483139038086,-0.03940582275390625,0.1377091407775879
1710891159574881500,4.194881591796875,0.7579171657562256,0.43782901763916016,0.15903723239898682
1710891159593842000,4.213842041015625,0.7078540921211243,0.7403955459594727,0.132834792137146
1710891159612802300,4.23280224609375,0.8758440017700195,0.7505655288696289,0.2301175594329834
1710891159631762700,4.2517626953125,0.9638631939888,0.7590370178222656,0.4587225914001465
1710891159650723000,4.27072314453125,0.9112875461578369,0.7293787002563477,0.8145418167114258
1710891159669683500,4.289683349609375,0.7705911993980408,0.48224639892578125,0.961309552192688
1710891159688643800,4.308643798828125,0.6715762615203857,0.09029006958007812,0.6654276847839355
1710891159707604500,4.3276044921875,0.5360743403434753,-0.3692445755004883,0.11333012580871582
1710891159726564900,4.34656494140625,0.42999008297920227,-0.8502302169799805,-0.46265339851379395
1710891159745525200,4.365525146484375,0.3765886425971985,-1.3446598052978516,-0.8679347038269043
1710891159764485600,4.384485595703125,0.1877439022064209,-1.8971686363220215,-1.2065303325653076
1710891159783446000,4.403446044921875,-0.06649434566497803,-2.400726795196533,-1.4074097871780396
1710891159802406400,4.422406494140625,-0.23156383633613586,-2.980940818786621,-1.5973596572875977
1710891159821366800,4.44136669921875,-0.24025309085845947,-3.3865699768066406,-1.6908982992172241
1710891159840327200,4.4603271484375,-0.32459351420402527,-3.6848526000976562,-1.714661717414856
1710891159859287600,4.47928759765625,-0.396611750125885,-3.8196935653686523,-1.7127671241760254
1710891159878248000,4.498248046875,-0.6411575675010681,-3.5292444229125977,-1.6317156553268433
1710891159897208300,4.517208251953125,-1.1385767459869385,-2.8596715927124023,-1.3026201725006104
1710891159916168700,4.536168701171875,-1.4748225212097168,-2.03494930267334,-0.7125387191772461
1710891159935129000,4.555129150390625,-1.577162742614746,-1.031275749206543,0.048306941986083984
1710891159954089500,4.57408935546875,-1.4963703155517578,0.08326911926269531,1.004516839981079
1710891159973049900,4.5930498046875,-1.0622648000717163,0.7596321105957031,2.118776321411133
1710891159992010200,4.61201025390625,-0.20350122451782227,0.7164726257324219,2.950493335723877
1710891160010970600,4.630970703125,0.6765170097351074,0.3353090286254883,3.012542963027954
1710891160029931300,4.64993115234375,1.1413311958312988,-0.07372856140136719,2.486656665802002
1710891160048891600,4.6688916015625,1.1107468605041504,-0.3988046646118164,1.7389857769012451
1710891160067851800,4.687851806640625,0.8961777091026306,-0.34697818756103516,0.9958844184875488
1710891160086812200,4.706812255859375,0.6262727975845337,-0.008882522583007812,0.4367518424987793
1710891160105772800,4.725772705078125,0.3988947570323944,0.3971519470214844,-0.1955854892730713
1710891160124733200,4.744733154296875,0.45466166734695435,0.8158788681030273,-0.8480019569396973
1710891160143693600,4.763693603515625,0.5919100642204285,1.0531177520751953,-1.523374080657959
1710891160162654000,4.782654052734375,0.7357932925224304,1.0999174118041992,-2.0257248878479004
1710891160181614300,4.8016142578125,0.8214974999427795,0.9479713439941406,-2.2804622650146484
1710891160200574700,4.82057470703125,0.8564528822898865,0.6218471527099609,-2.21321702003479
1710891160219535000,4.83953515625,0.6626641750335693,0.25346946716308594,-1.8368886709213257
1710891160238495500,4.85849560546875,0.4090234637260437,0.0050811767578125,-1.2291975021362305
1710891160257455900,4.877455810546875,0.2674679756164551,-0.07907485961914062,-0.4297943115234375
1710891160276416300,4.896416259765625,0.1451675295829773,-0.14361953735351562,0.42601442337036133
1710891160295376600,4.915376708984375,0.12143540382385254,-0.3385028839111328,1.0785555839538574
1710891160314337000,4.9343369140625,0.20290976762771606,-0.6771345138549805,1.4343726634979248
1710891160333297400,4.95329736328125,0.42476940155029297,-0.9372901916503906,1.431617259979248
1710891160352257800,4.9722578125,0.3103618025779724,-1.1424751281738281,1.4042127132415771
1710891160371218200,4.99121826171875,0.22460639476776123,-1.1889305114746094,1.3089158535003662
1710891160390178600,5.010178466796875,0.02136063575744629,-1.1232728958129883,1.18642258644104
1710891160409139000,5.029138916015625,-0.09136795997619629,-0.9440956115722656,0.9692702293395996
1710891160428099300,5.048099365234375,-0.09013879299163818,-0.8099145889282227,0.6432559490203857
1710891160447059700,5.067059814453125,-0.12227773666381836,-0.7011318206787109,0.22263884544372559
1710891160466020000,5.08602001953125,-0.16415321826934814,-0.4730491638183594,-0.04442620277404785
1710891160484980700,5.104980712890625,-0.20538067817687988,-0.15867996215820312,-0.05637383460998535
1710891160503940900,5.12394091796875,-0.15522706508636475,0.042095184326171875,0.05190229415893555
1710891160522901200,5.1429013671875,-0.012793183326721191,0.14180946350097656,0.20299458503723145
1710891160541862000,5.16186181640625,0.13006246089935303,0.15081310272216797,0.26969289779663086
1710891160560822300,5.180822265625,0.250333309173584,0.15216732025146484,0.23820042610168457
1710891160579782400,5.199782470703125,0.3362005949020386,0.1401958465576172,0.16067147254943848
1710891160598742800,5.21874267578125,0.303009033203125,0.014458656311035156,0.062482357025146484
1710891160617703400,5.237703369140625,0.2493276596069336,-0.15838050842285156,0.0581204891204834
1710891160636663800,5.256663818359375,0.11174654960632324,-0.2414264678955078,0.11899256706237793
1710891160655624000,5.2756240234375,-0.05816459655761719,-0.3350210189819336,0.24858474731445312
1710891160674584600,5.29458447265625,-0.15106749534606934,-0.5760841369628906,0.3875303268432617
1710891160693545000,5.313544921875,-0.3453788757324219,-0.8504505157470703,0.4191155433654785
1710891160712505300,5.33250537109375,-0.5556581616401672,-0.8297233581542969,0.49941110610961914
1710891160731465700,5.3514658203125,-0.5495205521583557,-0.7302460670471191,0.7180881500244141
1710891160750426000,5.370426025390625,-0.5261105298995972,-0.6607141494750977,1.0901212692260742
1710891160769386500,5.389386474609375,-0.45014703273773193,-0.5472393035888672,1.59572172164917
1710891160788347000,5.408346923828125,-0.4676100015640259,-0.46471500396728516,2.0305328369140625
1710891160807307300,5.427307373046875,-0.6101946830749512,-0.485410213470459,2.130021572113037
1710891160826267600,5.446267578125,-0.6493805646896362,-0.5879616737365723,1.966536045074463
1710891160845228000,5.46522802734375,-0.652422308921814,-0.686126708984375,1.8620762825012207
1710891160864188400,5.4841884765625,-0.7448098659515381,-0.7594695091247559,1.7975268363952637
1710891160883148800,5.503148681640625,-0.82034832239151,-0.7400040626525879,1.7314453125
1710891160902109200,5.522109130859375,-0.9878387451171875,-0.567497730255127,1.6151766777038574
1710891160921069600,5.541069580078125,-0.8201656341552734,-0.5995845794677734,1.677689552307129
1710891160940030000,5.560030029296875,-0.7971746921539307,-0.41724538803100586,1.7295517921447754
1710891160958990300,5.578990234375,-0.8411961793899536,0.043358802795410156,1.6683344841003418
1710891160977950700,5.59795068359375,-0.7842013239860535,0.3755016326904297,1.4095306396484375
1710891160996911000,5.6169111328125,-0.5231972932815552,0.5008053779602051,1.1464290618896484
1710891161015871500,5.63587158203125,-0.18800106644630432,0.6077098846435547,0.8134889602661133
1710891161034832000,5.654831787109375,0.029916957020759583,0.6770930290222168,0.46007728576660156
1710891161053792300,5.673792236328125,0.1742599904537201,0.7421150207519531,0.28864383697509766
1710891161072752600,5.692752685546875,0.09372925758361816,0.9152755737304688,0.27577781677246094
1710891161091713000,5.711713134765625,-0.14308393001556396,1.0258560180664062,0.3572263717651367
1710891161110673400,5.73067333984375,-0.3029310703277588,1.078221321105957,0.43525123596191406
1710891161129633800,5.7496337890625,-0.47739899158477783,1.1371793746948242,0.5263595581054688
1710891161148594200,5.76859423828125,-0.5162436962127686,1.1450786590576172,0.6432666778564453
1710891161167554600,5.787554443359375,-0.37042558193206787,1.1722416877746582,0.8433809280395508
1710891161186515000,5.806514892578125,-0.25405704975128174,1.3458523750305176,1.0356931686401367
1710891161205475300,5.825475341796875,-0.2547111511230469,1.509946346282959,1.0820207595825195
1710891161224435700,5.844435791015625,-0.29841065406799316,1.5376077890396118,0.9815883636474609
1710891161243396000,5.86339599609375,-0.622483491897583,1.5363154411315918,0.8983154296875
1710891161262356500,5.8823564453125,-0.7514684200286865,1.3170650005340576,0.7935037612915039
1710891161281316900,5.90131689453125,-0.3820009231567383,1.106520414352417,1.075190544128418
1710891161300277200,5.92027734375,-0.15120148658752441,0.9205847978591919,1.0699377059936523
1710891161319237600,5.939237548828125,-0.600226640701294,0.9418297410011292,0.45597267150878906
1710891161338198000,5.958197998046875,-0.8570336103439331,1.1154870986938477,-0.3601408004760742
1710891161357158400,5.977158447265625,-1.0665618181228638,1.1891992092132568,-1.0444841384887695
1710891161376118800,5.996118896484375,-1.3549729585647583,1.3236908912658691,-1.1780147552490234
1710891161395079200,6.0150791015625,-0.624358057975769,1.2864062786102295,-1.2257843017578125
1710891161414039600,6.03403955078125,0.23172974586486816,1.0755168199539185,-1.4436941146850586
1710891161433000000,6.053,0.5052171945571899,1.0842328071594238,-1.9128131866455078
1710891161451960300,6.071960205078125,0.6942638158798218,0.9801069498062134,-2.008533000946045
1710891161470920700,6.090920654296875,0.7942734360694885,0.6252017021179199,-2.210940361022949
1710891161489881000,6.109881103515625,0.7551381587982178,0.7068912982940674,-2.198490619659424
1710891161508841500,6.128841552734375,1.023966908454895,1.4038645029067993,-2.1822471618652344
1710891161527801900,6.1478017578125,1.698194146156311,2.218304395675659,-2.0530920028686523
1710891161546762200,6.16676220703125,2.823263168334961,2.475250720977783,-1.789846420288086
1710891161565722600,6.18572265625,3.7438414096832275,2.1254820823669434,-1.8450250625610352
1710891161584683000,6.20468310546875,3.1413559913635254,1.6976125240325928,-2.857865333557129
1710891161603643400,6.223643310546875,0.42646145820617676,1.953383445739746,-4.553167343139648
1710891161622603800,6.242603759765625,0.28010475635528564,1.7566715478897095,-4.099930763244629
1710891161641564200,6.261564208984375,1.7740607261657715,1.0101494789123535,-2.071902275085449
1710891161660524800,6.28052490234375,2.913997173309326,0.5601276159286499,-0.2041454315185547
1710891161679485200,6.299485107421875,2.2303433418273926,0.04676055908203125,2.1234617233276367
1710891161698445300,6.3184453125,0.8597584962844849,-0.9232451915740967,4.011043548583984
1710891161717406000,6.337406005859375,-1.106588363647461,-2.9253945350646973,5.635280609130859
1710891161736366300,6.356366455078125,-3.03171968460083,-4.24517822265625,6.428226470947266
1710891161755326700,6.37532666015625,-3.353360176086426,-2.610849380493164,5.506065368652344
1710891161774287000,6.394287109375,-2.124563694000244,0.04502296447753906,3.582180976867676
1710891161793247500,6.41324755859375,0.836778461933136,-0.47798264026641846,1.1032018661499023
1710891161812207900,6.432207763671875,1.0738729238510132,-3.3833982944488525,0.8479270935058594
1710891161831168300,6.451168212890625,-0.8738348484039307,-4.65213680267334,1.5569028854370117
1710891161850128600,6.470128662109375,-1.4037154912948608,-2.4805259704589844,0.9788980484008789
1710891161869089000,6.489089111328125,-0.8440941572189331,0.9463081955909729,0.7028036117553711
1710891161888049400,6.50804931640625,-0.4493952989578247,3.182939291000366,1.8232898712158203
1710891161907009800,6.527009765625,0.14217102527618408,3.4439966678619385,3.109908103942871
1710891161925970400,6.545970458984375,0.3940023183822632,3.0312976837158203,3.382312774658203
1710891161944930800,6.564930908203125,0.17416822910308838,3.000391960144043,2.470489501953125
1710891161963891000,6.583890869140625,0.2704019546508789,3.6396079063415527,1.442352294921875
1710891161982851300,6.602851318359375,0.272550106048584,3.9737777709960938,0.7131023406982422
1710891162001812000,6.62181201171875,0.1973872184753418,3.4818973541259766,0.3298206329345703
1710891162020772400,6.6407724609375,-0.35376298427581787,2.5981063842773438,-0.11989021301269531
1710891162039732700,6.659732666015625,-0.6878896951675415,2.0854575634002686,-0.8699073791503906
1710891162058693000,6.678693115234375,-0.9811030626296997,1.7934184074401855,-1.1213750839233398
1710891162077653500,6.697653564453125,-1.002213716506958,1.3841376304626465,-1.324152946472168
1710891162096614000,6.71661376953125,-0.9237127304077148,0.6669466495513916,-1.402256965637207
1710891162115574300,6.73557421875,-0.9880294799804688,-0.5647830963134766,-1.4035167694091797
1710891162134534700,6.75453466796875,-1.2988370656967163,-1.5176641941070557,-0.422821044921875
1710891162153495300,6.773495361328125,-1.2448631525039673,-2.0296237468719482,0.2850914001464844
1710891162172455700,6.79245556640625,-1.4328049421310425,-1.4279887676239014,-0.4755287170410156
1710891162191415800,6.811415771484375,-1.056341528892517,-0.8164701461791992,-1.2812166213989258
1710891162210376400,6.83037646484375,-0.004095420241355896,-0.8787593841552734,-1.5239267349243164
1710891162229336800,6.8493369140625,0.3348200023174286,-1.029944896697998,-1.9420924186706543
1710891162248297200,6.868297119140625,-0.08745157718658447,-1.2675557136535645,-2.1926193237304688
1710891162267257600,6.887257568359375,-0.5424280166625977,-1.5061368942260742,-2.122429370880127
1710891162286218000,6.906218017578125,-0.8633787035942078,-1.5863633155822754,-1.900893211364746
1710891162305178400,6.925178466796875,-0.7479318976402283,-1.847050666809082,-1.4883084297180176
1710891162324138800,6.944138671875,-0.40447157621383667,-1.9758949279785156,-1.3138375282287598
1710891162343099100,6.96309912109375,-0.25434696674346924,-1.5373315811157227,-1.154940128326416
1710891162362059800,6.982059814453125,-0.13703835010528564,-0.7715215682983398,-0.7840065956115723
1710891162381020200,7.001020263671875,0.46199893951416016,-0.2798638343811035,-0.5269474983215332
1710891162399980500,7.01998046875,0.5463546514511108,-0.11308860778808594,-0.6006684303283691
1710891162418941000,7.03894091796875,0.08996474742889404,-0.09401416778564453,-1.0403180122375488
1710891162437901300,7.0579013671875,-0.4571763277053833,0.10613822937011719,-1.2725048065185547
1710891162456861700,7.07686181640625,-0.6051445603370667,0.42568397521972656,-0.9871864318847656
1710891162475822300,7.095822265625,-0.4705619215965271,0.8430209159851074,-0.7247834205627441
1710891162494782700,7.11478271484375,-0.4106709957122803,1.114145278930664,-0.4511551856994629
1710891162513743000,7.1337431640625,-0.2566039562225342,1.3254222869873047,-0.18533802032470703
1710891162532703500,7.152703369140625,-0.27452605962753296,1.4566302299499512,0.10084962844848633
1710891162551663900,7.171663818359375,-0.34575021266937256,1.3721094131469727,0.1410655975341797
1710891162570624300,7.190624267578125,-0.31177228689193726,1.1435160636901855,0.1363372802734375
1710891162589585000,7.2095849609375,-0.3060172200202942,0.9085712432861328,0.09406089782714844
1710891162608545300,7.228545166015625,-0.21314042806625366,0.6041865348815918,-0.2546672821044922
1710891162627505700,7.247505615234375,-0.4616197347640991,0.32263612747192383,-0.5459704399108887
1710891162646466000,7.266466064453125,-0.659872829914093,0.22523212432861328,-0.3980751037597656
1710891162665426400,7.285426513671875,-0.545993447303772,0.06309080123901367,-0.3534274101257324
1710891162684386800,7.30438671875,-0.47793638706207275,-0.16666364669799805,-0.6085166931152344
1710891162703347500,7.323347412109375,-0.6157288551330566,-0.2733922004699707,-0.9023499488830566
1710891162722307800,7.342307861328125,-0.9224177598953247,-0.46683406829833984,-0.9698100090026855
1710891162741268200,7.361268310546875,-1.1601366996765137,-0.4878807067871094,-0.6965289115905762
1710891162760228600,7.380228515625,-1.1531732082366943,-0.43661975860595703,-0.20471668243408203
1710891162779189000,7.39918896484375,-0.9458860158920288,-0.4811716079711914,0.10109281539916992
1710891162798149400,7.4181494140625,-0.8246413469314575,-0.3880953788757324,0.34421300888061523
1710891162817110000,7.437110107421875,-0.68061363697052,0.18173980712890625,0.5677566528320312
1710891162836070400,7.4560703125,-0.6525931358337402,1.0129928588867188,0.746798038482666
1710891162855030800,7.47503076171875,-0.6103578805923462,1.6221919059753418,0.5869765281677246
1710891162873991200,7.4939912109375,-0.39331042766571045,1.8072948455810547,0.11409807205200195
1710891162892951600,7.51295166015625,-0.3523135185241699,1.6753392219543457,-0.040019989013671875
1710891162911912200,7.531912109375,-0.6134988069534302,1.4086785316467285,-0.0727090835571289
1710891162930872600,7.55087255859375,-0.4175615906715393,0.9972705841064453,-0.10474777221679688
1710891162949833000,7.5698330078125,-0.3691987991333008,0.4943819046020508,-0.3568000793457031
1710891162968793300,7.58879345703125,-0.913097083568573,0.3058643341064453,-0.25278282165527344
1710891162987753700,7.607753662109375,-0.517473578453064,0.3582181930541992,0.381744384765625
1710891163006714400,7.62671435546875,0.11216211318969727,0.4427027702331543,0.5289015769958496
1710891163025674800,7.6456748046875,-0.12857496738433838,-0.13156938552856445,-0.1680154800415039
1710891163044635100,7.66463525390625,0.2522052526473999,-0.7071208953857422,-0.6070151329040527
1710891163063595500,7.683595458984375,0.7112364768981934,-1.1864433288574219,-0.6756043434143066
1710891163082556200,7.70255615234375,0.2550455331802368,-1.2871923446655273,-0.8352723121643066
1710891163101516500,7.7215166015625,-0.056021809577941895,-1.1880683898925781,-0.5745954513549805
1710891163120477000,7.740476806640625,-0.11589288711547852,-1.1416101455688477,-0.0359644889831543
1710891163139437300,7.759437255859375,-0.3665196895599365,-1.5425114631652832,0.34992122650146484
1710891163158397700,7.778397705078125,-0.6668781042098999,-1.9732294082641602,0.7369823455810547
1710891163177358300,7.7973583984375,-0.9820201396942139,-2.4517006874084473,1.013923168182373
1710891163196318700,7.816318603515625,-1.0914219617843628,-2.574260711669922,0.8385214805603027
1710891163215279000,7.835279052734375,-1.10171639919281,-2.473879337310791,0.4022793769836426
1710891163234239500,7.854239501953125,-1.4767487049102783,-2.346707820892334,-0.03382110595703125
1710891163253200100,7.8732001953125,-1.6836721897125244,-2.08836030960083,-0.30655956268310547
1710891163272160500,7.892160400390625,-2.045055866241455,-1.4966630935668945,-0.333465576171875
1710891163291121000,7.911120849609375,-1.79085373878479,-1.0419025421142578,-0.48691844940185547
1710891163310081300,7.930081298828125,-1.5586040019989014,-0.7633914947509766,-0.654879093170166
1710891163329042000,7.9490419921875,-0.7054589986801147,-0.061252593994140625,0.1750049591064453
1710891163348002300,7.968002197265625,-0.07227081060409546,1.1888785362243652,1.3790855407714844
1710891163366962700,7.986962646484375,-0.16373036801815033,3.04512357711792,1.1808528900146484
1710891163385923300,8.00592333984375,0.9480971097946167,6.12669563293457,0.3408198356628418
1710891163404883700,8.0248837890625,2.5385563373565674,8.554671287536621,0.3141822814941406
1710891163423844000,8.043843994140625,4.035544395446777,9.311720848083496,1.2274518013000488
1710891163442804500,8.062804443359376,4.101672172546387,7.847012996673584,2.573746681213379
1710891163461765000,8.08176513671875,5.080758094787598,5.259471893310547,2.1046957969665527
1710891163480725500,8.1007255859375,4.013377666473389,2.7927417755126953,2.0719218254089355
1710891163499686000,8.119685791015625,2.735589027404785,0.40355539321899414,1.438281536102295
1710891163518646300,8.138646240234374,0.951862096786499,-2.066046714782715,1.0128302574157715
1710891163537606700,8.157606689453125,-0.39506852626800537,-3.764284133911133,0.6727876663208008
1710891163556567300,8.1765673828125,-0.3161201477050781,-3.940518379211426,0.8124470710754395
1710891163575527700,8.195527587890625,-1.2760053873062134,-2.886476993560791,0.08762407302856445
1710891163594488000,8.214488037109374,-1.9303462505340576,-2.18772554397583,-0.6590628623962402
1710891163613448700,8.23344873046875,-2.9718992710113525,-1.8739900588989258,-0.2269902229309082
1710891163632409000,8.2524091796875,-2.1562275886535645,-2.8630242347717285,0.4456038475036621
1710891163651369500,8.271369384765626,-2.2417831420898438,-3.480893135070801,0.5247440338134766
1710891163670330000,8.290330078125,-1.8949429988861084,-2.7543087005615234,-0.007289886474609375
1710891163689290500,8.30929052734375,-1.1274430751800537,-1.9058403968811035,-0.843778133392334
1710891163708251000,8.3282509765625,-1.070544719696045,-1.9314346313476562,-1.2514429092407227
1710891163727211300,8.347211181640626,-0.39693593978881836,-2.740476608276367,-0.7183985710144043
1710891163746172000,8.366171875,0.04905271530151367,-2.229745864868164,0.7207322120666504
1710891163765132300,8.38513232421875,0.39245760440826416,-1.2186012268066406,1.6766209602355957
1710891163784092700,8.4040927734375,0.6902931928634644,-1.0681018829345703,1.2872509956359863
1710891163803053300,8.42305322265625,0.45645177364349365,-1.6283836364746094,0.8498659133911133
1710891163822013700,8.442013671875,0.5513383150100708,-1.9434986114501953,0.6491861343383789
1710891163840974000,8.46097412109375,0.08362758159637451,-1.7702083587646484,1.02766752243042
1710891163859934500,8.4799345703125,-0.02906942367553711,-1.792616844177246,0.8758172988891602
1710891163878895000,8.49889501953125,-0.26493120193481445,-1.5203280448913574,0.48089027404785156
1710891163897855500,8.51785546875,-0.0469212532043457,-1.198343276977539,0.4364595413208008
1710891163916816000,8.53681591796875,-0.2937852144241333,-1.1560606956481934,0.4974098205566406
1710891163935776500,8.555776611328126,-0.561144232749939,-1.2793269157409668,0.4452633857727051
1710891163954737000,8.57473681640625,-0.6265256404876709,-1.138658046722412,0.3398251533508301
1710891163973697300,8.593697265625,-0.8235019445419312,-1.2133145332336426,0.5997376441955566
1710891163992658000,8.612657958984375,-0.7570120096206665,-1.032142162322998,0.4268932342529297
1710891164011618300,8.631618408203124,-0.6951936483383179,-0.22703981399536133,-0.5736780166625977
1710891164030578700,8.65057861328125,-0.3441336154937744,0.8715343475341797,-1.3274335861206055
1710891164049539000,8.6695390625,-0.33450794219970703,2.317854881286621,-1.3651032447814941
1710891164068499500,8.68849951171875,-0.20190823078155518,3.7727532386779785,-0.9278154373168945
1710891164087460000,8.707460205078124,0.27366554737091064,4.22724723815918,-0.6729550361633301
1710891164106420500,8.72642041015625,0.4091677665710449,3.270993232727051,-0.04439258575439453
1710891164125381000,8.745381103515625,0.8275783658027649,1.7385940551757812,-0.20358800888061523
1710891164144341500,8.764341552734376,1.0123997926712036,1.1450328826904297,-0.6097874641418457
1710891164163302000,8.783302001953125,0.860467791557312,0.17096376419067383,-1.4000892639160156
1710891164182262300,8.80226220703125,0.7447358965873718,-0.8517704010009766,-1.166985034942627
1710891164201223000,8.821222900390625,-0.1499808430671692,-0.8739719390869141,0.5098671913146973
1710891164220183300,8.840183349609376,-0.35433149337768555,-1.1809659004211426,0.7728910446166992
1710891164239143700,8.859143798828125,-0.6431334018707275,-1.3181371688842773,0.18073463439941406
1710891164258104000,8.87810400390625,-0.8884567618370056,-0.7239499092102051,-0.5412425994873047
1710891164277064700,8.897064697265625,-0.2007785141468048,-0.3655233383178711,-1.315901279449463
1710891164296025000,8.916025146484374,-0.23837335407733917,-0.4033341407775879,-1.2023611068725586
1710891164314985700,8.93498583984375,-0.028683245182037354,0.5869193077087402,-1.0725140571594238
1710891164333946000,8.953946044921874,0.37689322233200073,0.9504275321960449,-0.8551411628723145
1710891164352906500,8.972906494140625,0.6347866654396057,0.4231581687927246,-0.33283281326293945
1710891164371867000,8.991866943359375,1.081224799156189,0.38082027435302734,-0.28687095642089844
1710891164390827300,9.0108271484375,0.9089927673339844,0.6148004531860352,0.07219076156616211
1710891164409788000,9.029787841796875,1.2359188795089722,0.07898378372192383,0.30925989151000977
1710891164428748300,9.048748291015626,1.070479393005371,0.027727127075195312,0.22632646560668945
1710891164447708700,9.067708740234375,0.6845424175262451,-0.026110172271728516,0.20822429656982422
1710891164466669300,9.08666943359375,0.6294831037521362,0.4220876693725586,0.06133317947387695
1710891164485629700,9.105629638671875,0.5353759527206421,0.769101619720459,-0.12843036651611328
1710891164504590000,9.124590087890626,0.5261638164520264,0.806912899017334,0.3224811553955078
1710891164523550700,9.14355078125,0.14121997356414795,0.6929793357849121,0.7307519912719727
1710891164542511000,9.162510986328124,0.06405150890350342,0.2816958427429199,0.3176898956298828
1710891164561471500,9.181471435546875,0.027756810188293457,0.14557456970214844,-0.12150859832763672
1710891164580432000,9.200431884765624,0.1680309772491455,-0.06651544570922852,0.09188699722290039
1710891164599392500,9.219392578125,0.021030426025390625,-0.37453126907348633,0.5474052429199219
1710891164618353000,9.238352783203124,0.3568764925003052,-0.058588504791259766,-0.03501129150390625
1710891164637313300,9.257313232421875,0.38008081912994385,-0.1346421241760254,-0.050438880920410156
1710891164656274000,9.27627392578125,0.3780028820037842,-0.43251895904541016,-0.15081119537353516
1710891164675234300,9.295234375,0.2459428310394287,-0.3832521438598633,-0.2606630325317383
1710891164694194700,9.314194580078125,0.20488595962524414,-0.3719658851623535,0.09025764465332031
1710891164713155300,9.3331552734375,-0.10576343536376953,-0.20760869979858398,0.29380226135253906
1710891164732115700,9.35211572265625,-0.4920351505279541,0.09485530853271484,-0.027690887451171875
1710891164751076000,9.371076171875,-0.10116791725158691,-0.06318545341491699,-0.6112279891967773
1710891164770036500,9.390036376953125,0.19641351699829102,-0.3968625068664551,-0.5762062072753906
1710891164788997000,9.4089970703125,0.03708076477050781,-0.21645498275756836,-0.5149745941162109
1710891164807957500,9.42795751953125,0.14168024063110352,0.01750349998474121,-0.4038257598876953
1710891164826918000,9.44691796875,-0.1356503963470459,-0.09800267219543457,-0.09950923919677734
1710891164845878500,9.46587841796875,-0.15559172630310059,-0.11182403564453125,0.1159067153930664
1710891164864839000,9.4848388671875,0.1685166358947754,0.09250426292419434,-0.1372509002685547
1710891164883799300,9.50379931640625,-0.2394425868988037,0.40917158126831055,0.19309329986572266
1710891164902759700,9.522759765625,0.0354156494140625,0.7418129444122314,0.5947856903076172
1710891164921720300,9.54172021484375,0.48149633407592773,0.917773962020874,0.27347755432128906
1710891164940680700,9.5606806640625,0.05268669128417969,0.8939222097396851,0.0961599349975586
1710891164959641300,9.579641357421876,-0.35615968704223633,0.6865102052688599,0.02159595489501953
1710891164978601700,9.598601806640625,-0.11879587173461914,0.5293756723403931,-0.06322765350341797
1710891164997562000,9.61756201171875,0.10640811920166016,0.7292907238006592,-0.5430774688720703
1710891165016522500,9.6365224609375,-0.022077083587646484,0.6983121633529663,-0.4705543518066406
1710891165035483100,9.655483154296874,-0.4825119972229004,0.7101253271102905,0.008123397827148438
1710891165054443500,9.674443603515625,-0.5997262001037598,0.5084385871887207,0.12218570709228516
1710891165073404000,9.69340380859375,-0.17336463928222656,0.2147141844034195,-0.20241641998291016
1710891165092364500,9.712364501953125,0.30748558044433594,-0.04209286719560623,-0.5262060165405273
1710891165111325000,9.731324951171874,0.013405323028564453,-0.08038845658302307,-0.172576904296875
1710891165130285300,9.750285400390625,-0.25318050384521484,-0.015015602111816406,0.21417236328125
1710891165149246000,9.769245849609375,-0.14283323287963867,-0.12787467241287231,0.1992177963256836
1710891165168206300,9.788206298828126,-0.22979164123535156,-0.12733757495880127,0.1831197738647461
1710891165187166700,9.807166748046875,-0.22551822662353516,0.11175477504730225,0.3672065734863281
1710891165206127000,9.826127197265626,-0.2003035545349121,0.3547760248184204,0.39838695526123047
1710891165225087700,9.845087646484375,-0.18506383895874023,0.30329155921936035,0.21853160858154297
1710891165244048100,9.864048095703126,-0.1254730224609375,0.1794065237045288,-0.10664653778076172
1710891165263008500,9.883008544921875,-0.3179593086242676,0.10248422622680664,-0.12666702270507812
1710891165281969200,9.90196923828125,-0.4584183692932129,-0.0038652420043945312,-0.011580467224121094
1710891165300929500,9.920929443359375,-0.2962760925292969,-0.09794783592224121,0.10101509094238281
1710891165319890000,9.939889892578124,-0.27870845794677734,-0.02497243881225586,0.2374744415283203
1710891165338850300,9.958850341796875,-0.16957569122314453,0.22098851203918457,0.46953296661376953
1710891165357811000,9.97781103515625,0.19101238250732422,0.42640161514282227,0.4311861991882324
1710891165376771300,9.996771240234375,0.3400106430053711,0.34046339988708496,0.5163841247558594
1710891165395732000,10.01573193359375,0.23744726181030273,0.14953899383544922,0.9477939605712891
1710891165414692400,10.0346923828125,-0.006653785705566406,0.18076515197753906,1.1050286293029785
1710891165433652700,10.05365283203125,-0.25444746017456055,0.44075918197631836,0.9634575843811035
1710891165452613000,10.072613037109376,-0.5065674781799316,0.8149509429931641,0.889923095703125
1710891165471573800,10.09157373046875,-0.43649911880493164,0.9492907524108887,0.4469876289367676
1710891165490534100,10.1105341796875,-0.10646533966064453,0.7251231670379639,0.07900714874267578
1710891165509494800,10.129494873046875,-0.22798442840576172,0.5042202472686768,0.07743453979492188
1710891165528455200,10.148455078125,-0.681694507598877,0.36333703994750977,0.21097469329833984
1710891165547415600,10.16741552734375,-0.24192380905151367,0.24379253387451172,0.40764474868774414
1710891165566376000,10.1863759765625,0.21826171875,0.13535022735595703,0.5136556625366211
1710891165585336600,10.205336669921875,-0.028469562530517578,0.04236602783203125,0.770136833190918
1710891165604297000,10.224296875,-0.0810999870300293,0.07720947265625,0.7143049240112305
1710891165623257300,10.24325732421875,-0.3157505989074707,0.13026857376098633,0.2837238311767578
1710891165642218000,10.262218017578125,0.07956123352050781,-0.24032974243164062,-0.06668758392333984
1710891165661178400,10.281178466796876,0.0852346420288086,-0.6155233383178711,-0.13544416427612305
1710891165680138800,10.300138671875,-0.20380568504333496,-0.56756591796875,-0.2806730270385742
1710891165699099100,10.31909912109375,-0.49022841453552246,-0.16672706604003906,-0.08306694030761719
1710891165718059800,10.338059814453125,-0.3628194332122803,0.08728551864624023,-0.026725292205810547
1710891165737020200,10.357020263671876,-0.31393980979919434,0.06828641891479492,-0.017841339111328125
1710891165755980500,10.37598046875,-0.17569899559020996,-0.12704706192016602,0.1591029167175293
1710891165774941200,10.394941162109374,-0.16591978073120117,-0.2809600830078125,0.4652266502380371
1710891165793901600,10.413901611328125,-0.3058006763458252,-0.21581792831420898,0.6088786125183105
1710891165812862000,10.432862060546874,-0.1027989387512207,-0.22627687454223633,0.5738792419433594
1710891165831822600,10.451822509765625,-0.09666156768798828,-0.21306753158569336,0.6838278770446777
1710891165850783000,10.470782958984374,-0.1136014461517334,-0.28435373306274414,0.8350973129272461
1710891165869743400,10.489743408203125,-0.3749666213989258,-0.22395706176757812,0.8440918922424316
1710891165888703700,10.508703857421875,-0.15227317810058594,-0.1400461196899414,0.5386319160461426
1710891165907664400,10.527664306640625,0.21522092819213867,-0.11360788345336914,0.39742231369018555
1710891165926624800,10.546624755859375,0.17921853065490723,0.010417938232421875,0.5560979843139648
1710891165945585200,10.565585205078126,0.014072179794311523,-0.14573383331298828,0.6518182754516602
1710891165964545800,10.5845458984375,-0.07528567314147949,-0.5672626495361328,0.7241816520690918
1710891165983506200,10.603506103515626,0.04873776435852051,-0.833594799041748,0.6891012191772461
1710891166002466600,10.622466552734375,-0.10345220565795898,-0.7577447891235352,0.4826045036315918
1710891166021427200,10.64142724609375,-0.3621528148651123,-0.6796717643737793,-0.07241487503051758
1710891166040387600,10.6603876953125,-0.450361967086792,-0.5880727767944336,-0.5053577423095703
1710891166059348000,10.679347900390624,-0.6145892143249512,-0.5742583274841309,-0.6566152572631836
1710891166078308400,10.698308349609375,-0.32268476486206055,-0.6402578353881836,-1.176187515258789
1710891166097269000,10.71726904296875,0.06299114227294922,-0.6883316040039062,-1.574223518371582
1710891166116229400,10.7362294921875,-0.3725283145904541,-0.9304409027099609,-1.318176507949829
1710891166135189800,10.755189697265624,-0.6705186367034912,-1.2309207916259766,-0.8517203330993652
1710891166154150400,10.774150390625,0.1178504228591919,-0.9550695419311523,-0.6122245788574219
1710891166173110800,10.79311083984375,0.4547611474990845,-0.39674854278564453,0.032412052154541016
1710891166192071200,10.8120712890625,0.11323702335357666,-0.13286113739013672,0.7228412628173828
1710891166211031600,10.831031494140625,0.17264997959136963,-0.12307929992675781,1.1471962928771973
1710891166229992200,10.8499921875,0.31579458713531494,0.14974117279052734,1.4280261993408203
1710891166248952600,10.86895263671875,0.2287139892578125,0.45541954040527344,1.264418601989746
1710891166267913000,10.887912841796876,-0.21649384498596191,0.39571666717529297,0.8028178215026855
1710891166286873600,10.90687353515625,-0.3671097755432129,0.2584342956542969,0.42946672439575195
1710891166305834000,10.925833984375,0.02197742462158203,0.08957481384277344,0.22559642791748047
1710891166324794400,10.94479443359375,0.006435751914978027,0.12782955169677734,0.6261324882507324
1710891166343755000,10.963755126953124,-0.39070403575897217,-0.15174484252929688,0.7212696075439453
1710891166362715400,10.98271533203125,-0.1603175401687622,-0.25636959075927734,0.2892191410064697
1710891166381675800,11.00167578125,0.20162248611450195,-0.29105281829833984,-0.09555578231811523
1710891166400636200,11.02063623046875,0.19417130947113037,0.051560401916503906,-0.2832186222076416
1710891166419596800,11.0395966796875,0.13491392135620117,0.20702552795410156,-0.43655896186828613
1710891166438557200,11.05855712890625,-0.009008646011352539,0.039649009704589844,-0.6222140789031982
1710891166457517800,11.077517822265625,-0.47272467613220215,-0.16702651977539062,-0.2556264400482178
1710891166476478200,11.096478271484376,-1.2230066061019897,-0.29485416412353516,0.2065117359161377
1710891166495438600,11.1154384765625,-1.5031728744506836,-0.3515129089355469,0.6264886856079102
1710891166514399000,11.13439892578125,-1.262929916381836,-0.2618904113769531,0.9499814510345459
1710891166533359400,11.153359375,-0.7184630632400513,0.04395103454589844,0.9216892719268799
1710891166552320000,11.172320068359374,-0.19463574886322021,0.39015960693359375,0.7491762638092041
1710891166571280400,11.1912802734375,0.24456822872161865,0.4242238998413086,0.7833521366119385
1710891166590241000,11.210240966796874,0.6659610271453857,0.3890523910522461,1.0291218757629395
1710891166609201400,11.229201416015625,0.8674041032791138,0.3038043975830078,1.2950880527496338
1710891166628161800,11.248161865234374,0.6553383469581604,-0.04727745056152344,1.2940797805786133
1710891166647122200,11.2671220703125,0.2821016311645508,-0.06903553009033203,0.9136266708374023
1710891166666082800,11.286082763671875,-0.010355472564697266,0.46553516387939453,0.36771273612976074
1710891166685043200,11.305043212890626,-0.04815363883972168,0.24174213409423828,-0.05447888374328613
1710891166704003800,11.32400390625,0.08755695819854736,-0.5887660980224609,-0.5289099216461182
1710891166722964200,11.342964111328126,-0.030217528343200684,-0.49655818939208984,-0.4499545097351074
1710891166741924600,11.361924560546875,-0.08940589427947998,0.0854644775390625,-0.18311405181884766
1710891166760885000,11.380885009765626,-0.011856317520141602,-0.16442394256591797,-0.0657968521118164
1710891166779845600,11.399845703125,0.11139106750488281,-0.30190467834472656,0.07244038581848145
1710891166798806000,11.418805908203124,0.1757901906967163,-0.0768575668334961,0.4668867588043213
1710891166817766700,11.4377666015625,0.5403620004653931,0.3106555938720703,0.6955888271331787
1710891166836727000,11.45672705078125,0.678741455078125,0.15911388397216797,0.6404857635498047
1710891166855687400,11.4756875,0.6874651908874512,-0.27680301666259766,0.5006940364837646
1710891166874647800,11.494647705078124,0.4464256167411804,-0.036232948303222656,0.5138511657714844
1710891166893608400,11.5136083984375,0.26363515853881836,0.0573883056640625,0.5792992115020752
1710891166912568800,11.53256884765625,0.2755385637283325,-0.06928253173828125,0.5570769309997559
1710891166931529500,11.551529541015626,0.129721999168396,0.09272384643554688,0.3395047187805176
1710891166950489900,11.57048974609375,-0.13124358654022217,0.1456594467163086,0.24248218536376953
1710891166969450200,11.5894501953125,0.0020720958709716797,-0.08197975158691406,0.17247462272644043
1710891166988411000,11.608410888671875,0.23536711931228638,-0.13236141204833984,0.017449378967285156
1710891167007371300,11.627371337890626,-0.005626320838928223,0.057351112365722656,-0.025911569595336914
1710891167026331600,11.64633154296875,-0.16321241855621338,-0.08042144775390625,-0.05344843864440918
1710891167045292300,11.665292236328124,-0.012387990951538086,-0.1544322967529297,-0.10839319229125977
1710891167064252700,11.684252685546875,0.09505069255828857,-0.18133258819580078,-0.08582830429077148
1710891167083213300,11.70321337890625,0.03695547580718994,-0.11893749237060547,-0.027150392532348633
1710891167102173700,11.722173583984375,-0.016933321952819824,-0.002323150634765625,0.12284994125366211
1710891167121134000,11.741134033203124,0.16609996557235718,0.1652679443359375,0.23163938522338867
1710891167140094700,11.7600947265625,0.27981728315353394,0.13039016723632812,0.19947004318237305
1710891167159055000,11.77905517578125,0.3105161190032959,0.055830955505371094,0.24593639373779297
1710891167178015700,11.798015625,0.22089141607284546,0.05006885528564453,0.3774585723876953
1710891167196976000,11.81697607421875,0.1000288724899292,0.08240318298339844,0.32878589630126953
1710891167215936500,11.8359365234375,-0.005250513553619385,0.055904388427734375,0.2413325309753418
1710891167234897200,11.854897216796875,0.01584446430206299,-0.06673431396484375,0.17527055740356445
1710891167253857500,11.873857421875,0.013394832611083984,0.009921073913574219,0.20897674560546875
1710891167272818000,11.89281787109375,-0.07264947891235352,-0.006344795227050781,0.17656612396240234
1710891167291778600,11.911778564453124,-0.1666501760482788,-0.05661487579345703,0.10161399841308594
1710891167310739000,11.930739013671875,-0.17241120338439941,-0.14105796813964844,-0.08459806442260742
1710891167329699600,11.949699462890624,-0.23434233665466309,-0.09451103210449219,-0.1769847869873047
1710891167348660000,11.968659912109375,-0.3846607804298401,-0.10154342651367188,-0.13037586212158203
1710891167367620600,11.98762060546875,-0.3930501341819763,-0.10321998596191406,-0.16640329360961914
1710891167386581000,12.0065810546875,-0.29777824878692627,-0.18553829193115234,-0.3861825466156006
1710891167405541400,12.025541259765625,-0.18070101737976074,-0.1845226287841797,-0.48047685623168945
1710891167424502000,12.044501953125,-0.06996804475784302,-0.10124397277832031,-0.33269548416137695
1710891167443462400,12.06346240234375,0.026175320148468018,0.0006656646728515625,0.11191511154174805
1710891167462422800,12.0824228515625,0.22572922706604004,0.0840444564819336,0.420900821685791
1710891167481383400,12.101383544921875,0.2637186646461487,0.1542072296142578,0.44275951385498047
1710891167500344000,12.120343994140624,0.2272740602493286,0.04217815399169922,0.35213804244995117
1710891167519304400,12.139304443359375,0.00961148738861084,0.1124267578125,0.24268817901611328
1710891167538264800,12.158264892578124,-0.05141955614089966,-0.011889457702636719,0.13875961303710938
1710891167557225500,12.1772255859375,0.004972636699676514,-0.04804515838623047,0.04294872283935547
1710891167576185900,12.196185791015624,0.03156840801239014,0.08299446105957031,0.07032537460327148
1710891167595146200,12.215146240234375,0.05353289842605591,0.035515785217285156,0.1055750846862793
1710891167614107000,12.23410693359375,0.1246645450592041,-0.07897281646728516,0.04742431640625
1710891167633067300,12.2530673828125,0.014396905899047852,-0.036156654357910156,-0.028413772583007812
1710891167652028000,12.27202783203125,-0.07096636295318604,-0.058406829833984375,-0.12641000747680664
1710891167670988300,12.29098828125,-0.16350597143173218,-0.08955001831054688,-0.3138389587402344
1710891167689949000,12.309948974609375,-0.42234301567077637,-0.28734588623046875,-0.48708295822143555
1710891167708909300,12.328909423828126,-0.5094081163406372,-0.21386146545410156,-0.572962760925293
1710891167727870000,12.347869873046875,-0.3954685926437378,-0.04331684112548828,-0.4548954963684082
1710891167746830300,12.366830322265624,-0.2713022232055664,-0.11214160919189453,-0.25872087478637695
1710891167765790700,12.385790771484375,-0.13653641939163208,-0.1176614761352539,0.034398555755615234
1710891167784751400,12.40475146484375,0.00466609001159668,0.14770221710205078,0.3155674934387207
1710891167803711700,12.423711669921875,0.08726632595062256,0.2626829147338867,0.4479703903198242
1710891167822672400,12.44267236328125,0.13480204343795776,-0.013129234313964844,0.39428186416625977
1710891167841633000,12.461633056640625,0.11461442708969116,-0.10115718841552734,0.33884716033935547
1710891167860593400,12.480593505859375,0.12794774770736694,0.19475078582763672,0.22305011749267578
1710891167879553800,12.4995537109375,0.11686944961547852,0.19147109985351562,0.09617996215820312
1710891167898514400,12.518514404296875,0.06727355718612671,-0.13402938842773438,0.0008921623229980469
1710891167917474800,12.537474853515626,0.004703998565673828,-0.11198902130126953,-0.032670021057128906
1710891167936435500,12.556435546875,-0.02215266227722168,0.10746288299560547,-0.03561592102050781
1710891167955395800,12.575395751953126,0.09513062238693237,0.056433677673339844,-0.021117687225341797
1710891167974356200,12.594356201171875,0.17266857624053955,-0.05315208435058594,0.04492664337158203
1710891167993316900,12.61331689453125,0.09358757734298706,-0.02093219757080078,0.2089548110961914
1710891168012277500,12.632277587890625,0.04072314500808716,0.03370857238769531,0.2678847312927246
1710891168031238000,12.65123779296875,0.017686784267425537,0.06586933135986328,0.1572895050048828
1710891168050198500,12.670198486328125,0.02319931983947754,-0.022423744201660156,-0.028319835662841797
1710891168069159000,12.689158935546875,-0.018619060516357422,-0.07216262817382812,-0.13504648208618164
1710891168088119600,12.70811962890625,0.05550718307495117,-0.013456344604492188,-0.12384223937988281
1710891168107080000,12.727079833984375,0.04586291313171387,-0.008292198181152344,-0.11284542083740234
1710891168126040300,12.746040283203126,0.12416940927505493,0.0855722427368164,-0.019065380096435547
1710891168145001000,12.7650009765625,0.20010608434677124,0.10568428039550781,0.16361379623413086
1710891168163961300,12.78396142578125,0.19275778532028198,-0.09690284729003906,0.30261993408203125
1710891168182922000,12.802921875,0.0013617277145385742,0.13716793060302734,0.34306764602661133
1710891168201882400,12.82188232421875,-0.021054089069366455,0.13642406463623047,0.1569976806640625
1710891168220843000,12.840843017578125,0.006593763828277588,-0.17328548431396484,-0.05872917175292969
1710891168239803600,12.8598037109375,-0.05040919780731201,-0.06841373443603516,-0.19960784912109375
1710891168258764000,12.878763916015625,0.03615051507949829,0.08425140380859375,-0.1376514434814453
1710891168277724700,12.897724609375,0.1423436403274536,-0.05717277526855469,-0.015161514282226562
1710891168296685000,12.91668505859375,0.04768562316894531,-0.05778789520263672,0.18608474731445312
1710891168315645700,12.935645751953125,-0.16903185844421387,0.05686473846435547,0.4713759422302246
1710891168334606000,12.954606201171876,-0.14833682775497437,-0.05572319030761719,0.5235939025878906
1710891168353566500,12.97356640625,0.10443508625030518,0.13082218170166016,0.2413625717163086
1710891168372527000,12.992527099609376,0.1031332015991211,0.18862438201904297,-0.11764001846313477
1710891168391487500,13.011487548828125,-0.016937673091888428,-0.14829254150390625,-0.29801034927368164
1710891168410448100,13.0304482421875,-0.04474985599517822,-0.1507434844970703,-0.21432995796203613
1710891168429408500,13.049408447265625,0.00514531135559082,0.13992023468017578,-0.05671548843383789
1710891168448369200,13.068369140625,0.13142520189285278,0.05157661437988281,0.03451967239379883
1710891168467329800,13.087329833984375,0.0991067886352539,-0.1722850799560547,0.11718225479125977
1710891168486290200,13.106290283203125,-0.036934852600097656,0.1355113983154297,0.2751040458679199
1710891168505250800,13.125250732421875,-0.034517884254455566,0.21117115020751953,0.3018946647644043
1710891168524211200,13.144211181640625,0.06959933042526245,-0.04054546356201172,0.22820138931274414
1710891168543171800,13.163171875,0.037897467613220215,-0.058861732482910156,0.2260279655456543
1710891168562132200,13.18213232421875,0.04137527942657471,0.11843681335449219,0.1792926788330078
1710891168581092900,13.2010927734375,0.04490089416503906,0.09464454650878906,-0.004737377166748047
1710891168600053200,13.22005322265625,0.01068347692489624,-0.20380210876464844,-0.1627802848815918
1710891168619014000,13.239013916015624,-0.14787018299102783,-0.055426597595214844,-0.21295881271362305
1710891168637974300,13.257974365234375,-0.11803621053695679,0.12950801849365234,-0.1412062644958496
1710891168656935000,13.276934814453124,0.003948688507080078,-0.016222000122070312,-0.0693511962890625
1710891168675895300,13.295895263671875,0.02028810977935791,-0.07873344421386719,-0.024629592895507812
1710891168694856000,13.31485595703125,-0.1443086862564087,-0.033049583435058594,0.04458951950073242
1710891168713816600,13.333816650390625,-0.1414242386817932,0.017739295959472656,0.05145835876464844
1710891168732777000,13.35277685546875,0.029171884059906006,0.012711524963378906,-0.028168678283691406
1710891168751737600,13.371737548828126,0.04370307922363281,-0.08418846130371094,-0.10721921920776367
1710891168770698000,13.390697998046875,-0.059498131275177,-0.08535480499267578,-0.1765298843383789
1710891168789658600,13.40965869140625,-0.0789981484413147,0.01151275634765625,-0.1516585350036621
1710891168808619000,13.428618896484375,-0.004884064197540283,0.08840465545654297,-0.0389103889465332
1710891168827579600,13.44757958984375,0.05766570568084717,-0.0815439224243164,0.009328365325927734
1710891168846540000,13.4665400390625,0.03202909231185913,-0.14910030364990234,-0.009459972381591797
1710891168865500700,13.485500732421874,-0.06324219703674316,0.042659759521484375,-0.03394365310668945
1710891168884461000,13.5044609375,-0.017584800720214844,0.06847381591796875,-0.03910398483276367
1710891168903421700,13.523421630859374,0.10137808322906494,-0.07622814178466797,-0.1147007942199707
1710891168922382000,13.542382080078125,0.06904423236846924,0.031968116760253906,-0.013173103332519531
1710891168941342700,13.5613427734375,-0.006610393524169922,0.17919445037841797,0.1423039436340332
1710891168960303000,13.58030322265625,0.0004214048385620117,0.034119606018066406,0.15279769897460938
1710891168979263700,13.599263671875,-0.01698213815689087,-0.04738140106201172,0.12067127227783203
1710891168998224100,13.61822412109375,-0.1206890344619751,-0.01781749725341797,0.05523538589477539
1710891169017184800,13.637184814453125,-0.14474976062774658,0.09294891357421875,0.0559086799621582
1710891169036145200,13.656145263671876,-0.11171811819076538,0.026192665100097656,0.04735422134399414
1710891169055105800,13.675105712890625,-0.1022602915763855,-0.12473392486572266,0.017409324645996094
1710891169074066200,13.694066162109374,-0.08822327852249146,0.05881309509277344,-0.016683101654052734
1710891169093026800,13.71302685546875,-0.01333695650100708,0.11266326904296875,-0.06447982788085938
1710891169111987200,13.7319873046875,0.04246646165847778,-0.13427352905273438,-0.1720905303955078
1710891169130947800,13.75094775390625,0.01231926679611206,-0.12734603881835938,-0.20971965789794922
1710891169149908200,13.769908203125,-0.12629365921020508,0.11426544189453125,-0.16384553909301758
1710891169168868900,13.788868896484376,-0.05928915739059448,0.011646270751953125,-0.09201192855834961
1710891169187829200,13.807829345703125,0.05422741174697876,-0.1469745635986328,-0.0848379135131836
1710891169206790000,13.826789794921876,-0.00547868013381958,-0.0460205078125,0.031148910522460938
1710891169225750500,13.84575048828125,-0.0996171236038208,0.15320205688476562,0.08351659774780273
1710891169244711000,13.8647109375,0.006419718265533447,0.01955127716064453,0.08666753768920898
1710891169263671600,13.883671630859375,0.08326870203018188,-0.01749897003173828,0.041423797607421875
1710891169282632000,13.9026318359375,-0.03745764493942261,0.0711374282836914,0.04496288299560547
1710891169301592300,13.92159228515625,-0.08755326271057129,0.02207469940185547,0.070709228515625
1710891169320553000,13.940552978515624,-0.023575782775878906,0.0030336380004882812,0.19055557250976562
1710891169339513300,13.959513427734375,0.0059989094734191895,0.05109596252441406,0.2526254653930664
1710891169358474000,13.978473876953124,0.010556697845458984,0.03822612762451172,0.15395545959472656
1710891169377434400,13.997434326171875,0.019501030445098877,-0.02206897735595703,-0.0120697021484375
1710891169396395000,14.01639501953125,-0.028676629066467285,0.006847381591796875,-0.1746068000793457
1710891169415355400,14.03535546875,-0.08691829442977905,0.047606468200683594,-0.28113222122192383
1710891169434316000,14.05431591796875,-0.15685349702835083,-0.022049903869628906,-0.36626219749450684
1710891169453276700,14.073276611328126,-0.193314790725708,-0.13225555419921875,-0.3802967071533203
1710891169472237000,14.092237060546875,-0.15187305212020874,-0.21979522705078125,-0.2941880226135254
1710891169491197400,14.111197509765624,-0.02473992109298706,0.014622688293457031,-0.18737506866455078
1710891169510158000,14.130157958984375,0.10782897472381592,0.1860647201538086,-0.0891733169555664
1710891169529118500,14.149118408203124,0.1939142346382141,0.04214000701904297,0.07463932037353516
1710891169548079000,14.1680791015625,0.15288668870925903,-0.03540229797363281,0.16956043243408203
1710891169567039500,14.18703955078125,-0.006532013416290283,0.14309024810791016,0.270937442779541
1710891169586000000,14.205999755859375,-0.15069913864135742,0.12440776824951172,0.3168497085571289
1710891169604960500,14.22496044921875,-0.2420903444290161,-0.04334068298339844,0.2840151786804199
1710891169623921200,14.243921142578126,-0.3329242467880249,-0.06566047668457031,0.1707134246826172
1710891169642881500,14.262881591796875,-0.4154006242752075,-0.03423309326171875,0.05737876892089844
1710891169661842200,14.28184228515625,-0.37945711612701416,-0.13091373443603516,-0.13488507270812988
1710891169680802600,14.300802490234375,-0.2963138818740845,-0.13904571533203125,-0.3118472099304199
1710891169699763000,14.319762939453126,-0.14730703830718994,-0.17069625854492188,-0.37827157974243164
1710891169718723600,14.3387236328125,-0.07307350635528564,-0.10435295104980469,-0.4129009246826172
1710891169737684000,14.35768408203125,0.04742610454559326,-0.01685810089111328,-0.3715207576751709
1710891169756644600,14.37664453125,0.15130209922790527,-0.011105537414550781,-0.11540365219116211
1710891169775605000,14.39560498046875,0.25855451822280884,-0.09929466247558594,0.16868042945861816
1710891169794565600,14.414565673828125,0.21175646781921387,0.033039093017578125,0.39856624603271484
1710891169813526000,14.433526123046875,0.1633831262588501,0.15056800842285156,0.508603572845459
1710891169832486700,14.452486572265625,0.19350361824035645,0.1910381317138672,0.47167539596557617
1710891169851447000,14.471447021484375,0.28952884674072266,0.08368587493896484,0.38596105575561523
1710891169870407400,14.490407470703126,0.3849668502807617,0.14895248413085938,0.3094959259033203
1710891169889368000,14.5093681640625,0.4031111001968384,0.10750484466552734,0.2067422866821289
1710891169908328400,14.528328369140626,0.36831510066986084,-0.1314849853515625,0.1004018783569336
1710891169927288800,14.547288818359375,0.20315885543823242,-0.03957366943359375,-0.001674652099609375
1710891169946249500,14.56624951171875,0.048949360847473145,0.05985069274902344,-0.04706621170043945
1710891169965209900,14.5852099609375,0.08256244659423828,-0.014075279235839844,-0.056278228759765625
1710891169984170500,14.60417041015625,0.15431272983551025,-0.2783975601196289,-0.09153366088867188
1710891170003131000,14.623130859375,0.1283489465713501,-0.011865615844726562,-0.03379392623901367
1710891170022091500,14.642091552734374,0.01975858211517334,0.26682186126708984,0.07055521011352539
1710891170041052000,14.661052001953125,0.015086770057678223,0.012822151184082031,0.0359039306640625
1710891170060012300,14.68001220703125,0.03578042984008789,-0.17216968536376953,-0.1262378692626953
1710891170078973000,14.698972900390626,0.06020712852478027,0.029254913330078125,-0.2746248245239258
1710891170097933300,14.717933349609375,0.17229747772216797,0.1748504638671875,-0.2105576992034912
1710891170116894000,14.73689404296875,0.38586699962615967,-0.05817699432373047,0.08736515045166016
1710891170135854300,14.755854248046875,0.43483203649520874,-0.14789962768554688,0.5604860782623291
1710891170154814700,14.774814697265626,0.40744781494140625,0.25299072265625,0.8554322719573975
1710891170173775400,14.793775390625,0.3581464886665344,0.40664005279541016,0.794309139251709
1710891170192735700,14.81273583984375,0.38968658447265625,0.2079029083251953,0.5075364112854004
1710891170211696000,14.831696044921875,0.20692235231399536,-0.036217689514160156,0.23650598526000977
1710891170230656800,14.85065673828125,0.08355873823165894,-0.036238670349121094,0.17045354843139648
1710891170249617200,14.8696171875,0.17192935943603516,0.032604217529296875,0.03359270095825195
1710891170268577500,14.88857763671875,0.15460705757141113,-0.009502410888671875,0.12284135818481445
1710891170287538200,14.9075380859375,-0.018658757209777832,0.0773162841796875,0.368924617767334
1710891170306498600,14.92649853515625,-0.14777886867523193,0.14398860931396484,0.4410214424133301
1710891170325459000,14.945458984375,-0.04765641689300537,0.07012748718261719,0.3484382629394531
1710891170344419600,14.964419677734375,-0.09875202178955078,-0.06349372863769531,0.17034196853637695
1710891170363380000,14.9833798828125,-0.4184887409210205,-0.03040027618408203,-0.0955495834350586
1710891170382340600,15.002340576171875,-0.6477607488632202,-0.013020515441894531,-0.49543333053588867
1710891170401301000,15.021301025390626,-0.6536294221878052,-0.23256587982177734,-0.8159575462341309
1710891170420261400,15.040261474609375,-0.6346391439437866,-0.41269397735595703,-1.1226344108581543
1710891170439221800,15.0592216796875,-0.6288869380950928,-0.20365238189697266,-1.2239036560058594
1710891170458182400,15.078182373046875,-0.6735799312591553,-0.1295166015625,-1.168419361114502
1710891170477142800,15.097142822265624,-0.7145868539810181,-0.3434467315673828,-1.0357303619384766
1710891170496103200,15.116103271484375,-0.6557062864303589,-0.25629615783691406,-0.867767333984375
1710891170515063800,15.135063720703124,-0.552613377571106,-0.08185005187988281,-0.6779580116271973
1710891170534024200,15.154024169921875,-0.445936918258667,-0.14387035369873047,-0.6248476505279541
1710891170552984600,15.172984619140625,-0.33967268466949463,-0.256072998046875,-0.5683465003967285
1710891170571945200,15.1919453125,-0.17841875553131104,-0.21698665618896484,-0.44699811935424805
1710891170590905600,15.210905517578125,-0.04037129878997803,0.0261077880859375,-0.25090646743774414
1710891170609866000,15.229865966796876,0.08164060115814209,0.10235309600830078,0.0653238296508789
1710891170628826400,15.248826416015625,0.15533781051635742,-0.01595306396484375,0.3476698398590088
1710891170647787000,15.267787109375,0.1301414966583252,0.014945030212402344,0.4938488006591797
1710891170666747400,15.286747314453125,0.11057496070861816,0.2780618667602539,0.6749253273010254
1710891170685708000,15.3057080078125,0.19080686569213867,0.13998699188232422,0.8506956100463867
1710891170704668400,15.32466845703125,0.398673951625824,0.17738056182861328,0.8467929363250732
1710891170723628800,15.34362890625,0.4556896686553955,0.42965030670166016,0.6136255264282227
1710891170742589200,15.362589111328125,0.4060087203979492,0.22105026245117188,0.39253973960876465
1710891170761549600,15.381549560546874,0.2949472665786743,-0.08957386016845703,0.3141977787017822
1710891170780510200,15.40051025390625,0.07703197002410889,0.034610748291015625,0.4004530906677246
1710891170799470600,15.419470703125,-0.1521686315536499,0.24030303955078125,0.5146152973175049
1710891170818431000,15.438430908203125,-0.24218761920928955,0.09264850616455078,0.5315730571746826
1710891170837391400,15.457391357421875,-0.21145200729370117,-0.06600379943847656,0.3771665096282959
1710891170856352000,15.47635205078125,-0.17520225048065186,0.11975479125976562,0.2343273162841797
1710891170875312400,15.4953125,0.007742047309875488,0.020232200622558594,0.05652761459350586
1710891170894272800,15.514272705078126,0.15112662315368652,-0.09301376342773438,0.017316102981567383
1710891170913233200,15.533233154296875,0.03358721733093262,0.0060596466064453125,-0.005703449249267578
1710891170932193800,15.55219384765625,-0.25646984577178955,-0.018033981323242188,-0.21502900123596191
1710891170951154200,15.571154296875,-0.4289041757583618,-0.031126976013183594,-0.48259925842285156
1710891170970114600,15.590114501953124,-0.5653367042541504,-0.13764381408691406,-0.7191526889801025
1710891170989075000,15.609074951171875,-0.5477731227874756,-0.3858213424682617,-0.8102376461029053
1710891171008035600,15.62803564453125,-0.3891533613204956,-0.42384815216064453,-0.8355703353881836
1710891171026996000,15.646995849609375,-0.13730132579803467,-0.28890514373779297,-0.736586332321167
1710891171045956400,15.665956298828124,0.24624478816986084,0.07845306396484375,-0.36165356636047363
1710891171064916700,15.684916748046875,0.5647956132888794,0.17943572998046875,-0.005610466003417969
1710891171083877000,15.703877197265625,0.5922410488128662,0.01622772216796875,0.37181687355041504
1710891171102837800,15.722837646484376,0.6297354698181152,0.19185352325439453,0.7555646896362305
1710891171121798100,15.741798095703125,0.5947079658508301,0.3418464660644531,0.925382137298584
1710891171140758500,15.760758544921876,0.5422911047935486,0.31502532958984375,0.8529233932495117
1710891171159719000,15.779718994140625,0.5768855214118958,0.07624244689941406,0.7568681240081787
1710891171178679300,15.79867919921875,0.5150607824325562,0.18413257598876953,0.6238553524017334
1710891171197640000,15.817639892578125,0.5105642080307007,0.2129077911376953,0.49193406105041504
1710891171216600300,15.836600341796874,0.37760794162750244,0.1152353286743164,0.3538780212402344
1710891171235560700,15.855560791015625,0.3713723421096802,0.21503067016601562,0.43417930603027344
1710891171254521000,15.87452099609375,0.3487514853477478,0.08370685577392578,0.4727776050567627
1710891171273481500,15.8934814453125,0.25120705366134644,0.01596355438232422,0.35576701164245605
1710891171292441900,15.91244189453125,0.13901877403259277,-0.008799552917480469,0.013559341430664062
1710891171311402500,15.931402587890625,-0.16172945499420166,-0.043534278869628906,-0.3513033390045166
1710891171330363000,15.95036279296875,-0.2894258499145508,-0.19169235229492188,-0.50834059715271
1710891171349323300,15.9693232421875,-0.21980488300323486,-0.1637248992919922,-0.5446934700012207
1710891171368283600,15.98828369140625,-0.21662354469299316,-0.10842609405517578,-0.5878705978393555
1710891171387244000,16.007244140625,-0.2529773712158203,-0.16530418395996094,-0.5477399826049805
1710891171406204700,16.02620458984375,-0.32111048698425293,-0.18449115753173828,-0.4622502326965332
1710891171425165000,16.0451650390625,-0.28609681129455566,-0.07262802124023438,-0.29765892028808594
1710891171444125400,16.06412548828125,-0.18252968788146973,0.06605911254882812,-0.10093402862548828
1710891171463085800,16.0830859375,-0.1102759838104248,0.07790470123291016,0.10239362716674805
1710891171482046500,16.10204638671875,-0.031707763671875,0.015063285827636719,0.34415149688720703
1710891171501006800,16.1210068359375,-0.04575455188751221,0.09451770782470703,0.3425145149230957
1710891171519967200,16.13996728515625,-0.14672446250915527,0.14149188995361328,0.24117040634155273
1710891171538927600,16.158927734375,-0.11917448043823242,0.0786733627319336,0.2059483528137207
1710891171557888000,16.177887939453125,-0.05782008171081543,0.059227943420410156,0.32538366317749023
1710891171576848400,16.196848388671874,0.12093102931976318,0.028458595275878906,0.4498138427734375
1710891171595808800,16.215808837890624,0.2636902332305908,0.019779205322265625,0.38121461868286133
1710891171614769200,16.23476904296875,0.2703375220298767,0.11452484130859375,0.25557422637939453
1710891171633729800,16.253729736328125,0.33400964736938477,0.15377521514892578,0.23802661895751953
1710891171652690200,16.272690185546875,0.40258920192718506,0.042484283447265625,0.1089634895324707
1710891171671650600,16.291650634765624,0.39059966802597046,0.06963157653808594,-0.010442733764648438
1710891171690611000,16.31061083984375,0.1940004825592041,0.14342784881591797,-0.012592315673828125
1710891171709571300,16.3295712890625,0.036363184452056885,0.02682018280029297,0.2447190284729004
1710891171728532000,16.348531982421875,-0.06905132532119751,-0.11670684814453125,0.5146665573120117
1710891171747492400,16.367492431640624,-0.09010636806488037,-0.01551055908203125,0.551663875579834
1710891171766452700,16.38645263671875,-0.10579437017440796,0.09992694854736328,0.253115177154541
1710891171785413000,16.4054130859375,-0.15279191732406616,-0.009575843811035156,-0.3342628479003906
1710891171804373500,16.42437353515625,-0.20392107963562012,-0.2512941360473633,-0.8622970581054688
1710891171823334100,16.443334228515624,-0.2753678560256958,-0.28803253173828125,-1.1588847637176514
1710891171842294500,16.46229443359375,-0.29279065132141113,-0.08508968353271484,-1.0763297080993652
1710891171861255000,16.4812548828125,-0.260736346244812,-0.0942239761352539,-0.7256698608398438
1710891171880215300,16.50021533203125,-0.15698421001434326,-0.12641048431396484,-0.48925089836120605
1710891171899175700,16.51917578125,-0.22392255067825317,-0.1144571304321289,-0.1982746124267578
1710891171918136000,16.538135986328125,-0.25845491886138916,-0.0908060073852539,0.16453981399536133
1710891171937096400,16.557096435546875,-0.15763330459594727,0.0216522216796875,0.4057631492614746
1710891171956057000,16.57605712890625,-0.04837751388549805,0.1770458221435547,0.4943251609802246
1710891171975017500,16.595017578125,0.027900099754333496,0.16820621490478516,0.4183511734008789
1710891171993977900,16.613977783203126,0.11317300796508789,0.016089439392089844,0.24823760986328125
1710891172012938200,16.632938232421875,0.163987398147583,0.03672313690185547,0.13918638229370117
1710891172031898600,16.651898681640624,0.16985678672790527,0.12587833404541016,0.10593605041503906
1710891172050859300,16.670859375,0.21259450912475586,0.107635498046875,0.08437061309814453
1710891172069819600,16.689819580078126,0.16490322351455688,-0.054902076721191406,0.022421836853027344
1710891172088780000,16.708780029296875,0.0795590877532959,-0.07463455200195312,-0.030827045440673828
1710891172107740400,16.727740478515624,0.04675889015197754,-0.017937660217285156,-0.05740499496459961
1710891172126701000,16.746701171875,0.13349545001983643,0.07594108581542969,-0.0002989768981933594
1710891172145661400,16.765661376953126,0.10198956727981567,0.1531391143798828,0.07998991012573242
1710891172164621800,16.784621826171875,-0.047004520893096924,-0.04594230651855469,0.02138662338256836
1710891172183582200,16.803582275390625,-0.04972618818283081,0.014005661010742188,-0.022165775299072266
1710891172202542600,16.82254248046875,0.004769802093505859,0.03879070281982422,0.03380393981933594
1710891172221503000,16.8415029296875,0.06950950622558594,-0.12007522583007812,0.074859619140625
1710891172240463600,16.860463623046876,0.010213732719421387,-0.12357425689697266,0.051518917083740234
1710891172259424000,16.879424072265625,-0.13185971975326538,0.1459207534790039,-0.03788328170776367
1710891172278384400,16.89838427734375,-0.1766742467880249,0.15752124786376953,-0.15984034538269043
1710891172297344800,16.9173447265625,-0.09819746017456055,-0.1847057342529297,-0.23335933685302734
1710891172316305200,16.93630517578125,-0.04214966297149658,-0.15537261962890625,-0.14182424545288086
1710891172335265500,16.955265625,-0.0668022632598877,0.07233810424804688,-0.014385700225830078
1710891172354226200,16.97422607421875,-0.1115407943725586,0.03095531463623047,0.0498356819152832
1710891172373186600,16.9931865234375,-0.05140352249145508,-0.14466190338134766,0.012580394744873047
1710891172392147000,17.01214697265625,-0.06411683559417725,-0.043521881103515625,0.04118943214416504
1710891172411107300,17.031107421875,-0.02024102210998535,0.11204051971435547,0.023294925689697266
1710891172430068000,17.05006787109375,0.08063030242919922,0.06334781646728516,-0.060127973556518555
1710891172449028400,17.0690283203125,0.1778806447982788,-0.13355350494384766,-0.09293437004089355
1710891172467988700,17.08798876953125,0.16623300313949585,0.02970600128173828,-0.0381624698638916
1710891172486949000,17.10694921875,0.16043460369110107,0.12028312683105469,0.020494461059570312
1710891172505909500,17.125909423828126,0.153181791305542,0.0197601318359375,0.07262301445007324
1710891172524870100,17.1448701171875,0.09133964776992798,-0.017058372497558594,0.21141624450683594
1710891172543830500,17.16383056640625,0.005592226982116699,-0.020198822021484375,0.44559407234191895
1710891172562791000,17.182791015625,0.13704794645309448,0.32192420959472656,0.6452407836914062
1710891172581751300,17.201751220703127,0.6005155444145203,0.3312063217163086,0.3952674865722656
1710891172600712000,17.2207119140625,0.8114924430847168,0.012360572814941406,0.23040294647216797
1710891172619672300,17.23967236328125,0.13510608673095703,0.014397621154785156,0.33237171173095703
1710891172638632700,17.2586328125,-0.47440969944000244,0.022049903869628906,0.15238332748413086
1710891172657593000,17.277593017578123,-0.5332506895065308,-0.14053916931152344,-0.32831430435180664
1710891172676553700,17.2965537109375,-0.15421319007873535,-0.3294563293457031,-0.5384125709533691
1710891172695514000,17.31551416015625,-0.07998406887054443,-0.07021427154541016,-0.22805070877075195
1710891172714474500,17.334474609375,-0.03056967258453369,0.028257369995117188,-0.046715736389160156
1710891172733435000,17.353434814453124,0.10251319408416748,0.04905891418457031,-0.11474442481994629
1710891172752395500,17.3723955078125,0.06243765354156494,0.07271671295166016,-0.19271421432495117
1710891172771356000,17.39135595703125,-0.10481083393096924,-0.08314704895019531,-0.1573505401611328
1710891172790316300,17.41031640625,-0.2715529203414917,-0.20438575744628906,-0.10579895973205566
1710891172809276700,17.429276611328124,-0.22608637809753418,-0.041357994079589844,-0.13168907165527344
1710891172828237000,17.448237060546877,-0.05262196063995361,0.04787921905517578,-0.19314861297607422
1710891172847197700,17.46719775390625,0.05478942394256592,-0.10444259643554688,0.030075550079345703
1710891172866158000,17.486157958984375,0.07353001832962036,-0.016386985778808594,0.31893062591552734
1710891172885118500,17.505118408203124,0.13798260688781738,0.29970741271972656,0.35048580169677734
1710891172904078800,17.524078857421873,0.352064847946167,0.09681510925292969,0.2739548683166504
1710891172923039500,17.54303955078125,0.33270514011383057,-0.009532928466796875,0.23052597045898438
1710891172941999900,17.561999755859375,0.16887551546096802,0.013311386108398438,0.07342910766601562
1710891172960960300,17.580960205078124,-0.023841679096221924,0.024558067321777344,-0.04118919372558594
1710891172979920600,17.599920654296874,-0.0703626275062561,-0.10343170166015625,-0.09310317039489746
1710891172998881300,17.61888134765625,0.017692863941192627,-0.0665273666381836,-0.05730915069580078
1710891173017841700,17.637841552734375,0.09588217735290527,0.09545707702636719,-0.03749895095825195
1710891173036802000,17.656802001953125,0.023573875427246094,0.04255485534667969,-0.031659603118896484
1710891173055762700,17.6757626953125,0.014034926891326904,-0.11700439453125,0.01222085952758789
1710891173074723000,17.69472314453125,-0.002394437789916992,0.020453453063964844,-0.028306007385253906
1710891173093683500,17.713683349609376,-0.01794755458831787,0.11201286315917969,-0.04067420959472656
1710891173112643800,17.732643798828125,0.02420353889465332,-0.09296512603759766,-0.13596606254577637
1710891173131604500,17.7516044921875,-0.06388825178146362,-0.0632314682006836,-0.1433582305908203
1710891173150564900,17.77056494140625,-0.167901873588562,0.013163566589355469,-0.0761876106262207
1710891173169525200,17.789525146484376,-0.1725260615348816,0.0067539215087890625,0.007391452789306641
1710891173188485600,17.808485595703125,-0.050775110721588135,0.01765727996826172,0.056943416595458984
1710891173207446000,17.827446044921874,-0.05382335186004639,-0.04640674591064453,0.023055553436279297
1710891173226406700,17.84640673828125,-0.10478866100311279,0.036820411682128906,0.12138748168945312
1710891173245367000,17.865366943359376,-0.2717550992965698,0.1412506103515625,0.1819901466369629
1710891173264327700,17.88432763671875,0.18469035625457764,-0.028410911560058594,0.44877147674560547
1710891173283288000,17.9032880859375,0.3312252163887024,-0.06231117248535156,0.40825510025024414
1710891173302248400,17.92224853515625,0.08857107162475586,0.1176595687866211,0.13164949417114258
1710891173321208800,17.941208740234377,-0.03622555732727051,0.14871501922607422,-0.019838809967041016
1710891173340169500,17.96016943359375,0.1918489933013916,0.0037794113159179688,-0.20135927200317383
1710891173359129900,17.9791298828125,0.33470964431762695,-0.058112144470214844,-0.29248881340026855
1710891173378090200,17.99809033203125,-0.09788882732391357,-0.18132781982421875,-0.2784411907196045
1710891173397050600,18.017050537109377,-0.3469414710998535,-0.2082376480102539,-0.03287553787231445
1710891173416011300,18.03601123046875,-0.29071784019470215,-0.035721778869628906,0.19525146484375
1710891173434971600,18.0549716796875,-0.07378172874450684,0.108062744140625,0.4041152000427246
1710891173453932300,18.073932373046876,0.16700679063796997,0.16998958587646484,0.44495391845703125
1710891173472892700,18.092892578125,0.14664602279663086,0.14359760284423828,0.26749563217163086
1710891173491853000,18.11185302734375,0.19031226634979248,0.1668710708618164,-0.008248329162597656
1710891173510813400,18.1308134765625,0.1217452883720398,-0.03546333312988281,-0.3133227825164795
1710891173529773800,18.14977392578125,-0.10995382070541382,-0.10159969329833984,-0.4417412281036377
1710891173548734500,18.168734375,-0.27275532484054565,-0.046566009521484375,-0.4489936828613281
1710891173567694800,18.18769482421875,-0.3156139850616455,-0.16792964935302734,-0.4479403495788574
1710891173586655500,18.206655517578124,-0.3122326731681824,-0.20313072204589844,-0.36421942710876465
1710891173605615900,18.225615966796877,-0.23018378019332886,-0.062351226806640625,-0.013667583465576172
1710891173624576300,18.244576171875,-0.0628519058227539,-0.014322280883789062,0.4106779098510742
1710891173643536600,18.26353662109375,0.27594465017318726,0.17385578155517578,0.6258401870727539
1710891173662497300,18.282497314453124,0.4298536777496338,0.24562644958496094,0.6334714889526367
1710891173681457700,18.301457763671873,0.2921786904335022,0.14906024932861328,0.7702784538269043
1710891173700418000,18.32041796875,-0.017730414867401123,0.3968982696533203,1.1970982551574707
1710891173719378700,18.339378662109375,-0.6794653534889221,0.45293426513671875,2.0323853492736816
1710891173738339000,18.358339111328124,-1.415132761001587,0.24374866485595703,2.100187301635742
1710891173757299500,18.377299560546874,-0.4970139265060425,-0.16574954986572266,1.440262794494629
1710891173776260000,18.396260009765626,0.09582805633544922,-0.17223167419433594,0.9101252555847168
1710891173795220500,18.415220458984376,-0.12662607431411743,-0.1849660873413086,0.45717811584472656
1710891173814180900,18.434180908203125,0.7046750783920288,-0.014814376831054688,-1.5064382553100586
1710891173833141500,18.4531416015625,1.016587257385254,0.0027170181274414062,-3.296358346939087
1710891173852102000,18.472101806640627,0.5701087117195129,-0.7034072875976562,-4.321660995483398
1710891173871062300,18.491062255859376,-0.3163430094718933,-1.2445716857910156,-4.340093612670898
1710891173890023000,18.51002294921875,-1.687882661819458,-1.418609619140625,-3.041250705718994
1710891173908983300,18.5289833984375,-1.984228491783142,-0.8649587631225586,-0.8326249122619629
1710891173927943700,18.547943603515623,-1.7282896041870117,0.23482894897460938,1.1955909729003906
1710891173946904300,18.566904296875,0.24843978881835938,1.1889209747314453,2.3764514923095703
1710891173965864700,18.58586474609375,2.454543113708496,1.5728511810302734,2.8778953552246094
1710891173984825000,18.6048251953125,2.922647714614868,1.2132039070129395,3.342327117919922
1710891174003785700,18.62378564453125,2.1241581439971924,0.5509033203125,2.9184160232543945
1710891174022746000,18.64274609375,0.7898349761962891,0.04246330261230469,1.3940553665161133
1710891174041706500,18.66170654296875,0.17074930667877197,-0.7787265777587891,-0.3846743106842041
1710891174060667000,18.6806669921875,0.016934871673583984,-0.30347633361816406,-0.816676139831543
1710891174079627500,18.69962744140625,1.4430512189865112,0.09476280212402344,-1.851029872894287
1710891174098588000,18.718587890625,1.5157220363616943,-0.16651058197021484,-2.002185821533203
1710891174117548500,18.737548583984374,0.5649428367614746,-0.7641143798828125,-1.3506715297698975
1710891174136509000,18.756509033203123,0.005894899368286133,-1.0760793685913086,-0.6678862571716309
1710891174155469300,18.77546923828125,-0.25815486907958984,-1.2966241836547852,-0.20757007598876953
1710891174174429700,18.7944296875,-0.15511655807495117,-1.1308040618896484,-0.1675257682800293
1710891174193390300,18.813390380859374,0.3060426712036133,-0.752903938293457,-0.3642539978027344
1710891174212350700,18.832350830078123,0.04011034965515137,-1.3725366592407227,-1.511916160583496
1710891174231311400,18.851311279296876,-0.40815162658691406,-1.3497629165649414,-1.4669270515441895
1710891174250271700,18.870271728515625,-1.092541217803955,-0.7959494590759277,-0.27399635314941406
1710891174269232000,18.889232177734375,-1.0772640705108643,-1.0700492858886719,-0.5224614143371582
1710891174288192500,18.908192626953124,-0.37403225898742676,-0.7355895042419434,-0.33826255798339844
1710891174307153000,18.92715283203125,-1.076780080795288,-0.36395788192749023,0.3141474723815918
1710891174326113500,18.946113525390626,-0.3315250873565674,-0.33342647552490234,0.028371334075927734
1710891174345074000,18.965073974609375,-0.08518743515014648,-0.20657825469970703,0.19338083267211914
1710891174364034300,18.984034423828124,-0.790024995803833,-0.029170989990234375,0.5212507247924805
1710891174382995000,19.002994873046877,-0.4533047676086426,-0.033050537109375,0.5734996795654297
1710891174401955300,19.021955322265626,-0.2266530990600586,-0.2097606658935547,0.48655080795288086
1710891174420915700,19.040915771484375,0.03235769271850586,-0.009656906127929688,0.6926469802856445
1710891174439876400,19.05987646484375,0.23827552795410156,-0.03267240524291992,0.7323575019836426
1710891174458836700,19.078836669921873,-0.21393179893493652,-0.2486248016357422,0.8843941688537598
1710891174477797000,19.097797119140626,-0.1715559959411621,-0.43976545333862305,0.5213723182678223
1710891174496757500,19.116757568359375,-0.0541529655456543,-0.2858142852783203,0.2472538948059082
1710891174515718100,19.13571826171875,0.327625036239624,-0.4166450500488281,0.09247350692749023
1710891174534678500,19.154678466796874,0.38425159454345703,-0.39977550506591797,0.1324167251586914
1710891174553639000,19.173638916015626,0.6725196838378906,0.00933218002319336,0.07691383361816406
1710891174572599600,19.192599609375,1.0579586029052734,0.3937873840332031,0.2658977508544922
1710891174591560000,19.211559814453125,0.5082511901855469,0.1862955093383789,0.5533566474914551
1710891174610520300,19.230520263671874,0.37102770805358887,-0.28052711486816406,0.5556292533874512
1710891174629480700,19.249480712890627,-0.16810250282287598,-0.3322463035583496,0.054630279541015625
1710891174648441300,19.26844140625,-0.6734793186187744,-0.3566579818725586,-0.5369448661804199
1710891174667401700,19.287401611328125,-0.6129150390625,-0.6415910720825195,-0.619868278503418
1710891174686362000,19.306362060546874,0.07560443878173828,0.0041217803955078125,-0.21474170684814453
1710891174705322500,19.325322509765623,-0.361142635345459,0.43094444274902344,-0.04884529113769531
1710891174724283100,19.344283203125,-0.0822296142578125,-0.16245388984680176,-0.140655517578125
1710891174743243500,19.363243408203125,0.004883289337158203,-0.23314142227172852,-0.3594684600830078
1710891174762204000,19.382203857421874,0.17935991287231445,0.1824345588684082,-0.19468975067138672
1710891174781164300,19.401164306640624,0.6571609973907471,-0.008965015411376953,0.30217933654785156
1710891174800125000,19.420125,-0.16359281539916992,-0.08504652976989746,0.1519298553466797
1710891174819085300,19.439085205078126,-0.11063146591186523,-0.310457706451416,-0.16994667053222656
1710891174838045700,19.458045654296875,0.19344663619995117,-0.5828545093536377,-0.16173362731933594
1710891174857006300,19.47700634765625,-0.39046287536621094,-0.34830212593078613,-0.49752140045166016
1710891174875966700,19.495966796875,-0.36692380905151367,-0.2902507781982422,-0.3099031448364258
1710891174894927000,19.514927001953126,-0.14858174324035645,-0.5127687454223633,-0.12671566009521484
1710891174913887500,19.533887451171875,-0.19037151336669922,-0.22202742099761963,-0.32422447204589844
1710891174932848000,19.55284814453125,0.3620147705078125,-0.2864420413970947,-0.13910865783691406
1710891174951808500,19.57180859375,-0.024962186813354492,-0.03312826156616211,-0.07167625427246094
1710891174970769000,19.590768798828126,-0.24275422096252441,-0.10189378261566162,-0.2926197052001953
1710891174989729300,19.609729248046875,0.05689644813537598,-0.1822870373725891,0.30182743072509766
1710891175008689700,19.628689697265624,-0.46242380142211914,-0.28984102606773376,0.1568288803100586
1710891175027650300,19.647650390625,-0.313643217086792,-0.5693128108978271,0.19004535675048828
1710891175046610700,19.666610595703126,0.7901115417480469,-0.10250295698642731,0.7423391342163086
1710891175065571000,19.685571044921875,-0.04937934875488281,0.5080239176750183,0.5819272994995117
1710891175084531500,19.704531494140625,0.5914735794067383,-0.19316881895065308,0.47043609619140625
1710891175103492000,19.7234921875,0.2865569591522217,-0.48195701837539673,0.7016315460205078
1710891175122452500,19.742452392578127,-0.011713504791259766,-0.40284836292266846,0.2788057327270508
1710891175141412900,19.761412841796876,-0.7010161876678467,-0.4999796152114868,-0.7491292953491211
1710891175160373200,19.780373291015625,-0.976121187210083,-1.1105366945266724,-1.2121009826660156
1710891175179333600,19.799333740234374,-0.624298095703125,-1.0445265769958496,-1.1418037414550781
1710891175198294000,19.8182939453125,-0.18688607215881348,-0.727535605430603,-0.14451313018798828
1710891175217254400,19.83725439453125,0.44196462631225586,-0.7382454872131348,0.643549919128418
1710891175236215000,19.856215087890625,-0.5080175399780273,-0.4569079875946045,-0.08579444885253906
1710891175255175400,19.875175537109374,-1.17574143409729,-1.0731854438781738,-0.7214870452880859
1710891175274135800,19.8941357421875,-0.5004558563232422,-1.386292576789856,-0.7755136489868164
1710891175293096200,19.91309619140625,-0.49851274490356445,-0.5091285705566406,-1.0318660736083984
1710891175312056600,19.932056640625,-0.35927724838256836,-0.5046348571777344,-0.5641136169433594
1710891175331017000,19.951016845703126,-0.16093826293945312,-0.5573673248291016,-0.23772621154785156
1710891175349977600,19.9699775390625,-0.12479162216186523,-0.3524489402770996,-0.1517963409423828
1710891175368938000,19.98893798828125,0.35036754608154297,-0.6802856922149658,0.14584732055664062
1710891175387898400,20.0078984375,0.48004722595214844,-0.18913555145263672,-0.1513833999633789
1710891175406858800,20.026858642578127,-0.3076566457748413,0.10793304443359375,-0.5800886154174805
1710891175425819100,20.045819091796876,0.24733483791351318,-0.8358383178710938,0.004647254943847656
1710891175444779500,20.064779541015625,0.6662710905075073,-0.8052663803100586,0.2665729522705078
1710891175463740000,20.083739990234374,-0.27168262004852295,-0.5324511528015137,-0.12493419647216797
1710891175482700300,20.1027001953125,0.4836146831512451,0.40827131271362305,-0.420534610748291
1710891175501661000,20.121660888671876,0.358612060546875,0.16289615631103516,-0.4931454658508301
1710891175520621300,20.140621337890625,0.16095566749572754,-0.38490772247314453,-0.47640275955200195
1710891175539581700,20.159581787109374,-0.2530626058578491,-0.22658872604370117,-0.49231815338134766
1710891175558542000,20.1785419921875,-0.09580135345458984,-0.055095672607421875,-0.27332067489624023
1710891175577502500,20.19750244140625,-0.17694616317749023,-0.41889047622680664,-0.03878307342529297
1710891175596462800,20.216462890625,0.26296472549438477,-0.8623290061950684,-0.6616158485412598
1710891175615423200,20.23542333984375,-1.0388702154159546,-0.9147706031799316,-1.496788501739502
1710891175634383600,20.254383544921875,-1.0827172994613647,-0.2744617462158203,-1.1579689979553223
1710891175653344300,20.27334423828125,0.2340528964996338,-0.1055145263671875,0.15037012100219727
1710891175672304600,20.2923046875,0.24779027700424194,-0.2538466453552246,0.3668341636657715
1710891175691265000,20.31126513671875,-1.2392692565917969,-0.7649421691894531,-0.43843746185302734
1710891175710225400,20.330225341796876,-0.650053083896637,-0.6670379638671875,-0.49690723419189453
1710891175729185800,20.349185791015625,-0.40372633934020996,-0.10745763778686523,0.6634945869445801
1710891175748146200,20.368146240234374,-0.19628137350082397,-0.6090373992919922,0.40508174896240234
1710891175767106600,20.3871064453125,-0.9668191075325012,-0.6865754127502441,-0.3115987777709961
1710891175786067000,20.40606689453125,-1.1262176036834717,-0.5374436378479004,-0.3198380470275879
1710891175805027300,20.42502734375,-0.6463663578033447,-1.361508846282959,-0.1128387451171875
1710891175823987700,20.44398779296875,-0.2692301869392395,-0.5313329696655273,0.46510839462280273
1710891175842948000,20.462947998046875,-0.41229045391082764,-1.0487852096557617,0.7733073234558105
1710891175861908700,20.48190869140625,-1.2341704368591309,-2.1017093658447266,-0.13028621673583984
1710891175880868900,20.500868896484373,-0.1789894700050354,-3.217484474182129,-0.7570400238037109
1710891175899829200,20.519829345703126,-0.03952595591545105,-1.7884712219238281,-0.3571658134460449
1710891175918790000,20.538789794921875,-0.4513775110244751,-0.8756461143493652,0.06550455093383789
1710891175937750300,20.557750244140625,-0.18218070268630981,-0.8167610168457031,-0.3760542869567871
1710891175956710700,20.576710693359374,0.4984270930290222,-0.6512727737426758,-0.8320302963256836
1710891175975671000,20.595671142578126,0.4601905345916748,-0.7526836395263672,-0.6006240844726562
1710891175994631400,20.61463134765625,0.007182091474533081,0.029506683349609375,-0.8244824409484863
1710891176013591800,20.633591796875,0.45516717433929443,0.4194211959838867,0.4025435447692871
1710891176032552200,20.65255224609375,0.29836755990982056,-0.3946695327758789,0.5347681045532227
1710891176051512600,20.6715126953125,-0.003574162721633911,-0.4486665725708008,-0.37120628356933594
1710891176070473000,20.690472900390624,-0.06477582454681396,-0.027487754821777344,0.01215982437133789
1710891176089433300,20.709433349609377,-0.3308013081550598,-0.7623672485351562,-0.00855255126953125
1710891176108393700,20.728393798828126,-0.0384427011013031,-1.042989730834961,-0.1842188835144043
1710891176127354000,20.74735400390625,-0.03543972969055176,-0.1643381118774414,0.43511295318603516
1710891176146314500,20.766314453125,0.11894094944000244,-0.6846599578857422,-0.07181739807128906
1710891176165275000,20.78527490234375,0.1835768222808838,-0.3859224319458008,-0.46090078353881836
1710891176184235300,20.8042353515625,0.513157308101654,0.3250761032104492,-0.045732975006103516
1710891176203195600,20.823195556640623,0.2940945625305176,0.01828289031982422,0.26178598403930664
1710891176222156000,20.842156005859376,0.36425086855888367,-0.24154376983642578,-0.07527589797973633
1710891176241116400,20.861116455078125,0.2070741057395935,-0.6504859924316406,-0.49942779541015625
1710891176260076800,20.880076904296875,0.39598530530929565,-0.8297476768493652,-0.8655276298522949
1710891176279037200,20.899037109375,-0.015125274658203125,-1.368241310119629,-0.0516362190246582
1710891176297997600,20.91799755859375,-0.27464842796325684,-1.6746792793273926,-0.37423038482666016
1710891176316958000,20.9369580078125,0.21667355298995972,-1.322591781616211,-1.1664209365844727
1710891176335918300,20.95591845703125,0.5502439141273499,-0.8695025444030762,-1.1124968528747559
1710891176354878700,20.974878662109376,0.18015742301940918,0.02153778076171875,0.09724712371826172
1710891176373839000,20.993839111328125,-0.40427982807159424,0.8416948318481445,0.5909380912780762
1710891176392799500,21.012799560546874,0.5935036540031433,0.3379983901977539,-0.1569657325744629
1710891176411759900,21.031759765625,0.6847217679023743,0.197357177734375,-0.257387638092041
1710891176430720300,21.05072021484375,-0.4666951894760132,-0.0986790657043457,0.3729867935180664
1710891176449680600,21.0696806640625,-0.6825203895568848,-0.5649404525756836,0.49329566955566406
1710891176468641000,21.08864111328125,-0.5166221857070923,-0.814997673034668,-0.07472562789916992
1710891176487601400,21.107601318359375,-0.14764273166656494,-1.0583372116088867,-0.9031095504760742
1710891176506561800,21.126561767578124,-0.23282849788665771,-0.6822848320007324,-0.5746445655822754
1710891176525522200,21.145522216796873,-0.26827871799468994,-0.6420927047729492,-0.2118983268737793
1710891176544482600,21.164482666015626,-0.6360251903533936,-0.34238672256469727,-0.6310501098632812
1710891176563443000,21.18344287109375,-0.4000040292739868,-0.023828506469726562,-0.9846658706665039
1710891176582403300,21.2024033203125,-0.2089928388595581,0.12601947784423828,-1.0821800231933594
1710891176601363700,21.22136376953125,-0.988243818283081,-0.4843873977661133,-0.7178130149841309
1710891176620324000,21.240323974609375,-0.9717714786529541,-0.5269269943237305,-0.15263748168945312
1710891176639284500,21.259284423828124,0.018668174743652344,-0.16168546676635742,-0.18728065490722656
1710891176658244900,21.278244873046877,0.47012877464294434,0.3022456169128418,0.050731658935546875
1710891176677205200,21.297205322265626,-0.1800236701965332,0.35666751861572266,0.5684213638305664
1710891176696165600,21.31616552734375,-0.04390263557434082,0.017966270446777344,0.32068443298339844
1710891176715126000,21.3351259765625,0.18468093872070312,-0.26671457290649414,-0.22493934631347656
1710891176734086400,21.35408642578125,0.46595191955566406,0.17513656616210938,-0.24745941162109375
1710891176753046800,21.373046875,0.2703120708465576,0.4569284915924072,0.0029573440551757812
1710891176772007200,21.392007080078123,0.21213746070861816,0.011896610260009766,0.23684978485107422
1710891176790967600,21.410967529296876,0.63120436668396,-0.516350507736206,-0.16267013549804688
1710891176809928000,21.429927978515625,0.6310346126556396,-0.26220011711120605,-1.0392446517944336
1710891176828888300,21.448888427734374,0.43274974822998047,0.3622572422027588,-1.156430721282959
1710891176847848700,21.4678486328125,0.4284646511077881,0.4516425132751465,-0.32939910888671875
1710891176866809000,21.48680908203125,0.541252851486206,-0.30393218994140625,0.18639278411865234
1710891176885769500,21.50576953125,0.048562049865722656,-0.4509650468826294,-0.06942462921142578
1710891176904729900,21.524729736328126,-0.2108762264251709,-0.047353506088256836,-0.2558889389038086
1710891176923690200,21.543690185546875,-0.2679591178894043,0.6507537364959717,-0.20098876953125
1710891176942650600,21.562650634765625,-0.625819206237793,0.9394553899765015,0.28722572326660156
1710891176961611000,21.581611083984374,-0.2379307746887207,0.9121596813201904,0.42214012145996094
1710891176980571400,21.6005712890625,-0.05551457405090332,0.6708718538284302,0.2249307632446289
1710891176999531800,21.61953173828125,-0.12763261795043945,0.4435063600540161,0.31474876403808594
1710891177018492200,21.6384921875,0.036652565002441406,0.4726630449295044,0.08427143096923828
1710891177037452500,21.65745263671875,0.08179020881652832,0.530526876449585,-0.02484416961669922
1710891177056413000,21.676412841796875,-0.2970304489135742,0.5844004154205322,0.44240760803222656
1710891177075373300,21.695373291015624,-0.178985595703125,0.36889782547950745,0.9088144302368164
1710891177094334000,21.714333984375,0.5197787284851074,0.14284056425094604,0.9503717422485352
1710891177113294000,21.733294189453126,0.16532301902770996,-0.020066380500793457,0.593113899230957
1710891177132254500,21.75225439453125,-0.18815374374389648,-0.2603801488876343,0.3577384948730469
1710891177151215000,21.771215087890624,-0.0263214111328125,-0.44355225563049316,0.25586605072021484
1710891177170175500,21.790175537109373,-0.38492488861083984,-0.2891666889190674,-0.004832267761230469
1710891177189135600,21.809135498046874,-0.7474822998046875,-0.05329442024230957,-0.15118789672851562
1710891177208096300,21.82809619140625,-0.7302346229553223,-0.18885445594787598,-0.39097023010253906
1710891177227056600,21.847056640625,-0.41249895095825195,-0.30579352378845215,-0.4461393356323242
1710891177246017000,21.86601708984375,-0.10048866271972656,-0.1928560733795166,-0.10075664520263672
1710891177264977400,21.884977294921875,-0.08845996856689453,0.07197356224060059,0.2971830368041992
1710891177283937800,21.903937744140624,-0.07054376602172852,0.3100118637084961,0.4289588928222656
1710891177302898200,21.922898193359377,0.1101217269897461,0.27599573135375977,0.35538673400878906
1710891177321858600,21.941858642578126,-0.009627819061279297,0.21202421188354492,0.38455677032470703
1710891177340819000,21.96081884765625,-0.022155284881591797,0.3038449287414551,0.4781064987182617
1710891177359779300,21.979779296875,-0.11980104446411133,0.4579157829284668,0.6296377182006836
1710891177378739700,21.99873974609375,-0.012895584106445312,0.3105132579803467,0.6223959922790527
1710891177397700000,22.0177001953125,0.2287001609802246,-0.12222027778625488,0.2994728088378906
1710891177416660500,22.036660400390623,0.31012535095214844,-0.3499884605407715,-0.019772052764892578
1710891177435620900,22.055620849609376,-0.1126718521118164,-0.09799337387084961,0.1780400276184082
1710891177454581200,22.074581298828125,-0.3603510856628418,0.21604681015014648,0.46345996856689453
1710891177473541600,22.093541748046874,-0.18830633163452148,0.09809446334838867,0.32207822799682617
1710891177492502000,22.112501953125,0.019492149353027344,-0.0730128288269043,0.11662912368774414
1710891177511462400,22.13146240234375,-0.11085367202758789,-0.02059459686279297,0.46880102157592773
1710891177530422800,22.1504228515625,-0.12142038345336914,-0.0386357307434082,0.5792956352233887
1710891177549383400,22.169383544921875,0.3687729835510254,-0.07623910903930664,0.2198195457458496
1710891177568343600,22.188343505859375,0.20625877380371094,-0.05376577377319336,0.0041790008544921875
1710891177587304000,22.207303955078125,-0.4569830894470215,-0.0972437858581543,0.13326501846313477
1710891177606264600,22.2262646484375,-0.7231955528259277,-0.06755495071411133,0.27225160598754883
1710891177625225000,22.245224853515627,-0.3667621612548828,-0.19454574584960938,-0.034655094146728516
1710891177644185300,22.264185302734376,0.10594892501831055,-0.1533956527709961,-0.5161433219909668
1710891177663145700,22.283145751953125,0.2823514938354492,-0.10410881042480469,-0.5025601387023926
1710891177682106000,22.302106201171874,0.05973243713378906,-0.14045953750610352,-0.08968591690063477
1710891177701066500,22.32106640625,-0.1916823387145996,0.009400367736816406,0.2548036575317383
1710891177720027000,22.34002685546875,-0.48947644233703613,0.15355682373046875,0.5864782333374023
1710891177738987300,22.3589873046875,-0.5710546970367432,0.04426431655883789,0.6635327339172363
1710891177757947600,22.37794775390625,-0.15866541862487793,-0.11930084228515625,0.4106612205505371
1710891177776908000,22.396907958984375,0.2174510955810547,-0.17547369003295898,0.14967966079711914
1710891177795868400,22.415868408203124,0.14373159408569336,0.018341064453125,0.2875843048095703
1710891177814829000,22.4348291015625,-0.05379199981689453,0.04776954650878906,0.504462718963623
1710891177833789200,22.4537890625,-0.06158185005187988,-0.2562384605407715,0.41839075088500977
1710891177852749600,22.47274951171875,0.3455967903137207,-0.7846388816833496,0.02973651885986328
1710891177871710200,22.491710205078125,0.7644813060760498,-1.0436005592346191,-0.15960121154785156
1710891177890670600,22.510670654296874,1.0320947170257568,-1.0333781242370605,-0.07999563217163086
1710891177909631000,22.529630859375,1.1318163871765137,-1.037919044494629,-0.5324540138244629
1710891177928591400,22.54859130859375,0.33850836753845215,-0.8276734352111816,-0.6702499389648438
1710891177947551700,22.5675517578125,-1.2370424270629883,-0.18873882293701172,-0.028976917266845703
1710891177966512000,22.58651220703125,-2.2212088108062744,-0.06736040115356445,0.24143171310424805
1710891177985472500,22.605472412109375,-2.1126554012298584,0.05263566970825195,0.49997663497924805
1710891178004433000,22.624432861328124,-1.2311999797821045,0.2542428970336914,0.7576889991760254
1710891178023393500,22.6433935546875,-0.015715599060058594,0.17458295822143555,0.44518518447875977
1710891178042353700,22.662353759765626,0.5828113555908203,-0.11759662628173828,-0.05139350891113281
1710891178061314000,22.68131396484375,0.5344061851501465,-0.21256637573242188,-0.5341715812683105
1710891178080274700,22.700274658203124,0.3484950065612793,-0.48775577545166016,-0.7213330268859863
1710891178099235000,22.719235107421873,-0.32459187507629395,-0.8416738510131836,-0.4954843521118164
1710891178118195500,22.738195556640626,-0.8943619728088379,-0.7534065246582031,-0.2431778907775879
1710891178137155800,22.75715576171875,-0.9364874362945557,-0.45979881286621094,-0.3066263198852539
1710891178156116200,22.7761162109375,-0.6565285921096802,-0.11104869842529297,-0.49771833419799805
1710891178175076600,22.79507666015625,-0.384213924407959,0.016481399536132812,-0.3061084747314453
1710891178194037000,22.814037109375,-0.44927728176116943,-0.2634735107421875,0.24329042434692383
1710891178212997400,22.832997314453124,-0.6210899353027344,-0.7728605270385742,0.48056507110595703
1710891178231958000,22.8519580078125,-0.564881443977356,-0.8134908676147461,0.3841128349304199
1710891178250918400,22.87091845703125,-0.12034034729003906,-0.2329397201538086,0.23008155822753906
1710891178269878800,22.889878662109375,0.060894012451171875,0.1616048812866211,0.829780101776123
1710891178288839200,22.908839111328124,1.1555060148239136,1.0475568771362305,2.621522903442383
1710891178307799600,22.927799560546877,1.3924195766448975,1.223780632019043,3.6130504608154297
1710891178326760000,22.946760009765626,0.9322972893714905,0.5610246658325195,3.5615744590759277
1710891178345720300,22.96572021484375,0.6677103042602539,0.7836990356445312,3.081737995147705
1710891178364680700,22.9846806640625,0.12135756015777588,1.0640497207641602,2.157592296600342
1710891178383641300,23.003641357421873,-0.8798048496246338,0.5812664031982422,0.885429859161377
1710891178402601700,23.022601806640626,-1.89029061794281,-0.0742959976196289,-0.0731654167175293
1710891178421562000,23.04156201171875,-2.0928006172180176,-0.47514915466308594,-0.7842087745666504
1710891178440522500,23.0605224609375,-1.5434215068817139,-0.7885217666625977,-1.2690062522888184
1710891178459483000,23.07948291015625,-0.73128342628479,-0.6792984008789062,-1.3081507682800293
1710891178478443300,23.098443359375,0.2444477081298828,-0.07177257537841797,-1.0415003299713135
1710891178497403600,23.117403564453124,0.8340610861778259,-0.12156295776367188,-0.6218903064727783
1710891178516364000,23.136364013671876,1.4928991794586182,-0.5201911926269531,-0.2403564453125
1710891178535324700,23.15532470703125,1.6834254264831543,-0.24226093292236328,0.2058701515197754
1710891178554285000,23.17428515625,-0.04146730899810791,0.04664039611816406,0.9173731803894043
1710891178573245400,23.193245361328124,-0.9743027687072754,0.05358695983886719,0.8454902172088623
1710891178592205800,23.212205810546877,-0.043904781341552734,0.025609970092773438,0.012336015701293945
1710891178611166200,23.231166259765626,-0.0707099437713623,-0.12490463256835938,0.26618146896362305
1710891178630126600,23.250126708984375,-0.14181756973266602,-0.3605051040649414,0.482515811920166
1710891178649087000,23.2690869140625,0.7762397527694702,0.12479972839355469,0.17973804473876953
1710891178668047600,23.288047607421873,1.3596326112747192,0.5822248458862305,0.5002028942108154
1710891178687008000,23.307008056640626,1.317636251449585,0.2585573196411133,0.2789890766143799
1710891178705968400,23.325968505859375,1.8064579963684082,0.15459060668945312,-0.646251916885376
1710891178724928800,23.3449287109375,1.9758594036102295,0.036182403564453125,-0.8434104919433594
1710891178743889200,23.36388916015625,2.1118831634521484,-0.43413639068603516,-1.2416040897369385
