time,seconds_elapsed,z,y,x
1710891155490031000,0.110031005859375,0.9296116232872009,9.269794464111328,2.9240293502807617
1710891155508991200,0.1289912109375,0.8374879360198975,9.232706069946289,2.6979074478149414
1710891155527951600,0.14795166015625,0.7956135272979736,9.214759826660156,2.5124638080596924
1710891155546911700,0.166911865234375,0.8039883971214294,9.226723670959473,2.4394826889038086
1710891155565872000,0.1858720703125,0.8207381963729858,9.28893756866455,2.4646072387695312
1710891155584832500,0.20483251953125,0.882951557636261,9.346364974975586,2.5710878372192383
1710891155603793000,0.22379296875,0.9487541913986206,9.381061553955078,2.6943182945251465
1710891155622753000,0.2427529296875,0.9978070259094238,9.381061553955078,2.7589244842529297
1710891155641713400,0.26171337890625,1.0061819553375244,9.363115310668945,2.816352367401123
1710891155660673500,0.280673583984375,0.973878800868988,9.363115310668945,2.8689942359924316
1710891155679634000,0.299634033203125,0.9451649188995361,9.370293617248535,2.86061954498291
1710891155698594300,0.31859423828125,0.9044869542121887,9.358329772949219,2.812762975692749
1710891155717554400,0.337554443359375,0.836291491985321,9.372686386108398,2.7361927032470703
1710891155736514800,0.356514892578125,0.7860422134399414,9.359525680541992,2.6727828979492188
1710891155755475200,0.37547509765625,0.7058826684951782,9.371489524841309,2.6285157203674316
1710891155774435300,0.394435302734375,0.6544370055198669,9.4061861038208,2.638087034225464
1710891155793395700,0.413395751953125,0.672383189201355,9.409774780273438,2.6703901290893555
1710891155812355800,0.43235595703125,0.6975077986717224,9.336793899536133,2.6524438858032227
1710891155831316200,0.451316162109375,0.7178468108177185,9.267401695251465,2.6488547325134277
1710891155850276600,0.470276611328125,0.6843472719192505,9.298508644104004,2.706282377243042
1710891155869237000,0.489237060546875,0.6592226624488831,9.367900848388672,2.803191661834717
1710891155888197000,0.508197021484375,0.6699903607368469,9.32004451751709,2.8103702068328857
1710891155907157500,0.527157470703125,0.729810893535614,9.20279598236084,2.6943182945251465
1710891155926117600,0.54611767578125,0.7250252366065979,9.114261627197266,2.586641311645508
1710891155945078000,0.565078125,0.6903293132781982,9.09990406036377,2.5351955890655518
1710891155964038400,0.584038330078125,0.6580262184143066,9.148957252502441,2.5232315063476562
1710891155982998500,0.60299853515625,0.6484549641609192,9.164510726928711,2.472982168197632
1710891156001959000,0.621958984375,0.6640082597732544,9.175278663635254,2.4502503871917725
1710891156020919000,0.6409189453125,0.6927221417427063,9.159725189208984,2.421536445617676
1710891156039879400,0.65987939453125,0.714257538318634,9.17886734008789,2.3772692680358887
1710891156058839800,0.67883984375,0.7058826684951782,9.151350021362305,2.3641088008880615
1710891156077800200,0.69780029296875,0.7393822073936462,9.09990406036377,2.335394859313965
1710891156096760300,0.71676025390625,0.7716853022575378,9.05444049835205,2.2612173557281494
1710891156115720700,0.735720703125,0.865005373954773,8.933603286743164,2.1786649227142334
1710891156134680800,0.754680908203125,0.9487541913986206,8.8438720703125,2.032702922821045
1710891156153641200,0.77364111328125,0.9355936646461487,8.695517539978027,1.7874385118484497
1710891156172601600,0.7926015625,0.916451096534729,8.621339797973633,1.5361921787261963
1710891156191562000,0.81156201171875,0.9032905697822571,8.612964630126953,1.3507484197616577
1710891156210522000,0.830522216796875,0.9427721500396729,8.812766075134277,1.3603196144104004
1710891156229482500,0.849482421875,0.9834501147270203,9.4061861038208,1.672582983970642
1710891156248442600,0.868442626953125,1.0241280794143677,10.202995300292969,2.1607189178466797
1710891156267403000,0.887403076171875,1.0995019674301147,10.856236457824707,2.7278177738189697
1710891156286363400,0.90636328125,1.2095718383789062,11.176874160766602,3.2159535884857178
1710891156305323500,0.925323486328125,1.5433706045150757,11.570493698120117,3.1274192333221436
1710891156324284000,0.944283935546875,1.4165509939193726,11.138589859008789,2.5806591510772705
1710891156343244300,0.963244384765625,0.9906286001205444,10.170692443847656,1.8041882514953613
1710891156362204700,0.98220458984375,0.5407779216766357,9.571290969848633,1.7599210739135742
1710891156381164800,1.001164794921875,0.17946170270442963,9.31884765625,2.379662036895752
1710891156400125200,1.020125244140625,0.05024927482008934,9.198010444641113,3.0077781677246094
1710891156419085300,1.039085205078125,0.1339980661869049,8.98385238647461,3.518645763397217
1710891156438045700,1.058045654296875,0.3720839321613312,8.790034294128418,4.041477680206299
1710891156457006000,1.077006103515625,0.7429714202880859,8.774480819702148,4.505684852600098
1710891156475966500,1.095966552734375,0.9643075466156006,8.85942554473877,4.792823791503906
1710891156494926600,1.114926513671875,0.8685946464538574,8.803194046020508,4.700700283050537
1710891156513887000,1.133886962890625,0.7178468108177185,8.679964065551758,4.445864677429199
1710891156532847400,1.152847412109375,0.6364908218383789,8.653642654418945,4.0797624588012695
1710891156551807500,1.171807373046875,0.5312066078186035,8.612964630126953,3.603590965270996
1710891156570768000,1.190767822265625,0.46899324655532837,8.508877754211426,3.2757742404937744
1710891156589728300,1.209728271484375,0.5718846321105957,8.335397720336914,3.1381869316101074
1710891156608688600,1.228688720703125,0.7369893789291382,8.23011302947998,3.2099716663360596
1710891156627649000,1.24764892578125,0.8638089895248413,8.103293418884277,3.4301111698150635
1710891156646609200,1.266609130859375,0.9930213689804077,8.147561073303223,3.5545380115509033
1710891156665569500,1.285569580078125,1.0516455173492432,8.449056625366211,3.487539052963257
1710891156684530000,1.304530029296875,0.9379864931106567,8.889336585998535,3.284149169921875
1710891156703490300,1.323490234375,0.519242525100708,9.589237213134766,2.8929226398468018
1710891156722450400,1.342450439453125,0.16271193325519562,10.74855899810791,2.4095723628997803
1710891156741410800,1.361410888671875,0.037088751792907715,11.900703430175781,2.6057839393615723
1710891156760371200,1.38037109375,0.2273181527853012,11.863615036010742,3.025724172592163
1710891156779331300,1.399331298828125,0.4618147611618042,10.938788414001465,2.7589244842529297
1710891156798291700,1.418291748046875,0.747757077217102,9.872786521911621,2.225325107574463
1710891156817252000,1.437252197265625,0.9655039310455322,8.84506893157959,1.674975872039795
1710891156836212500,1.45621240234375,0.9463613629341125,8.055437088012695,1.1270195245742798
1710891156855172900,1.4751728515625,0.6221339106559753,7.684549808502197,0.6209374666213989
1710891156874133000,1.494133056640625,0.1579262912273407,8.086544036865234,0.12921242415905
1710891156893093400,1.51309326171875,-0.43908295035362244,9.257830619812012,0.039481572806835175
1710891156912053800,1.5320537109375,-0.9655039310455322,10.589436531066895,0.23330020904541016
1710891156931014100,1.55101416015625,-1.0815558433532715,11.666206359863281,0.5575276613235474
1710891156949974500,1.569974609375,-0.8063812255859375,12.015559196472168,0.7776673436164856
1710891156968935000,1.588934814453125,0.039481572806835175,11.764312744140625,1.0061819553375244
1710891156987895300,1.607895263671875,0.33379876613616943,11.312068939208984,1.3268201351165771
1710891157006855400,1.62685546875,0.4247260093688965,10.540383338928223,1.4991034269332886
1710891157025815800,1.64581591796875,0.4295116662979126,9.795019149780273,1.4679967164993286
1710891157044776200,1.664776123046875,0.22372891008853912,9.251849174499512,1.4584254026412964
1710891157063736600,1.683736572265625,-0.11844471842050552,8.927620887756348,1.459621787071228
1710891157082697000,1.702697021484375,-0.4977070987224579,8.818747520446777,1.6271194219589233
1710891157101657000,1.721656982421875,-0.7812566161155701,8.873783111572266,1.9369899034500122
1710891157120617500,1.740617431640625,-0.867398202419281,8.97787094116211,2.3054845333099365
1710891157139577900,1.759577880859375,-0.8303094506263733,9.024530410766602,2.6057839393615723
1710891157158538200,1.778538330078125,-0.8123632669448853,9.042476654052734,2.803191661834717
1710891157177498600,1.79749853515625,-0.849452018737793,9.078369140625,2.919243574142456
1710891157196459000,1.816458984375,-0.8949156403541565,9.146564483642578,3.0137600898742676
1710891157215419400,1.83541943359375,-0.97148597240448,9.248259544372559,3.13220477104187
1710891157234379800,1.8543798828125,-0.9942178130149841,9.33559799194336,3.2853455543518066
1710891157253340000,1.87333984375,-0.9475577473640442,9.352347373962402,3.4205398559570312
1710891157272300300,1.89230029296875,-0.8901300430297852,9.372686386108398,3.480360507965088
1710891157291260700,1.9112607421875,-0.8374879360198975,9.397810935974121,3.5377883911132812
1710891157310221000,1.930220947265625,-0.7226324677467346,9.323633193969727,3.504288673400879
1710891157329181400,1.949181396484375,-0.6089733839035034,9.147761344909668,3.370290756225586
1710891157348141800,1.968141845703125,-0.5778666734695435,9.040083885192871,3.1202406883239746
1710891157367102200,1.987102294921875,-0.656829833984375,9.084351539611816,2.998206853866577
1710891157386062600,2.0060625,-0.8291130661964417,9.29611587524414,2.96111798286438
1710891157405023000,2.02502294921875,-0.9667003750801086,9.595218658447266,3.0556344985961914
1710891157423983400,2.0439833984375,-0.8769695162773132,9.78544807434082,3.1549365520477295
1710891157442943700,2.06294384765625,-0.6400800347328186,9.848857879638672,2.9970104694366455
1710891157461904100,2.081904052734375,-0.37926238775253296,9.81655502319336,2.7696921825408936
1710891157480864300,2.1008642578125,-0.1256231814622879,9.854840278625488,2.4981069564819336
1710891157499825000,2.119824951171875,-0.09092725813388824,10.03310489654541,2.100898265838623
1710891157518785000,2.138784912109375,-0.0933200865983963,10.347761154174805,1.5696916580200195
1710891157537745400,2.157745361328125,0.12801600992679596,11.312068939208984,1.1437692642211914
1710891157556706000,2.1767060546875,0.24406790733337402,12.396018028259277,1.475175142288208
1710891157575666200,2.195666259765625,0.49172505736351013,12.597014427185059,2.221735715866089
1710891157594626600,2.21462646484375,0.9176474809646606,11.9461669921875,2.5387847423553467
1710891157613587000,2.2335869140625,1.7084753513336182,10.99741268157959,2.4131617546081543
1710891157632547300,2.25254736328125,2.2947168350219727,10.091729164123535,2.203789710998535
1710891157651507700,2.2715078125,2.4011974334716797,9.212367057800293,2.1619153022766113
1710891157670468000,2.290468017578125,2.2061824798583984,8.13081169128418,2.0303099155426025
1710891157689428500,2.309428466796875,1.9860427379608154,7.109076023101807,1.8089739084243774
1710891157708388900,2.328388916015625,1.8149559497833252,6.448657035827637,1.568495273590088
1710891157727349200,2.347349365234375,1.6737794876098633,6.244070529937744,1.4225330352783203
1710891157746309600,2.3663095703125,1.4656038284301758,6.471388816833496,1.420140266418457
1710891157765270000,2.38527001953125,1.2203395366668701,7.044469833374023,1.6103696823120117
1710891157784230400,2.40423046875,0.9248259663581848,7.817351341247559,1.8783657550811768
1710891157803190800,2.423190673828125,0.7728816866874695,8.71226692199707,2.2193429470062256
1710891157822151200,2.442151123046875,0.8638089895248413,9.540184020996094,2.6356940269470215
1710891157841111600,2.461111572265625,1.0660024881362915,9.936196327209473,3.0305099487304688
1710891157860072000,2.480072021484375,1.3782658576965332,9.762716293334961,3.359523057937622
1710891157879032300,2.4990322265625,1.683350682258606,9.44327449798584,3.4755749702453613
1710891157897992700,2.51799267578125,1.5792629718780518,9.317651748657227,3.601198196411133
1710891157916953300,2.536953369140625,1.5134602785110474,9.261420249938965,3.7782669067382812
1710891157935913500,2.55591357421875,1.373480200767517,9.192028045654297,3.85483717918396
1710891157954873900,2.574873779296875,1.3603196144104004,9.116654396057129,3.7878382205963135
1710891157973834200,2.593834228515625,1.5086746215820312,9.253045082092285,3.5365917682647705
1710891157992795000,2.612794921875,1.4811571836471558,9.361918449401855,3.4612178802490234
1710891158011755300,2.63175537109375,1.451246976852417,8.926424980163574,3.67657208442688
1710891158030715400,2.65071533203125,1.470389485359192,8.511270523071289,3.596412420272827
1710891158049676000,2.669676025390625,1.144965648651123,8.601000785827637,3.032902717590332
1710891158068636400,2.688636474609375,0.8063812255859375,8.732605934143066,2.283949136734009
1710891158087596800,2.7075966796875,0.6759724020957947,8.787641525268555,1.7802600860595703
1710891158106557200,2.72655712890625,0.6556333899497986,8.766105651855469,1.9058831930160522
1710891158125517600,2.745517578125,0.9882357716560364,8.669196128845215,2.1846470832824707
1710891158144478000,2.76447802734375,1.3651052713394165,8.732605934143066,2.313859462738037
1710891158163438300,2.783438232421875,1.6546368598937988,8.864211082458496,2.2480568885803223
1710891158182398700,2.802398681640625,1.6175481081008911,8.851051330566406,1.856830358505249
1710891158201359000,2.821359130859375,1.2167502641677856,8.791230201721191,1.4321043491363525
1710891158220319500,2.840319580078125,0.5958128571510315,8.885746955871582,1.4428720474243164
1710891158239279900,2.85927978515625,-0.21296121180057526,9.170493125915527,1.7838492393493652
1710891158258240300,2.878240234375,-0.7489534616470337,9.736394882202148,2.513660192489624
1710891158277200600,2.89720068359375,-0.7621139883995056,10.65523910522461,3.5473594665527344
1710891158296161000,2.9161611328125,-0.22971096634864807,11.513066291809082,4.870590686798096
1710891158315121700,2.93512158203125,0.27397820353507996,11.83609676361084,5.928217887878418
1710891158334082000,2.95408203125,0.6747759580612183,11.941381454467773,6.241677761077881
1710891158353042400,2.97304248046875,0.7680960893630981,11.810972213745117,6.004788398742676
1710891158372002800,2.9920029296875,0.5611169338226318,11.053644180297852,5.338387489318848
1710891158390963200,3.010963134765625,0.25722843408584595,10.382457733154297,4.442275047302246
1710891158409923600,3.029923583984375,-0.16271193325519562,9.762716293334961,3.52103853225708
1710891158428884000,3.048884033203125,-0.25244277715682983,9.06401252746582,2.416750907897949
1710891158447844400,3.06784423828125,-0.13160525262355804,8.556734085083008,1.0001999139785767
1710891158466804700,3.0868046875,-0.19381862878799438,8.484949111938477,-0.4785645306110382
1710891158485765000,3.10576513671875,-0.4103690981864929,9.016156196594238,-1.789831280708313
1710891158504725500,3.1247255859375,-0.5156532526016235,9.956535339355469,-2.609373092651367
1710891158523686100,3.14368603515625,-1.042074203491211,10.98305606842041,-2.89172625541687
1710891158542646300,3.162646240234375,-1.129412293434143,11.413763999938965,-2.8558337688446045
1710891158561606700,3.181606689453125,-0.8374879360198975,11.297712326049805,-2.7493531703948975
1710891158580567300,3.2005673828125,-0.35533416271209717,10.88136100769043,-2.6261229515075684
1710891158599527700,3.219527587890625,0.04785645380616188,10.415956497192383,-2.2301106452941895
1710891158618488000,3.238488037109375,0.07657032459974289,10.072587013244629,-1.6235301494598389
1710891158637448400,3.257448486328125,0.18065811693668365,9.817750930786133,-1.0085747241973877
1710891158656408800,3.276408935546875,0.5431707501411438,9.516255378723145,-0.5682953596115112
1710891158675369200,3.295369140625,1.0516455173492432,9.181260108947754,-0.2392822653055191
1710891158694329600,3.31432958984375,1.4189438819885254,8.9312105178833,0.05144568532705307
1710891158713290000,3.3332900390625,1.482353687286377,8.930013656616211,0.349352091550827
1710891158732250600,3.352250732421875,1.2634103298187256,9.052047729492188,0.5491527915000916
1710891158751210800,3.371210693359375,0.9068797826766968,9.193224906921387,0.6855437159538269
1710891158770171100,3.390171142578125,0.5228317379951477,9.238688468933105,0.7896314859390259
1710891158789131800,3.4091318359375,0.2105683982372284,9.181260108947754,0.9020941257476807
1710891158808092200,3.428092041015625,0.07896314561367035,9.146564483642578,1.038485050201416
1710891158827052500,3.447052490234375,0.11605189740657806,9.265008926391602,1.2658032178878784
1710891158846013000,3.466012939453125,0.22971096634864807,9.397810935974121,1.5589239597320557
1710891158864973300,3.484973388671875,0.4055834412574768,9.546165466308594,1.9010975360870361
1710891158883933700,3.50393359375,0.5838487148284912,9.573683738708496,2.121237277984619
1710891158902894000,3.52289404296875,0.6580262184143066,9.488738059997559,2.122433662414551
1710891158921854500,3.5418544921875,0.5647061467170715,9.509077072143555,1.9645073413848877
1710891158940815000,3.560815185546875,0.34217363595962524,9.712467193603516,1.8711873292922974
1710891158959775500,3.579775390625,0.08374879509210587,9.986445426940918,1.7934205532073975
1710891158978735600,3.598735595703125,-0.1746760457754135,10.247262954711914,1.6869399547576904
1710891158997696300,3.6176962890625,-0.4055834412574768,10.327422142028809,1.6295121908187866
1710891159016656600,3.63665673828125,-0.5060819983482361,10.313065528869629,1.612762451171875
1710891159035617000,3.655616943359375,-0.5778666734695435,10.409975051879883,1.6510475873947144
1710891159054577400,3.674577392578125,-0.6376872062683105,10.439885139465332,1.7958134412765503
1710891159073537800,3.693537841796875,-0.5515456199645996,10.395618438720703,1.9130617380142212
1710891159092498200,3.712498291015625,-0.41874396800994873,10.29033374786377,2.066202402114868
1710891159111458600,3.73145849609375,-0.2835494875907898,10.1814603805542,2.197807550430298
1710891159130419000,3.7504189453125,-0.1543370634317398,10.052248001098633,2.289931297302246
1710891159149379600,3.769379638671875,0.017946170642971992,9.943374633789062,2.289931297302246
1710891159168339700,3.788339599609375,0.16869398951530457,9.851250648498535,2.1272194385528564
1710891159187300000,3.807300048828125,0.3314059376716614,9.69093132019043,1.7527425289154053
1710891159206260700,3.8262607421875,0.33738797903060913,9.515059471130371,1.3268201351165771
1710891159225221000,3.84522119140625,0.2847459018230438,9.390632629394531,0.8279166221618652
1710891159244181500,3.864181396484375,0.31465616822242737,9.376275062561035,0.3326023519039154
1710891159263142000,3.883141845703125,0.33499518036842346,9.475577354431152,-0.05024927482008934
1710891159282102300,3.902102294921875,0.2907279431819916,9.774680137634277,-0.29790642857551575
1710891159301062700,3.921062744140625,0.25244277715682983,10.301101684570312,-0.28235307335853577
1710891159320023000,3.94002294921875,0.2883351147174835,11.096714973449707,0.137587308883667
1710891159338983400,3.9589833984375,0.33858439326286316,11.93181037902832,0.9607182741165161
1710891159357943800,3.97794384765625,0.5168496966362,12.488141059875488,1.9310078620910645
1710891159376904200,3.996904296875,0.8697910308837891,12.685548782348633,2.693121910095215
1710891159395864600,4.015864501953125,1.0600204467773438,12.626925468444824,3.2350962162017822
1710891159414825200,4.0348251953125,1.140179991722107,12.448659896850586,3.314059257507324
1710891159433785600,4.05378564453125,1.456032633781433,12.166306495666504,3.081955671310425
1710891159452746000,4.07274609375,1.7802600860595703,11.292926788330078,2.706282377243042
1710891159471706400,4.091706298828125,1.805384635925293,10.115657806396484,2.2995026111602783
1710891159490666800,4.110666748046875,1.6654045581817627,9.215956687927246,1.7276179790496826
1710891159509627100,4.129627197265625,1.5876377820968628,8.912068367004395,1.3902299404144287
1710891159528587500,4.14858740234375,1.399801254272461,9.200403213500977,1.415354609489441
1710891159547548000,4.1675478515625,1.2813565731048584,9.682557106018066,1.6689938306808472
1710891159566508300,4.18650830078125,1.3483555316925049,10.152746200561523,1.7431713342666626
1710891159585468700,4.20546875,1.2873386144638062,10.450653076171875,1.7718851566314697
1710891159604429000,4.224428955078125,1.4249259233474731,10.457831382751465,1.9214365482330322
1710891159623389700,4.2433896484375,1.4679967164993286,10.463813781738281,2.2025933265686035
1710891159642349800,4.262349853515625,1.3651052713394165,10.431509971618652,2.6117658615112305
1710891159661310200,4.281310302734375,1.179661512374878,10.18026351928711,2.8115665912628174
1710891159680270800,4.300270751953125,1.0516455173492432,9.780662536621094,2.5710878372192383
1710891159699231200,4.319231201171875,0.9068797826766968,9.308079719543457,2.0817556381225586
1710891159718191600,4.338191650390625,0.8075776696205139,8.80798053741455,1.5780665874481201
1710891159737152000,4.357152099609375,0.7716853022575378,8.288737297058105,1.2526426315307617
1710891159756112400,4.3761123046875,0.6065805554389954,7.706085205078125,0.9990034699440002
1710891159775072800,4.39507275390625,0.381655216217041,7.167700290679932,0.885344386100769
1710891159794033200,4.414033203125,0.25244277715682983,6.547959327697754,0.7836494445800781
1710891159812993500,4.43299365234375,0.28594231605529785,6.098108291625977,0.7812566161155701
1710891159831954000,4.451953857421875,0.2476571500301361,5.7511491775512695,0.8530412912368774
1710891159850914300,4.470914306640625,0.2225325107574463,5.563312530517578,0.9571290612220764
1710891159869874700,4.489874755859375,0.02153540402650833,5.79780912399292,1.1485549211502075
1710891159888835000,4.5088349609375,-0.44027936458587646,6.4115681648254395,1.5936198234558105
1710891159907795500,4.52779541015625,-0.7549355626106262,7.1856465339660645,2.2959132194519043
1710891159926755800,4.546755859375,-0.8614161610603333,8.148757934570312,3.157329559326172
1710891159945716200,4.56571630859375,-0.8159525394439697,9.237491607666016,4.195814609527588
1710891159964676900,4.5846767578125,-0.44386860728263855,9.905089378356934,5.364708423614502
1710891159983637000,4.603636962890625,0.3397808074951172,9.865608215332031,6.223731517791748
1710891160002597400,4.622597412109375,1.1473584175109863,9.491130828857422,6.300302028656006
1710891160021558000,4.64155810546875,1.5553346872329712,9.081958770751953,5.796612739562988
1710891160040518400,4.660518310546875,1.4883357286453247,8.745766639709473,5.089533805847168
1710891160059478800,4.679478759765625,1.2598211765289307,8.776873588562012,4.405186653137207
1710891160078439200,4.698439208984375,1.0037890672683716,9.089137077331543,3.9146578311920166
1710891160097399600,4.717399658203125,0.8195417523384094,9.467203140258789,3.3535408973693848
1710891160116360000,4.73635986328125,0.9427721500396729,9.859625816345215,2.764906644821167
1710891160135320300,4.7553203125,1.1629117727279663,10.077372550964355,2.132004976272583
1710891160154280700,4.77428076171875,1.3950155973434448,10.115657806396484,1.6402798891067505
1710891160173241000,4.793240966796875,1.5637096166610718,9.967302322387695,1.3627125024795532
1710891160192201500,4.812201416015625,1.6654045581817627,9.65503978729248,1.3794622421264648
1710891160211161900,4.831161865234375,1.5170495510101318,9.306883811950684,1.6893328428268433
1710891160230122200,4.850122314453125,1.2921242713928223,9.080761909484863,2.2265214920043945
1710891160249082600,4.86908251953125,1.1700903177261353,9.018548965454102,2.9587252140045166
1710891160268043000,4.88804296875,1.0636097192764282,8.97667407989502,3.748356580734253
1710891160287003400,4.90700341796875,1.0564311742782593,8.805587768554688,4.3310089111328125
1710891160305963800,4.9259638671875,1.1545369625091553,8.489734649658203,4.615755081176758
1710891160324924200,4.944924072265625,1.3938192129135132,8.248059272766113,4.548755645751953
1710891160343884500,4.963884521484375,1.3004990816116333,8.053044319152832,4.475774765014648
1710891160362845000,4.982844970703125,1.2430713176727295,8.007580757141113,4.357329845428467
1710891160381805300,5.001805419921875,1.0755738019943237,8.067401885986328,4.229313850402832
1710891160400766000,5.020765869140625,1.00259268283844,8.237292289733887,4.016352653503418
1710891160419726300,5.039726318359375,1.0408778190612793,8.360522270202637,3.700500249862671
1710891160438686500,5.0586865234375,1.038485050201416,8.455039024353027,3.3020951747894287
1710891160457646800,5.077646728515625,1.0217353105545044,8.662017822265625,3.0795626640319824
1710891160476607500,5.096607421875,1.0085747241973877,8.94676399230957,3.1381869316101074
1710891160495567600,5.115567626953125,1.089930772781372,9.111868858337402,3.3343982696533203
1710891160514528000,5.134528076171875,1.262213945388794,9.174081802368164,3.5784661769866943
1710891160533488600,5.153488525390625,1.4321043491363525,9.145368576049805,3.737588882446289
1710891160552449000,5.172448974609375,1.5804593563079834,9.10827922821045,3.7974095344543457
1710891160571409400,5.191409423828125,1.6977076530456543,9.056833267211914,3.809373617172241
1710891160590369800,5.210369873046875,1.6965112686157227,8.890532493591309,3.7986059188842773
1710891160609330200,5.229330078125,1.674975872039795,8.675178527832031,3.8811583518981934
1710891160628290600,5.24829052734375,1.5696916580200195,8.547162055969238,4.030709743499756
1710891160647251000,5.2672509765625,1.430907964706421,8.404789924621582,4.254438877105713
1710891160666211300,5.28621142578125,1.3663017749786377,8.10807991027832,4.498506546020508
1710891160685171700,5.305171630859375,1.1892328262329102,7.765905857086182,4.657629489898682
1710891160704132000,5.324132080078125,0.9786644577980042,7.70249605178833,4.898108005523682
1710891160723092500,5.343092529296875,0.9726824164390564,7.700103282928467,5.30847692489624
1710891160742052900,5.362052978515625,0.973878800868988,7.651050567626953,5.897111415863037
1710891160761013200,5.38101318359375,1.0169496536254883,7.631907939910889,6.636493682861328
1710891160779973600,5.3999736328125,0.9559326171875,7.572087287902832,7.312466144561768
1710891160798934000,5.41893408203125,0.7549355626106262,7.402196884155273,7.653443336486816
1710891160817894400,5.437894287109375,0.641276478767395,7.143772125244141,7.728816986083984
1710891160836854800,5.456854736328125,0.5515456199645996,6.881757736206055,7.860422611236572
1710891160855815200,5.475815185546875,0.3613162338733673,6.634100914001465,8.031509399414062
1710891160874775600,5.494775634765625,0.18305093050003052,6.465406894683838,8.202595710754395
1710891160893736000,5.51373583984375,-0.08374879509210587,6.4319071769714355,8.327022552490234
1710891160912696300,5.5326962890625,-0.013160524889826775,6.168696880340576,8.639286041259766
1710891160931656700,5.55165673828125,-0.09810572862625122,6.100501537322998,8.943174362182617
1710891160950617000,5.5706171875,-0.2715853750705719,6.311069488525391,9.119047164916992
1710891160969577500,5.589577392578125,-0.36729827523231506,6.39601469039917,9.079565048217773
1710891160988537900,5.608537841796875,-0.2763710021972656,6.271588325500488,9.020941734313965
1710891161007498200,5.627498291015625,-0.12801600992679596,6.122036933898926,8.879764556884766
1710891161026458600,5.646458740234375,-0.1136590763926506,5.924628734588623,8.70628547668457
1710891161045419000,5.6654189453125,-0.18783657252788544,5.709274768829346,8.703892707824707
1710891161064379400,5.68437939453125,-0.4905286431312561,5.587240695953369,8.849854469299316
1710891161083339800,5.70333984375,-0.9523434042930603,5.387440204620361,9.079565048217773
1710891161102300200,5.722300048828125,-1.3399807214736938,5.114658355712891,9.293723106384277
1710891161121260500,5.741260498046875,-1.7455641031265259,4.8299126625061035,9.509077072143555
1710891161140221000,5.760220947265625,-2.014756679534912,4.470989227294922,9.738788604736328
1710891161159181300,5.779181396484375,-2.0889341831207275,4.110869407653809,10.039087295532227
1710891161178141700,5.7981416015625,-2.1678972244262695,3.8919260501861572,10.316655158996582
1710891161197102000,5.81710205078125,-2.3258235454559326,3.671786308288574,10.433902740478516
1710891161216062500,5.8360625,-2.4765713214874268,3.321237802505493,10.395618438720703
1710891161235022800,5.85502294921875,-2.8761727809906006,2.937189817428589,10.365707397460938
1710891161253983200,5.873983154296875,-3.0664021968841553,2.3198416233062744,10.302297592163086
1710891161272943600,5.892943603515625,-2.7110681533813477,1.7060825824737549,10.620543479919434
1710891161291904000,5.911904052734375,-2.4119651317596436,1.1341979503631592,10.654043197631836
1710891161310864400,5.930864501953125,-2.7349963188171387,0.7908278703689575,10.073782920837402
1710891161329824800,5.94982470703125,-2.8522446155548096,0.6173482537269592,9.275776863098145
1710891161348785200,5.96878515625,-2.9252257347106934,0.364905446767807,8.592626571655273
1710891161367745500,5.98774560546875,-3.1034910678863525,0.20099709928035736,8.444271087646484
1710891161386706000,6.006705810546875,-2.287538528442383,-0.10648060590028763,8.37009334564209
1710891161405666300,6.025666259765625,-1.32921302318573,-0.5575276613235474,8.123632431030273
1710891161424626700,6.044626708984375,-0.9463613629341125,-0.7621139883995056,7.622336387634277
1710891161443587000,6.063587158203125,-0.6747759580612183,-1.0408778190612793,7.491927623748779
1710891161462547500,6.08254736328125,-0.5228317379951477,-1.5302101373672485,7.255038261413574
1710891161481507800,6.1015078125,-0.5479564070701599,-1.5493526458740234,7.2335028648376465
1710891161500468200,6.12046826171875,-0.30628129839897156,-0.9284151792526245,7.214360237121582
1710891161519428900,6.139428955078125,0.3074777126312256,-0.16510476171970367,7.307680130004883
1710891161538389000,6.158388916015625,1.373480200767517,0.07537391036748886,7.5433735847473145
1710891161557349400,6.177349365234375,2.2947168350219727,-0.24526432156562805,7.4811601638793945
1710891161576309800,6.196309814453125,1.7994025945663452,-0.5730810165405273,6.491727828979492
1710891161595270400,6.2152705078125,-0.7992027401924133,-0.13519448041915894,4.831109046936035
1710891161614230500,6.23423046875,-0.9655039310455322,-0.13040883839130402,5.300102233886719
1710891161633191000,6.25319091796875,0.3900300860404968,-0.6903293132781982,7.3292155265808105
1710891161652151600,6.272151611328125,1.3854442834854126,-0.9607182741165161,9.199206352233887
1710891161671112000,6.29111181640625,0.6101697683334351,-1.2945170402526855,11.544173240661621
1710891161690072300,6.310072265625,-0.7680960893630981,-2.1128623485565186,13.468002319335938
1710891161709032700,6.32903271484375,-2.610569477081299,-4.037888050079346,15.15015697479248
1710891161727993000,6.3479931640625,-4.35254430770874,-5.3934221267700195,16.00200080871582
1710891161746953500,6.366953369140625,-4.540380954742432,-3.8333017826080322,15.121442794799805
1710891161765913900,6.385913818359375,-3.297309637069702,-1.1521440744400024,13.225131034851074
1710891161784874200,6.404874267578125,-0.34695929288864136,-1.4871392250061035,10.774880409240723
1710891161803834600,6.423834716796875,-0.062213387340307236,-4.104887008666992,10.554740905761719
1710891161822795000,6.442794921875,-1.97407865524292,-5.103890895843506,11.292926788330078
1710891161841755400,6.46175537109375,-2.5495524406433105,-2.7565317153930664,10.723434448242188
1710891161860715800,6.4807158203125,-2.11405873298645,0.7836494445800781,10.438689231872559
1710891161879676200,6.49967626953125,-1.8999011516571045,3.166900873184204,11.542976379394531
1710891161898636500,6.518636474609375,-1.5122638940811157,3.6705899238586426,12.8087797164917
1710891161917597200,6.53759716796875,-1.4344971179962158,3.566502094268799,13.055240631103516
1710891161936557600,6.5565576171875,-1.7455641031265259,3.8428730964660645,12.118450164794922
1710891161955517700,6.575517578125,-1.6271194219589233,4.7712883949279785,11.075180053710938
1710891161974478300,6.594478271484375,-1.5050854682922363,5.405386447906494,10.335797309875488
1710891161993438700,6.613438720703125,-1.3962119817733765,5.257031440734863,9.93260669708252
1710891162012399000,6.632399169921875,-1.7491533756256104,4.744967460632324,9.440881729125977
1710891162031359500,6.651359375,-1.892722725868225,4.6061835289001465,8.624929428100586
1710891162050320000,6.67031982421875,-2.011167526245117,4.679164886474609,8.287541389465332
1710891162069280300,6.6892802734375,-1.8891334533691406,4.632504463195801,7.977670669555664
1710891162088240600,6.70824072265625,-1.6857435703277588,4.2795634269714355,7.770691394805908
1710891162107201000,6.727200927734375,-1.6235301494598389,3.387040376663208,7.630711555480957
1710891162126161700,6.74616162109375,-1.786242127418518,2.7182464599609375,8.484949111938477
1710891162145122000,6.7651220703125,-1.5469598770141602,2.4502503871917725,9.07717227935791
1710891162164082400,6.78408251953125,-1.5433706045150757,3.294916868209839,8.188239097595215
1710891162183042800,6.803042724609375,-0.9858429431915283,4.152743816375732,7.23589563369751
1710891162202003200,6.822003173828125,0.2476571500301361,4.316651821136475,6.843472957611084
1710891162220963600,6.840963623046875,0.7680960893630981,4.3752760887146,6.271588325500488
1710891162239924000,6.859924072265625,0.5156532526016235,4.320241451263428,5.8719868659973145
1710891162258884400,6.87888427734375,0.19740787148475647,4.2281174659729,5.810969829559326
1710891162277844700,6.8978447265625,-0.02632104977965355,4.258028030395508,5.925825119018555
1710891162296805000,6.91680517578125,0.1543370634317398,4.0797624588012695,6.2536420822143555
1710891162315765500,6.935765625,0.5455635786056519,4.018745422363281,6.355337142944336
1710891162334726100,6.95472607421875,0.7357929348945618,4.511667251586914,6.453442573547363
1710891162353686500,6.9736865234375,0.8877372145652771,5.318048477172852,6.778866767883301
1710891162372647000,6.99264697265625,1.521835207939148,5.84566593170166,6.997809886932373
1710891162391607300,7.011607177734375,1.6378871202468872,6.055037498474121,6.881757736206055
1710891162410567700,7.030567626953125,1.1988041400909424,6.120840549468994,6.39601469039917
1710891162429528000,7.049528076171875,0.6520441770553589,6.358926296234131,6.125626087188721
1710891162448488400,7.068488525390625,0.47976094484329224,6.703492641448975,6.38883638381958
1710891162467449000,7.087448974609375,0.5790630578994751,7.141379356384277,6.63769006729126
1710891162486409500,7.106409423828125,0.605384111404419,7.432106971740723,6.900900363922119
1710891162505369900,7.125369873046875,0.7357929348945618,7.661818027496338,7.15812873840332
1710891162524330200,7.144330322265625,0.7034898400306702,7.813762187957764,7.434499740600586
1710891162543290600,7.16329052734375,0.6269195079803467,7.755138397216797,7.459624767303467
1710891162562251300,7.182251220703125,0.6664010882377625,7.554141044616699,7.435696601867676
1710891162581211600,7.201211669921875,0.6891329288482666,7.347161769866943,7.371089935302734
1710891162600172000,7.220172119140625,0.8039883971214294,7.070790767669678,6.996613502502441
1710891162619132400,7.23913232421875,0.5730810165405273,6.809973239898682,6.6831536293029785
1710891162638092800,7.2580927734375,0.3888336718082428,6.722635269165039,6.818347930908203
1710891162657053200,7.27705322265625,0.5096712112426758,6.565905570983887,6.8554368019104
1710891162676013600,7.296013671875,0.5802595019340515,6.34217643737793,6.591030120849609
1710891162694974000,7.314973876953125,0.44027936458587646,6.239284992218018,6.288337707519531
1710891162713934600,7.3339345703125,0.12681959569454193,6.03948450088501,6.220142364501953
1710891162732895000,7.35289501953125,-0.12921242415905,6.0023956298828125,6.503692150115967
1710891162751855400,7.37185546875,-0.15074782073497772,6.035895347595215,7.010970115661621
1710891162770815700,7.390815673828125,0.02392822690308094,5.979663848876953,7.3292155265808105
1710891162789776100,7.409776123046875,0.11246266216039658,6.065805435180664,7.581658363342285
1710891162808736800,7.42873681640625,0.22851456701755524,6.636493682861328,7.810173034667969
1710891162827697200,7.447697265625,0.24167509377002716,7.482356548309326,7.984848976135254
1710891162846657500,7.466657470703125,0.2907279431819916,8.116454124450684,7.8113694190979
1710891162865618000,7.485617919921875,0.5335994362831116,8.33300495147705,7.3160552978515625
1710891162884578300,7.504578369140625,0.5994020700454712,8.237292289733887,7.133004188537598
1710891162903539000,7.5235390625,0.3529413342475891,8.009973526000977,7.0683979988098145
1710891162922499300,7.542499267578125,0.5682953596115112,7.635497093200684,7.003791809082031
1710891162941459700,7.561459716796875,0.638883650302887,7.165307521820068,6.719046115875244
1710891162960420000,7.580420166015625,0.1256231814622879,6.994220733642578,6.80159854888916
1710891162979380700,7.599380615234375,0.5682953596115112,7.048058986663818,7.429714202880859
1710891162998341000,7.618341064453125,1.2526426315307617,7.143772125244141,7.562515735626221
1710891163017301500,7.637301513671875,1.058824062347412,6.589833736419678,6.838686943054199
1710891163036262000,7.656261962890625,1.4871392250061035,6.027520179748535,6.3732829093933105
1710891163055222300,7.67522216796875,1.9776679277420044,5.563312530517578,6.276373863220215
1710891163074183000,7.694182861328125,1.5182459354400635,5.484349727630615,6.08614444732666
1710891163093143300,7.713143310546875,1.1748759746551514,5.602794170379639,6.324230194091797
1710891163112103700,7.732103759765625,1.0660024881362915,5.6685967445373535,6.845865726470947
1710891163131064000,7.75106396484375,0.7621139883995056,5.283352375030518,7.219145774841309
1710891163150024700,7.770024658203125,0.4175475537776947,4.855037212371826,7.6043901443481445
1710891163168985000,7.788985107421875,0.064606212079525,4.366901397705078,7.88913631439209
1710891163187945500,7.807945556640625,-0.08973085135221481,4.231706619262695,7.724031448364258
1710891163206905900,7.82690576171875,-0.15553347766399384,4.325026988983154,7.2921271324157715
1710891163225866200,7.8458662109375,-0.5982056856155396,4.453042984008789,6.8518476486206055
1710891163244827000,7.864826904296875,-0.882951557636261,4.716253280639648,6.570691108703613
1710891163263787300,7.883787353515625,-1.3316057920455933,5.3216376304626465,6.5288166999816895
1710891163282747600,7.90274755859375,-1.1940184831619263,5.808577060699463,6.345765590667725
1710891163301708000,7.9217080078125,-1.093519926071167,6.125626087188721,6.141179084777832
1710891163320668700,7.940668701171875,-0.3756731450557709,6.866204738616943,6.937989234924316
1710891163339629000,7.959629150390625,0.13160525262355804,8.155936241149902,8.11525821685791
1710891163358589400,7.97858935546875,-0.059820566326379776,10.066604614257812,7.88076114654541
1710891163377550000,7.997550048828125,0.9762716293334961,13.23709487915039,6.978667259216309
1710891163396510500,8.016510498046875,2.5363919734954834,15.791433334350586,6.859025955200195
1710891163415470800,8.035470947265624,4.089334011077881,16.704294204711914,7.653443336486816
1710891163434431200,8.05443115234375,4.329812526702881,15.399009704589844,8.868997573852539
1710891163453392000,8.073391845703124,5.5932230949401855,12.959527015686035,8.250452041625977
1710891163472352300,8.092352294921875,4.861019134521484,10.607382774353027,8.068597793579102
1710891163491312600,8.111312744140625,3.9361932277679443,8.295916557312012,7.288537979125977
1710891163510273000,8.13027294921875,2.482553482055664,5.857629776000977,6.73938512802124
1710891163529233400,8.1492333984375,1.423729419708252,4.153940200805664,6.3014984130859375
1710891163548194000,8.168194091796876,1.730010747909546,3.9625144004821777,6.358926296234131
1710891163567154400,8.187154541015625,0.9296116232872009,5.017749309539795,5.547759532928467
1710891163586114800,8.20611474609375,0.35892340540885925,5.735595703125,4.715056896209717
1710891163605075500,8.225075439453125,-0.6652047038078308,6.0777692794799805,5.07517671585083
1710891163624035800,8.244035888671876,0.13878370821475983,5.120640277862549,5.68175745010376
1710891163642996200,8.262996337890625,0.038285162299871445,4.533202648162842,5.6925249099731445
1710891163661956900,8.281956787109374,0.349352091550827,5.2977094650268555,5.089533805847168
1710891163680917200,8.300917236328125,1.0707881450653076,6.196214199066162,4.170690059661865
1710891163699877600,8.319877685546874,1.074377417564392,6.2189459800720215,3.6837503910064697
1710891163718838000,8.338838134765625,1.6965112686157227,5.431707382202148,4.175475597381592
1710891163737798700,8.357798583984374,2.0865414142608643,5.947360515594482,5.61116886138916
1710891163756759000,8.376759033203125,2.3820550441741943,6.964310169219971,6.573083877563477
1710891163775719400,8.395719482421875,2.6488547325134277,7.11984395980835,6.187839508056641
1710891163794680000,8.41468017578125,2.39401912689209,6.547959327697754,5.771488189697266
1710891163813640400,8.433640380859375,2.496910333633423,6.197410583496094,5.614758491516113
1710891163832600800,8.452600830078126,2.0506489276885986,6.317051887512207,6.062216281890869
1710891163851561500,8.4715615234375,1.9645073413848877,6.233303070068359,5.988038539886475
1710891163870521900,8.49052197265625,1.7455641031265259,6.441478729248047,5.675775527954102
1710891163889482200,8.509482177734375,1.9525432586669922,6.705885410308838,5.715256690979004
1710891163908442600,8.528442626953124,1.667797327041626,6.69990348815918,5.855237007141113
1710891163927403000,8.547403076171875,1.3304094076156616,6.539584159851074,5.874379634857178
1710891163946363600,8.56636376953125,1.1629117727279663,6.654439926147461,5.832505226135254
1710891163965324000,8.585323974609375,0.833898663520813,6.557530403137207,6.157928943634033
1710891163984284700,8.60428466796875,0.747757077217102,6.716653347015381,6.052644729614258
1710891164003245000,8.6232451171875,0.6484549641609192,7.502695560455322,5.113461971282959
1710891164022205400,8.642205322265625,0.8267202377319336,8.58066177368164,4.423132419586182
1710891164041165800,8.661165771484375,0.6616154313087463,10.006784439086914,4.450650215148926
1710891164060126500,8.68012646484375,0.6281159520149231,11.44965648651123,4.947160720825195
1710891164079086800,8.6990869140625,0.9690931439399719,11.897113800048828,5.252245903015137
1710891164098047200,8.718047119140625,0.9966106414794922,10.930414199829102,5.928217887878418
1710891164117007600,8.737007568359376,1.3387842178344727,9.384650230407715,5.8061842918396
1710891164135968300,8.75596826171875,1.4608181715011597,8.774480819702148,5.431707382202148
1710891164154928600,8.7749287109375,1.2478569746017456,7.7730841636657715,4.675575256347656
1710891164173889300,8.79388916015625,1.0636097192764282,6.690331935882568,4.977071285247803
1710891164192849700,8.812849609375,0.1052841991186142,6.585047721862793,6.752545356750488
1710891164211810000,8.83181005859375,-0.15672987699508667,6.183053493499756,7.1270222663879395
1710891164230770400,8.8507705078125,-0.4989035129547119,5.9437713623046875,6.647261142730713
1710891164249730800,8.869730712890625,-0.8159525394439697,6.440282344818115,6.027520179748535
1710891164268691500,8.88869140625,-0.22612173855304718,6.716653347015381,5.333601474761963
1710891164287651800,8.90765185546875,-0.39601215720176697,6.599404811859131,5.520241737365723
1710891164306612200,8.9266123046875,-0.3517449200153351,7.517052173614502,5.715256690979004
1710891164325572900,8.94557275390625,-0.12801600992679596,7.817351341247559,5.985645771026611
1710891164344533200,8.964533203125,-0.05623133108019829,7.22034215927124,6.561119556427002
1710891164363493600,8.98349365234375,0.2189432680606842,7.091129779815674,6.672386169433594
1710891164382454300,9.002454345703125,-0.09930214285850525,7.223931789398193,7.110272407531738
1710891164401414700,9.02141455078125,0.09930214285850525,6.573083877563477,7.435696601867676
1710891164420375000,9.040375,-0.17706887423992157,6.39601469039917,7.447660446166992
1710891164439335400,9.05933544921875,-0.6771687865257263,6.206982135772705,7.526623725891113
1710891164458295800,9.0782958984375,-0.8422735929489136,6.515655994415283,7.47637414932251
1710891164477256400,9.09725634765625,-1.0444670915603638,6.723831653594971,7.378268718719482
1710891164496216800,9.116216796875,-1.1593226194381714,6.6245293617248535,7.916653633117676
1710891164515177500,9.135177490234375,-1.6426727771759033,6.382854461669922,8.404789924621582
1710891164534137900,9.154137939453125,-1.8077775239944458,5.849255084991455,8.063812255859375
1710891164553098200,9.17309814453125,-1.9298114776611328,5.583651542663574,7.69531774520874
1710891164572058600,9.19205859375,-1.8771693706512451,5.234299659729004,7.980063438415527
1710891164591019300,9.211019287109375,-2.1104695796966553,4.786841869354248,8.505288124084473
1710891164609979600,9.229979736328126,-1.8508483171463013,4.9639105796813965,7.99083137512207
1710891164628940000,9.24893994140625,-1.9046868085861206,4.737788677215576,8.044670104980469
1710891164647900700,9.267900634765626,-1.9836499691009521,4.2795634269714355,8.014759063720703
1710891164666861000,9.286861083984375,-2.197807550430298,4.156332969665527,7.975277900695801
1710891164685821400,9.305821533203124,-2.3306093215942383,3.9876389503479004,8.394021987915039
1710891164704782000,9.324781982421875,-2.740978240966797,3.972085475921631,8.659625053405762
1710891164723742500,9.343742431640624,-3.22552490234375,4.100101470947266,8.39282512664795
1710891164742702800,9.362702880859375,-2.937189817428589,3.765106439590454,7.8556365966796875
1710891164761663200,9.381663330078124,-2.748156785964966,3.243471145629883,7.932207107543945
1710891164780623600,9.40062353515625,-3.025724172592163,3.232703447341919,8.02791976928711
1710891164799584300,9.419584228515625,-3.046063184738159,3.273381471633911,8.166703224182129
1710891164818544600,9.438544677734376,-3.4540395736694336,2.9563324451446533,8.49452018737793
1710891164837505300,9.45750537109375,-3.607180118560791,2.7326035499572754,8.730213165283203
1710891164856465700,9.476465576171876,-3.401397466659546,2.720639228820801,8.496912956237793
1710891164875426000,9.495426025390625,-3.9122650623321533,2.8151557445526123,8.849854469299316
1710891164894386400,9.514386474609376,-3.7387852668762207,2.9240293502807617,9.270991325378418
1710891164913347000,9.53334716796875,-3.373879909515381,2.8809585571289062,8.96829891204834
1710891164932307500,9.552307373046874,-3.8703906536102295,2.640479803085327,8.80798053741455
1710891164951267800,9.571267822265625,-4.342973232269287,2.214557409286499,8.746963500976562
1710891164970228500,9.590228515625,-4.1659040451049805,1.832902193069458,8.671588897705078
1710891164989188900,9.60918896484375,-3.9948174953460693,1.8077775239944458,8.195417404174805
1710891165008149200,9.628149169921874,-4.163511276245117,1.5445669889450073,8.271987915039062
1710891165027110000,9.64710986328125,-4.669593334197998,1.3184453248977661,8.749356269836426
1710891165046070300,9.6660703125,-4.837090969085693,0.8805587291717529,8.854640007019043
1710891165065030700,9.68503076171875,-4.466203689575195,0.35413774847984314,8.5100736618042
1710891165083991000,9.703990966796875,-4.027120590209961,-0.13878370821475983,8.163114547729492
1710891165102951700,9.72295166015625,-4.347758769989014,-0.4175475537776947,8.49571704864502
1710891165121912000,9.741912109375,-4.649254322052002,-0.5910272002220154,8.85344409942627
1710891165140872700,9.760872802734376,-4.573880672454834,-0.9391828775405884,8.803194046020508
1710891165159833000,9.7798330078125,-4.689932346343994,-1.1736794710159302,8.748159408569336
1710891165178793500,9.79879345703125,-4.713860511779785,-1.1665010452270508,8.888139724731445
1710891165197753900,9.81775390625,-4.711467742919922,-1.1425727605819702,8.873783111572266
1710891165216714500,9.836714599609374,-4.713860511779785,-1.4033905267715454,8.646464347839355
1710891165235675000,9.8556748046875,-4.66361141204834,-1.7324036359786987,8.271987915039062
1710891165254635300,9.87463525390625,-4.861019134521484,-2.012363910675049,8.200202941894531
1710891165273596000,9.893595947265625,-5.015356063842773,-2.3186452388763428,8.25523853302002
1710891165292556300,9.912556396484375,-4.874179840087891,-2.606980323791504,8.300702095031738
1710891165311516700,9.9315166015625,-4.874179840087891,-2.723032236099243,8.368897438049316
1710891165330477000,9.95047705078125,-4.782055854797363,-2.6608188152313232,8.530412673950195
1710891165349437700,9.969437744140626,-4.436293125152588,-2.6297121047973633,8.420342445373535
1710891165368398000,9.988398193359375,-4.275974273681641,-2.8893332481384277,8.444271087646484
1710891165387358700,10.007358642578126,-4.344169616699219,-3.2614171504974365,8.82233715057373
1710891165406319000,10.026319091796875,-4.553541660308838,-3.4085757732391357,8.925228118896484
1710891165425279500,10.045279541015624,-4.756931304931641,-3.321237802505493,8.732605934143066
1710891165444240000,10.064239990234375,-4.956732273101807,-3.1094729900360107,8.612964630126953
1710891165463200500,10.083200439453124,-4.833501815795898,-3.1238300800323486,8.124829292297363
1710891165482161000,10.102160888671875,-4.457828521728516,-3.4887354373931885,7.706085205078125
1710891165501121300,10.121121337890624,-4.5391845703125,-3.84765887260437,7.64865779876709
1710891165520082000,10.14008203125,-4.971088886260986,-4.124029636383057,7.716853141784668
1710891165539042300,10.159042236328125,-4.521238327026367,-4.376472473144531,7.840083599090576
1710891165558002700,10.178002685546875,-4.045066833496094,-4.618147850036621,7.872386455535889
1710891165576963300,10.19696337890625,-4.265206336975098,-4.84187650680542,8.061419486999512
1710891165595923700,10.215923828125,-4.2723846435546875,-4.937589645385742,7.946564197540283
1710891165614884000,10.234884033203125,-4.459024906158447,-5.00578498840332,7.460821151733398
1710891165633844500,10.253844482421876,-4.016352653503418,-5.492724418640137,7.054041385650635
1710891165652805000,10.27280517578125,-3.946960926055908,-5.994020938873291,6.928418159484863
1710891165671765500,10.291765625,-4.17427921295166,-6.083751678466797,6.713063716888428
1710891165690726100,10.31072607421875,-4.402793884277344,-5.824130535125732,6.831508636474609
1710891165709686500,10.3296865234375,-4.214957237243652,-5.705685615539551,6.809973239898682
1710891165728647000,10.34864697265625,-4.118047714233398,-5.85284423828125,6.735795974731445
1710891165747607300,10.367607177734374,-3.9349968433380127,-6.177071571350098,6.8243303298950195
1710891165766567700,10.386567626953125,-3.8727834224700928,-6.465406894683838,7.039684295654297
1710891165785528300,10.4055283203125,-3.9601213932037354,-6.531209468841553,7.0923261642456055
1710891165804488700,10.42448876953125,-3.6981074810028076,-6.666403770446777,6.971488952636719
1710891165823449300,10.443449462890625,-3.620340585708618,-6.775277137756348,7.001399040222168
1710891165842409700,10.46240966796875,-3.5509488582611084,-6.9690961837768555,7.076773166656494
1710891165861370000,10.4813701171875,-3.726821184158325,-7.027719974517822,7.0097737312316895
1710891165880330500,10.50033056640625,-3.4121651649475098,-7.061219692230225,6.626922130584717
1710891165899291100,10.519291015625,-2.937189817428589,-7.155735969543457,6.405586242675781
1710891165918251500,10.53825146484375,-2.8701908588409424,-7.148557662963867,6.480959892272949
1710891165937212000,10.5572119140625,-2.9491539001464844,-7.411767959594727,6.492924213409424
1710891165956172500,10.576172607421874,-2.9599215984344482,-7.93579626083374,6.482156753540039
1710891165975133000,10.5951328125,-2.748156785964966,-8.306683540344238,6.363711833953857
1710891165994093300,10.61409326171875,-2.8007988929748535,-8.331808090209961,6.07896614074707
1710891166013054000,10.633053955078125,-2.950350284576416,-8.350951194763184,5.44845724105835
1710891166032014300,10.652014404296875,-2.92283296585083,-8.35573673248291,4.9363932609558105
1710891166050974700,10.670974609375,-2.9862427711486816,-8.434700012207031,4.698307037353516
1710891166069935000,10.68993505859375,-2.620140790939331,-8.590232849121094,4.078566074371338
1710891166088895700,10.708895751953126,-2.159522533416748,-8.731410026550293,3.5676984786987305
1710891166107856100,10.727856201171875,-2.5124638080596924,-9.072386741638184,3.7016966342926025
1710891166126816500,10.74681640625,-2.7493531703948975,-9.471988677978516,4.036691665649414
1710891166145777200,10.765777099609375,-1.9166508913040161,-9.290133476257324,4.139583110809326
1710891166164737500,10.784737548828126,-1.5290136337280273,-8.81515884399414,4.660022258758545
1710891166183698000,10.803697998046875,-1.8161523342132568,-8.623732566833496,5.243870735168457
1710891166202658300,10.822658203125,-1.7024933099746704,-8.679964065551758,5.571687698364258
1710891166221619000,10.841618896484375,-1.5002998113632202,-8.46580696105957,5.767899036407471
1710891166240579300,10.860579345703124,-1.5146567821502686,-8.208578109741211,5.539384365081787
1710891166259539700,10.879539794921875,-1.8843477964401245,-8.310273170471191,5.0225348472595215
1710891166278500000,10.8985,-1.9752750396728516,-8.48734188079834,4.589433670043945
1710891166297460700,10.917460693359375,-1.5302101373672485,-8.6967134475708,4.321437835693359
1710891166316421000,10.936421142578125,-1.4787644147872925,-8.693124771118164,4.673182487487793
1710891166335381800,10.9553818359375,-1.8089739084243774,-9.001798629760742,4.734199523925781
1710891166354342100,10.974342041015625,-1.5194423198699951,-9.128618240356445,4.278367042541504
1710891166373302500,10.993302490234376,-1.1030912399291992,-9.18006420135498,3.8775691986083984
1710891166392263000,11.012262939453125,-1.0683952569961548,-8.847461700439453,3.680161237716675
1710891166411223600,11.0312236328125,-1.0971091985702515,-8.693124771118164,3.5294134616851807
1710891166430184000,11.050183837890625,-1.2167502641677856,-8.858229637145996,3.352344512939453
1710891166449144300,11.069144287109374,-1.6606189012527466,-9.06401252746582,3.726821184158325
1710891166468105000,11.08810498046875,-2.4083759784698486,-9.190832138061523,4.1970109939575195
1710891166487065300,11.1070654296875,-2.7038896083831787,-9.248259544372559,4.619344234466553
1710891166506025700,11.126025634765625,-2.4849462509155273,-9.160921096801758,4.941178798675537
1710891166524986400,11.144986328125,-1.9597218036651611,-8.858229637145996,4.906482696533203
1710891166543946800,11.16394677734375,-1.456032633781433,-8.514859199523926,4.722235679626465
1710891166562907100,11.1829072265625,-1.0432707071304321,-8.482556343078613,4.742574691772461
1710891166581867800,11.20186767578125,-0.6484549641609192,-8.519644737243652,4.974678039550781
1710891166600828200,11.220828125,-0.4618147611618042,-8.606983184814453,5.231906890869141
1710891166619788500,11.23978857421875,-0.6759724020957947,-8.959924697875977,5.230710506439209
1710891166638749000,11.2587490234375,-1.042074203491211,-8.98385238647461,4.8538408279418945
1710891166657709600,11.27770947265625,-1.3256237506866455,-8.446663856506348,4.315455436706543
1710891166676670000,11.296669921875,-1.3567304611206055,-8.664410591125488,3.9050865173339844
1710891166695630600,11.315630615234374,-1.211964726448059,-9.497113227844238,3.431307554244995
1710891166714591000,11.334591064453125,-1.3184453248977661,-9.415757179260254,3.493520975112915
1710891166733551400,11.35355126953125,-1.3710874319076538,-8.8438720703125,3.7387852668762207
1710891166752511700,11.37251171875,-1.293320655822754,-9.10229778289795,3.8368911743164062
1710891166771472400,11.391472412109374,-1.168893814086914,-9.250652313232422,3.954139471054077
1710891166790432800,11.410432861328125,-1.1042876243591309,-9.032905578613281,4.334598064422607
1710891166809393400,11.429393310546875,-0.7334001660346985,-8.646464347839355,4.563112735748291
1710891166828353800,11.448353759765626,-0.5814558863639832,-8.796015739440918,4.516452789306641
1710891166847314200,11.467314208984375,-0.5515456199645996,-9.235098838806152,4.380061626434326
1710891166866274600,11.486274658203126,-0.7728816866874695,-9.000602722167969,4.388436794281006
1710891166885235200,11.505235107421875,-0.9391828775405884,-8.910871505737305,4.451846599578857
1710891166904195600,11.524195556640626,-0.9080761671066284,-9.040083885192871,4.432703971862793
1710891166923156200,11.54315625,-1.031306505203247,-8.882157325744629,4.213760852813721
1710891166942116600,11.56211669921875,-1.277767300605774,-8.831908226013184,4.1144585609436035
1710891166961077000,11.581076904296875,-1.1365907192230225,-9.059226989746094,4.048655986785889
1710891166980037600,11.60003759765625,-0.8865407705307007,-9.110671997070312,3.9014973640441895
1710891166998998000,11.618998046875,-1.1114661693572998,-8.916853904724121,3.869194269180298
1710891167017958700,11.637958740234374,-1.2681959867477417,-9.049654960632324,3.85483717918396
1710891167036919000,11.6569189453125,-1.1162517070770264,-9.123832702636719,3.809373617172241
1710891167055879400,11.67587939453125,-1.0001999139785767,-9.152546882629395,3.8392839431762695
1710891167074839800,11.69483984375,-1.0504491329193115,-9.09272575378418,3.9038901329040527
1710891167093800400,11.713800537109375,-1.1030912399291992,-8.974281311035156,4.063013076782227
1710891167112760800,11.7327607421875,-0.914058268070221,-8.798408508300781,4.18863582611084
1710891167131721500,11.751721435546875,-0.7872386574745178,-8.82233715057373,4.177868366241455
1710891167150681900,11.770681884765626,-0.7381857633590698,-8.888139724731445,4.2484564781188965
1710891167169642500,11.789642578125,-0.8075776696205139,-8.885746955871582,4.408775806427002
1710891167188603000,11.808602783203124,-0.9092726111412048,-8.846264839172363,4.387240409851074
1710891167207563300,11.827563232421875,-1.0001999139785767,-8.865407943725586,4.321437835693359
1710891167226524000,11.84652392578125,-0.9655039310455322,-8.986245155334473,4.2723846435546875
1710891167245484300,11.865484375,-0.9523434042930603,-8.907281875610352,4.321437835693359
1710891167264444700,11.884444580078124,-1.0241280794143677,-8.920442581176758,4.30588436126709
1710891167283405300,11.9034052734375,-1.109073281288147,-8.96829891204834,4.247260093688965
1710891167302365700,11.92236572265625,-1.1066805124282837,-9.053244590759277,4.071387767791748
1710891167321326300,11.941326416015626,-1.1593226194381714,-9.007781028747559,3.9828531742095947
1710891167340286700,11.96028662109375,-1.3076776266098022,-9.014959335327148,4.034298896789551
1710891167359247000,11.9792470703125,-1.3160524368286133,-9.016156196594238,4.004388809204102
1710891167378207700,11.998207763671875,-1.2179467678070068,-9.09990406036377,3.78544545173645
1710891167397168000,12.017168212890626,-1.0971091985702515,-9.10229778289795,3.6837503910064697
1710891167416128500,12.03612841796875,-0.9822536706924438,-9.022137641906738,3.8225340843200684
1710891167435089200,12.055089111328124,-0.885344386100769,-8.921639442443848,4.265206336975098
1710891167454049800,12.0740498046875,-0.6831508874893188,-8.837890625,4.5822553634643555
1710891167473010200,12.09301025390625,-0.6400800347328186,-8.763712882995605,4.615755081176758
1710891167491970600,12.111970458984375,-0.6675975322723389,-8.873783111572266,4.537988185882568
1710891167510931200,12.13093115234375,-0.8793623447418213,-8.799605369567871,4.439882278442383
1710891167529891600,12.1498916015625,-0.9391828775405884,-8.921639442443848,4.34536600112915
1710891167548852000,12.16885205078125,-0.8805587291717529,-8.959924697875977,4.252045631408691
1710891167567812600,12.1878125,-0.8506484627723694,-8.828319549560547,4.2795634269714355
1710891167586773000,12.20677294921875,-0.8267202377319336,-8.874979019165039,4.315455436706543
1710891167605733600,12.225733642578126,-0.7501499056816101,-8.993423461914062,4.2556352615356445
1710891167624694000,12.244694091796875,-0.8554341197013855,-8.95394229888916,4.176671981811523
1710891167643654700,12.263654541015624,-0.9379864931106567,-8.97787094116211,4.076173305511475
1710891167662615000,12.282614990234375,-1.0289137363433838,-9.011369705200195,3.8811583518981934
1710891167681575700,12.30157568359375,-1.29810631275177,-9.21834945678711,3.6909289360046387
1710891167700536000,12.3205361328125,-1.4057832956314087,-9.157332420349121,3.5772697925567627
1710891167719496400,12.339496337890624,-1.3124631643295288,-8.993423461914062,3.6681971549987793
1710891167738457000,12.35845703125,-1.207179069519043,-9.068798065185547,3.844069480895996
1710891167757417500,12.37741748046875,-1.0887342691421509,-9.081958770751953,4.125226020812988
1710891167776378000,12.396378173828126,-0.9583254456520081,-8.817551612854004,4.405186653137207
1710891167795338500,12.41533837890625,-0.8817551732063293,-8.695517539978027,4.54636287689209
1710891167814299100,12.434299072265626,-0.833898663520813,-8.96949577331543,4.505684852600098
1710891167833259500,12.453259521484375,-0.8530412912368774,-9.061619758605957,4.460221290588379
1710891167852220200,12.47222021484375,-0.8374879360198975,-8.762516975402832,4.350151538848877
1710891167871180500,12.4911806640625,-0.8470591902732849,-8.758927345275879,4.225724697113037
1710891167890141200,12.51014111328125,-0.8973084688186646,-9.08554744720459,4.131208419799805
1710891167909101600,12.5291015625,-0.9607182741165161,-9.06999397277832,4.094119548797607
1710891167928062000,12.54806201171875,-0.9918249845504761,-8.849854469299316,4.086941242218018
1710891167947022600,12.567022705078125,-0.8781659007072449,-8.897710800170898,4.098905086517334
1710891167965983200,12.585983154296875,-0.8003991842269897,-9.008976936340332,4.163511276245117
1710891167984943600,12.604943603515625,-0.8793623447418213,-8.979066848754883,4.329812526702881
1710891168003904300,12.623904296875,-0.9343972206115723,-8.924032211303711,4.395615100860596
1710891168022864600,12.64286474609375,-0.9595218896865845,-8.889336585998535,4.292723655700684
1710891168041825000,12.661824951171875,-0.9523434042930603,-8.975478172302246,4.11206579208374
1710891168060785700,12.68078564453125,-0.9930213689804077,-9.026923179626465,4.00319242477417
1710891168079746000,12.69974609375,-0.9152546525001526,-8.96949577331543,4.01037073135376
1710891168098706700,12.718706787109374,-0.9236295223236084,-8.965906143188477,4.013959884643555
1710891168117667000,12.7376669921875,-0.8458628058433533,-8.873783111572266,4.098905086517334
1710891168136627700,12.756627685546874,-0.7668996453285217,-8.85224723815918,4.277170658111572
1710891168155588000,12.775588134765625,-0.7692924737930298,-9.061619758605957,4.415954113006592
1710891168174548700,12.794548828125,-0.9607182741165161,-8.828319549560547,4.460221290588379
1710891168193509400,12.81350927734375,-0.9846464991569519,-8.824729919433594,4.278367042541504
1710891168212469800,12.8324697265625,-0.9559326171875,-9.138189315795898,4.061816215515137
1710891168231430100,12.85143017578125,-1.0133603811264038,-9.038887977600098,3.9122650623321533
1710891168250390800,12.870390869140625,-0.9308080077171326,-8.885746955871582,3.964907169342041
1710891168269351200,12.88935107421875,-0.8255237936973572,-9.028120040893555,4.0833516120910645
1710891168288311800,12.908311767578125,-0.9176474809646606,-9.031708717346191,4.287938117980957
1710891168307272200,12.927272216796876,-1.1353943347930908,-8.915657043457031,4.588237285614014
1710891168326232800,12.94623291015625,-1.1186445951461792,-9.026923179626465,4.66361141204834
1710891168345193200,12.965193115234374,-0.8578268885612488,-8.83669376373291,4.398007869720459
1710891168364153900,12.98415380859375,-0.8458628058433533,-8.769695281982422,4.043870449066162
1710891168383114200,13.0031142578125,-0.9595218896865845,-9.10827922821045,3.8572301864624023
1710891168402075000,13.022074951171875,-0.9858429431915283,-9.117850303649902,3.9314076900482178
1710891168421035500,13.041035400390625,-0.9343972206115723,-8.824729919433594,4.085744857788086
1710891168439996000,13.059995849609376,-0.8027920126914978,-8.907281875610352,4.182653903961182
1710891168458956500,13.07895654296875,-0.8267202377319336,-9.134600639343262,4.2723846435546875
1710891168477917000,13.0979169921875,-0.9571290612220764,-8.825926780700684,4.438685894012451
1710891168496877600,13.116877685546875,-0.9535398483276367,-8.742177963256836,4.47697114944458
1710891168515838000,13.135837890625,-0.8446664214134216,-8.992227554321289,4.41475772857666
1710891168534798300,13.15479833984375,-0.8697910308837891,-9.011369705200195,4.4243292808532715
1710891168553759000,13.173759033203124,-0.8578268885612488,-8.82951545715332,4.390829563140869
1710891168572719400,13.19271923828125,-0.8434699773788452,-8.84506893157959,4.218546390533447
1710891168591680000,13.211679931640624,-0.8662018179893494,-9.144171714782715,4.0666022300720215
1710891168610640600,13.230640625,-1.0205388069152832,-8.998209953308105,4.015156269073486
1710891168629601000,13.24960107421875,-0.9918249845504761,-8.80798053741455,4.085744857788086
1710891168648561700,13.268561767578126,-0.8685946464538574,-8.950352668762207,4.159922122955322
1710891168667522000,13.28752197265625,-0.8434699773788452,-9.013762474060059,4.208974838256836
1710891168686482700,13.306482666015626,-1.0037890672683716,-8.96829891204834,4.2831525802612305
1710891168705443000,13.325443115234375,-1.0013962984085083,-8.915657043457031,4.296313285827637
1710891168724403700,13.34440380859375,-0.8243274092674255,-8.918049812316895,4.222135543823242
1710891168743364000,13.363364013671875,-0.7992027401924133,-9.014959335327148,4.145565032958984
1710891168762324700,13.38232470703125,-0.8973084688186646,-9.018548965454102,4.073780536651611
1710891168781285000,13.40128515625,-0.9176474809646606,-8.922835350036621,4.091726779937744
1710891168800245800,13.420245849609374,-0.8446664214134216,-8.8438720703125,4.2006001472473145
1710891168819206100,13.4392060546875,-0.778863787651062,-9.014959335327148,4.249652862548828
1710891168838166800,13.458166748046875,-0.7968099117279053,-9.087940216064453,4.231706619262695
1710891168857127200,13.477127197265625,-0.8865407705307007,-8.896514892578125,4.207778453826904
1710891168876087800,13.496087890625,-0.8398807644844055,-8.86660385131836,4.204189300537109
1710891168895048400,13.51504833984375,-0.7166503667831421,-9.011369705200195,4.12761926651001
1710891168914008800,13.5340087890625,-0.7441678643226624,-8.903693199157715,4.2281174659729
1710891168932969500,13.552969482421876,-0.8171489238739014,-8.7505521774292,4.3896331787109375
1710891168951929900,13.571929931640625,-0.8075776696205139,-8.890532493591309,4.409972190856934
1710891168970890500,13.590890380859374,-0.8195417523384094,-8.971888542175293,4.386044025421143
1710891168989851000,13.609850830078125,-0.9212366938591003,-8.943174362182617,4.325026988983154
1710891169008811500,13.6288115234375,-0.9475577473640442,-8.82951545715332,4.328616142272949
1710891169027772000,13.64777197265625,-0.916451096534729,-8.892925262451172,4.325026988983154
1710891169046732500,13.666732666015625,-0.9068797826766968,-9.046066284179688,4.2987060546875
1710891169065693000,13.68569287109375,-0.8925228714942932,-8.861818313598633,4.266402721405029
1710891169084653600,13.704653564453125,-0.8171489238739014,-8.801998138427734,4.2209391593933105
1710891169103614000,13.723614013671876,-0.7585247755050659,-9.049654960632324,4.11206579208374
1710891169122574600,13.74257470703125,-0.7848458290100098,-9.04845905303955,4.067798614501953
1710891169141535000,13.761534912109376,-0.9260223507881165,-8.805587768554688,4.106083869934082
1710891169160495600,13.78049560546875,-0.8662018179893494,-8.906085968017578,4.17427921295166
1710891169179456000,13.7994560546875,-0.7537391185760498,-9.068798065185547,4.177868366241455
1710891169198416600,13.818416748046875,-0.8123632669448853,-8.971888542175293,4.291527271270752
1710891169217377000,13.837376953125,-0.9104689955711365,-8.769695281982422,4.344169616699219
1710891169236337700,13.856337646484375,-0.8075776696205139,-8.901300430297852,4.348955154418945
1710891169255298000,13.875298095703124,-0.727418065071106,-8.940781593322754,4.302295207977295
1710891169274258700,13.8942587890625,-0.8482556343078613,-8.85224723815918,4.303491592407227
1710891169293219000,13.913218994140625,-0.9044869542121887,-8.901300430297852,4.327419757843018
1710891169312179700,13.9321796875,-0.8458628058433533,-8.921639442443848,4.449453830718994
1710891169331140000,13.95114013671875,-0.8159525394439697,-8.872586250305176,4.518845558166504
1710891169350100700,13.970100830078126,-0.8099704384803772,-8.883354187011719,4.427918434143066
1710891169369061000,13.98906103515625,-0.7980063557624817,-8.941978454589844,4.267599105834961
1710891169388021800,14.008021728515626,-0.8446664214134216,-8.910871505737305,4.106083869934082
1710891169406982100,14.026982177734375,-0.9056833982467651,-8.86660385131836,3.9948174953460693
1710891169425942800,14.04594287109375,-0.9858429431915283,-8.935996055603027,3.8979079723358154
1710891169444903200,14.064903076171875,-1.0396814346313477,-9.050851821899414,3.865604877471924
1710891169463863800,14.08386376953125,-1.0193424224853516,-9.148957252502441,3.930211305618286
1710891169482824200,14.10282421875,-0.9116654396057129,-8.921639442443848,4.015156269073486
1710891169501784800,14.121784912109375,-0.7956135272979736,-8.7505521774292,4.092923164367676
1710891169520745200,14.1407451171875,-0.7238288521766663,-8.896514892578125,4.242474555969238
1710891169539705600,14.15970556640625,-0.776470959186554,-8.980263710021973,4.328616142272949
1710891169558666200,14.178666259765626,-0.9475577473640442,-8.801998138427734,4.426722049713135
1710891169577627000,14.197626953125,-1.109073281288147,-8.817551612854004,4.475774765014648
1710891169596587300,14.216587158203126,-1.2203395366668701,-8.987442016601562,4.445864677429199
1710891169615548000,14.2355478515625,-1.333998680114746,-9.016156196594238,4.328616142272949
1710891169634508300,14.25450830078125,-1.444068431854248,-8.989834785461426,4.206582069396973
1710891169653468700,14.27346875,-1.4368900060653687,-9.09392261505127,3.999603033065796
1710891169672429300,14.29242919921875,-1.3806586265563965,-9.110671997070312,3.8009986877441406
1710891169691389700,14.3113896484375,-1.2538390159606934,-9.151350021362305,3.710071563720703
1710891169710350300,14.330350341796875,-1.1988041400909424,-9.09272575378418,3.649054527282715
1710891169729310700,14.349310791015625,-1.0959128141403198,-9.011369705200195,3.662214994430542
1710891169748271400,14.368271240234375,-1.007378339767456,-9.010173797607422,3.896711587905884
1710891169767231700,14.387231689453126,-0.9104689955711365,-9.105886459350586,4.168296813964844
1710891169786192400,14.4061923828125,-0.9643075466156006,-8.979066848754883,4.394418716430664
1710891169805152800,14.42515283203125,-1.0205388069152832,-8.861818313598633,4.506881237030029
1710891169824113200,14.444113037109375,-0.9978070259094238,-8.818747520446777,4.474578380584717
1710891169843073800,14.46307373046875,-0.9056833982467651,-8.925228118896484,4.392025947570801
1710891169862034200,14.4820341796875,-0.8087740540504456,-8.858229637145996,4.3178486824035645
1710891169880994600,14.50099462890625,-0.7860422134399414,-8.895318031311035,4.218546390533447
1710891169899955200,14.519955078125,-0.8147560954093933,-9.136993408203125,4.1144585609436035
1710891169918915800,14.538915771484374,-0.9750752449035645,-9.04845905303955,4.01037073135376
1710891169937876200,14.557876220703125,-1.1318050622940063,-8.947959899902344,3.961317777633667
1710891169956836600,14.576836669921875,-1.1030912399291992,-9.019744873046875,3.950550079345703
1710891169975797200,14.59579736328125,-1.0325030088424683,-9.291330337524414,3.9122650623321533
1710891169994757600,14.614757568359375,-1.0564311742782593,-9.029315948486328,3.964907169342041
1710891170013718000,14.633718017578126,-1.1676974296569824,-8.742177963256836,4.071387767791748
1710891170032678700,14.6526787109375,-1.1772687435150146,-8.989834785461426,4.043870449066162
1710891170051639000,14.67163916015625,-1.1569297313690186,-9.177671432495117,3.8835511207580566
1710891170070599700,14.690599609375,-1.1282159090042114,-8.97787094116211,3.726821184158325
1710891170089560000,14.70956005859375,-1.0097711086273193,-8.828319549560547,3.779463291168213
1710891170108520400,14.7285205078125,-0.7860422134399414,-9.065208435058594,4.067798614501953
1710891170127481000,14.747481201171874,-0.7238288521766663,-9.166903495788574,4.540380954742432
1710891170146441500,14.76644140625,-0.7381857633590698,-8.767302513122559,4.849055290222168
1710891170165401900,14.78540185546875,-0.7728816866874695,-8.599804878234863,4.816751956939697
1710891170184362500,14.804362548828125,-0.7178468108177185,-8.784051895141602,4.564309120178223
1710891170203323000,14.823322998046875,-0.8769695162773132,-9.022137641906738,4.320241451263428
1710891170222283500,14.842283447265626,-0.9846464991569519,-9.018548965454102,4.274777889251709
1710891170241244000,14.861243896484375,-0.8793623447418213,-8.94556713104248,4.151547431945801
1710891170260204300,14.880204345703126,-0.8757730722427368,-8.9850492477417,4.252045631408691
1710891170279165000,14.8991650390625,-1.0336993932724,-8.895318031311035,4.515256404876709
1710891170298125300,14.918125244140626,-1.160519003868103,-8.819944381713867,4.612165451049805
1710891170317086000,14.9370859375,-1.057627558708191,-8.883354187011719,4.548755645751953
1710891170336046300,14.95604638671875,-1.0995019674301147,-9.007781028747559,4.402793884277344
1710891170355006700,14.9750068359375,-1.4141582250595093,-8.965906143188477,4.1623148918151855
1710891170373967000,14.993967041015624,-1.648654818534851,-8.93838882446289,3.7746777534484863
1710891170392927700,15.012927734375,-1.6654045581817627,-9.153742790222168,3.452843189239502
1710891170411888000,15.03188818359375,-1.659422516822815,-9.340383529663086,3.126222848892212
1710891170430848500,15.0508486328125,-1.667797327041626,-9.138189315795898,2.991028308868408
1710891170449809200,15.06980908203125,-1.7324036359786987,-9.067601203918457,3.0077781677246094
1710891170468769500,15.08876953125,-1.801795482635498,-9.292527198791504,3.10109806060791
1710891170487730000,15.10772998046875,-1.755135416984558,-9.20997428894043,3.2554352283477783
1710891170506690600,15.126690673828126,-1.6654045581817627,-9.040083885192871,3.4301111698150635
1710891170525651000,15.14565087890625,-1.573280930519104,-9.107083320617676,3.4672000408172607
1710891170544611300,15.164611328125,-1.4835500717163086,-9.2255277633667,3.5054850578308105
1710891170563572000,15.183572021484375,-1.3399807214736938,-9.19442081451416,3.6047873497009277
1710891170582532400,15.202532470703124,-1.2191431522369385,-8.959924697875977,3.775874137878418
1710891170601492700,15.22149267578125,-1.113858938217163,-8.891729354858398,4.067798614501953
1710891170620453000,15.240453125,-1.0552347898483276,-9.018548965454102,4.327419757843018
1710891170639413800,15.259413818359375,-1.0887342691421509,-8.998209953308105,4.462614059448242
1710891170658374100,15.2783740234375,-1.1174482107162476,-8.737391471862793,4.638486862182617
1710891170677334500,15.29733447265625,-1.0456634759902954,-8.877371788024902,4.8191447257995605
1710891170696295200,15.316295166015625,-0.8410771489143372,-8.84506893157959,4.813162803649902
1710891170715255600,15.335255615234376,-0.7848458290100098,-8.59621524810791,4.570291042327881
1710891170734216000,15.3542158203125,-0.833898663520813,-8.806783676147461,4.342973232269287
1710891170753176600,15.373176513671876,-0.9451649188995361,-9.121439933776855,4.256831645965576
1710891170772137000,15.392136962890625,-1.1617153882980347,-9.002995491027832,4.332205295562744
1710891170791097300,15.411097412109376,-1.3902299404144287,-8.800801277160645,4.438685894012451
1710891170810057700,15.4300576171875,-1.4799607992172241,-8.949156761169434,4.455435752868652
1710891170829018000,15.44901806640625,-1.4476577043533325,-9.10827922821045,4.303491592407227
1710891170847978800,15.467978759765625,-1.4105689525604248,-8.921639442443848,4.163511276245117
1710891170866939100,15.486939208984374,-1.2275179624557495,-9.019744873046875,3.988835334777832
1710891170885899500,15.5058994140625,-1.0755738019943237,-9.133403778076172,3.9565322399139404
1710891170904860000,15.52485986328125,-1.1808580160140991,-9.031708717346191,3.944568157196045
1710891170923820300,15.5438203125,-1.4679967164993286,-9.050851821899414,3.744767427444458
1710891170942781000,15.562781005859375,-1.6462619304656982,-9.059226989746094,3.4791641235351562
1710891170961741300,15.5817412109375,-1.797009825706482,-9.163313865661621,3.2350962162017822
1710891170980701700,15.60070166015625,-1.794616937637329,-9.418149948120117,3.128615617752075
1710891170999662300,15.619662353515626,-1.6498512029647827,-9.469595909118652,3.077169895172119
1710891171018622700,15.638622802734375,-1.4069796800613403,-9.34875774383545,3.142972469329834
1710891171037583000,15.6575830078125,-1.0241280794143677,-8.986245155334473,3.48993182182312
1710891171056543500,15.67654345703125,-0.6951149702072144,-8.884550094604492,3.8321053981781006
1710891171075503900,15.69550390625,-0.6484549641609192,-9.046066284179688,4.213760852813721
1710891171094464500,15.714464599609375,-0.5862415432929993,-8.868997573852539,4.613361835479736
1710891171113425000,15.7334248046875,-0.605384111404419,-8.715856552124023,4.7988057136535645
1710891171132385300,15.75238525390625,-0.6484549641609192,-8.739784240722656,4.735395908355713
1710891171151345700,15.771345703125,-0.6017948985099792,-8.975478172302246,4.651647090911865
1710891171170306000,15.79030615234375,-0.6472585201263428,-8.864211082458496,4.53200626373291
1710891171189266400,15.809266357421874,-0.6329016089439392,-8.831908226013184,4.4135613441467285
1710891171208227000,15.82822705078125,-0.747757077217102,-8.925228118896484,4.29033088684082
1710891171227187500,15.8471875,-0.7357929348945618,-8.819944381713867,4.387240409851074
1710891171246147800,15.86614794921875,-0.7405785918235779,-8.94556713104248,4.444668292999268
1710891171265108200,15.885108154296875,-0.8195417523384094,-9.007781028747559,4.346562385559082
1710891171284068900,15.90406884765625,-0.9128618240356445,-9.028120040893555,4.019941806793213
1710891171303029200,15.923029296875,-1.200000524520874,-9.059226989746094,3.665804386138916
1710891171321989600,15.94198974609375,-1.3208380937576294,-9.205188751220703,3.5150563716888428
1710891171340950000,15.960949951171875,-1.2454642057418823,-9.176474571228027,3.4815568923950195
1710891171359910400,15.979910400390626,-1.23589289188385,-9.120243072509766,3.4408788681030273
1710891171378871000,15.99887109375,-1.26699960231781,-9.176474571228027,3.482753276824951
1710891171397831400,16.01783154296875,-1.332802176475525,-9.196813583374023,3.566502094268799
1710891171416791800,16.036791748046873,-1.29810631275177,-9.08674430847168,3.726821184158325
1710891171435752200,16.055752197265626,-1.196411371231079,-8.950352668762207,3.91705060005188
1710891171454712600,16.074712646484375,-1.1306086778640747,-8.93838882446289,4.115654945373535
1710891171473673000,16.0936728515625,-1.0552347898483276,-9.002995491027832,4.36091947555542
1710891171492633600,16.112633544921874,-1.0683952569961548,-8.924032211303711,4.3657050132751465
1710891171511594000,16.131593994140626,-1.1724830865859985,-8.873783111572266,4.269991874694824
1710891171530554400,16.150554443359376,-1.1521440744400024,-8.934800148010254,4.238885402679443
1710891171549514800,16.1695146484375,-1.0971091985702515,-8.952746391296387,4.3657050132751465
1710891171568475100,16.18847509765625,-0.9188438653945923,-8.982656478881836,4.503292083740234
1710891171587435500,16.207435546875,-0.7680960893630981,-8.9910306930542,4.4482574462890625
1710891171606396200,16.226396240234376,-0.7501499056816101,-8.892925262451172,4.333401679992676
1710891171625356500,16.2453564453125,-0.6747759580612183,-8.847461700439453,4.326223373413086
1710891171644317000,16.26431689453125,-0.5910272002220154,-8.95513916015625,4.205385684967041
1710891171663277300,16.28327734375,-0.5838487148284912,-8.925228118896484,4.0905303955078125
1710891171682237700,16.30223779296875,-0.7657032608985901,-8.846264839172363,4.0905303955078125
1710891171701198300,16.3211982421875,-0.916451096534729,-8.959924697875977,4.356133460998535
1710891171720158700,16.34015869140625,-1.0217353105545044,-9.105886459350586,4.643272399902344
1710891171739119000,16.359119140625,-1.0432707071304321,-9.005388259887695,4.7030930519104
1710891171758079500,16.37807958984375,-1.0528420209884644,-8.883354187011719,4.426722049713135
1710891171777040000,16.397039794921874,-1.0911271572113037,-8.986245155334473,3.84765887260437
1710891171796000300,16.416000244140626,-1.1353943347930908,-9.229117393493652,3.3092737197875977
1710891171814960600,16.434960693359375,-1.207179069519043,-9.273384094238281,2.981456995010376
1710891171833921300,16.45392138671875,-1.2335001230239868,-9.075976371765137,3.0245277881622314
1710891171852881700,16.472881591796874,-1.215553879737854,-9.089137077331543,3.342773199081421
1710891171871842000,16.491842041015627,-1.1234302520751953,-9.128618240356445,3.5533416271209717
1710891171890802400,16.510802490234376,-1.2023934125900269,-9.123832702636719,3.8261234760284424
1710891171909762800,16.5297626953125,-1.2526426315307617,-9.107083320617676,4.18145751953125
1710891171928723200,16.54872314453125,-1.1665010452270508,-8.999405860900879,4.423132419586182
1710891171947683800,16.567683837890623,-1.0660024881362915,-8.842676162719727,4.518845558166504
1710891171966644200,16.586644287109376,-0.9930213689804077,-8.847461700439453,4.451846599578857
1710891171985604600,16.6056044921875,-0.9080761671066284,-8.999405860900879,4.286741733551025
1710891172004565000,16.62456494140625,-0.8542376756668091,-8.980263710021973,4.177868366241455
1710891172023525600,16.643525634765624,-0.8470591902732849,-8.889336585998535,4.143172264099121
1710891172042486000,16.662486083984376,-0.8015955686569214,-8.903693199157715,4.122833251953125
1710891172061446400,16.6814462890625,-0.8458628058433533,-9.066405296325684,4.061816215515137
1710891172080406800,16.70040673828125,-0.9296116232872009,-9.089137077331543,4.006781578063965
1710891172099367200,16.7193671875,-0.9643075466156006,-9.034101486206055,3.975674867630005
1710891172118327800,16.738327880859377,-0.8757730722427368,-8.93958568572998,4.030709743499756
1710891172137288200,16.7572880859375,-0.8997012972831726,-8.857032775878906,4.1144585609436035
1710891172156248600,16.77624853515625,-1.0456634759902954,-9.05563735961914,4.059423446655273
1710891172175209000,16.795208984375,-1.0492527484893799,-8.997013092041016,4.013959884643555
1710891172194169300,16.81416943359375,-0.9966106414794922,-8.970691680908203,4.070191383361816
1710891172213129700,16.833129638671874,-0.9308080077171326,-9.132207870483398,4.1144585609436035
1710891172232090400,16.85209033203125,-0.9858429431915283,-9.140582084655762,4.092923164367676
1710891172251050800,16.87105078125,-1.1282159090042114,-8.870193481445312,4.000799655914307
1710891172270011100,16.89001123046875,-1.1808580160140991,-8.85224723815918,3.8739798069000244
1710891172288971500,16.908971435546874,-1.1114661693572998,-9.198010444641113,3.7914273738861084
1710891172307932000,16.927931884765623,-1.0600204467773438,-9.177671432495117,3.871587038040161
1710891172326892300,16.946892333984376,-1.0887342691421509,-8.951549530029297,3.9912281036376953
1710891172345853000,16.96585302734375,-1.1425727605819702,-8.992227554321289,4.052245140075684
1710891172364813300,16.984813232421875,-1.0887342691421509,-9.17288589477539,4.011567115783691
1710891172383773700,17.003773681640624,-1.1078768968582153,-9.07717227935791,4.034298896789551
1710891172402734000,17.022734130859376,-1.0719845294952393,-8.921639442443848,4.01037073135376
1710891172421694500,17.041694580078126,-0.9762716293334961,-8.96829891204834,3.920639991760254
1710891172440655000,17.060655029296875,-0.8793623447418213,-9.169296264648438,3.8811583518981934
1710891172459615500,17.079615478515624,-0.8877372145652771,-9.008976936340332,3.9290146827697754
1710891172478575900,17.098575927734377,-0.8913264274597168,-8.915657043457031,3.9840497970581055
1710891172497536300,17.117536376953126,-0.8973084688186646,-9.014959335327148,4.035495281219482
1710891172516497000,17.136496826171875,-0.9583254456520081,-9.053244590759277,4.176671981811523
1710891172535457300,17.155457275390624,-1.046859860420227,-9.059226989746094,4.418346881866455
1710891172554417700,17.174417724609373,-0.9272187948226929,-8.708678245544434,4.6372904777526855
1710891172573378000,17.1933779296875,-0.46420758962631226,-8.679964065551758,4.4135613441467285
1710891172592338400,17.21233837890625,-0.22372891008853912,-8.989834785461426,4.2723846435546875
1710891172611299000,17.231299072265625,-0.8709874153137207,-8.982656478881836,4.400400638580322
1710891172630259500,17.250259521484374,-1.4799607992172241,-8.96949577331543,4.241278171539307
1710891172649219800,17.2692197265625,-1.5565310716629028,-9.129815101623535,3.765106439590454
1710891172668180200,17.28818017578125,-1.1856436729431152,-9.32602596282959,3.5437703132629395
1710891172687140900,17.307140869140625,-1.1126625537872314,-9.07119083404541,3.845266103744507
1710891172706101200,17.326101318359374,-1.0648061037063599,-8.970691680908203,4.027120590209961
1710891172725061600,17.3450615234375,-0.9272187948226929,-8.94676399230957,3.9601213932037354
1710891172744022300,17.364022216796876,-0.9595218896865845,-8.918049812316895,3.882354736328125
1710891172762982700,17.382982666015625,-1.1222338676452637,-9.073583602905273,3.91705060005188
1710891172781943000,17.401943115234374,-1.290927767753601,-9.20159912109375,3.964907169342041
1710891172800903400,17.4209033203125,-1.2526426315307617,-9.043673515319824,3.9314076900482178
1710891172819864000,17.439864013671876,-1.0827522277832031,-8.95513916015625,3.858426570892334
1710891172838824400,17.458824462890625,-0.97148597240448,-9.111868858337402,4.074976921081543
1710891172857784800,17.477784912109374,-0.9475577473640442,-9.029315948486328,4.3657050132751465
1710891172876745200,17.4967451171875,-0.8769695162773132,-8.70628547668457,4.40757942199707
1710891172895705600,17.51570556640625,-0.6520441770553589,-8.902496337890625,4.342973232269287
1710891172914666200,17.534666259765626,-0.6556333899497986,-9.007781028747559,4.311866283416748
1710891172933626600,17.553626708984375,-0.8063812255859375,-8.98385238647461,4.1623148918151855
1710891172952587000,17.5725869140625,-0.9918249845504761,-8.970691680908203,4.051048755645752
1710891172971547400,17.59154736328125,-1.038485050201416,-9.09990406036377,3.999603033065796
1710891172990508000,17.610508056640626,-0.9499505758285522,-9.065208435058594,4.034298896789551
1710891173009468400,17.629468505859375,-0.867398202419281,-8.901300430297852,4.053441524505615
1710891173028428800,17.6484287109375,-0.9367900490760803,-8.950352668762207,4.060619831085205
1710891173047389200,17.66738916015625,-0.9439685344696045,-9.111868858337402,4.107280254364014
1710891173066349800,17.686349853515626,-0.9559326171875,-8.975478172302246,4.0666022300720215
1710891173085310200,17.705310302734375,-0.9690931439399719,-8.879764556884766,4.054637908935547
1710891173104270600,17.7242705078125,-0.9248259663581848,-9.08554744720459,3.957728624343872
1710891173123231200,17.743231201171874,-1.0121639966964722,-9.058030128479004,3.946960926055908
1710891173142191600,17.762191650390626,-1.1210373640060425,-8.981459617614746,4.01037073135376
1710891173161152000,17.781152099609375,-1.1377872228622437,-8.988637924194336,4.0905303955078125
1710891173180112400,17.8001123046875,-1.0277173519134521,-8.97787094116211,4.137190341949463
1710891173199073000,17.819072998046874,-1.0432707071304321,-9.044869422912598,4.097708702087402
1710891173218033400,17.838033447265627,-1.1150553226470947,-8.964710235595703,4.187439441680908
1710891173236993800,17.856993896484376,-1.3244273662567139,-8.863015174865723,4.230510234832764
1710891173255954200,17.8759541015625,-0.9116654396057129,-9.041280746459961,4.475774765014648
1710891173274914800,17.894914794921874,-0.7812566161155701,-9.087940216064453,4.418346881866455
1710891173293875200,17.913875244140623,-1.022931694984436,-8.912068367004395,4.133601188659668
1710891173312835800,17.9328359375,-1.144965648651123,-8.874979019165039,3.9840497970581055
1710891173331796200,17.951796142578125,-0.9056833982467651,-9.012566566467285,3.812962770462036
1710891173350756600,17.970756591796874,-0.7310073375701904,-9.065208435058594,3.7423746585845947
1710891173369717000,17.989717041015624,-1.1341979503631592,-9.18006420135498,3.7842490673065186
1710891173388677400,18.008677490234376,-1.3722838163375854,-9.20159912109375,4.059423446655273
1710891173407638000,18.027637939453125,-1.3112667798995972,-9.023334503173828,4.315455436706543
1710891173426598400,18.046598388671875,-1.085145115852356,-8.871390342712402,4.551148891448975
1710891173445558800,18.065558837890624,-0.8207381963729858,-8.799605369567871,4.621737003326416
1710891173464519400,18.08451953125,-0.8183453679084778,-8.817551612854004,4.466203689575195
1710891173483479800,18.103479736328126,-0.7549355626106262,-8.786444664001465,4.2006001472473145
1710891173502440200,18.122440185546875,-0.8075776696205139,-8.9850492477417,3.896711587905884
1710891173521400800,18.14140087890625,-1.0301101207733154,-9.050851821899414,3.7639100551605225
1710891173540361200,18.160361328125,-1.191625714302063,-8.994620323181152,3.7507495880126953
1710891173559321600,18.179321533203126,-1.2370892763137817,-9.115457534790039,3.748356580734253
1710891173578282200,18.1982822265625,-1.2370892763137817,-9.153742790222168,3.8297126293182373
1710891173597242600,18.21724267578125,-1.1545369625091553,-9.012566566467285,4.186243057250977
1710891173616203000,18.236203125,-0.9834501147270203,-8.96231746673584,4.628915309906006
1710891173635163600,18.25516357421875,-0.6293123364448547,-8.768498420715332,4.870590686798096
1710891173654124000,18.2741240234375,-0.44745782017707825,-8.683553695678711,4.9124650955200195
1710891173673084400,18.29308447265625,-0.5611169338226318,-8.769695281982422,5.087141036987305
1710891173692044800,18.312044921875,-0.8685946464538574,-8.504091262817383,5.563312530517578
1710891173711005400,18.33100537109375,-1.5589239597320557,-8.423932075500488,6.477370738983154
1710891173729965800,18.3499658203125,-2.3222343921661377,-8.621339797973633,6.571887493133545
1710891173748926500,18.368926513671877,-1.404586911201477,-9.025727272033691,5.931807518005371
1710891173767886800,18.387886962890626,-0.7776673436164856,-9.036494255065918,5.406582832336426
1710891173786847200,18.40684716796875,-0.9511470198631287,-9.060422897338867,4.945964336395264
1710891173805807600,18.4258076171875,-0.05742774158716202,-8.898907661437988,2.9718856811523438
1710891173824768300,18.444768310546873,0.30987054109573364,-8.879764556884766,1.1784651279449463
1710891173843728600,18.463728759765626,-0.11246266216039658,-9.577272415161133,0.1579262912273407
1710891173862689000,18.48268896484375,-1.0157532691955566,-10.119247436523438,0.12442677468061447
1710891173881649700,18.501649658203124,-2.458625316619873,-10.320243835449219,1.3555340766906738
1710891173900610000,18.520610107421874,-2.857030153274536,-9.812965393066406,3.4552359580993652
1710891173919570400,18.5395703125,-2.724228620529175,-8.756534576416016,5.37069034576416
1710891173938530800,18.55853076171875,-0.8745766878128052,-7.824530124664307,6.471388816833496
1710891173957491500,18.577491455078125,1.2167502641677856,-7.433303356170654,6.949953556060791
1710891173976451800,18.596451904296874,1.597209095954895,-7.761120319366455,7.45364236831665
1710891173995412500,18.61541259765625,0.7286145091056824,-8.374878883361816,7.115057945251465
1710891174014372900,18.634372802734376,-0.6747759580612183,-8.83071231842041,5.682953834533691
1710891174033333200,18.653333251953125,-1.3507484197616577,-9.605986595153809,3.9840497970581055
1710891174052293600,18.672293701171874,-1.576870083808899,-9.080761909484863,3.627519130706787
1710891174071254300,18.691254150390623,-0.24287149310112,-8.61057186126709,2.68953275680542
1710891174090214700,18.710214599609376,-0.26560330390930176,-8.782855987548828,2.6572296619415283
1710891174109175300,18.72917529296875,-1.3304094076156616,-9.287740707397461,3.428914785385132
1710891174128135700,18.7481357421875,-2.018345832824707,-9.511469841003418,4.218546390533447
1710891174147096000,18.767095947265624,-2.3952155113220215,-9.645467758178711,4.78803825378418
1710891174166056400,18.786056396484376,-2.3808584213256836,-9.391828536987305,4.9435715675354
1710891174185017000,18.80501708984375,-2.012363910675049,-8.908478736877441,4.8777689933776855
1710891174203977500,18.8239775390625,-2.3844478130340576,-9.415757179260254,3.8572301864624023
1710891174222937900,18.842937744140624,-2.9312076568603516,-9.292527198791504,4.0079779624938965
1710891174241898500,18.8618984375,-3.728017568588257,-8.630910873413086,5.30847692489624
1710891174260859000,18.88085888671875,-3.834498405456543,-8.788837432861328,5.169693470001221
1710891174279819300,18.8998193359375,-3.2350962162017822,-8.338987350463867,5.461617469787598
1710891174298780000,18.91877978515625,-4.047459602355957,-7.847261905670166,6.220142364501953
1710891174317740300,18.937740234375,-3.4061830043792725,-7.69531774520874,6.0370917320251465
1710891174336700700,18.95670068359375,-3.236292600631714,-7.451249599456787,6.306283950805664
1710891174355661000,18.9756611328125,-4.018745422363281,-7.15812873840332,6.733402729034424
1710891174374621700,18.99462158203125,-3.7603209018707275,-7.033702373504639,6.893722057342529
1710891174393582000,19.01358203125,-3.6095728874206543,-7.076773166656494,6.916453838348389
1710891174412542700,19.032542724609375,-3.431307554244995,-6.740581512451172,7.226324558258057
1710891174431503000,19.051503173828124,-3.291327476501465,-6.619743824005127,7.379465103149414
1710891174450463500,19.07046337890625,-3.7986059188842773,-6.681957244873047,7.657032489776611
1710891174469423900,19.089423828125,-3.8045880794525146,-6.7106709480285645,7.424928665161133
1710891174488384300,19.10838427734375,-3.7435710430145264,-6.38165807723999,7.280162811279297
1710891174507345000,19.127344970703124,-3.410968780517578,-6.329015731811523,7.256234645843506
1710891174526305300,19.14630517578125,-3.3930225372314453,-6.130411624908447,7.423732280731201
1710891174545265700,19.165265625,-3.1549365520477295,-5.5381879806518555,7.482356548309326
1710891174564226300,19.184226318359375,-2.8223342895507812,-4.965106964111328,7.779066562652588
1710891174583186700,19.203186767578124,-3.4169507026672363,-4.979464054107666,8.177471160888672
1710891174602147000,19.22214697265625,-3.576073408126831,-5.253442287445068,8.298309326171875
1710891174621107700,19.241107666015626,-4.12761926651001,-5.107480049133301,7.916653633117676
1710891174640068000,19.260068115234375,-4.6540398597717285,-4.931607246398926,7.433303356170654
1710891174659028500,19.279028564453125,-4.631308078765869,-5.020142078399658,7.441678524017334
1710891174677988900,19.29798876953125,-3.9601213932037354,-4.180261135101318,7.939385414123535
1710891174696949200,19.31694921875,-4.403990268707275,-3.5497524738311768,8.202595710754395
1710891174715910000,19.335909912109376,-4.132404804229736,-3.9361932277679443,8.203792572021484
1710891174734870300,19.354870361328125,-4.058227062225342,-3.799802303314209,8.068597793579102
1710891174753830700,19.37383056640625,-3.902693748474121,-3.1752755641937256,8.307880401611328
1710891174772791000,19.392791015625,-3.4085757732391357,-3.159722328186035,8.890532493591309
1710891174791751700,19.411751708984376,-4.202992916107178,-3.0209386348724365,8.82951545715332
1710891174810712000,19.430712158203125,-4.130012035369873,-3.032902717590332,8.586644172668457
1710891174829672400,19.44967236328125,-3.7914273738861084,-3.095116138458252,8.672785758972168
1710891174848632800,19.4686328125,-4.346562385559082,-2.6452653408050537,8.407182693481445
1710891174867593500,19.487593505859376,-4.2987060546875,-2.372483730316162,8.657232284545898
1710891174886553900,19.506553955078125,-4.043870449066162,-2.379662036895752,8.903693199157715
1710891174905514200,19.52551416015625,-4.043870449066162,-1.8652052879333496,8.766105651855469
1710891174924474600,19.544474609375,-3.4480574131011963,-1.7072789669036865,9.005388259887695
1710891174943435300,19.563435302734376,-3.7842490673065186,-1.222732424736023,9.126225471496582
1710891174962395600,19.582395751953126,-3.9529430866241455,-1.0600204467773438,8.951549530029297
1710891174981356000,19.60135595703125,-3.5952160358428955,-0.914058268070221,9.590433120727539
1710891175000316400,19.62031640625,-4.059423446655273,-0.776470959186554,9.485149383544922
1710891175019277000,19.639277099609377,-3.8488552570343018,-0.8039883971214294,9.5533447265625
1710891175038237400,19.658237548828126,-2.644068956375122,-0.07537391036748886,10.147960662841797
1710891175057197800,19.67719775390625,-3.3655049800872803,0.8099704384803772,10.028319358825684
1710891175076158200,19.696158203125,-2.609373092651367,0.3756731450557709,9.945767402648926
1710891175095118600,19.71511865234375,-2.7900311946868896,0.34217363595962524,10.201799392700195
1710891175114079200,19.734079345703126,-2.944368362426758,0.6855437159538269,9.7998046875
1710891175133039600,19.75303955078125,-3.4923245906829834,0.865005373954773,8.776873588562012
1710891175152000000,19.772,-3.6634113788604736,0.5252245664596558,8.295916557312012
1710891175170960400,19.79096044921875,-3.2350962162017822,0.8566305041313171,8.331808090209961
1710891175189920800,19.809920654296874,-2.7326035499572754,1.4380863904953003,9.287740707397461
1710891175208881200,19.828881103515624,-1.994417667388916,1.695314884185791,10.040284156799316
1710891175227841500,19.847841552734376,-2.823530673980713,2.249253273010254,9.267401695251465
1710891175246802200,19.86680224609375,-3.3894333839416504,1.8963119983673096,8.57348346710205
1710891175265762600,19.885762451171875,-2.63449764251709,1.8317056894302368,8.449056625366211
1710891175284723000,19.904722900390624,-2.561516523361206,2.968296527862549,8.10807991027832
1710891175303683300,19.923683349609377,-2.379662036895752,3.2267212867736816,8.481359481811523
1710891175322644000,19.94264404296875,-2.142772674560547,3.4241292476654053,8.70628547668457
1710891175341604400,19.961604248046875,-2.0673987865448,3.8799619674682617,8.683553695678711
1710891175360564700,19.980564697265624,-1.537388563156128,3.789034605026245,8.873783111572266
1710891175379525000,19.999525146484373,-1.3495519161224365,4.512863636016846,8.46461009979248
1710891175398485500,20.018485595703126,-2.0889341831207275,5.044070243835449,7.913064479827881
1710891175417446000,20.03744580078125,-1.4919248819351196,4.323830604553223,8.37009334564209
1710891175436406300,20.05640625,-1.0277173519134521,4.569094657897949,8.50289535522461
1710891175455366700,20.07536669921875,-1.9202401638031006,5.052444934844971,7.977670669555664
1710891175474327300,20.094327392578126,-1.1030912399291992,6.198606967926025,7.546962738037109
1710891175493287700,20.11328759765625,-1.1629117727279663,6.154339790344238,7.33759069442749
1710891175512248000,20.132248046875,-1.2813565731048584,5.800201892852783,7.214360237121582
1710891175531208400,20.15120849609375,-1.6259230375289917,6.1363935470581055,7.061219692230225
1710891175550168800,20.1701689453125,-1.3962119817733765,6.476174354553223,7.146164894104004
1710891175569129200,20.189129150390624,-1.3938192129135132,6.269195556640625,7.252645492553711
1710891175588089600,20.208089599609377,-0.8697910308837891,5.972485542297363,6.500102519989014
1710891175607050000,20.227050048828126,-2.1104695796966553,6.0502519607543945,5.536991596221924
1710891175626010600,20.2460107421875,-2.108076810836792,6.812366008758545,5.7511491775512695
1710891175644971000,20.264970947265624,-0.7489534616470337,7.101897716522217,6.937989234924316
1710891175663931400,20.283931396484373,-0.6783652305603027,7.0755767822265625,7.031309127807617
1710891175682891800,20.302891845703126,-2.104487419128418,6.674778938293457,6.106483459472656
1710891175701852200,20.32185205078125,-1.4644074440002441,6.865008354187012,5.941378593444824
1710891175720812500,20.3408125,-1.160519003868103,7.51585578918457,7.001399040222168
1710891175739773000,20.35977294921875,-0.8793623447418213,7.106683254241943,6.638886451721191
1710891175758733300,20.3787333984375,-1.5792629718780518,7.115057945251465,5.816951751708984
1710891175777693700,20.397693603515624,-1.6869399547576904,7.347161769866943,5.702096462249756
1710891175796654000,20.416654052734376,-1.168893814086914,6.594619274139404,5.808577060699463
1710891175815614500,20.435614501953125,-0.7585247755050659,7.494320392608643,6.290730953216553
1710891175834575000,20.4545751953125,-0.865005373954773,7.046862602233887,6.502495765686035
1710891175853535500,20.473535400390624,-1.6414763927459717,6.0538411140441895,5.504688262939453
1710891175872495900,20.492495849609377,-0.5539384484291077,4.975874900817871,4.800002098083496
1710891175891456300,20.511456298828126,-0.397208571434021,6.430710792541504,5.143372058868408
1710891175910416600,20.530416748046875,-0.8099704384803772,7.365108013153076,5.526223659515381
1710891175929377000,20.549376953125,-0.5443671345710754,7.440482139587402,5.052444934844971
1710891175948337400,20.56833740234375,0.13160525262355804,7.612765312194824,4.576273441314697
1710891175967297800,20.5872978515625,0.08614161610603333,7.5086774826049805,4.802394866943359
1710891175986258200,20.606258056640623,-0.381655216217041,8.282755851745605,4.584648132324219
1710891176005218600,20.625218505859376,0.0526420995593071,8.660821914672852,5.831308841705322
1710891176024179000,20.644178955078125,-0.08973085135221481,7.828119277954102,5.995217323303223
1710891176043139300,20.663139404296874,-0.381655216217041,7.747959613800049,5.124229907989502
1710891176062099700,20.682099609375,-0.45583271980285645,8.147561073303223,5.536991596221924
1710891176081060000,20.70106005859375,-0.7393822073936462,7.392625331878662,5.54177713394165
1710891176100020500,20.7200205078125,-0.4666004180908203,7.082755088806152,5.398207664489746
1710891176118980900,20.73898095703125,-0.49172505736351013,7.93579626083374,6.051448345184326
1710891176137941200,20.757941162109375,-0.36251261830329895,7.3914289474487305,5.574080467224121
1710891176156901600,20.776901611328125,-0.33020952343940735,7.658228874206543,5.221138954162598
1710891176175862000,20.795862060546874,-0.038285162299871445,8.34018325805664,5.674578666687012
1710891176194822400,20.814822509765627,-0.2847459018230438,8.001599311828613,6.025127410888672
1710891176213782800,20.83378271484375,-0.22133609652519226,7.70249605178833,5.740381717681885
1710891176232743200,20.8527431640625,-0.3840480446815491,7.244270324707031,5.376672267913818
1710891176251703600,20.87170361328125,-0.21296121180057526,7.0061845779418945,5.077569484710693
1710891176270664000,20.890663818359375,-0.6616154313087463,6.401997089385986,5.964110374450684
1710891176289624300,20.909624267578124,-0.9774680733680725,6.01675271987915,5.724828243255615
1710891176308584700,20.928584716796873,-0.5587241053581238,6.275177478790283,5.026124000549316
1710891176327545000,20.947545166015626,-0.3158525824546814,6.62213659286499,5.1840500831604
1710891176346505500,20.96650537109375,-0.7884350419044495,7.401000499725342,6.507281303405762
1710891176365465900,20.9854658203125,-1.4691931009292603,8.117650985717773,7.110272407531738
1710891176384426200,21.00442626953125,-0.5491527915000916,7.507481098175049,6.468996047973633
1710891176403386600,21.02338671875,-0.5120640397071838,7.252645492553711,6.479763507843018
1710891176422347000,21.042346923828124,-1.7060825824737549,6.838686943054199,7.225128173828125
1710891176441307400,21.061307373046876,-1.9669002294540405,6.241677761077881,7.467999458312988
1710891176460267800,21.080267822265625,-1.841277003288269,5.84566593170166,7.0301127433776855
1710891176479228200,21.099228271484375,-1.5014961957931519,5.435296535491943,6.340980052947998
1710891176498188500,21.1181884765625,-1.6271194219589233,5.631507873535156,6.812366008758545
1710891176517149000,21.13714892578125,-1.7359927892684937,5.490331649780273,7.308876991271973
1710891176536109300,21.156109375,-2.1894326210021973,5.608776092529297,7.013363361358643
1710891176555069700,21.175069580078127,-2.049452543258667,5.746363639831543,6.772884368896484
1710891176574030000,21.194030029296876,-1.9680966138839722,5.72123908996582,6.774080753326416
1710891176592990500,21.212990478515625,-2.8773691654205322,4.930410861968994,7.229913711547852
1710891176611950800,21.231950927734374,-3.001796007156372,4.6995038986206055,7.884350776672363
1710891176630911200,21.2509111328125,-2.155933141708374,4.865804672241211,7.936992645263672
1710891176649871600,21.26987158203125,-1.8340985774993896,5.123033046722412,8.263612747192383
1710891176668832000,21.28883203125,-2.5986053943634033,4.977071285247803,8.86660385131836
1710891176687792400,21.30779248046875,-2.557927370071411,4.4410786628723145,8.700303077697754
1710891176706752800,21.326752685546875,-2.410768747329712,3.944568157196045,8.237292289733887
1710891176725713200,21.345713134765624,-2.2061824798583984,4.1623148918151855,8.297112464904785
1710891176744673500,21.364673583984374,-2.4741785526275635,4.222135543823242,8.624929428100586
1710891176763634200,21.38363427734375,-2.610569477081299,3.5569307804107666,8.927620887756348
1710891176782594300,21.40259423828125,-2.273181438446045,2.7984061241149902,8.590232849121094
1710891176801554700,21.4215546875,-2.3509483337402344,2.8007988929748535,7.7730841636657715
1710891176820515300,21.440515380859374,-2.6261229515075684,3.152543783187866,7.713263988494873
1710891176839475500,21.459475341796875,-2.7254250049591064,2.957528829574585,8.58903694152832
1710891176858435800,21.478435791015624,-2.7218358516693115,1.911865234375,9.141778945922852
1710891176877396200,21.497396240234377,-3.321237802505493,1.466800332069397,8.914461135864258
1710891176896356600,21.516356689453126,-3.675375461578369,1.566102385520935,8.7505521774292
1710891176915317000,21.53531689453125,-3.812962770462036,1.9657038450241089,8.82233715057373
1710891176934277400,21.55427734375,-4.249652862548828,1.9680966138839722,9.31884765625
1710891176953238000,21.573238037109373,-3.950550079345703,1.6666009426116943,9.448060035705566
1710891176972198100,21.5921982421875,-3.8392839431762695,1.1617153882980347,9.241081237792969
1710891176991158500,21.611158447265623,-3.9744784832000732,0.6759724020957947,9.316454887390137
1710891177010119200,21.630119140625,-3.8727834224700928,0.45224347710609436,9.06281566619873
1710891177029079600,21.64907958984375,-3.882354736328125,0.2632105052471161,8.925228118896484
1710891177048039700,21.668039794921874,-4.3070807456970215,0.07417750358581543,9.363115310668945
1710891177067000300,21.687000244140624,-4.2484564781188965,-0.380458801984787,9.790233612060547
1710891177085960700,21.705960693359376,-3.6023945808410645,-0.8350951075553894,9.789037704467773
1710891177104921000,21.724921142578125,-3.978067636489868,-1.2143574953079224,9.397810935974121
1710891177123881500,21.743881591796875,-4.336990833282471,-1.6666009426116943,9.131011009216309
1710891177142841900,21.762841796875,-4.1659040451049805,-2.0650060176849365,8.998209953308105
1710891177161802200,21.78180224609375,-4.515256404876709,-2.121237277984619,8.701499938964844
1710891177180762600,21.8007626953125,-4.8813581466674805,-2.0853450298309326,8.5100736618042
1710891177199723000,21.819722900390627,-4.889732837677002,-2.4131617546081543,8.210970878601074
1710891177218683400,21.838683349609376,-4.618147850036621,-2.7182464599609375,8.081758499145508
1710891177237643800,21.857643798828125,-4.357329845428467,-2.792423963546753,8.346165657043457
1710891177256604200,21.876604248046874,-4.398007869720459,-2.7110681533813477,8.659625053405762
1710891177275564500,21.895564453125,-4.435096740722656,-2.6488547325134277,8.703892707824707
1710891177294525000,21.91452490234375,-4.286741733551025,-2.854637384414673,8.550751686096191
1710891177313485300,21.9334853515625,-4.427918434143066,-3.087937593460083,8.50289535522461
1710891177332445700,21.95244580078125,-4.459024906158447,-3.1621150970458984,8.518448829650879
1710891177351406000,21.971406005859375,-4.577469825744629,-3.1645078659057617,8.591429710388184
1710891177370366500,21.990366455078124,-4.488935470581055,-3.45882511138916,8.507680892944336
1710891177389326800,22.009326904296874,-4.256831645965576,-4.033102512359619,8.111668586730957
1710891177408287200,22.028287353515626,-4.159922122955322,-4.405186653137207,7.727620601654053
1710891177427247600,22.04724755859375,-4.551148891448975,-4.299902439117432,7.8664045333862305
1710891177446208000,22.0662080078125,-4.7796630859375,-4.125226020812988,8.087740898132324
1710891177465168400,22.08516845703125,-4.6061835289001465,-4.3752760887146,7.872386455535889
1710891177484128800,22.104128662109375,-4.401597023010254,-4.677968502044678,7.58644437789917
1710891177503089200,22.123089111328124,-4.5200419425964355,-4.7605204582214355,7.8628153800964355
1710891177522049800,22.1420498046875,-4.524827480316162,-4.9052863121032715,7.897511005401611
1710891177541010200,22.16101025390625,-4.0079779624938965,-5.06799840927124,7.470392227172852
1710891177559970600,22.179970458984375,-4.109673023223877,-5.172086238861084,7.202396392822266
1710891177578931000,22.198930908203124,-4.7030930519104,-5.343173027038574,7.28255558013916
1710891177597891300,22.217891357421873,-4.918447017669678,-5.438885688781738,7.361518859863281
1710891177616851700,22.236851806640626,-4.534399032592773,-5.68893575668335,6.978667259216309
1710891177635812000,22.25581201171875,-4.035495281219482,-5.770291805267334,6.413960933685303
1710891177654772500,22.2747724609375,-3.812962770462036,-5.84566593170166,6.3493547439575195
1710891177673732900,22.29373291015625,-3.9840497970581055,-6.008377552032471,6.68435001373291
1710891177692693200,22.312693359375,-4.194618225097656,-5.985645771026611,6.942774772644043
1710891177711653600,22.331653564453124,-4.449453830718994,-5.964110374450684,7.191628456115723
1710891177730614000,22.350614013671876,-4.487739086151123,-6.189035892486572,7.190432071685791
1710891177749574400,22.369574462890625,-4.028316974639893,-6.467799663543701,6.857829570770264
1710891177768534800,22.38853466796875,-3.5880374908447266,-6.647261142730713,6.51326322555542
1710891177787495400,22.407495361328124,-3.59043025970459,-6.577869415283203,6.565905570983887
1710891177806455800,22.426455810546877,-3.7196428775787354,-6.660421848297119,6.705885410308838
1710891177825416200,22.445416259765626,-3.662214994430542,-7.066005229949951,6.550352096557617
1710891177844376600,22.46437646484375,-3.1824541091918945,-7.701299667358398,6.087340831756592
1710891177863337000,22.4833369140625,-2.671586513519287,-8.082955360412598,5.812166213989258
1710891177882297300,22.50229736328125,-2.2983062267303467,-8.199007034301758,5.803791522979736
1710891177901257700,22.5212578125,-2.0853450298309326,-8.328219413757324,5.26181697845459
1710891177920218000,22.540218017578123,-2.746960401535034,-8.243273735046387,5.036891460418701
1710891177939178500,22.559178466796876,-4.202992916107178,-7.720442295074463,5.592026710510254
1710891177958139000,22.578138916015625,-5.112265586853027,-7.696514129638672,5.776273727416992
1710891177977099300,22.597099365234374,-4.944767951965332,-7.6666035652160645,5.947360515594482
1710891177996060000,22.616059814453124,-3.9936211109161377,-7.552944660186768,6.120840549468994
1710891178015020300,22.635020263671876,-2.688336133956909,-7.719245910644531,5.72841739654541
1710891178033980400,22.65398046875,-1.9908283948898315,-8.096115112304688,5.1529436111450195
1710891178052941000,22.672941162109375,-1.932204246520996,-8.273183822631836,4.593023300170898
1710891178071901400,22.6919013671875,-1.9992033243179321,-8.632107734680176,4.327419757843018
1710891178090861800,22.71086181640625,-2.550748825073242,-9.078369140625,4.4614176750183105
1710891178109822200,22.729822265625,-3.0137600898742676,-9.087940216064453,4.602594375610352
1710891178128782600,22.748782470703127,-2.964707374572754,-8.886942863464355,4.42193603515625
1710891178147743000,22.767742919921876,-2.6009981632232666,-8.621339797973633,4.116851329803467
1710891178166703400,22.786703369140625,-2.245664119720459,-8.571090698242188,4.1970109939575195
1710891178185663700,22.805663818359374,-2.2360928058624268,-8.922835350036621,4.6408796310424805
1710891178204624400,22.824624267578123,-2.355733871459961,-9.497113227844238,4.7796630859375
1710891178223584800,22.843584716796876,-2.2719850540161133,-9.592825889587402,4.593023300170898
1710891178242545200,22.862545166015625,-1.801795482635498,-9.060422897338867,4.353740692138672
1710891178261505500,22.881505615234374,-1.5936198234558105,-8.711071014404297,4.868197441101074
1710891178280466000,22.9004658203125,-0.4713860750198364,-7.8628153800964355,6.5874409675598145
1710891178299426300,22.91942626953125,-0.22013968229293823,-7.696514129638672,7.562515735626221
1710891178318386700,22.93838671875,-0.6879364848136902,-8.34855842590332,7.539783954620361
1710891178337347000,22.95734716796875,-0.9547362327575684,-8.110472679138184,7.100701332092285
1710891178356307700,22.9763076171875,-1.4739787578582764,-7.812565803527832,6.226124286651611
1710891178375268000,22.99526806640625,-2.427518606185913,-8.283951759338379,4.996213912963867
1710891178394228500,23.014228515625,-3.3966116905212402,-8.93838882446289,4.058227062225342
1710891178413188900,23.03318896484375,-3.5784661769866943,-9.34875774383545,3.339184045791626
1710891178432149200,23.052149169921876,-3.0269205570220947,-9.680164337158203,2.8211379051208496
1710891178451109600,23.071109619140625,-2.2241287231445312,-9.594022750854492,2.7314071655273438
1710891178470070000,23.090070068359374,-1.2610175609588623,-9.006584167480469,2.9455647468566895
1710891178489030400,23.109030517578127,-0.6927221417427063,-9.072386741638184,3.3164522647857666
1710891178507991000,23.127990966796876,-0.0526420995593071,-9.491130828857422,3.64546537399292
1710891178526951400,23.146951416015625,0.13519448041915894,-9.236295700073242,4.037888050079346
1710891178545911800,23.165911865234374,-1.5876377820968628,-8.965906143188477,4.709074974060059
1710891178564872200,23.1848720703125,-2.5256242752075195,-8.96949577331543,4.615755081176758
1710891178583832600,23.20383251953125,-1.6019947528839111,-9.002995491027832,3.7674992084503174
1710891178602793000,23.22279296875,-1.6354942321777344,-9.162117958068848,3.999603033065796
1710891178621753300,23.24175341796875,-1.7072789669036865,-9.408578872680664,4.195814609527588
1710891178640713700,23.260713623046875,-0.7800601720809937,-8.93240737915039,3.875176191329956
1710891178659674400,23.27967431640625,-0.18903298676013947,-8.482556343078613,4.1730828285217285
1710891178678634800,23.298634765625,-0.22612173855304718,-8.812766075134277,3.9326040744781494
1710891178697595100,23.31759521484375,0.27756741642951965,-8.922835350036621,2.991028308868408
1710891178716555500,23.336555419921876,0.4737788736820221,-9.044869422912598,2.7864420413970947
1710891178735516000,23.355515869140625,0.6520441770553589,-9.519845008850098,2.3880369663238525
1710891178754476300,23.374476318359374,-0.30628129839897156,-9.803394317626953,2.0279171466827393
1710891178773436700,23.393436767578127,-1.568495273590088,-9.756733894348145,1.6342978477478027
1710891178792397000,23.41239697265625,-1.9262222051620483,-9.126225471496582,2.981456995010376
1710891178811357700,23.431357666015625,-2.60339093208313,-8.677571296691895,5.2115678787231445
1710891178830318000,23.450318115234374,-2.8941190242767334,-8.349754333496094,6.819544315338135
1710891178849278500,23.469278564453123,-1.9836499691009521,-8.2157564163208,7.125825881958008
1710891178868238800,23.48823876953125,-0.9439685344696045,-8.227720260620117,7.043273448944092
1710891178887199200,23.50719921875,0.016749758273363113,-8.642875671386719,6.099305152893066
1710891178906159600,23.52615966796875,0.019142581149935722,-8.751749038696289,5.004588603973389
1710891178925120000,23.5451201171875,-1.231107234954834,-8.82114028930664,4.689932346343994
1710891178944080600,23.56408056640625,-2.1403799057006836,-9.181260108947754,3.9744784832000732
1710891178963041000,23.583041015625,-2.3054845333099365,-9.602396965026855,3.617947816848755
1710891178982001400,23.60200146484375,-2.090130567550659,-9.937392234802246,3.322434186935425
1710891179000961800,23.6209619140625,-2.0063817501068115,-9.717252731323242,3.183650493621826
1710891179019922200,23.639922119140625,-1.9130617380142212,-9.710074424743652,2.551945447921753
1710891179038882600,23.658882568359374,-2.6500511169433594,-9.42891788482666,2.4634108543395996
1710891179057843000,23.677843017578127,-2.730210542678833,-8.886942863464355,3.1896326541900635
1710891179076803300,23.69680322265625,-1.2394821643829346,-8.390432357788086,4.304687976837158
1710891179095764000,23.715763916015625,-1.1700903177261353,-8.784051895141602,4.607379913330078
1710891179114724400,23.734724365234374,-1.5469598770141602,-9.500701904296875,4.118047714233398
1710891179133684700,23.753684814453123,-3.2243285179138184,-8.982656478881836,5.769095420837402
1710891179152645000,23.77264501953125,-4.131208419799805,-8.787641525268555,6.537191390991211
1710891179171605500,23.79160546875,-3.2231321334838867,-9.196813583374023,5.698507308959961
1710891179190566000,23.81056591796875,-3.0388846397399902,-8.590232849121094,5.625525951385498
1710891179209526300,23.8295263671875,-2.8115665912628174,-7.871190071105957,5.825326919555664
1710891179228486700,23.848486572265625,-2.8797619342803955,-8.003992080688477,5.392225742340088
1710891179247447300,23.867447265625,-3.487539052963257,-7.720442295074463,6.0610198974609375
1710891179266407700,23.88640771484375,-3.607180118560791,-7.22871732711792,6.222535133361816
1710891179285368000,23.9053681640625,-3.497110366821289,-7.1748785972595215,5.863611698150635
1710891179304328400,23.924328369140625,-3.355933666229248,-7.1856465339660645,6.510870456695557
1710891179323288800,23.943288818359374,-3.8524444103240967,-7.252645492553711,6.857829570770264
1710891179342249200,23.962249267578127,-3.735196113586426,-6.952346324920654,6.643671989440918
1710891179361209600,23.981209716796876,-4.82751989364624,-6.473781585693359,7.04925537109375
1710891179380170000,24.000169921875,-4.937589645385742,-6.8482584953308105,7.031309127807617
1710891179399130400,24.01913037109375,-4.500899314880371,-7.141379356384277,7.239484786987305
1710891179418090800,24.0380908203125,-3.950550079345703,-6.489335060119629,6.868597507476807
1710891179437051100,24.057051025390624,-5.9306111335754395,-5.096712112426758,7.0887370109558105
1710891179456011800,24.07601171875,-4.981856822967529,-5.054837703704834,6.823133945465088
1710891179474972200,24.09497216796875,-3.78544545173645,-5.7032928466796875,7.490731239318848
1710891179493932500,24.1139326171875,-3.7746777534484863,-5.123033046722412,8.926424980163574
1710891179512893000,24.132892822265624,-4.457828521728516,-4.1659040451049805,9.379864692687988
1710891179531853300,24.151853271484374,-4.287938117980957,-4.387240409851074,8.833105087280273
1710891179550813700,24.170813720703126,-4.567898273468018,-4.692325115203857,8.157132148742676
1710891179569774000,24.189774169921876,-4.457828521728516,-4.247260093688965,7.445267677307129
1710891179588734500,24.208734375,-4.791627407073975,-3.678964853286743,7.489534854888916
1710891179607694800,24.22769482421875,-4.3070807456970215,-3.7507495880126953,7.8041911125183105
1710891179626655200,24.2466552734375,-4.780859470367432,-3.5234313011169434,8.530412673950195
1710891179645615600,24.26561572265625,-4.3752760887146,-3.1214370727539062,8.48734188079834
1710891179664576300,24.284576171875,-4.82751989364624,-3.267399311065674,7.993224143981934
1710891179683536400,24.303536376953126,-5.200799942016602,-3.748356580734253,7.698906898498535
