time,seconds_elapsed,z,y,x
1710891155479444000,0.09944384765625,0.02932151034474373,0.03695731982588768,-0.10354158282279968
1710891155498404000,0.118404052734375,0.0308486707508564,0.07055488228797913,-0.10720676928758621
1710891155517364500,0.137364501953125,0.032681263983249664,0.026878049597144127,-0.11514800786972046
1710891155536324900,0.156324951171875,0.03145953640341759,-0.043982263654470444,-0.12492185086011887
1710891155555285000,0.175284912109375,0.029626941308379173,-0.1182023361325264,-0.13500112295150757
1710891155574245400,0.194245361328125,0.023518294095993042,-0.19333870708942413,-0.1383608728647232
1710891155593205500,0.21320556640625,0.008246674202382565,-0.24831652641296387,-0.13713914155960083
1710891155612166000,0.232165771484375,-0.014049889519810677,-0.277332603931427,-0.1288924664258957
1710891155631126300,0.251126220703125,-0.035735588520765305,-0.2816086709499359,-0.12003492563962936
1710891155650086400,0.27008642578125,-0.05253437161445618,-0.26511532068252563,-0.11239911615848541
1710891155669046800,0.289046875,-0.06841685622930527,-0.2370155304670334,-0.10903936624526978
1710891155688007200,0.308007080078125,-0.07849612087011337,-0.20952661335468292,-0.10690133273601532
1710891155706967300,0.32696728515625,-0.08460476994514465,-0.18631376326084137,-0.10384701192378998
1710891155725927700,0.345927734375,-0.09315688163042068,-0.1792888194322586,-0.10048725455999374
1710891155744888000,0.36488818359375,-0.1029307171702385,-0.18387030065059662,-0.09621120244264603
1710891155763848200,0.38384814453125,-0.11698060482740402,-0.19761475920677185,-0.09651663154363632
1710891155782808600,0.40280859375,-0.13072505593299866,-0.21868959069252014,-0.1026252806186676
1710891155801769000,0.42176904296875,-0.13958260416984558,-0.23976442217826843,-0.10903936624526978
1710891155820729000,0.44072900390625,-0.14630211889743805,-0.25320345163345337,-0.11209368705749512
1710891155839689500,0.459689453125,-0.14508038759231567,-0.24923282861709595,-0.10842850059270859
1710891155858649600,0.478649658203125,-0.1441640853881836,-0.23243404924869537,-0.10048725455999374
1710891155877610000,0.49760986328125,-0.1588248461484909,-0.2162461280822754,-0.09865466505289078
1710891155896570400,0.5165703125,-0.17653992772102356,-0.2003636509180069,-0.09529490768909454
1710891155915530500,0.535530517578125,-0.1750127524137497,-0.17287473380565643,-0.0818558782339096
1710891155934491000,0.554490966796875,-0.16096286475658417,-0.1484401375055313,-0.07024945318698883
1710891155953451300,0.573451171875,-0.14721840620040894,-0.14660754799842834,-0.05955931544303894
1710891155972411400,0.592411376953125,-0.13775001466274261,-0.15790854394435883,-0.05558869615197182
1710891155991371800,0.611371826171875,-0.12980876863002777,-0.17348559200763702,-0.04764745384454727
1710891156010332200,0.630332275390625,-0.12034036219120026,-0.18661919236183167,-0.03695731982588768
1710891156029292300,0.649292236328125,-0.11423171311616898,-0.19639302790164948,-0.021380268037319183
1710891156048252700,0.668252685546875,-0.10506874322891235,-0.20158538222312927,-0.001221729558892548
1710891156067212800,0.687212890625,-0.1026252806186676,-0.1951712965965271,0.01802051067352295
1710891156086173200,0.706173095703125,-0.09865466505289078,-0.1795942485332489,0.03817904740571976
1710891156105133600,0.725133544921875,-0.09590577334165573,-0.15638138353824615,0.06017018109560013
1710891156124094000,0.744093994140625,-0.10048725455999374,-0.12492185086011887,0.08918625861406326
1710891156143054000,0.76305419921875,-0.11117739230394363,-0.10109812021255493,0.13469567894935608
1710891156162014500,0.782014404296875,-0.11331541836261749,-0.10201441496610641,0.1744018942117691
1710891156180974600,0.800974609375,-0.0974329337477684,-0.14110976457595825,0.19272783398628235
1710891156199935000,0.81993505859375,-0.04214967042207718,-0.21838416159152985,0.20372340083122253
1710891156218895400,0.838895263671875,0.05711585655808449,-0.30054548382759094,0.22724169492721558
1710891156237855700,0.857855712890625,0.14477495849132538,-0.35735589265823364,0.2706131041049957
1710891156256815900,0.87681591796875,0.16126830875873566,-0.36743515729904175,0.3335321843624115
1710891156275776300,0.8957763671875,0.09071341902017593,-0.3402516841888428,0.40378162264823914
1710891156294736400,0.914736328125,-0.0565049909055233,-0.3277289569377899,0.4367683231830597
1710891156313696800,0.93369677734375,-0.20433427393436432,-0.32589635252952576,0.4016436040401459
1710891156332657200,0.9526572265625,-0.3481929302215576,-0.4725039005279541,0.3194822669029236
1710891156351617300,0.9716171875,-0.3381136655807495,-0.7736602425575256,0.20799945294857025
1710891156370577700,0.99057763671875,-0.17806708812713623,-1.0671807527542114,0.043371398001909256
1710891156389538000,1.0095380859375,0.009162971749901772,-1.2831214666366577,-0.1844811588525772
1710891156408498400,1.02849853515625,0.14233149588108063,-1.4483604431152344,-0.3915643095970154
1710891156427458600,1.04745849609375,0.2009745091199875,-1.488066554069519,-0.5213730931282043
1710891156446419000,1.0664189453125,0.1802051067352295,-1.3762784004211426,-0.5684096813201904
1710891156465379300,1.08537939453125,0.09040798991918564,-1.1282672882080078,-0.5653553605079651
1710891156484339500,1.10433935546875,-0.03756818547844887,-0.8426879644393921,-0.5305360555648804
1710891156503299800,1.1232998046875,-0.15179990231990814,-0.6530144214630127,-0.472198486328125
1710891156522260200,1.14226025390625,-0.21777328848838806,-0.5613847374916077,-0.411722868680954
1710891156541220600,1.161220703125,-0.2718348205089569,-0.5119046568870544,-0.3543015718460083
1710891156560180700,1.1801806640625,-0.323452889919281,-0.5235111117362976,-0.3020726442337036
1710891156579141000,1.19914111328125,-0.3594939112663269,-0.5943714380264282,-0.2632827162742615
1710891156598101500,1.2181015625,-0.36743515729904175,-0.6771436333656311,-0.23365578055381775
1710891156617062000,1.237061767578125,-0.34605491161346436,-0.7165443897247314,-0.19700388610363007
1710891156636022000,1.25602197265625,-0.31031930446624756,-0.6969966888427734,-0.15027274191379547
1710891156654982400,1.274982421875,-0.2678641974925995,-0.5949822664260864,-0.08582650125026703
1710891156673942800,1.29394287109375,-0.22418737411499023,-0.406530499458313,0.005803215317428112
1710891156692903000,1.31290283203125,-0.18142683804035187,-0.19089524447917938,0.11514800786972046
1710891156711863300,1.33186328125,-0.08338304609060287,0.019853105768561363,0.21960589289665222
1710891156730823700,1.35082373046875,0.10903936624526978,0.2528980076313019,0.314289927482605
1710891156749784000,1.3697841796875,0.24220788478851318,0.39858928322792053,0.4001164436340332
1710891156768744400,1.388744384765625,0.18631376326084137,0.3698786199092865,0.47372564673423767
1710891156787704600,1.40770458984375,0.10415244847536087,0.2834412455558777,0.5146535634994507
1710891156806665000,1.4266650390625,0.1081230640411377,0.27000224590301514,0.4990765154361725
1710891156825625300,1.445625244140625,0.17867794632911682,0.37201663851737976,0.45051276683807373
1710891156844585700,1.464585693359375,0.30085089802742004,0.5720748901367188,0.3915643095970154
1710891156863546000,1.483546142578125,0.4880809485912323,0.8097012639045715,0.3176496922969818
1710891156882506200,1.50250634765625,0.7663298845291138,0.9999856352806091,0.24006985127925873
1710891156901466600,1.521466552734375,1.0509928464889526,1.0861176252365112,0.15485422313213348
1710891156920427000,1.540427001953125,1.1991275548934937,0.9404263496398926,0.04428769648075104
1710891156939387400,1.559387451171875,1.1707223653793335,0.5699368119239807,-0.038789913058280945
1710891156958347800,1.57834765625,1.0103703737258911,0.10018182545900345,-0.044898562133312225
1710891156977308000,1.597307861328125,0.7791580557823181,-0.27977606654167175,0.05589412897825241
1710891156996268300,1.616268310546875,0.5033525824546814,-0.5467239618301392,0.15118902921676636
1710891157015228700,1.635228759765625,0.25809037685394287,-0.7354812026023865,0.2000582218170166
1710891157034189000,1.65418896484375,0.1029307171702385,-0.8582650423049927,0.18814635276794434
1710891157053149400,1.6731494140625,0.014660755172371864,-0.9660826325416565,0.11942406743764877
1710891157072109600,1.692109619140625,-0.02718348242342472,-1.0949751138687134,0.006108647678047419
1710891157091070200,1.7110703125,-0.05253437161445618,-1.2565488815307617,-0.13622283935546875
1710891157110030300,1.7300302734375,-0.09346231073141098,-1.4407246112823486,-0.28527384996414185
1710891157128990700,1.74899072265625,-0.14996729791164398,-1.5955787897109985,-0.4156934916973114
1710891157147951000,1.767951171875,-0.19792018830776215,-1.6817107200622559,-0.5192350745201111
1710891157166911500,1.786911376953125,-0.2263254076242447,-1.7156137228012085,-0.6068941354751587
1710891157185872000,1.805871826171875,-0.24281874299049377,-1.7156137228012085,-0.6774490475654602
1710891157204832300,1.824832275390625,-0.25503605604171753,-1.693317174911499,-0.7260127663612366
1710891157223792400,1.84379248046875,-0.2776380479335785,-1.6673554182052612,-0.757777750492096
1710891157242753000,1.8627529296875,-0.31154105067253113,-1.654221773147583,-0.768467903137207
1710891157261713200,1.881713134765625,-0.3399462401866913,-1.645975112915039,-0.7568614482879639
1710891157280673500,1.900673583984375,-0.34574946761131287,-1.627343773841858,-0.7257073521614075
1710891157299634000,1.919634033203125,-0.34086254239082336,-1.6001602411270142,-0.6979129910469055
1710891157318594300,1.93859423828125,-0.32620179653167725,-1.556483507156372,-0.6688969135284424
1710891157337554700,1.9575546875,-0.291687935590744,-1.5250239372253418,-0.6359102129936218
1710891157356515000,1.97651513671875,-0.23915356397628784,-1.507308840751648,-0.6078104376792908
1710891157375475500,1.995475341796875,-0.19303326308727264,-1.4926481246948242,-0.6075050234794617
1710891157394435800,2.014435791015625,-0.16523891687393188,-1.5149446725845337,-0.6520981788635254
1710891157413396200,2.033396240234375,-0.1750127524137497,-1.5992439985275269,-0.7531962990760803
1710891157432356400,2.0523564453125,-0.22510367631912231,-1.703091025352478,-0.8924734592437744
1710891157451317000,2.07131689453125,-0.2764163017272949,-1.784030556678772,-1.043357014656067
1710891157470277000,2.090277099609375,-0.3042106628417969,-1.8292346000671387,-1.191797137260437
1710891157489237500,2.109237548828125,-0.30512696504592896,-1.8387030363082886,-1.320078730583191
1710891157508198000,2.128197998046875,-0.28435754776000977,-1.878714680671692,-1.4297289848327637
1710891157527158300,2.147158203125,-0.19730933010578156,-1.9486587047576904,-1.505781650543213
1710891157546118700,2.16611865234375,-0.027488915249705315,-2.0195188522338867,-1.5015056133270264
1710891157565079000,2.1850791015625,0.03787361457943916,-2.195753335952759,-1.4275909662246704
1710891157584039400,2.204039306640625,-0.0974329337477684,-2.517068386077881,-1.2889246940612793
1710891157602999800,2.222999755859375,-0.26022839546203613,-2.8075344562530518,-1.1053597927093506
1710891157621960200,2.241960205078125,-0.30451610684394836,-2.8490734100341797,-0.8949168920516968
1710891157640920600,2.260920654296875,-0.24892739951610565,-2.6642868518829346,-0.6924152374267578
1710891157659881000,2.279880859375,-0.18264856934547424,-2.3744313716888428,-0.5320632457733154
1710891157678841300,2.29884130859375,-0.1285870373249054,-2.073275089263916,-0.42821621894836426
1710891157697801700,2.3178017578125,-0.0772743970155716,-1.8060216903686523,-0.3652971386909485
1710891157716762000,2.33676220703125,-0.036651886999607086,-1.573282241821289,-0.32100942730903625
1710891157735722500,2.355722412109375,-0.0021380267571657896,-1.360701322555542,-0.2864955961704254
1710891157754683000,2.374682861328125,0.010995565913617611,-1.1725549697875977,-0.25411975383758545
1710891157773643300,2.393643310546875,-0.011911863461136818,-1.0329723358154297,-0.2009745091199875
1710891157792603600,2.412603759765625,-0.08674279600381851,-0.962722897529602,-0.11698060482740402
1710891157811564000,2.43156396484375,-0.21777328848838806,-0.9758564829826355,0.017715077847242355
1710891157830524400,2.4505244140625,-0.40255987644195557,-1.0332777500152588,0.189673513174057
1710891157849484800,2.46948486328125,-0.6175842881202698,-1.1194096803665161,0.37354379892349243
1710891157868445200,2.488445068359375,-0.8112284541130066,-1.191491723060608,0.5723803043365479
1710891157887405600,2.507405517578125,-0.8930842876434326,-1.1520910263061523,0.7333431839942932
1710891157906366000,2.526365966796875,-0.870482325553894,-1.0384701490402222,0.8017600178718567
1710891157925326300,2.545326416015625,-0.7999274134635925,-0.8585704565048218,0.757777750492096
1710891157944286700,2.56428662109375,-0.6832522749900818,-0.7009673118591309,0.5949822664260864
1710891157963247000,2.5832470703125,-0.5125155448913574,-0.6017017960548401,0.3246746361255646
1710891157982207500,2.60220751953125,-0.2715294063091278,-0.5482511520385742,0.022296564653515816
1710891158001168100,2.621168212890625,0.025045456364750862,-0.5314523577690125,-0.21746785938739777
1710891158020128300,2.640128173828125,0.2522871494293213,-0.5018253922462463,-0.3836230933666229
1710891158039088600,2.659088623046875,0.3481929302215576,-0.4221075773239136,-0.4456258714199066
1710891158058049300,2.67804931640625,0.2919933497905731,-0.4114174246788025,-0.4324922561645508
1710891158077009700,2.697009765625,0.17287473380565643,-0.5054906010627747,-0.38331764936447144
1710891158095970000,2.715969970703125,0.08979712426662445,-0.5968148708343506,-0.2874118685722351
1710891158114930400,2.734930419921875,0.011911863461136818,-0.6688969135284424,-0.16829325258731842
1710891158133890800,2.753890869140625,-0.06352993845939636,-0.6829468011856079,-0.07299833744764328
1710891158152851200,2.772851318359375,-0.1334739476442337,-0.6362156867980957,-0.009162971749901772
1710891158171811600,2.7918115234375,-0.21166464686393738,-0.6172788739204407,0.04062250629067421
1710891158190772000,2.81077197265625,-0.27855435013771057,-0.7067705392837524,0.10201441496610641
1710891158209732400,2.829732421875,-0.30970844626426697,-0.8967494964599609,0.15515965223312378
1710891158228692700,2.848692626953125,-0.31154105067253113,-1.1420117616653442,0.1588248461484909
1710891158247653000,2.867653076171875,-0.2926042377948761,-1.5021164417266846,0.1026252806186676
1710891158266613500,2.886613525390625,-0.23182319104671478,-1.8319834470748901,0.0027488914784044027
1710891158285574000,2.905573974609375,-0.15302163362503052,-1.8668028116226196,-0.10354158282279968
1710891158304534300,2.9245341796875,-0.15790854394435883,-1.581528902053833,-0.1594357043504715
1710891158323495000,2.943494873046875,-0.2657261788845062,-1.17194402217865,-0.15027274191379547
1710891158342455300,2.962455322265625,-0.4001164436340332,-0.6933315396308899,-0.09498947113752365
1710891158361415700,2.981415771484375,-0.5122101306915283,-0.13927717506885529,-0.024434590712189674
1710891158380375800,3.000375732421875,-0.5491674542427063,0.43890634179115295,0.001221729558892548
1710891158399336400,3.01933642578125,-0.4975493550300598,0.9630283117294312,-0.06017018109560013
1710891158418296800,3.038296875,-0.45326167345046997,1.3280199766159058,-0.18814635276794434
1710891158437257200,3.05725732421875,-0.4169152081012726,1.6227623224258423,-0.32589635252952576
1710891158456217600,3.076217529296875,-0.30054548382759094,1.989586591720581,-0.42363473773002625
1710891158475178000,3.095177978515625,-0.04062250629067421,2.403447389602661,-0.4776962697505951
1710891158494138400,3.114138427734375,0.33047783374786377,2.7305655479431152,-0.5073232054710388
1710891158513098800,3.1330986328125,0.6808087825775146,2.8548765182495117,-0.4978547990322113
1710891158532059100,3.15205908203125,0.8448259830474854,2.5189008712768555,-0.48105600476264954
1710891158551019500,3.17101953125,0.7641918659210205,1.8060216903686523,-0.4309650957584381
1710891158569980000,3.18997998046875,0.5436696410179138,0.9440914988517761,-0.3289506733417511
1710891158588940300,3.208940185546875,0.3491092324256897,0.1899789422750473,-0.2254091054201126
1710891158607901000,3.22790087890625,0.2657261788845062,-0.3344484567642212,-0.13622283935546875
1710891158626861300,3.246861328125,0.28527384996414185,-0.6737838387489319,-0.1182023361325264
1710891158645821700,3.26582177734375,0.36621344089508057,-0.7791580557823181,-0.15179990231990814
1710891158664782000,3.284781982421875,0.4557051360607147,-0.6740893125534058,-0.16859868168830872
1710891158683742500,3.303742431640625,0.5216785073280334,-0.46944957971572876,-0.12370011955499649
1710891158702702800,3.322702880859375,0.5561923980712891,-0.2831358313560486,-0.026572618633508682
1710891158721663200,3.341663330078125,0.5583304166793823,-0.17715078592300415,0.0821613147854805
1710891158740623600,3.36062353515625,0.5311469435691833,-0.14599667489528656,0.16829325258731842
1710891158759584000,3.379583984375,0.4886918365955353,-0.1585194170475006,0.21777328848838806
1710891158778544400,3.39854443359375,0.45387253165245056,-0.20127993822097778,0.23243404924869537
1710891158797504800,3.4175048828125,0.4321868419647217,-0.2669478952884674,0.21655155718326569
1710891158816465400,3.43646533203125,0.4276053309440613,-0.33719736337661743,0.18600831925868988
1710891158835425800,3.45542578125,0.4364628791809082,-0.3588830530643463,0.1594357043504715
1710891158854386200,3.47438623046875,0.4462367296218872,-0.31001389026641846,0.14263692498207092
1710891158873346600,3.4933466796875,0.4358520209789276,-0.21380266547203064,0.14508038759231567
1710891158892307000,3.512306884765625,0.3958403766155243,-0.0873536616563797,0.16829325258731842
1710891158911267300,3.531267333984375,0.3552178740501404,0.06933315098285675,0.20616686344146729
1710891158930227700,3.550227783203125,0.35094180703163147,0.24526220560073853,0.2412915825843811
1710891158949188000,3.56918798828125,0.34574946761131287,0.3903425931930542,0.2519817352294922
1710891158968148700,3.588148681640625,0.3124573230743408,0.45020735263824463,0.2458730787038803
1710891158987108900,3.60710888671875,0.2419024556875229,0.4221075773239136,0.22876885533332825
1710891159006069200,3.6260693359375,0.13927717506885529,0.3182605504989624,0.19669845700263977
1710891159025030000,3.64502978515625,0.0256563201546669,0.16310089826583862,0.1591302752494812
1710891159043990300,3.663990234375,-0.0922405794262886,-0.01282816007733345,0.11331541836261749
1710891159062950700,3.68295068359375,-0.2208276242017746,-0.18692462146282196,0.05528326332569122
1710891159081911000,3.7019111328125,-0.3430005609989166,-0.3277289569377899,0.004276053514331579
1710891159100871400,3.720871337890625,-0.44348782300949097,-0.4166097939014435,-0.028405211865901947
1710891159119831800,3.739831787109375,-0.5314523577690125,-0.4529562294483185,-0.05894844979047775
1710891159138792200,3.758792236328125,-0.5983420610427856,-0.4419606626033783,-0.08277218043804169
1710891159157752600,3.777752685546875,-0.6316341757774353,-0.3955349326133728,-0.0977383628487587
1710891159176713000,3.796712890625,-0.62857985496521,-0.3298669755458832,-0.1078176349401474
1710891159195673300,3.81567333984375,-0.5852084755897522,-0.2666424810886383,-0.11667517572641373
1710891159214633700,3.8346337890625,-0.5070177912712097,-0.2419024556875229,-0.13194678723812103
1710891159233594400,3.853594482421875,-0.41447174549102783,-0.2721402645111084,-0.1597411334514618
1710891159252554800,3.8725546875,-0.324063777923584,-0.35582873225212097,-0.19120067358016968
1710891159271515100,3.89151513671875,-0.23518294095993042,-0.4938841760158539,-0.21716243028640747
1710891159290475500,3.9104755859375,-0.15027274191379547,-0.6725621223449707,-0.24923282861709595
1710891159309436000,3.929435791015625,-0.07391463965177536,-0.8921679854393005,-0.2861901521682739
1710891159328396300,3.948396240234375,-0.04276053607463837,-1.1380411386489868,-0.31612253189086914
1710891159347356700,3.967356689453125,-0.09804379940032959,-1.3833032846450806,-0.3433060050010681
1710891159366317000,3.986317138671875,-0.22968515753746033,-1.5971059799194336,-0.3594939112663269
1710891159385277400,4.00527734375,-0.37843072414398193,-1.7348560094833374,-0.33658650517463684
1710891159404237800,4.02423779296875,-0.49052441120147705,-1.7540981769561768,-0.2968802750110626
1710891159423198200,4.0431982421875,-0.48960810899734497,-1.5851941108703613,-0.28069236874580383
1710891159442158800,4.062158935546875,-0.38270679116249084,-1.2388337850570679,-0.27550002932548523
1710891159461119200,4.081119140625,-0.25473061203956604,-0.861319363117218,-0.26022839546203613
1710891159480079600,4.10007958984375,-0.185092031955719,-0.5482511520385742,-0.2159406989812851
1710891159499040000,4.1190400390625,-0.1334739476442337,-0.36163195967674255,-0.16584978997707367
1710891159518000400,4.13800048828125,-0.022907428443431854,-0.23273947834968567,-0.12614357471466064
1710891159536960800,4.156960693359375,0.13072505593299866,-0.1542433500289917,-0.1233946830034256
1710891159555921200,4.175921142578125,0.23212862014770508,-0.17745621502399445,-0.12034036219120026
1710891159574881500,4.194881591796875,0.27458372712135315,-0.2822195291519165,-0.06108647957444191
1710891159593842000,4.213842041015625,0.26542073488235474,-0.4251618981361389,0.021991131827235222
1710891159612802300,4.23280224609375,0.24526220560073853,-0.5338957905769348,0.10751219838857651
1710891159631762700,4.2517626953125,0.24342961609363556,-0.5894845128059387,0.16615521907806396
1710891159650723000,4.27072314453125,0.23823726177215576,-0.6181951761245728,0.17165300250053406
1710891159669683500,4.289683349609375,0.2370155304670334,-0.5775726437568665,0.12736530601978302
1710891159688643800,4.308643798828125,0.27091851830482483,-0.47555822134017944,0.04306596517562866
1710891159707604500,4.3276044921875,0.33567020297050476,-0.39309149980545044,-0.05253437161445618
1710891159726564900,4.34656494140625,0.4046979248523712,-0.3912588953971863,-0.1383608728647232
1710891159745525200,4.365525146484375,0.45051276683807373,-0.45539969205856323,-0.20922118425369263
1710891159764485600,4.384485595703125,0.47952884435653687,-0.5882627964019775,-0.27977606654167175
1710891159783446000,4.403446044921875,0.48563748598098755,-0.7492256760597229,-0.3634645342826843
1710891159802406400,4.422406494140625,0.4886918365955353,-0.9086613655090332,-0.4526508152484894
1710891159821366800,4.44136669921875,0.5033525824546814,-1.0152572393417358,-0.5225948095321655
1710891159840327200,4.4603271484375,0.5238165259361267,-1.0864230394363403,-0.5760455131530762
1710891159859287600,4.47928759765625,0.5607738494873047,-1.1071923971176147,-0.5974257588386536
1710891159878248000,4.498248046875,0.6041452884674072,-1.094058871269226,-0.5891790986061096
1710891159897208300,4.517208251953125,0.6126973628997803,-1.1395682096481323,-0.5864301919937134
1710891159916168700,4.536168701171875,0.5488619804382324,-1.293506145477295,-0.5693259835243225
1710891159935129000,4.555129150390625,0.43860089778900146,-1.4871503114700317,-0.49021899700164795
1710891159954089500,4.57408935546875,0.2919933497905731,-1.5778636932373047,-0.3533852696418762
1710891159973049900,4.5930498046875,0.10537417232990265,-1.5021164417266846,-0.18631376326084137
1710891159992010200,4.61201025390625,-0.03390299528837204,-1.193018913269043,-0.003970621153712273
1710891160010970600,4.630970703125,-0.039706211537122726,-0.6398808360099792,0.1795942485332489
1710891160029931300,4.64993115234375,0.08063415437936783,0.05406153202056885,0.3390299379825592
1710891160048891600,4.6688916015625,0.24251331388950348,0.702799916267395,0.45509424805641174
1710891160067851800,4.687851806640625,0.3811796307563782,1.2339468002319336,0.5158752799034119
1710891160086812200,4.706812255859375,0.4581485986709595,1.6035200357437134,0.49144071340560913
1710891160105772800,4.725772705078125,0.4972439408302307,1.7663154602050781,0.3958403766155243
1710891160124733200,4.744733154296875,0.4657844007015228,1.7272201776504517,0.26419901847839355
1710891160143693600,4.763693603515625,0.3448331654071808,1.5274673700332642,0.1230892539024353
1710891160162654000,4.782654052734375,0.15668681263923645,1.2070688009262085,-0.016187917441129684
1710891160181614300,4.8016142578125,-0.04978547990322113,0.7965676784515381,-0.13439024984836578
1710891160200574700,4.82057470703125,-0.23243404924869537,0.34086254239082336,-0.210442915558815
1710891160219535000,4.83953515625,-0.35582873225212097,-0.08918625861406326,-0.2632827162742615
1710891160238495500,4.85849560546875,-0.41325002908706665,-0.4248564541339874,-0.3124573230743408
1710891160257455900,4.877455810546875,-0.4309650957584381,-0.6062833070755005,-0.33597561717033386
1710891160276416300,4.896416259765625,-0.4633409380912781,-0.6444623470306396,-0.3338375985622406
1710891160295376600,4.915376708984375,-0.49632763862609863,-0.5626064538955688,-0.3090975880622864
1710891160314337000,4.9343369140625,-0.4917461574077606,-0.4153880476951599,-0.24373504519462585
1710891160333297400,4.95329736328125,-0.4068359434604645,-0.15577052533626556,-0.1588248461484909
1710891160352257800,4.9722578125,-0.258395791053772,0.10751219838857651,-0.09682206809520721
1710891160371218200,4.99121826171875,-0.09926552325487137,0.3552178740501404,-0.06261363625526428
1710891160390178600,5.010178466796875,0.015271619893610477,0.5396990180015564,-0.04825831577181816
1710891160409139000,5.029138916015625,0.07849612087011337,0.6191114783287048,-0.03940077871084213
1710891160428099300,5.048099365234375,0.12064579129219055,0.5775726437568665,-0.02718348242342472
1710891160447059700,5.067059814453125,0.2000582218170166,0.4211912751197815,-0.03451386094093323
1710891160466020000,5.08602001953125,0.324063777923584,0.21441353857517242,-0.08979712426662445
1710891160484980700,5.104980712890625,0.4459312856197357,0.013439024798572063,-0.18387030065059662
1710891160503940900,5.12394091796875,0.5061014890670776,-0.14080433547496796,-0.250149130821228
1710891160522901200,5.1429013671875,0.5067123174667358,-0.2214384824037552,-0.26450446248054504
1710891160541862000,5.16186181640625,0.49113526940345764,-0.2837466895580292,-0.272751122713089
1710891160560822300,5.180822265625,0.4770853817462921,-0.3481929302215576,-0.3127627670764923
1710891160579782400,5.199782470703125,0.4557051360607147,-0.4276053309440613,-0.364991694688797
1710891160598742800,5.21874267578125,0.4370737373828888,-0.5061014890670776,-0.40378162264823914
1710891160617703400,5.237703369140625,0.4276053309440613,-0.5595521330833435,-0.43860089778900146
1710891160636663800,5.256663818359375,0.4312705397605896,-0.6178897023200989,-0.47525280714035034
1710891160655624000,5.2756240234375,0.4520399272441864,-0.7082977294921875,-0.5213730931282043
1710891160674584600,5.29458447265625,0.5064069032669067,-0.8237511515617371,-0.5671879649162292
1710891160693545000,5.313544921875,0.6310232877731323,-1.0219768285751343,-0.6004800796508789
1710891160712505300,5.33250537109375,0.8011491298675537,-1.249218463897705,-0.6404917240142822
1710891160731465700,5.3514658203125,0.9691369533538818,-1.3796380758285522,-0.6780598759651184
1710891160750426000,5.370426025390625,1.1157444715499878,-1.4001020193099976,-0.6676751971244812
1710891160769386500,5.389386474609375,1.229365348815918,-1.3371829986572266,-0.6102539300918579
1710891160788347000,5.408346923828125,1.2925899028778076,-1.2437206506729126,-0.5259546041488647
1710891160807307300,5.427307373046875,1.3292417526245117,-1.1783581972122192,-0.42791077494621277
1710891160826267600,5.446267578125,1.3637555837631226,-1.0974185466766357,-0.3075704276561737
1710891160845228000,5.46522802734375,1.4120138883590698,-0.9712749719619751,-0.17134757339954376
1710891160864188400,5.4841884765625,1.479209065437317,-0.850018322467804,-0.03145953640341759
1710891160883148800,5.503148681640625,1.5659518241882324,-0.7009673118591309,0.08552107214927673
1710891160902109200,5.522109130859375,1.6746858358383179,-0.5760455131530762,0.14294235408306122
1710891160921069600,5.541069580078125,1.8258748054504395,-0.4773908257484436,0.23365578055381775
1710891160940030000,5.560030029296875,1.8878775835037231,-0.4205803871154785,0.4010327160358429
1710891160958990300,5.578990234375,1.8252639770507812,-0.4199695289134979,0.5943714380264282
1710891160977950700,5.59795068359375,1.7718132734298706,-0.4404335021972656,0.7751874327659607
1710891160996911000,5.6169111328125,1.7434080839157104,-0.4572322964668274,0.9269872903823853
1710891161015871500,5.63587158203125,1.7366886138916016,-0.471587598323822,1.109635829925537
1710891161034832000,5.654831787109375,1.7424918413162231,-0.4920515716075897,1.2996147871017456
1710891161053792300,5.673792236328125,1.75623619556427,-0.4834994673728943,1.510363221168518
1710891161072752600,5.692752685546875,1.7693698406219482,-0.4251618981361389,1.7064508199691772
1710891161091713000,5.711713134765625,1.7760893106460571,-0.42424559593200684,1.83839750289917
1710891161110673400,5.73067333984375,1.785252332687378,-0.4563159942626953,1.9220860004425049
1710891161129633800,5.7496337890625,1.821598768234253,-0.5180133581161499,1.970038890838623
1710891161148594200,5.76859423828125,1.8802417516708374,-0.5589412450790405,2.00882887840271
1710891161167554600,5.787554443359375,1.9080361127853394,-0.5510000586509705,2.050367593765259
1710891161186515000,5.806514892578125,1.8438953161239624,-0.46517354249954224,2.0879359245300293
1710891161205475300,5.825475341796875,1.7330234050750732,-0.3026835024356842,2.1197006702423096
1710891161224435700,5.844435791015625,1.6774346828460693,-0.10537417232990265,2.10992693901062
1710891161243396000,5.86339599609375,1.7091996669769287,-0.06444623321294785,2.031430721282959
1710891161262356500,5.8823564453125,1.7837251424789429,-0.056810423731803894,1.9944734573364258
1710891161281316900,5.90131689453125,1.7415754795074463,0.17898337543010712,2.0638067722320557
1710891161300277200,5.92027734375,1.5867213010787964,0.562911868095398,2.218050003051758
1710891161319237600,5.939237548828125,1.4972295761108398,0.7293725609779358,2.2204935550689697
1710891161338198000,5.958197998046875,1.4584397077560425,0.6963858604431152,2.1050400733947754
1710891161357158400,5.977158447265625,1.4019346237182617,0.6059778332710266,1.9486587047576904
1710891161376118800,5.996118896484375,1.3127484321594238,0.39370235800743103,1.7012584209442139
1710891161395079200,6.0150791015625,1.1872156858444214,0.25442516803741455,1.6453642845153809
1710891161414039600,6.03403955078125,1.0262528657913208,0.30115634202957153,1.7253875732421875
1710891161433000000,6.053,0.9025527238845825,0.24862197041511536,1.6710206270217896
1710891161451960300,6.071960205078125,0.7141009569168091,0.07422006875276566,1.5106686353683472
1710891161470920700,6.090920654296875,0.5216785073280334,-0.08643736690282822,1.3439024686813354
1710891161489881000,6.109881103515625,0.3860665261745453,-0.27397283911705017,1.1236857175827026
1710891161508841500,6.128841552734375,0.3225366175174713,-0.4364628791809082,0.777325451374054
1710891161527801900,6.1478017578125,0.25350889563560486,-0.5186241865158081,0.37201663851737976
1710891161546762200,6.16676220703125,0.08613193035125732,-0.41355544328689575,0.11759147047996521
1710891161565722600,6.18572265625,-0.21135921776294708,-0.022907428443431854,0.19883649051189423
1710891161584683000,6.20468310546875,-0.7107411623001099,0.5375609993934631,0.41813695430755615
1710891161603643400,6.223643310546875,-1.0604612827301025,0.4926624298095703,0.09101885557174683
1710891161622603800,6.242603759765625,-1.0387755632400513,-0.30146175622940063,-0.2370155304670334
1710891161641564200,6.261564208984375,-0.952643632888794,-0.8634573817253113,-0.3283398151397705
1710891161660524800,6.28052490234375,-0.9358448386192322,-0.7703005075454712,-0.38759371638298035
1710891161679485200,6.299485107421875,-0.9184352159500122,-0.4407389461994171,-0.4422661066055298
1710891161698445300,6.3184453125,-0.7715222239494324,0.12614357471466064,-0.21746785938739777
1710891161717406000,6.337406005859375,-0.4303542375564575,0.8295543789863586,0.38331764936447144
1710891161736366300,6.356366455078125,0.10842850059270859,0.9972367286682129,0.7925970554351807
1710891161755326700,6.37532666015625,0.18417572975158691,0.5839866995811462,0.7874047160148621
1710891161774287000,6.394287109375,-0.3692677617073059,-0.038789913058280945,0.18631376326084137
1710891161793247500,6.41324755859375,-1.2318087816238403,0.005803215317428112,-0.15302163362503052
1710891161812207900,6.432207763671875,-1.7137811183929443,0.2706131041049957,-0.012217295356094837
1710891161831168300,6.451168212890625,-1.5167772769927979,0.1285870373249054,0.20891575515270233
1710891161850128600,6.470128662109375,-0.9239329695701599,-0.3503309488296509,0.323452889919281
1710891161869089000,6.489089111328125,-0.592233419418335,-0.7449495792388916,0.2006690800189972
1710891161888049400,6.50804931640625,-0.8246674537658691,-1.0308343172073364,0.03145953640341759
1710891161907009800,6.527009765625,-1.359479546546936,-1.1160500049591064,0.001832594396546483
1710891161925970400,6.545970458984375,-1.6404774188995361,-0.8817833065986633,-0.01282816007733345
1710891161944930800,6.564930908203125,-1.5601485967636108,-0.3659079968929291,-0.03390299528837204
1710891161963891000,6.583890869140625,-1.4575233459472656,0.2605338394641876,-0.08552107214927673
1710891161982851300,6.602851318359375,-1.574504017829895,0.7559451460838318,-0.06811141967773438
1710891162001812000,6.62181201171875,-1.8524473905563354,1.0574069023132324,0.007330377586185932
1710891162020772400,6.6407724609375,-2.014937400817871,1.119104266166687,0.09101885557174683
1710891162039732700,6.659732666015625,-2.022878646850586,1.1029163599014282,0.15577052533626556
1710891162058693000,6.678693115234375,-2.0100505352020264,1.0293071269989014,0.21258094906806946
1710891162077653500,6.697653564453125,-2.0390665531158447,0.8808670043945312,0.21655155718326569
1710891162096614000,6.71661376953125,-2.076024055480957,0.7910698652267456,0.168904110789299
1710891162115574300,6.73557421875,-1.933387041091919,0.8347467184066772,0.11911863088607788
1710891162134534700,6.75453466796875,-1.6310089826583862,0.9303470849990845,-0.08093958348035812
1710891162153495300,6.773495361328125,-1.4865394830703735,1.117577075958252,-0.16035200655460358
1710891162172455700,6.79245556640625,-1.5372412204742432,1.1032217741012573,-0.17531819641590118
1710891162191415800,6.811415771484375,-1.5219695568084717,0.9859357476234436,-0.27519458532333374
1710891162210376400,6.83037646484375,-1.4245367050170898,0.9706641435623169,-0.2874118685722351
1710891162229336800,6.8493369140625,-1.350927472114563,1.0580178499221802,-0.14477495849132538
1710891162248297200,6.868297119140625,-1.1743875741958618,1.0567960739135742,-0.026878049597144127
1710891162267257600,6.887257568359375,-0.9532544612884521,0.8933897614479065,0.04245510324835777
1710891162286218000,6.906218017578125,-0.7278453707695007,0.6637045741081238,0.05406153202056885
1710891162305178400,6.925178466796875,-0.5827649831771851,0.472198486328125,0.04825831577181816
1710891162324138800,6.944138671875,-0.5024362802505493,0.3802633285522461,0.06200277432799339
1710891162343099100,6.96309912109375,-0.3906480371952057,0.3546070158481598,0.08857539296150208
1710891162362059800,6.982059814453125,-0.2712239623069763,0.3503309488296509,0.12950333952903748
1710891162381020200,7.001020263671875,-0.22999058663845062,0.44379326701164246,0.24923282861709595
1710891162399980500,7.01998046875,-0.2623664140701294,0.49663305282592773,0.37110036611557007
1710891162418941000,7.03894091796875,-0.2620609998703003,0.467006117105484,0.4370737373828888
1710891162437901300,7.0579013671875,-0.17226386070251465,0.3591884970664978,0.44501498341560364
1710891162456861700,7.07686181640625,-0.08460476994514465,0.17562362551689148,0.4156934916973114
1710891162475822300,7.095822265625,-0.06108647957444191,0.06841685622930527,0.3552178740501404
1710891162494782700,7.11478271484375,-0.06017018109560013,0.018631376326084137,0.25900667905807495
1710891162513743000,7.1337431640625,-0.06017018109560013,0.005192350596189499,0.16279546916484833
1710891162532703500,7.152703369140625,-0.09315688163042068,0.003359756199643016,0.08643736690282822
1710891162551663900,7.171663818359375,-0.14019346237182617,0.008246674202382565,0.009162971749901772
1710891162570624300,7.190624267578125,-0.168904110789299,0.009162971749901772,-0.0818558782339096
1710891162589585000,7.2095849609375,-0.189673513174057,0.02260199747979641,-0.15577052533626556
1710891162608545300,7.228545166015625,-0.20402882993221283,-0.001832594396546483,-0.19608759880065918
1710891162627505700,7.247505615234375,-0.1496618688106537,-0.06291907280683517,-0.23304490745067596
1710891162646466000,7.266466064453125,-0.08521563559770584,-0.10873392969369888,-0.25961753726005554
1710891162665426400,7.285426513671875,-0.07116574794054031,-0.1585194170475006,-0.2519817352294922
1710891162684386800,7.30438671875,-0.08399390429258347,-0.1747073233127594,-0.23365578055381775
1710891162703347500,7.323347412109375,-0.05742128938436508,-0.18723005056381226,-0.21502439677715302
1710891162722307800,7.342307861328125,0.024434590712189674,-0.2049451321363449,-0.20433427393436432
1710891162741268200,7.361268310546875,0.0818558782339096,-0.30115634202957153,-0.2153298407793045
1710891162760228600,7.380228515625,0.07635809481143951,-0.3811796307563782,-0.235793799161911
1710891162779189000,7.39918896484375,0.02412915788590908,-0.425467312335968,-0.25411975383758545
1710891162798149400,7.4181494140625,-0.008246674202382565,-0.448069304227829,-0.2809978127479553
1710891162817110000,7.437110107421875,-0.06291907280683517,-0.4673115611076355,-0.3500255048274994
1710891162836070400,7.4560703125,-0.1487455666065216,-0.4367683231830597,-0.4407389461994171
1710891162855030800,7.47503076171875,-0.20189081132411957,-0.3656025826931,-0.5479456782341003
1710891162873991200,7.4939912109375,-0.2525925934314728,-0.3543015718460083,-0.6462949514389038
1710891162892951600,7.51295166015625,-0.31123560667037964,-0.4819723069667816,-0.731510579586029
1710891162911912200,7.531912109375,-0.3497200906276703,-0.6603448390960693,-0.8600975871086121
1710891162930872600,7.55087255859375,-0.36743515729904175,-0.7354812026023865,-0.9847140312194824
1710891162949833000,7.5698330078125,-0.3640754222869873,-0.84177166223526,-1.099556565284729
1710891162968793300,7.58879345703125,-0.25900667905807495,-0.880256175994873,-1.2483022212982178
1710891162987753700,7.607753662109375,-0.18356487154960632,-0.813671886920929,-1.285259485244751
1710891163006714400,7.62671435546875,-0.2922987937927246,-0.7327322959899902,-1.202792763710022
1710891163025674800,7.6456748046875,-0.34147340059280396,-0.7284562587738037,-1.1343759298324585
1710891163044635100,7.66463525390625,-0.29504770040512085,-0.6466003656387329,-1.0409135818481445
1710891163063595500,7.683595458984375,-0.3197877109050751,-0.6123919486999512,-0.80389803647995
1710891163082556200,7.70255615234375,-0.3271180987358093,-0.6887500286102295,-0.6102539300918579
1710891163101516500,7.7215166015625,-0.27427828311920166,-0.7632755637168884,-0.49541133642196655
1710891163120477000,7.740476806640625,-0.268169641494751,-0.8121446967124939,-0.43279770016670227
1710891163139437300,7.759437255859375,-0.22724169492721558,-0.7922916412353516,-0.4202749729156494
1710891163158397700,7.778397705078125,-0.13591741025447845,-0.7250964641571045,-0.44470956921577454
1710891163177358300,7.7973583984375,-0.07086031138896942,-0.6811142563819885,-0.4413498044013977
1710891163196318700,7.816318603515625,-0.06444623321294785,-0.7211259007453918,-0.4101957082748413
1710891163215279000,7.835279052734375,-0.10506874322891235,-0.7458658814430237,-0.3591884970664978
1710891163234239500,7.854239501953125,-0.14996729791164398,-0.8072578310966492,-0.33108872175216675
1710891163253200100,7.8732001953125,-0.15668681263923645,-0.8109229803085327,-0.2861901521682739
1710891163272160500,7.892160400390625,-0.21410810947418213,-0.8142827749252319,-0.19608759880065918
1710891163291121000,7.911120849609375,-0.32100942730903625,-0.9120211005210876,-0.033597562462091446
1710891163310081300,7.930081298828125,-0.32100942730903625,-0.8967494964599609,0.06017018109560013
1710891163329042000,7.9490419921875,-0.2968802750110626,-0.9587522745132446,0.061391908675432205
1710891163348002300,7.968002197265625,-0.2715294063091278,-0.952643632888794,-0.007941242307424545
1710891163366962700,7.986962646484375,-0.3491092324256897,-0.9932661056518555,-0.22235478460788727
1710891163385923300,8.00592333984375,-0.5525271892547607,-1.026863694190979,-0.44440412521362305
1710891163404883700,8.0248837890625,-0.7342594861984253,-1.046411395072937,-0.7434224486351013
1710891163423844000,8.043843994140625,-0.9392045736312866,-0.7470875978469849,-1.1368193626403809
1710891163442804500,8.062804443359376,-1.0323615074157715,-0.35246896743774414,-1.5919135808944702
1710891163461765000,8.08176513671875,-1.1129956245422363,-0.029932374134659767,-1.9495749473571777
1710891163480725500,8.1007255859375,-1.0674861669540405,0.1542433500289917,-2.0861032009124756
1710891163499686000,8.119685791015625,-0.9660826325416565,0.2663370370864868,-2.0720534324645996
1710891163518646300,8.138646240234374,-0.7571669220924377,0.31581708788871765,-1.9010112285614014
1710891163537606700,8.157606689453125,-0.5595521330833435,0.3289506733417511,-1.609628677368164
1710891163556567300,8.1765673828125,-0.47922343015670776,0.3454440236091614,-1.193018913269043
1710891163575527700,8.195527587890625,-0.4987711012363434,0.3326158821582794,-0.7629700899124146
1710891163594488000,8.214488037109374,-0.4682278633117676,0.2415970265865326,-0.347582072019577
1710891163613448700,8.23344873046875,-0.4153880476951599,0.08796452730894089,-0.07330377399921417
1710891163632409000,8.2524091796875,-0.42424559593200684,0.10415244847536087,0.07116574794054031
1710891163651369500,8.271369384765626,-0.4251618981361389,0.14813470840454102,0.1282816082239151
1710891163670330000,8.290330078125,-0.4560105502605438,0.0769689604640007,0.23457208275794983
1710891163689290500,8.30929052734375,-0.517707884311676,0.026878049597144127,0.291687935590744
1710891163708251000,8.3282509765625,-0.4560105502605438,-0.06383536756038666,0.25473061203956604
1710891163727211300,8.347211181640626,-0.2202167510986328,-0.21319180727005005,0.189673513174057
1710891163746172000,8.366171875,-0.06719512492418289,-0.24526220560073853,0.20158538222312927
1710891163765132300,8.38513232421875,-0.0668896958231926,-0.18631376326084137,0.17134757339954376
1710891163784092700,8.4040927734375,-0.0461202897131443,-0.18814635276794434,0.0824667438864708
1710891163803053300,8.42305322265625,0.09834922850131989,-0.18295399844646454,-0.004581485874950886
1710891163822013700,8.442013671875,0.28466299176216125,-0.09621120244264603,-0.1496618688106537
1710891163840974000,8.46097412109375,0.41355544328689575,-0.12736530601978302,-0.23396120965480804
1710891163859934500,8.4799345703125,0.4462367296218872,-0.17043127119541168,-0.2984074354171753
1710891163878895000,8.49889501953125,0.46608981490135193,-0.29077163338661194,-0.28496840596199036
1710891163897855500,8.51785546875,0.4477638900279999,-0.36651885509490967,-0.13194678723812103
1710891163916816000,8.53681591796875,0.40805765986442566,-0.37720900774002075,0.0204639695584774
1710891163935776500,8.555776611328126,0.3494146466255188,-0.40958482027053833,0.21716243028640747
1710891163954737000,8.57473681640625,0.3194822669029236,-0.40317076444625854,0.4251618981361389
1710891163973697300,8.593697265625,0.3497200906276703,-0.38820457458496094,0.630107045173645
1710891163992658000,8.612657958984375,0.36132651567459106,-0.38667741417884827,0.7452550530433655
1710891164011618300,8.631618408203124,0.35063639283180237,-0.4676169753074646,0.7336485981941223
1710891164030578700,8.65057861328125,0.39248061180114746,-0.5708531141281128,0.7440332770347595
1710891164049539000,8.6695390625,0.4120282828807831,-0.630107045173645,0.7089085578918457
1710891164068499500,8.68849951171875,0.3454440236091614,-0.6319395899772644,0.5955931544303894
1710891164087460000,8.707460205078124,0.3124573230743408,-0.5488619804382324,0.4520399272441864
1710891164106420500,8.72642041015625,0.281914085149765,-0.4361574649810791,0.35155269503593445
1710891164125381000,8.745381103515625,0.22479823231697083,-0.29413139820098877,0.27519458532333374
1710891164144341500,8.764341552734376,0.20799945294857025,-0.43004879355430603,0.09407317638397217
1710891164163302000,8.783302001953125,0.29626941680908203,-0.5876519083976746,-0.004581485874950886
1710891164182262300,8.80226220703125,0.547029435634613,-0.6282744407653809,-0.0308486707508564
1710891164201223000,8.821222900390625,0.6927206516265869,-0.5729911923408508,-0.053145237267017365
1710891164220183300,8.840183349609376,0.7632755637168884,-0.4972439408302307,-0.04550942778587341
1710891164239143700,8.859143798828125,0.7993165850639343,-0.39736753702163696,0.015271619893610477
1710891164258104000,8.87810400390625,0.7195987105369568,-0.40744680166244507,0.14782927930355072
1710891164277064700,8.897064697265625,0.6209440231323242,-0.4266890585422516,0.36651885509490967
1710891164296025000,8.916025146484374,0.5919279456138611,-0.4324922561645508,0.6310232877731323
1710891164314985700,8.93498583984375,0.5326740741729736,-0.4828886091709137,0.8274163603782654
1710891164333946000,8.953946044921874,0.45539969205856323,-0.49571678042411804,0.9178243279457092
1710891164352906500,8.972906494140625,0.4831940531730652,-0.5018253922462463,0.9376774430274963
1710891164371867000,8.991866943359375,0.6053670048713684,-0.41386088728904724,0.9107993841171265
1710891164390827300,9.0108271484375,0.6896663308143616,-0.3246746361255646,0.7919861674308777
1710891164409788000,9.029787841796875,0.7651081085205078,-0.26389357447624207,0.7568614482879639
1710891164428748300,9.048748291015626,0.8167262077331543,-0.20280711352825165,0.7040216326713562
1710891164447708700,9.067708740234375,0.8643736839294434,-0.24465134739875793,0.713184654712677
1710891164466669300,9.08666943359375,0.8723149299621582,-0.21746785938739777,0.6719512343406677
1710891164485629700,9.105629638671875,0.8625410795211792,-0.24251331388950348,0.6716458201408386
1710891164504590000,9.124590087890626,0.8170316219329834,-0.1945604383945465,0.7012727856636047
1710891164523550700,9.14355078125,0.7180715203285217,-0.12522727251052856,0.7122683525085449
1710891164542511000,9.162510986328124,0.6823359727859497,-0.08979712426662445,0.6805033683776855
1710891164561471500,9.181471435546875,0.739757239818573,-0.14233149588108063,0.6224712133407593
1710891164580432000,9.200431884765624,0.7718276381492615,-0.19211697578430176,0.5784889459609985
1710891164599392500,9.219392578125,0.7507528066635132,-0.21471896767616272,0.5482511520385742
1710891164618353000,9.238352783203124,0.7764091491699219,-0.15088360011577606,0.5445859432220459
1710891164637313300,9.257313232421875,0.8161153197288513,-0.14752385020256042,0.6044507026672363
1710891164656274000,9.27627392578125,0.8625410795211792,-0.14660754799842834,0.6166679859161377
1710891164675234300,9.295234375,0.9233221411705017,-0.2000582218170166,0.618806004524231
1710891164694194700,9.314194580078125,0.9282090067863464,-0.2370155304670334,0.6887500286102295
1710891164713155300,9.3331552734375,0.8833104968070984,-0.24465134739875793,0.7519745230674744
1710891164732115700,9.35211572265625,0.8387173414230347,-0.23457208275794983,0.7608320713043213
1710891164751076000,9.371076171875,0.8436042666435242,-0.2666424810886383,0.8115338683128357
1710891164770036500,9.390036376953125,0.8564324378967285,-0.3087921440601349,0.8860593438148499
1710891164788997000,9.4089970703125,0.8491020202636719,-0.3686569035053253,0.9104939699172974
1710891164807957500,9.42795751953125,0.8368847370147705,-0.41233372688293457,0.9636391997337341
1710891164826918000,9.44691796875,0.8570432662963867,-0.43951719999313354,1.0128138065338135
1710891164845878500,9.46587841796875,0.9004147052764893,-0.4740310609340668,0.9737184643745422
1710891164864839000,9.4848388671875,0.9450078010559082,-0.40286532044410706,0.934012234210968
1710891164883799300,9.50379931640625,0.9859357476234436,-0.35582873225212097,0.9098830819129944
1710891164902759700,9.522759765625,0.9944878816604614,-0.37843072414398193,0.8707877397537231
1710891164921720300,9.54172021484375,0.9587522745132446,-0.2678641974925995,0.8799507021903992
1710891164940680700,9.5606806640625,0.9425643682479858,-0.22846342623233795,0.8610138893127441
1710891164959641300,9.579641357421876,0.9556979537010193,-0.21868959069252014,0.851545512676239
1710891164978601700,9.598601806640625,0.9798271059989929,-0.2205221801996231,0.8439096808433533
1710891164997562000,9.61756201171875,0.9792162179946899,-0.20341797173023224,0.8518509268760681
1710891165016522500,9.6365224609375,0.9856303334236145,-0.14110976457595825,0.9379828572273254
1710891165035483100,9.655483154296874,0.9880737662315369,-0.2000582218170166,0.9700532555580139
1710891165054443500,9.674443603515625,0.9700532555580139,-0.250149130821228,0.9480621218681335
1710891165073404000,9.69340380859375,0.9477567076683044,-0.31093016266822815,0.9315688014030457
1710891165092364500,9.712364501953125,0.9474512934684753,-0.23426663875579834,0.9761618971824646
1710891165111325000,9.731324951171874,0.9761618971824646,-0.1948658674955368,0.9544762372970581
1710891165130285300,9.750285400390625,0.9938769936561584,-0.28008151054382324,0.8842267394065857
1710891165149246000,9.769245849609375,1.0091485977172852,-0.27519458532333374,0.8106175661087036
1710891165168206300,9.788206298828126,1.053436279296875,-0.2513708472251892,0.7400626540184021
1710891165187166700,9.807166748046875,1.053130865097046,-0.27030766010284424,0.6902772188186646
1710891165206127000,9.826127197265626,0.9804379940032959,-0.2522871494293213,0.6829468011856079
1710891165225087700,9.845087646484375,0.926376461982727,-0.235793799161911,0.6994401812553406
1710891165244048100,9.864048095703126,0.9004147052764893,-0.2009745091199875,0.7067705392837524
1710891165263008500,9.883008544921875,0.8860593438148499,-0.21135921776294708,0.7174606919288635
1710891165281969200,9.90196923828125,0.8875865340232849,-0.28954991698265076,0.6728675365447998
1710891165300929500,9.920929443359375,0.8756746649742126,-0.3179551064968109,0.62857985496521
1710891165319890000,9.939889892578124,0.8527672290802002,-0.30970844626426697,0.6337721943855286
1710891165338850300,9.958850341796875,0.8109229803085327,-0.35643959045410156,0.6554579138755798
1710891165357811000,9.97781103515625,0.7547234296798706,-0.33505934476852417,0.6640099883079529
1710891165376771300,9.996771240234375,0.7999274134635925,-0.1432477980852127,0.6417134404182434
1710891165395732000,10.01573193359375,0.8909462690353394,-0.01435532234609127,0.5473348498344421
1710891165414692400,10.0346923828125,0.9037744402885437,0.005803215317428112,0.4932733178138733
1710891165433652700,10.05365283203125,0.8765909671783447,0.07849612087011337,0.4990765154361725
1710891165452613000,10.072613037109376,0.7999274134635925,0.1127045527100563,0.5271763205528259
1710891165471573800,10.09157373046875,0.7327322959899902,0.08765909820795059,0.5064069032669067
1710891165490534100,10.1105341796875,0.6969966888427734,0.031154103577136993,0.49632763862609863
1710891165509494800,10.129494873046875,0.6881392002105713,-0.026572618633508682,0.49021899700164795
1710891165528455200,10.148455078125,0.6808087825775146,-0.14752385020256042,0.467006117105484
1710891165547415600,10.16741552734375,0.6918043494224548,-0.20189081132411957,0.4376846253871918
1710891165566376000,10.1863759765625,0.6918043494224548,-0.17256930470466614,0.43829548358917236
1710891165585336600,10.205336669921875,0.6722567081451416,-0.10354158282279968,0.4572322964668274
1710891165604297000,10.224296875,0.6545416116714478,0.018631376326084137,0.4877755343914032
1710891165623257300,10.24325732421875,0.609948456287384,0.023518294095993042,0.4401280879974365
1710891165642218000,10.262218017578125,0.5845975875854492,0.0204639695584774,0.4612029194831848
1710891165661178400,10.281178466796876,0.6398808360099792,0.08582650125026703,0.5140427350997925
1710891165680138800,10.300138671875,0.7113520503044128,0.017104214057326317,0.544891357421875
1710891165699099100,10.31909912109375,0.7086031436920166,-0.04764745384454727,0.6117810606956482
1710891165718059800,10.338059814453125,0.6728675365447998,-0.06902772188186646,0.6224712133407593
1710891165737020200,10.357020263671876,0.6542361974716187,-0.16310089826583862,0.5812378525733948
1710891165755980500,10.37598046875,0.6768381595611572,-0.1792888194322586,0.5983420610427856
1710891165774941200,10.394941162109374,0.7009673118591309,-0.1737910360097885,0.6395754218101501
1710891165793901600,10.413901611328125,0.68386310338974,-0.17715078592300415,0.6108647584915161
1710891165812862000,10.432862060546874,0.6692023873329163,-0.08491020649671555,0.5861247777938843
1710891165831822600,10.451822509765625,0.674700140953064,0.02412915788590908,0.574212908744812
1710891165850783000,10.470782958984374,0.6927206516265869,0.11087195575237274,0.5784889459609985
1710891165869743400,10.489743408203125,0.6875283122062683,0.11606431007385254,0.5516108870506287
1710891165888703700,10.508703857421875,0.7012727856636047,0.18356487154960632,0.5610793232917786
1710891165907664400,10.527664306640625,0.7510582208633423,0.2706131041049957,0.5696313977241516
1710891165926624800,10.546624755859375,0.7516691088676453,0.25381430983543396,0.49510589241981506
1710891165945585200,10.565585205078126,0.7308996915817261,0.2367101013660431,0.3912588953971863
1710891165964545800,10.5845458984375,0.7363975048065186,0.28405213356018066,0.33108872175216675
1710891165983506200,10.603506103515626,0.7666352987289429,0.40378162264823914,0.3191768527030945
1710891166002466600,10.622466552734375,0.7440332770347595,0.5314523577690125,0.3026835024356842
1710891166021427200,10.64142724609375,0.7382301092147827,0.6331613659858704,0.3066541254520416
1710891166040387600,10.6603876953125,0.7425061464309692,0.6493492722511292,0.33047783374786377
1710891166059348000,10.679347900390624,0.7327322959899902,0.5033525824546814,0.28557929396629333
1710891166078308400,10.698308349609375,0.749531090259552,0.32589635252952576,0.24342961609363556
1710891166097269000,10.71726904296875,0.7910698652267456,0.2987128794193268,0.31001389026641846
1710891166116229400,10.7362294921875,0.8087849617004395,0.1646280586719513,0.4166097939014435
1710891166135189800,10.755189697265624,0.8026763200759888,-0.12431098520755768,0.42424559593200684
1710891166154150400,10.774150390625,0.7898481488227844,-0.21960589289665222,0.38820457458496094
1710891166173110800,10.79311083984375,0.720820426940918,-0.12522727251052856,0.36835145950317383
1710891166192071200,10.8120712890625,0.6560688018798828,-0.03145953640341759,0.33567020297050476
1710891166211031600,10.831031494140625,0.6429351568222046,0.09040798991918564,0.2706131041049957
1710891166229992200,10.8499921875,0.5897899270057678,0.25534147024154663,0.21899501979351044
1710891166248952600,10.86895263671875,0.49541133642196655,0.43401941657066345,0.23212862014770508
1710891166267913000,10.887912841796876,0.4581485986709595,0.518318772315979,0.17776164412498474
1710891166286873600,10.90687353515625,0.47525280714035034,0.476779967546463,0.1029307171702385
1710891166305834000,10.925833984375,0.47006043791770935,0.46517354249954224,0.11362084746360779
1710891166324794400,10.94479443359375,0.364991694688797,0.49541133642196655,0.17226386070251465
1710891166343755000,10.963755126953124,0.2935205399990082,0.5106829404830933,0.15302163362503052
1710891166362715400,10.98271533203125,0.23304490745067596,0.6401863098144531,0.044898562133312225
1710891166381675800,11.00167578125,0.20647229254245758,0.8139773011207581,-0.07360920310020447
1710891166400636200,11.02063623046875,0.1597411334514618,0.8683443069458008,-0.18081597983837128
1710891166419596800,11.0395966796875,0.06597339361906052,0.804814338684082,-0.20922118425369263
1710891166438557200,11.05855712890625,0.0256563201546669,0.7040216326713562,-0.1902843713760376
1710891166457517800,11.077517822265625,0.010079269297420979,0.5006036758422852,-0.12247838824987411
1710891166476478200,11.096478271484376,-0.011300998739898205,0.1847866028547287,-0.07910698652267456
1710891166495438600,11.1154384765625,-0.000610864779446274,-0.09865466505289078,-0.03481929376721382
1710891166514399000,11.13439892578125,0.008246674202382565,-0.26450446248054504,0.013744457624852657
1710891166533359400,11.153359375,0.023518294095993042,-0.360410213470459,0.05711585655808449
1710891166552320000,11.172320068359374,0.035735588520765305,-0.4453204274177551,0.06200277432799339
1710891166571280400,11.1912802734375,0.041844237595796585,-0.44990190863609314,0.012522728182375431
1710891166590241000,11.210240966796874,0.07024945318698883,-0.2657261788845062,-0.06536252796649933
1710891166609201400,11.229201416015625,0.09346231073141098,0.09987638890743256,-0.15149445831775665
1710891166628161800,11.248161865234374,0.10079269111156464,0.46914416551589966,-0.23762640357017517
1710891166647122200,11.2671220703125,0.10354158282279968,0.6771436333656311,-0.2718348205089569
1710891166666082800,11.286082763671875,0.06017018109560013,0.6826413869857788,-0.2669478952884674
1710891166685043200,11.305043212890626,0.015271619893610477,0.5934551358222961,-0.2406807243824005
1710891166704003800,11.32400390625,0.08399390429258347,0.5057960152626038,-0.18142683804035187
1710891166722964200,11.342964111328126,0.15546508133411407,0.3430005609989166,-0.1026252806186676
1710891166741924600,11.361924560546875,0.13927717506885529,0.14721840620040894,-0.050090912729501724
1710891166760885000,11.380885009765626,0.11392628401517868,0.016798781231045723,-0.024740023538470268
1710891166779845600,11.399845703125,0.1233946830034256,-0.02626718580722809,0.002443459117785096
1710891166798806000,11.418805908203124,0.07574722915887833,-0.00946840364485979,-0.017104214057326317
1710891166817766700,11.4377666015625,0.00946840364485979,0.07483093440532684,-0.013133592903614044
1710891166836727000,11.45672705078125,-0.011300998739898205,0.15485422313213348,-0.007941242307424545
1710891166855687400,11.4756875,0.0360410213470459,0.17806708812713623,0.014660755172371864
1710891166874647800,11.494647705078124,0.06841685622930527,0.1542433500289917,0.015271619893610477
1710891166893608400,11.5136083984375,0.04062250629067421,0.15638138353824615,0.0030543238390237093
1710891166912568800,11.53256884765625,0.02626718580722809,0.18417572975158691,0.017715077847242355
1710891166931529500,11.551529541015626,0.04825831577181816,0.1798996776342392,0.03481929376721382
1710891166950489900,11.57048974609375,0.035735588520765305,0.1539379209280014,-0.010690134018659592
1710891166969450200,11.5894501953125,-0.005192350596189499,0.17806708812713623,-0.04581485688686371
1710891166988411000,11.608410888671875,-0.019853105768561363,0.22968515753746033,-0.030543239787220955
1710891167007371300,11.627371337890626,-0.044898562133312225,0.24740023910999298,-0.05100720748305321
1710891167026331600,11.64633154296875,-0.06047561392188072,0.1957821547985077,-0.07849612087011337
1710891167045292300,11.665292236328124,-0.05558869615197182,0.14294235408306122,-0.056810423731803894
1710891167064252700,11.684252685546875,-0.0461202897131443,0.08765909820795059,-0.01893680728971958
1710891167083213300,11.70321337890625,-0.0360410213470459,0.0461202897131443,-0.006414080038666725
1710891167102173700,11.722173583984375,-0.03298669680953026,0.02260199747979641,-0.016798781231045723
1710891167121134000,11.741134033203124,-0.05833758786320686,0.03481929376721382,-0.01588248461484909
1710891167140094700,11.7600947265625,-0.07941242307424545,0.07391463965177536,-0.021991131827235222
1710891167159055000,11.77905517578125,-0.08368847519159317,0.14019346237182617,-0.02626718580722809
1710891167178015700,11.798015625,-0.07788526266813278,0.18753549456596375,-0.025350889191031456
1710891167196976000,11.81697607421875,-0.06291907280683517,0.18814635276794434,-0.010384701192378998
1710891167215936500,11.8359365234375,-0.05497783049941063,0.1740964651107788,-0.013744457624852657
1710891167234897200,11.854897216796875,-0.03695731982588768,0.1594357043504715,-0.007635809946805239
1710891167253857500,11.873857421875,-0.03634645417332649,0.16096286475658417,0.0021380267571657896
1710891167272818000,11.89281787109375,-0.047036588191986084,0.18112140893936157,-0.008552107028663158
1710891167291778600,11.911778564453124,-0.053756099194288254,0.17806708812713623,-0.016187917441129684
1710891167310739000,11.930739013671875,-0.04673115536570549,0.16249002516269684,-0.001832594396546483
1710891167329699600,11.949699462890624,-0.035735588520765305,0.1798996776342392,-0.006108647678047419
1710891167348660000,11.968659912109375,-0.03329212963581085,0.23793183267116547,-0.044898562133312225
1710891167367620600,11.98762060546875,-0.043982263654470444,0.25503605604171753,-0.05253437161445618
1710891167386581000,12.0065810546875,-0.049480047076940536,0.16798780858516693,-0.01649334840476513
1710891167405541400,12.025541259765625,-0.04673115536570549,0.01954767294228077,0.036651886999607086
1710891167424502000,12.044501953125,-0.024740023538470268,-0.10934479534626007,0.0720820426940918
1710891167443462400,12.06346240234375,-0.0015271619195118546,-0.17165300250053406,0.05925388261675835
1710891167462422800,12.0824228515625,0.011606430634856224,-0.15729768574237823,0.03543015569448471
1710891167481383400,12.101383544921875,0.008552107028663158,-0.09040798991918564,0.006719512399286032
1710891167500344000,12.120343994140624,-0.005192350596189499,-0.018325943499803543,0.006108647678047419
1710891167519304400,12.139304443359375,-0.019853105768561363,-0.016187917441129684,0.011911863461136818
1710891167538264800,12.158264892578124,-0.024434590712189674,-0.06291907280683517,0.029016077518463135
1710891167557225500,12.1772255859375,-0.009162971749901772,-0.10720676928758621,0.04978547990322113
1710891167576185900,12.196185791015624,0,-0.14996729791164398,0.06719512492418289
1710891167595146200,12.215146240234375,0.004276053514331579,-0.1542433500289917,0.057726722210645676
1710891167614107000,12.23410693359375,0.014049889519810677,-0.09498947113752365,0.04306596517562866
1710891167633067300,12.2530673828125,0.010690134018659592,-0.02779434807598591,0.018631376326084137
1710891167652028000,12.27202783203125,-0.007941242307424545,0.0030543238390237093,0.013744457624852657
1710891167670988300,12.29098828125,-0.008552107028663158,0.0021380267571657896,0.018325943499803543
1710891167689949000,12.309948974609375,0.015577051788568497,-0.051618073135614395,0.010384701192378998
1710891167708909300,12.328909423828126,0.04581485688686371,-0.14508038759231567,0.025961752980947495
1710891167727870000,12.347869873046875,0.03695731982588768,-0.21930044889450073,0.04673115536570549
1710891167746830300,12.366830322265624,0.02871064469218254,-0.25870123505592346,0.049480047076940536
1710891167765790700,12.385790771484375,0.037262752652168274,-0.2406807243824005,0.0308486707508564
1710891167784751400,12.40475146484375,0.03817904740571976,-0.17562362551689148,0.007024944759905338
1710891167803711700,12.423711669921875,0.015577051788568497,-0.08368847519159317,-0.021685699000954628
1710891167822672400,12.44267236328125,0.005803215317428112,0,-0.0360410213470459
1710891167841633000,12.461633056640625,0.019242240116000175,0.04001164436340332,-0.04764745384454727
1710891167860593400,12.480593505859375,0.021685699000954628,0.04764745384454727,-0.05039634555578232
1710891167879553800,12.4995537109375,0.010995565913617611,0.05558869615197182,-0.06017018109560013
1710891167898514400,12.518514404296875,0.00946840364485979,0.04825831577181816,-0.05742128938436508
1710891167917474800,12.537474853515626,0.021991131827235222,0.023212861269712448,-0.037262752652168274
1710891167936435500,12.556435546875,0.014660755172371864,-0.02718348242342472,-0.028099779039621353
1710891167955395800,12.575395751953126,0.003359756199643016,-0.04550942778587341,-0.031154103577136993
1710891167974356200,12.594356201171875,0.013744457624852657,-0.024434590712189674,-0.03298669680953026
1710891167993316900,12.61331689453125,0.021380268037319183,0.00946840364485979,-0.043371398001909256
1710891168012277500,12.632277587890625,0.010995565913617611,0.0409279391169548,-0.05742128938436508
1710891168031238000,12.65123779296875,-0.004276053514331579,0.07269290834665298,-0.05955931544303894
1710891168050198500,12.670198486328125,-0.013744457624852657,0.0977383628487587,-0.05345066636800766
1710891168069159000,12.689158935546875,0,0.07513637095689774,-0.04062250629067421
1710891168088119600,12.70811962890625,0.002443459117785096,-0.001221729558892548,-0.000610864779446274
1710891168107080000,12.727079833984375,0.017104214057326317,-0.0824667438864708,0.011300998739898205
1710891168126040300,12.746040283203126,0.03634645417332649,-0.11423171311616898,0.017104214057326317
1710891168145001000,12.7650009765625,0.03634645417332649,-0.10690133273601532,0.014049889519810677
1710891168163961300,12.78396142578125,0.049480047076940536,-0.07299833744764328,0.008552107028663158
1710891168182922000,12.802921875,0.039706211537122726,-0.014049889519810677,-0.01893680728971958
1710891168201882400,12.82188232421875,0.014660755172371864,0.03787361457943916,-0.03481929376721382
1710891168220843000,12.840843017578125,0.009162971749901772,0.05436696484684944,-0.03329212963581085
1710891168239803600,12.8598037109375,0.02107483521103859,0.008246674202382565,-0.021380268037319183
1710891168258764000,12.878763916015625,0.01740964688360691,-0.04214967042207718,-0.0256563201546669
1710891168277724700,12.897724609375,0.008857538923621178,-0.02412915788590908,-0.03237583488225937
1710891168296685000,12.91668505859375,0.010384701192378998,0.04825831577181816,-0.03023780696094036
1710891168315645700,12.935645751953125,-0.006108647678047419,0.09437860548496246,-0.04306596517562866
1710891168334606000,12.954606201171876,-0.020158538594841957,0.11239911615848541,-0.053145237267017365
1710891168353566500,12.97356640625,-0.018325943499803543,0.14049890637397766,-0.03176496922969818
1710891168372527000,12.992527099609376,-0.018631376326084137,0.15057817101478577,-0.033597562462091446
1710891168391487500,13.011487548828125,0.003665188793092966,0.1127045527100563,-0.03909534588456154
1710891168410448100,13.0304482421875,0.015271619893610477,0.04978547990322113,-0.022296564653515816
1710891168429408500,13.049408447265625,-0.005803215317428112,0.005803215317428112,-0.009162971749901772
1710891168448369200,13.068369140625,-0.03390299528837204,0.003359756199643016,-0.0027488914784044027
1710891168467329800,13.087329833984375,-0.013439024798572063,0.02871064469218254,0.0015271619195118546
1710891168486290200,13.106290283203125,0.003970621153712273,0.031154103577136993,0.001221729558892548
1710891168505250800,13.125250732421875,-0.007941242307424545,0.01893680728971958,-0.008246674202382565
1710891168524211200,13.144211181640625,-0.01588248461484909,0.046425722539424896,-0.01649334840476513
1710891168543171800,13.163171875,-0.01588248461484909,0.09957095980644226,-0.029626941308379173
1710891168562132200,13.18213232421875,-0.02932151034474373,0.1334739476442337,-0.03176496922969818
1710891168581092900,13.2010927734375,-0.05070177838206291,0.1444695144891739,-0.02779434807598591
1710891168600053200,13.22005322265625,-0.04306596517562866,0.12950333952903748,-0.013439024798572063
1710891168619014000,13.239013916015624,-0.017715077847242355,0.06994401663541794,-0.008246674202382565
1710891168637974300,13.257974365234375,-0.023212861269712448,0.023823726922273636,-0.012522728182375431
1710891168656935000,13.276934814453124,-0.030543239787220955,0.029016077518463135,-0.012217295356094837
1710891168675895300,13.295895263671875,-0.02412915788590908,0.05070177838206291,0.012522728182375431
1710891168694856000,13.31485595703125,-0.019853105768561363,0.053756099194288254,0.001221729558892548
1710891168713816600,13.333816650390625,-0.021685699000954628,0.05589412897825241,-0.016798781231045723
1710891168732777000,13.35277685546875,-0.025350889191031456,0.07757982611656189,-0.006719512399286032
1710891168751737600,13.371737548828126,-0.026572618633508682,0.06230820715427399,0.007330377586185932
1710891168770698000,13.390697998046875,-0.012522728182375431,0.0009162971982732415,0.011911863461136818
1710891168789658600,13.40965869140625,0.007024944759905338,-0.032681263983249664,0.004276053514331579
1710891168808619000,13.428618896484375,0.003970621153712273,-0.021380268037319183,-0.0054977829568088055
1710891168827579600,13.44757958984375,-0.005803215317428112,0.002443459117785096,-0.0009162971982732415
1710891168846540000,13.4665400390625,-0.004581485874950886,0.017715077847242355,0.018325943499803543
1710891168865500700,13.485500732421874,-0.010384701192378998,0.001221729558892548,0.017104214057326317
1710891168884461000,13.5044609375,-0.022296564653515816,-0.026572618633508682,0.006414080038666725
1710891168903421700,13.523421630859374,-0.014966187067329884,-0.02718348242342472,0.007635809946805239
1710891168922382000,13.542382080078125,-0.003665188793092966,-0.017715077847242355,0.008552107028663158
1710891168941342700,13.5613427734375,-0.019242240116000175,-0.009162971749901772,0.001221729558892548
1710891168960303000,13.58030322265625,-0.026572618633508682,0.016187917441129684,-0.003665188793092966
1710891168979263700,13.599263671875,-0.016798781231045723,0.04214967042207718,-0.001832594396546483
1710891168998224100,13.61822412109375,-0.004581485874950886,0.03237583488225937,-0.003970621153712273
1710891169017184800,13.637184814453125,-0.00946840364485979,0.010079269297420979,-0.004581485874950886
1710891169036145200,13.656145263671876,-0.019242240116000175,0.010690134018659592,-0.006108647678047419
1710891169055105800,13.675105712890625,-0.011606430634856224,0.03940077871084213,-0.013744457624852657
1710891169074066200,13.694066162109374,-0.010384701192378998,0.03298669680953026,-0.013439024798572063
1710891169093026800,13.71302685546875,-0.0256563201546669,0.011911863461136818,-0.012522728182375431
1710891169111987200,13.7319873046875,-0.017104214057326317,0.025961752980947495,-0.017715077847242355
1710891169130947800,13.75094775390625,0.0054977829568088055,0.021380268037319183,-0.003970621153712273
1710891169149908200,13.769908203125,0.006414080038666725,-0.02932151034474373,-0.006719512399286032
1710891169168868900,13.788868896484376,-0.007330377586185932,-0.06597339361906052,-0.010079269297420979
1710891169187829200,13.807829345703125,0.0030543238390237093,-0.05528326332569122,0.0015271619195118546
1710891169206790000,13.826789794921876,0.010995565913617611,-0.044898562133312225,0.00946840364485979
1710891169225750500,13.84575048828125,0.006108647678047419,-0.053145237267017365,-0.0015271619195118546
1710891169244711000,13.8647109375,0.005192350596189499,-0.03451386094093323,-0.010384701192378998
1710891169263671600,13.883671630859375,0.020158538594841957,-0.004276053514331579,-0.006414080038666725
1710891169282632000,13.9026318359375,0.022296564653515816,-0.007635809946805239,-0.016187917441129684
1710891169301592300,13.92159228515625,0.020769402384757996,-0.01435532234609127,-0.032070402055978775
1710891169320553000,13.940552978515624,0.01954767294228077,0.019853105768561363,-0.038789913058280945
1710891169339513300,13.959513427734375,0.012217295356094837,0.08368847519159317,-0.05253437161445618
1710891169358474000,13.978473876953124,-0.002443459117785096,0.14233149588108063,-0.07635809481143951
1710891169377434400,13.997434326171875,-0.014966187067329884,0.18661919236183167,-0.09040798991918564
1710891169396395000,14.01639501953125,-0.015577051788568497,0.18600831925868988,-0.0922405794262886
1710891169415355400,14.03535546875,-0.0054977829568088055,0.1331685185432434,-0.08826996386051178
1710891169434316000,14.05431591796875,0.01282816007733345,0.04001164436340332,-0.0766635313630104
1710891169453276700,14.073276611328126,0.032070402055978775,-0.06475166976451874,-0.05925388261675835
1710891169472237000,14.092237060546875,0.05528326332569122,-0.15790854394435883,-0.035124726593494415
1710891169491197400,14.111197509765624,0.06994401663541794,-0.231212317943573,-0.010690134018659592
1710891169510158000,14.130157958984375,0.07055488228797913,-0.25350889563560486,-0.01282816007733345
1710891169529118500,14.149118408203124,0.06352993845939636,-0.21777328848838806,-0.032681263983249664
1710891169548079000,14.1680791015625,0.06597339361906052,-0.13713914155960083,-0.046425722539424896
1710891169567039500,14.18703955078125,0.056810423731803894,-0.04673115536570549,-0.06963858753442764
1710891169586000000,14.205999755859375,0.041844237595796585,0.012522728182375431,-0.09987638890743256
1710891169604960500,14.22496044921875,0.05070177838206291,0.043982263654470444,-0.10965022444725037
1710891169623921200,14.243921142578126,0.07147117704153061,0.03481929376721382,-0.10659590363502502
1710891169642881500,14.262881591796875,0.07422006875276566,0.02260199747979641,-0.11117739230394363
1710891169661842200,14.28184228515625,0.07574722915887833,0.033597562462091446,-0.12431098520755768
1710891169680802600,14.300802490234375,0.0772743970155716,0.039706211537122726,-0.1282816082239151
1710891169699763000,14.319762939453126,0.07452550530433655,0.01802051067352295,-0.11423171311616898
1710891169718723600,14.3387236328125,0.07330377399921417,-0.03909534588456154,-0.09437860548496246
1710891169737684000,14.35768408203125,0.07819069176912308,-0.09498947113752365,-0.08093958348035812
1710891169756644600,14.37664453125,0.07391463965177536,-0.1230892539024353,-0.0769689604640007
1710891169775605000,14.39560498046875,0.07849612087011337,-0.12003492563962936,-0.06261363625526428
1710891169794565600,14.414565673828125,0.07788526266813278,-0.09865466505289078,-0.05497783049941063
1710891169813526000,14.433526123046875,0.07024945318698883,-0.07635809481143951,-0.06230820715427399
1710891169832486700,14.452486572265625,0.05833758786320686,-0.056199558079242706,-0.06872228533029556
1710891169851447000,14.471447021484375,0.056199558079242706,-0.029932374134659767,-0.0766635313630104
1710891169870407400,14.490407470703126,0.04764745384454727,0.008246674202382565,-0.08063415437936783
1710891169889368000,14.5093681640625,0.0256563201546669,0.05589412897825241,-0.09315688163042068
1710891169908328400,14.528328369140626,0.023823726922273636,0.08491020649671555,-0.08949168771505356
1710891169927288800,14.547288818359375,0.025961752980947495,0.06933315098285675,-0.06750056147575378
1710891169946249500,14.56624951171875,0.015271619893610477,0.024434590712189674,-0.05925388261675835
1710891169965209900,14.5852099609375,-0.007330377586185932,-0.007941242307424545,-0.05558869615197182
1710891169984170500,14.60417041015625,0.0015271619195118546,-0.035124726593494415,-0.028099779039621353
1710891170003131000,14.623130859375,0.00946840364485979,-0.0616973415017128,-0.003359756199643016
1710891170022091500,14.642091552734374,-0.01802051067352295,-0.059864748269319534,-0.01740964688360691
1710891170041052000,14.661052001953125,-0.03451386094093323,-0.012522728182375431,-0.04001164436340332
1710891170060012300,14.68001220703125,-0.019853105768561363,0.016798781231045723,-0.024740023538470268
1710891170078973000,14.698972900390626,-0.0054977829568088055,-0.06872228533029556,0.035124726593494415
1710891170097933300,14.717933349609375,-0.006108647678047419,-0.24831652641296387,0.10018182545900345
1710891170116894000,14.73689404296875,0.01588248461484909,-0.3900371491909027,0.15149445831775665
1710891170135854300,14.755854248046875,0.04917461425065994,-0.39309149980545044,0.14630211889743805
1710891170154814700,14.774814697265626,0.032070402055978775,-0.2510654330253601,0.09193515032529831
1710891170173775400,14.793775390625,-0.03756818547844887,-0.06627883017063141,0.03634645417332649
1710891170192735700,14.81273583984375,-0.0922405794262886,0.04550942778587341,0.036651886999607086
1710891170211696000,14.831696044921875,-0.09315688163042068,0.03145953640341759,0.05925388261675835
1710891170230656800,14.85065673828125,-0.08765909820795059,-0.05497783049941063,0.0766635313630104
1710891170249617200,14.8696171875,-0.07574722915887833,-0.1081230640411377,0.10690133273601532
1710891170268577500,14.88857763671875,-0.060781046748161316,-0.143553227186203,0.1441640853881836
1710891170287538200,14.9075380859375,-0.06322450190782547,-0.19853104650974274,0.15118902921676636
1710891170306498600,14.92649853515625,-0.08460476994514465,-0.1737910360097885,0.09560033679008484
1710891170325459000,14.945458984375,-0.11239911615848541,-0.03176496922969818,0.035735588520765305
1710891170344419600,14.964419677734375,-0.1380554437637329,0.12492185086011887,0.003970621153712273
1710891170363380000,14.9833798828125,-0.1337793916463852,0.1802051067352295,-0.0009162971982732415
1710891170382340600,15.002340576171875,-0.13072505593299866,0.1637117564678192,-0.007635809946805239
1710891170401301000,15.021301025390626,-0.12003492563962936,0.11667517572641373,-0.007024944759905338
1710891170420261400,15.040261474609375,-0.0720820426940918,0.05711585655808449,0.0054977829568088055
1710891170439221800,15.0592216796875,-0.02718348242342472,0.01435532234609127,0.015577051788568497
1710891170458182400,15.078182373046875,-0.007941242307424545,-0.029932374134659767,0.0030543238390237093
1710891170477142800,15.097142822265624,0.016798781231045723,-0.08765909820795059,-0.010690134018659592
1710891170496103200,15.116103271484375,0.04459312930703163,-0.12095122784376144,-0.01435532234609127
1710891170515063800,15.135063720703124,0.057726722210645676,-0.09865466505289078,-0.034208428114652634
1710891170534024200,15.154024169921875,0.06750056147575378,-0.08277218043804169,-0.05253437161445618
1710891170552984600,15.172984619140625,0.08002328872680664,-0.12278381735086441,-0.05039634555578232
1710891170571945200,15.1919453125,0.09834922850131989,-0.18417572975158691,-0.031154103577136993
1710891170590905600,15.210905517578125,0.1130099818110466,-0.21655155718326569,-0.016798781231045723
1710891170609866000,15.229865966796876,0.11423171311616898,-0.20830489695072174,-0.02260199747979641
1710891170628826400,15.248826416015625,0.11759147047996521,-0.18814635276794434,-0.021380268037319183
1710891170647787000,15.267787109375,0.1334739476442337,-0.18417572975158691,-0.009162971749901772
1710891170666747400,15.286747314453125,0.1282816082239151,-0.16859868168830872,-0.019242240116000175
1710891170685708000,15.3057080078125,0.11514800786972046,-0.09682206809520721,-0.053756099194288254
1710891170704668400,15.32466845703125,0.10659590363502502,0.01893680728971958,-0.06780599057674408
1710891170723628800,15.34362890625,0.08155044913291931,0.10140355676412582,-0.07147117704153061
1710891170742589200,15.362589111328125,0.06322450190782547,0.12431098520755768,-0.07971785217523575
1710891170761549600,15.381549560546874,0.07849612087011337,0.12522727251052856,-0.07910698652267456
1710891170780510200,15.40051025390625,0.09468404203653336,0.1337793916463852,-0.06750056147575378
1710891170799470600,15.419470703125,0.0668896958231926,0.13011419773101807,-0.06566796451807022
1710891170818431000,15.438430908203125,0.023823726922273636,0.1130099818110466,-0.05436696484684944
1710891170837391400,15.457391357421875,0.011911863461136818,0.11117739230394363,-0.046425722539424896
1710891170856352000,15.47635205078125,0.006719512399286032,0.12980876863002777,-0.0665842592716217
1710891170875312400,15.4953125,0.007024944759905338,0.18264856934547424,-0.09132428467273712
1710891170894272800,15.514272705078126,-0.001832594396546483,0.2809978127479553,-0.10476330667734146
1710891170913233200,15.533233154296875,-0.01740964688360691,0.39797839522361755,-0.13041962683200836
1710891170932193800,15.55219384765625,-0.02260199747979641,0.49082985520362854,-0.1795942485332489
1710891170951154200,15.571154296875,-0.021991131827235222,0.5326740741729736,-0.21227550506591797
1710891170970114600,15.590114501953124,-0.01649334840476513,0.4972439408302307,-0.21197007596492767
1710891170989075000,15.609074951171875,-0.001832594396546483,0.37629270553588867,-0.16157373785972595
1710891171008035600,15.62803564453125,0.026878049597144127,0.20341797173023224,-0.09926552325487137
1710891171026996000,15.646995849609375,0.05833758786320686,0.03940077871084213,-0.051618073135614395
1710891171045956400,15.665956298828124,0.060781046748161316,-0.053145237267017365,-0.02718348242342472
1710891171064916700,15.684916748046875,0.05283980444073677,-0.06230820715427399,-0.00946840364485979
1710891171083877000,15.703877197265625,0.04428769648075104,0.004581485874950886,-0.02932151034474373
1710891171102837800,15.722837646484376,0.03848448023200035,0.10965022444725037,-0.046425722539424896
1710891171121798100,15.741798095703125,0.01740964688360691,0.18661919236183167,-0.06200277432799339
1710891171140758500,15.760758544921876,-0.0021380267571657896,0.23426663875579834,-0.07422006875276566
1710891171159719000,15.779718994140625,-0.016798781231045723,0.258395791053772,-0.06597339361906052
1710891171178679300,15.79867919921875,-0.025045456364750862,0.27977606654167175,-0.05253437161445618
1710891171197640000,15.817639892578125,-0.03145953640341759,0.2816086709499359,-0.03940077871084213
1710891171216600300,15.836600341796874,-0.0412333719432354,0.258395791053772,-0.03329212963581085
1710891171235560700,15.855560791015625,-0.06017018109560013,0.2364046722650528,-0.027488915249705315
1710891171254521000,15.87452099609375,-0.06841685622930527,0.25381430983543396,-0.03237583488225937
1710891171273481500,15.8934814453125,-0.06444623321294785,0.28527384996414185,-0.03817904740571976
1710891171292441900,15.91244189453125,-0.053145237267017365,0.26419901847839355,-0.026878049597144127
1710891171311402500,15.931402587890625,-0.04001164436340332,0.2107483446598053,-0.03695731982588768
1710891171330363000,15.95036279296875,-0.02626718580722809,0.1640172004699707,-0.047952886670827866
1710891171349323300,15.9693232421875,-0.018325943499803543,0.11881320178508759,-0.026878049597144127
1710891171368283600,15.98828369140625,-0.024740023538470268,0.05345066636800766,0.004276053514331579
1710891171387244000,16.007244140625,-0.024740023538470268,-0.015577051788568497,0.02626718580722809
1710891171406204700,16.02620458984375,-0.007635809946805239,-0.08124501258134842,0.039706211537122726
1710891171425165000,16.0451650390625,0.005192350596189499,-0.14721840620040894,0.05345066636800766
1710891171444125400,16.06412548828125,0.015271619893610477,-0.18417572975158691,0.05894844979047775
1710891171463085800,16.0830859375,0.01893680728971958,-0.18753549456596375,0.05283980444073677
1710891171482046500,16.10204638671875,0.018325943499803543,-0.13683371245861053,0.04214967042207718
1710891171501006800,16.1210068359375,0.021380268037319183,-0.08002328872680664,0.03543015569448471
1710891171519967200,16.13996728515625,0.010384701192378998,-0.07574722915887833,0.017715077847242355
1710891171538927600,16.158927734375,0.0054977829568088055,-0.11026109009981155,0.014966187067329884
1710891171557888000,16.177887939453125,-0.004276053514331579,-0.14721840620040894,0.025961752980947495
1710891171576848400,16.196848388671874,-0.014966187067329884,-0.17043127119541168,0.04978547990322113
1710891171595808800,16.215808837890624,-0.017715077847242355,-0.1585194170475006,0.06200277432799339
1710891171614769200,16.23476904296875,-0.02107483521103859,-0.13469567894935608,0.05436696484684944
1710891171633729800,16.253729736328125,-0.02871064469218254,-0.11545344442129135,0.041844237595796585
1710891171652690200,16.272690185546875,-0.030543239787220955,-0.08338304609060287,0.04062250629067421
1710891171671650600,16.291650634765624,-0.026878049597144127,-0.06444623321294785,0.05222893878817558
1710891171690611000,16.31061083984375,-0.0256563201546669,-0.09468404203653336,0.06414080411195755
1710891171709571300,16.3295712890625,-0.02779434807598591,-0.12736530601978302,0.06352993845939636
1710891171728532000,16.348531982421875,-0.01954767294228077,-0.08368847519159317,0.029932374134659767
1710891171747492400,16.367492431640624,-0.02260199747979641,0.04367683082818985,-0.010079269297420979
1710891171766452700,16.38645263671875,-0.04886918142437935,0.16707152128219604,-0.028405211865901947
1710891171785413000,16.4054130859375,-0.0717766135931015,0.2049451321363449,-0.02932151034474373
1710891171804373500,16.42437353515625,-0.06536252796649933,0.1386663019657135,-0.007024944759905338
1710891171823334100,16.443334228515624,-0.02412915788590908,0.014966187067329884,0.016187917441129684
1710891171842294500,16.46229443359375,0.007024944759905338,-0.10598503798246384,0.02871064469218254
1710891171861255000,16.4812548828125,0.009773836471140385,-0.19700388610363007,0.03817904740571976
1710891171880215300,16.50021533203125,0.01740964688360691,-0.2556469142436981,0.06872228533029556
1710891171899175700,16.51917578125,0.024434590712189674,-0.28954991698265076,0.08399390429258347
1710891171918136000,16.538135986328125,0.0308486707508564,-0.2974911332130432,0.07269290834665298
1710891171937096400,16.557096435546875,0.03756818547844887,-0.25473061203956604,0.0513126403093338
1710891171956057000,16.57605712890625,0.03023780696094036,-0.18417572975158691,0.034208428114652634
1710891171975017500,16.595017578125,0.014966187067329884,-0.14538581669330597,0.028099779039621353
1710891171993977900,16.613977783203126,0.012522728182375431,-0.12980876863002777,0.025961752980947495
1710891172012938200,16.632938232421875,0.020158538594841957,-0.1081230640411377,0.016187917441129684
1710891172031898600,16.651898681640624,0.018325943499803543,-0.0818558782339096,-0.006719512399286032
1710891172050859300,16.670859375,0.0027488914784044027,-0.043371398001909256,-0.017104214057326317
1710891172069819600,16.689819580078126,-0.001221729558892548,-0.023518294095993042,-0.01954767294228077
1710891172088780000,16.708780029296875,0.0054977829568088055,-0.0412333719432354,-0.010384701192378998
1710891172107740400,16.727740478515624,0.008857538923621178,-0.05742128938436508,-0.013439024798572063
1710891172126701000,16.746701171875,0.004276053514331579,-0.01954767294228077,-0.008857538923621178
1710891172145661400,16.765661376953126,-0.008246674202382565,0.03023780696094036,-0.0030543238390237093
1710891172164621800,16.784621826171875,-0.004276053514331579,0.02932151034474373,-0.012522728182375431
1710891172183582200,16.803582275390625,0.010079269297420979,0.018325943499803543,-0.021685699000954628
1710891172202542600,16.82254248046875,0.004276053514331579,0.025961752980947495,-0.03787361457943916
1710891172221503000,16.8415029296875,0.0027488914784044027,0.050090912729501724,-0.036651886999607086
1710891172240463600,16.860463623046876,0.011606430634856224,0.07116574794054031,-0.024740023538470268
1710891172259424000,16.879424072265625,0.019242240116000175,0.05833758786320686,-0.029932374134659767
1710891172278384400,16.89838427734375,0.003665188793092966,0.02412915788590908,-0.04245510324835777
1710891172297344800,16.9173447265625,0.011911863461136818,-0.011300998739898205,-0.03756818547844887
1710891172316305200,16.93630517578125,0.0308486707508564,-0.0461202897131443,-0.009162971749901772
1710891172335265500,16.955265625,0.029016077518463135,-0.06414080411195755,-0.005192350596189499
1710891172354226200,16.97422607421875,0.015271619893610477,-0.06200277432799339,-0.021685699000954628
1710891172373186600,16.9931865234375,0.023212861269712448,-0.053145237267017365,-0.014966187067329884
1710891172392147000,17.01214697265625,0.037262752652168274,-0.057726722210645676,-0.018325943499803543
1710891172411107300,17.031107421875,0.033597562462091446,-0.07086031138896942,-0.02626718580722809
1710891172430068000,17.05006787109375,0.019242240116000175,-0.05833758786320686,-0.03145953640341759
1710891172449028400,17.0690283203125,0.01893680728971958,-0.03543015569448471,-0.02718348242342472
1710891172467988700,17.08798876953125,0.023518294095993042,-0.04276053607463837,-0.010690134018659592
1710891172486949000,17.10694921875,0.012522728182375431,-0.061391908675432205,-0.010384701192378998
1710891172505909500,17.125909423828126,0.011911863461136818,-0.043982263654470444,-0.023212861269712448
1710891172524870100,17.1448701171875,0.02260199747979641,-0.0054977829568088055,-0.028099779039621353
1710891172543830500,17.16383056640625,0.036651886999607086,0.024740023538470268,-0.05742128938436508
1710891172562791000,17.182791015625,0.0030543238390237093,0.05528326332569122,-0.1386663019657135
1710891172581751300,17.201751220703127,-0.04917461425065994,0.21716243028640747,-0.19669845700263977
1710891172600712000,17.2207119140625,-0.036651886999607086,0.4563159942626953,-0.17104214429855347
1710891172619672300,17.23967236328125,-0.027488915249705315,0.5241219997406006,-0.1438586562871933
1710891172638632700,17.2586328125,-0.032070402055978775,0.39858928322792053,-0.1386663019657135
1710891172657593000,17.277593017578123,-0.04459312930703163,0.2159406989812851,-0.11759147047996521
1710891172676553700,17.2965537109375,-0.014049889519810677,0.10018182545900345,-0.05711585655808449
1710891172695514000,17.31551416015625,-0.007024944759905338,0.015271619893610477,-0.016798781231045723
1710891172714474500,17.334474609375,-0.02260199747979641,-0.020158538594841957,-0.003970621153712273
1710891172733435000,17.353434814453124,-0.0256563201546669,0.008552107028663158,-0.0027488914784044027
1710891172752395500,17.3723955078125,-0.03451386094093323,0.023823726922273636,0.004581485874950886
1710891172771356000,17.39135595703125,-0.025045456364750862,-0.0054977829568088055,0.026572618633508682
1710891172790316300,17.41031640625,-0.0027488914784044027,-0.07513637095689774,0.047036588191986084
1710891172809276700,17.429276611328124,0.007635809946805239,-0.16187916696071625,0.061391908675432205
1710891172828237000,17.448237060546877,0.007330377586185932,-0.1951712965965271,0.07238747924566269
1710891172847197700,17.46719775390625,0.013133592903614044,-0.18264856934547424,0.08460476994514465
1710891172866158000,17.486157958984375,0.021685699000954628,-0.1383608728647232,0.06230820715427399
1710891172885118500,17.505118408203124,-0.003970621153712273,-0.06597339361906052,0.021991131827235222
1710891172904078800,17.524078857421873,-0.013744457624852657,0.019853105768561363,-0.016798781231045723
1710891172923039500,17.54303955078125,-0.014966187067329884,0.06902772188186646,-0.022296564653515816
1710891172941999900,17.561999755859375,-0.014660755172371864,0.06414080411195755,-0.007330377586185932
1710891172960960300,17.580960205078124,-0.02107483521103859,0.02260199747979641,0.007635809946805239
1710891172979920600,17.599920654296874,-0.01893680728971958,-0.018325943499803543,-0.000610864779446274
1710891172998881300,17.61888134765625,-0.009773836471140385,-0.027488915249705315,0.0021380267571657896
1710891173017841700,17.637841552734375,-0.010690134018659592,-0.043371398001909256,0.013133592903614044
1710891173036802000,17.656802001953125,-0.021685699000954628,-0.041844237595796585,0.010384701192378998
1710891173055762700,17.6757626953125,-0.013744457624852657,-0.018631376326084137,0.008246674202382565
1710891173074723000,17.69472314453125,-0.001221729558892548,0.005803215317428112,0.007330377586185932
1710891173093683500,17.713683349609376,-0.011300998739898205,0.0009162971982732415,-0.002443459117785096
1710891173112643800,17.732643798828125,-0.011606430634856224,0.0009162971982732415,-0.0054977829568088055
1710891173131604500,17.7516044921875,-0.004276053514331579,-0.000610864779446274,-0.003359756199643016
1710891173150564900,17.77056494140625,0.000610864779446274,-0.03298669680953026,-0.007941242307424545
1710891173169525200,17.789525146484376,0.013133592903614044,-0.07086031138896942,-0.02779434807598591
1710891173188485600,17.808485595703125,0.01893680728971958,-0.08124501258134842,-0.032070402055978775
1710891173207446000,17.827446044921874,0.03695731982588768,-0.07880155742168427,-0.054672397673130035
1710891173226406700,17.84640673828125,0.06566796451807022,-0.11545344442129135,-0.07574722915887833
1710891173245367000,17.865366943359376,0.13683371245861053,-0.19914191961288452,-0.16126830875873566
1710891173264327700,17.88432763671875,0.18356487154960632,-0.19883649051189423,-0.18295399844646454
1710891173283288000,17.9032880859375,0.1533270627260208,-0.05406153202056885,-0.11606431007385254
1710891173302248400,17.92224853515625,0.07116574794054031,0.041844237595796585,-0.03298669680953026
1710891173321208800,17.941208740234377,-0.02626718580722809,0.05192350596189499,-0.015271619893610477
1710891173340169500,17.96016943359375,-0.09834922850131989,0.1026252806186676,-0.007635809946805239
1710891173359129900,17.9791298828125,-0.17104214429855347,0.21471896767616272,0.03390299528837204
1710891173378090200,17.99809033203125,-0.19639302790164948,0.18631376326084137,0.05864302068948746
1710891173397050600,18.017050537109377,-0.1737910360097885,0.07086031138896942,0.07024945318698883
1710891173416011300,18.03601123046875,-0.1230892539024353,-0.006108647678047419,0.06872228533029556
1710891173434971600,18.0549716796875,-0.08277218043804169,0.013744457624852657,0.06750056147575378
1710891173453932300,18.073932373046876,-0.0720820426940918,0.09926552325487137,0.05436696484684944
1710891173472892700,18.092892578125,-0.037262752652168274,0.1484401375055313,0.014049889519810677
1710891173491853000,18.11185302734375,-0.024740023538470268,0.19608759880065918,-0.03481929376721382
1710891173510813400,18.1308134765625,-0.03176496922969818,0.23335035145282745,-0.05955931544303894
1710891173529773800,18.14977392578125,-0.035124726593494415,0.2306014597415924,-0.06566796451807022
1710891173548734500,18.168734375,-0.037262752652168274,0.18814635276794434,-0.04764745384454727
1710891173567694800,18.18769482421875,-0.056199558079242706,0.12400554865598679,-0.032070402055978775
1710891173586655500,18.206655517578124,-0.057726722210645676,0.05864302068948746,0.004276053514331579
1710891173605615900,18.225615966796877,-0.053145237267017365,0.02871064469218254,0.024434590712189674
1710891173624576300,18.244576171875,-0.03634645417332649,0.025961752980947495,0.011911863461136818
1710891173643536600,18.26353662109375,-0.03237583488225937,0.14477495849132538,-0.023823726922273636
1710891173662497300,18.282497314453124,-0.04886918142437935,0.29077163338661194,-0.06627883017063141
1710891173681457700,18.301457763671873,-0.03787361457943916,0.41844236850738525,-0.15241076052188873
1710891173700418000,18.32041796875,-0.035735588520765305,0.4834994673728943,-0.2733619809150696
1710891173719378700,18.339378662109375,-0.06963858753442764,0.3900371491909027,-0.31459537148475647
1710891173738339000,18.358339111328124,-0.06627883017063141,0.2205221801996231,-0.24281874299049377
1710891173757299500,18.377299560546874,-0.021685699000954628,0.36712974309921265,-0.129197895526886
1710891173776260000,18.396260009765626,0.08429934084415436,0.6175842881202698,-0.0925460159778595
1710891173795220500,18.415220458984376,0.13652828335762024,0.6878337264060974,-0.05497783049941063
1710891173814180900,18.434180908203125,0.08491020649671555,0.7996219992637634,-0.05345066636800766
1710891173833141500,18.4531416015625,-0.043982263654470444,0.629496157169342,-0.06780599057674408
1710891173852102000,18.472101806640627,-0.15027274191379547,0.06902772188186646,0.023518294095993042
1710891173871062300,18.491062255859376,-0.03329212963581085,-0.6780598759651184,0.1594357043504715
1710891173890023000,18.51002294921875,0.25992295145988464,-1.6285655498504639,0.35216355323791504
1710891173908983300,18.5289833984375,0.4153880476951599,-2.497520685195923,0.6139190793037415
1710891173927943700,18.547943603515623,0.35735589265823364,-2.9904885292053223,0.6890554428100586
1710891173946904300,18.566904296875,0.12431098520755768,-2.813337802886963,0.5244274139404297
1710891173965864700,18.58586474609375,-0.15088360011577606,-2.0683882236480713,0.20922118425369263
1710891173984825000,18.6048251953125,-0.39858928322792053,-1.2479966878890991,-0.012522728182375431
1710891174003785700,18.62378564453125,-0.5613847374916077,-0.712573766708374,-0.1594357043504715
1710891174022746000,18.64274609375,-0.5900954008102417,-0.5491674542427063,-0.1701258420944214
1710891174041706500,18.66170654296875,-0.5540543794631958,-0.5503891706466675,-0.08460476994514465
1710891174060667000,18.6806669921875,-0.6374374032020569,-0.7816014885902405,-0.10415244847536087
1710891174079627500,18.69962744140625,-0.8365793228149414,-0.8408553600311279,-0.17898337543010712
1710891174098588000,18.718587890625,-0.9975422024726868,-0.9123265743255615,-0.1750127524137497
1710891174117548500,18.737548583984374,-1.0149518251419067,-1.165224552154541,-0.12644900381565094
1710891174136509000,18.756509033203123,-0.9834923148155212,-1.2904518842697144,-0.07330377399921417
1710891174155469300,18.77546923828125,-0.9920443892478943,-1.1542290449142456,0.006414080038666725
1710891174174429700,18.7944296875,-1.0115920305252075,-0.9563088417053223,0.035124726593494415
1710891174193390300,18.813390380859374,-1.1194096803665161,-0.8457422852516174,-0.12553271651268005
1710891174212350700,18.832350830078123,-1.0684025287628174,-0.7757982611656189,-0.1750127524137497
1710891174231311400,18.851311279296876,-0.9749401807785034,-0.7837395071983337,-0.13103049993515015
1710891174250271700,18.870271728515625,-1.0674861669540405,-0.9621120095252991,-0.09621120244264603
1710891174269232000,18.889232177734375,-1.0955859422683716,-0.9773836731910706,-0.07116574794054031
1710891174288192500,18.908192626953124,-1.0723731517791748,-0.8432988524436951,-0.06047561392188072
1710891174307153000,18.92715283203125,-1.0519092082977295,-0.8439096808433533,-0.11667517572641373
1710891174326113500,18.946113525390626,-1.0082323551177979,-0.6621774435043335,-0.16187916696071625
1710891174345074000,18.965073974609375,-0.9318742156028748,-0.4508182108402252,-0.16035200655460358
1710891174364034300,18.984034423828124,-0.9053016304969788,-0.4376846253871918,-0.20861032605171204
1710891174382995000,19.002994873046877,-0.9792162179946899,-0.3549124300479889,-0.24831652641296387
1710891174401955300,19.021955322265626,-0.9502001404762268,-0.3081812858581543,-0.3225366175174713
1710891174420915700,19.040915771484375,-0.9153808951377869,-0.26022839546203613,-0.39186975359916687
1710891174439876400,19.05987646484375,-0.9324851036071777,-0.05803215503692627,-0.4581485986709595
1710891174458836700,19.078836669921873,-0.9789108037948608,0.044898562133312225,-0.49052441120147705
1710891174477797000,19.097797119140626,-0.998763918876648,0.12247838824987411,-0.5506945848464966
1710891174496757500,19.116757568359375,-1.0063997507095337,0.15179990231990814,-0.6786707639694214
1710891174515718100,19.13571826171875,-1.0097594261169434,0.23273947834968567,-0.7144063711166382
1710891174534678500,19.154678466796874,-0.962722897529602,0.26542073488235474,-0.7296779751777649
1710891174553639000,19.173638916015626,-0.8897245526313782,0.21471896767616272,-0.8341358304023743
1710891174572599600,19.192599609375,-0.851545512676239,0.2577849328517914,-0.9388991594314575
1710891174591560000,19.211559814453125,-0.8393282294273376,0.35796675086021423,-0.9734130501747131
1710891174610520300,19.230520263671874,-0.8814778923988342,0.44348782300949097,-0.887891948223114
1710891174629480700,19.249480712890627,-0.9107993841171265,0.4508182108402252,-0.8952223062515259
1710891174648441300,19.26844140625,-0.8677334189414978,0.40714138746261597,-0.9489784240722656
1710891174667401700,19.287401611328125,-0.8237511515617371,0.2889390289783478,-0.9651663303375244
1710891174686362000,19.306362060546874,-0.859792172908783,0.3500255048274994,-0.8448259830474854
1710891174705322500,19.325322509765623,-0.9190460443496704,0.3497200906276703,-0.8115338683128357
1710891174724283100,19.344283203125,-0.9465349912643433,0.3023780584335327,-0.7690787315368652
1710891174743243500,19.363243408203125,-0.9071341753005981,0.2513708472251892,-0.8353576064109802
1710891174762204000,19.382203857421874,-0.861319363117218,0.25381430983543396,-0.9077450633049011
1710891174781164300,19.401164306640624,-0.9001092314720154,0.42791077494621277,-0.8167262077331543
1710891174800125000,19.420125,-0.9257655739784241,0.4376846253871918,-0.869566023349762
1710891174819085300,19.439085205078126,-0.8729257583618164,0.42363473773002625,-0.9043853282928467
1710891174838045700,19.458045654296875,-0.9111047983169556,0.4453204274177551,-0.8283326625823975
1710891174857006300,19.47700634765625,-0.9022472500801086,0.3894262909889221,-0.8891136646270752
1710891174875966700,19.495966796875,-0.8897245526313782,0.3585776388645172,-0.8857539296150208
1710891174894927000,19.514927001953126,-0.9474512934684753,0.4016436040401459,-0.7800742983818054
1710891174913887500,19.533887451171875,-0.9886846542358398,0.37140578031539917,-0.7696896195411682
1710891174932848000,19.55284814453125,-1.0140355825424194,0.3634645342826843,-0.6899717450141907
1710891174951808500,19.57180859375,-1.044884204864502,0.38270679116249084,-0.7440332770347595
1710891174970769000,19.590768798828126,-0.9862411618232727,0.3857611119747162,-0.796262264251709
1710891174989729300,19.609729248046875,-1.0390809774398804,0.38850998878479004,-0.713184654712677
1710891175008689700,19.628689697265624,-1.110857605934143,0.36682429909706116,-0.8060360550880432
1710891175027650300,19.647650390625,-1.0818414688110352,0.42271843552589417,-0.9553925395011902
1710891175046610700,19.666610595703126,-1.1502584218978882,0.6056724190711975,-0.9560033679008484
1710891175065571000,19.685571044921875,-1.1249074935913086,0.6218603253364563,-1.1533126831054688
1710891175084531500,19.704531494140625,-1.0051779747009277,0.5488619804382324,-1.380554437637329
1710891175103492000,19.7234921875,-0.9468404054641724,0.5879573225975037,-1.4679080247879028
1710891175122452500,19.742452392578127,-1.1044435501098633,0.6832522749900818,-1.2925899028778076
1710891175141412900,19.761412841796876,-1.2220350503921509,0.6120865345001221,-1.0900882482528687
1710891175160373200,19.780373291015625,-1.2736530303955078,0.4056142270565033,-0.907439649105072
1710891175179333600,19.799333740234374,-1.250134825706482,0.22266021370887756,-0.9022472500801086
1710891175198294000,19.8182939453125,-1.239444613456726,0.19761475920677185,-0.9569196701049805
1710891175217254400,19.83725439453125,-1.3454296588897705,0.46486809849739075,-0.750141978263855
1710891175236215000,19.856215087890625,-1.3726131916046143,0.4871646761894226,-0.7058542370796204
1710891175255175400,19.875175537109374,-1.3240493535995483,0.35582873225212097,-0.7137954831123352
1710891175274135800,19.8941357421875,-1.3240493535995483,0.22907429933547974,-0.5815432667732239
1710891175293096200,19.91309619140625,-1.4086542129516602,0.21380266547203064,-0.4969384968280792
1710891175312056600,19.932056640625,-1.3869684934616089,0.07910698652267456,-0.40958482027053833
1710891175331017000,19.951016845703126,-1.4196497201919556,0.0873536616563797,-0.3228420317173004
1710891175349977600,19.9699775390625,-1.416290044784546,0.07360920310020447,-0.37720900774002075
1710891175368938000,19.98893798828125,-1.3475676774978638,0.14813470840454102,-0.379347026348114
1710891175387898400,20.0078984375,-1.3481786251068115,0.1389717310667038,-0.3539961278438568
1710891175406858800,20.026858642578127,-1.3710860013961792,0.07116574794054031,-0.41813695430755615
1710891175425819100,20.045819091796876,-1.3127484321594238,-0.010995565913617611,-0.4413498044013977
1710891175444779500,20.064779541015625,-1.3209950923919678,0.04214967042207718,-0.3842339515686035
1710891175463740000,20.083739990234374,-1.2861758470535278,0.0360410213470459,-0.4001164436340332
1710891175482700300,20.1027001953125,-1.2608249187469482,0.1380554437637329,-0.4056142270565033
1710891175501661000,20.121660888671876,-1.2626575231552124,0.14660754799842834,-0.44959646463394165
1710891175520621300,20.140621337890625,-1.2143992185592651,0.1744018942117691,-0.4584540128707886
1710891175539581700,20.159581787109374,-1.1398736238479614,0.0616973415017128,-0.5027416944503784
1710891175558542000,20.1785419921875,-1.0766491889953613,0.05100720748305321,-0.5696313977241516
1710891175577502500,20.19750244140625,-1.0320560932159424,0.1285870373249054,-0.5497782826423645
1710891175596462800,20.216462890625,-1.027169108390808,0.1997527778148651,-0.4150826036930084
1710891175615423200,20.23542333984375,-0.9080504775047302,0.06261363625526428,-0.39309149980545044
1710891175634383600,20.254383544921875,-0.8778126835823059,-0.06933315098285675,-0.4260781705379486
1710891175653344300,20.27334423828125,-0.8888082504272461,-0.06047561392188072,-0.39889469742774963
1710891175672304600,20.2923046875,-0.9190460443496704,0.0824667438864708,-0.3585776388645172
1710891175691265000,20.31126513671875,-0.8219185471534729,0.026572618633508682,-0.4523453712463379
1710891175710225400,20.330225341796876,-0.6924152374267578,-0.09834922850131989,-0.4682278633117676
1710891175729185800,20.349185791015625,-0.7144063711166382,-0.0977383628487587,-0.5308414697647095
1710891175748146200,20.368146240234374,-0.7342594861984253,0.036651886999607086,-0.517707884311676
1710891175767106600,20.3871064453125,-0.7003564834594727,-0.024740023538470268,-0.5061014890670776
1710891175786067000,20.40606689453125,-0.7006618976593018,-0.11362084746360779,-0.47006043791770935
1710891175805027300,20.42502734375,-0.6264418363571167,-0.1905898153781891,-0.40775224566459656
1710891175823987700,20.44398779296875,-0.6359102129936218,-0.13561198115348816,-0.3271180987358093
1710891175842948000,20.462947998046875,-0.6554579138755798,-0.02107483521103859,-0.3081812858581543
1710891175861908700,20.48190869140625,-0.5925388336181641,-0.056810423731803894,-0.37293294072151184
1710891175880868900,20.500868896484373,-0.42974337935447693,-0.18387030065059662,-0.33108872175216675
1710891175899829200,20.519829345703126,-0.3136790692806244,-0.22418737411499023,-0.235793799161911
1710891175918790000,20.538789794921875,-0.22907429933547974,-0.18570289015769958,-0.13194678723812103
1710891175937750300,20.557750244140625,-0.17867794632911682,-0.18203771114349365,-0.11453714966773987
1710891175956710700,20.576710693359374,-0.06627883017063141,-0.16859868168830872,-0.07086031138896942
1710891175975671000,20.595671142578126,0.011606430634856224,-0.19639302790164948,-0.07971785217523575
1710891175994631400,20.61463134765625,0.09162971377372742,-0.3179551064968109,-0.11239911615848541
1710891176013591800,20.633591796875,0.15118902921676636,-0.3078758418560028,-0.14019346237182617
1710891176032552200,20.65255224609375,0.20677772164344788,-0.13072505593299866,-0.2159406989812851
1710891176051512600,20.6715126953125,0.24006985127925873,-0.18387030065059662,-0.16340632736682892
1710891176070473000,20.690472900390624,0.18661919236183167,-0.2162461280822754,-0.04214967042207718
1710891176089433300,20.709433349609377,0.17623448371887207,-0.16310089826583862,-0.029626941308379173
1710891176108393700,20.728393798828126,0.23212862014770508,-0.10598503798246384,0.05558869615197182
1710891176127354000,20.74735400390625,0.20372340083122253,-0.10201441496610641,0.10842850059270859
1710891176146314500,20.766314453125,0.19822561740875244,-0.04734202101826668,0.11881320178508759
1710891176165275000,20.78527490234375,0.27000224590301514,-0.09315688163042068,0.16096286475658417
1710891176184235300,20.8042353515625,0.2626718580722809,-0.143553227186203,0.14660754799842834
1710891176203195600,20.823195556640623,0.29626941680908203,-0.10567960888147354,0.07269290834665298
1710891176222156000,20.842156005859376,0.3640754222869873,-0.010384701192378998,0.010690134018659592
1710891176241116400,20.861116455078125,0.4318813979625702,0.01588248461484909,0.06261363625526428
1710891176260076800,20.880076904296875,0.48441576957702637,0.008857538923621178,0.14782927930355072
1710891176279037200,20.899037109375,0.5103775262832642,-0.024740023538470268,0.2672533392906189
1710891176297997600,20.91799755859375,0.6068941354751587,-0.06597339361906052,0.3399462401866913
1710891176316958000,20.9369580078125,0.7128791809082031,-0.10720676928758621,0.4376846253871918
1710891176335918300,20.95591845703125,0.8078686594963074,-0.16768237948417664,0.5442805290222168
1710891176354878700,20.974878662109376,0.8298597931861877,-0.16157373785972595,0.5839866995811462
1710891176373839000,20.993839111328125,0.7776308655738831,-0.16859868168830872,0.5027416944503784
1710891176392799500,21.012799560546874,0.8063415288925171,-0.09407317638397217,0.4413498044013977
1710891176411759900,21.031759765625,0.8442151546478271,-0.004276053514331579,0.3906480371952057
1710891176430720300,21.05072021484375,0.8662062287330627,-0.013439024798572063,0.26419901847839355
1710891176449680600,21.0696806640625,0.9666935205459595,-0.12950333952903748,0.1951712965965271
1710891176468641000,21.08864111328125,1.071762204170227,-0.16096286475658417,0.09040798991918564
1710891176487601400,21.107601318359375,1.2064579725265503,-0.1337793916463852,0.05558869615197182
1710891176506561800,21.126561767578124,1.2467750310897827,-0.21838416159152985,0.1288924664258957
1710891176525522200,21.145522216796873,1.1963787078857422,-0.3090975880622864,0.28985533118247986
1710891176544482600,21.164482666015626,1.156977891921997,-0.24037529528141022,0.41783151030540466
1710891176563443000,21.18344287109375,1.1013891696929932,-0.22724169492721558,0.5754346251487732
1710891176582403300,21.2024033203125,1.0158681869506836,-0.2370155304670334,0.7183769941329956
1710891176601363700,21.22136376953125,1.0045671463012695,-0.2864955961704254,0.8265000581741333
1710891176620324000,21.240323974609375,1.0305289030075073,-0.3652971386909485,0.8185588121414185
1710891176639284500,21.259284423828124,1.0882556438446045,-0.4169152081012726,0.8182533979415894
1710891176658244900,21.278244873046877,1.0903936624526978,-0.28557929396629333,0.8869756460189819
1710891176677205200,21.297205322265626,1.0109812021255493,-0.1948658674955368,0.8903354406356812
1710891176696165600,21.31616552734375,1.0125083923339844,-0.13500112295150757,0.7971785664558411
1710891176715126000,21.3351259765625,1.1123847961425781,-0.1230892539024353,0.7531962990760803
1710891176734086400,21.35408642578125,1.1591159105300903,-0.12278381735086441,0.7440332770347595
1710891176753046800,21.373046875,1.120631456375122,-0.11575887352228165,0.758694052696228
1710891176772007200,21.392007080078123,1.0775654315948486,-0.15607595443725586,0.8066469430923462
1710891176790967600,21.410967529296876,1.1297943592071533,-0.1954767256975174,0.8100066781044006
1710891176809928000,21.429927978515625,1.2702933549880981,-0.19792018830776215,0.7693842053413391
1710891176828888300,21.448888427734374,1.3952151536941528,-0.24220788478851318,0.7608320713043213
1710891176847848700,21.4678486328125,1.4126248359680176,-0.3637699782848358,0.8173370957374573
1710891176866809000,21.48680908203125,1.3906337022781372,-0.4468475878238678,0.878118097782135
1710891176885769500,21.50576953125,1.4388920068740845,-0.42913252115249634,0.82436203956604
1710891176904729900,21.524729736328126,1.470046043395996,-0.38728827238082886,0.7996219992637634
1710891176923690200,21.543690185546875,1.4275909662246704,-0.31031930446624756,0.8072578310966492
1710891176942650600,21.562650634765625,1.3567306995391846,-0.37262752652168274,0.8020654320716858
1710891176961611000,21.581611083984374,1.2705987691879272,-0.43310311436653137,0.8155044913291931
1710891176980571400,21.6005712890625,1.1859939098358154,-0.33536475896835327,0.8542944192886353
1710891176999531800,21.61953173828125,1.1520910263061523,-0.33567020297050476,0.8497129082679749
1710891177018492200,21.6384921875,1.1270455121994019,-0.37140578031539917,0.8185588121414185
1710891177037452500,21.65745263671875,1.1221586465835571,-0.3243691921234131,0.7608320713043213
1710891177056413000,21.676412841796875,1.1420117616653442,-0.30970844626426697,0.6618719696998596
1710891177075373300,21.695373291015624,1.135903000831604,-0.41935867071151733,0.6126973628997803
1710891177094334000,21.714333984375,1.0656535625457764,-0.35613417625427246,0.5928442478179932
1710891177113294000,21.733294189453126,1.0021237134933472,-0.17073670029640198,0.5717694163322449
1710891177132254500,21.75225439453125,1.0118975639343262,-0.09651663154363632,0.5296197533607483
1710891177151215000,21.771215087890624,1.0112866163253784,-0.03543015569448471,0.5653553605079651
1710891177170175500,21.790175537109373,0.9590576887130737,-0.07819069176912308,0.5986474752426147
1710891177189135600,21.809135498046874,0.9065233469009399,-0.16707152128219604,0.6010909676551819
1710891177208096300,21.82809619140625,0.8946114778518677,-0.31490078568458557,0.5445859432220459
1710891177227056600,21.847056640625,0.8897245526313782,-0.4462367296218872,0.508544921875
1710891177246017000,21.86601708984375,0.8784235715866089,-0.481361448764801,0.5442805290222168
1710891177264977400,21.884977294921875,0.8707877397537231,-0.5207622051239014,0.5222893953323364
1710891177283937800,21.903937744140624,0.8472694754600525,-0.5155698657035828,0.4978547990322113
1710891177302898200,21.922898193359377,0.8378010392189026,-0.3634645342826843,0.4923570156097412
1710891177321858600,21.941858642578126,0.8393282294273376,-0.3335321843624115,0.46975502371788025
1710891177340819000,21.96081884765625,0.8066469430923462,-0.33231043815612793,0.4920515716075897
1710891177359779300,21.979779296875,0.7623592615127563,-0.3607156574726105,0.46975502371788025
1710891177378739700,21.99873974609375,0.6994401812553406,-0.35185810923576355,0.47494736313819885
1710891177397700000,22.0177001953125,0.6777544617652893,-0.2779434621334076,0.4608974754810333
1710891177416660500,22.036660400390623,0.6811142563819885,-0.1233946830034256,0.49602219462394714
1710891177435620900,22.055620849609376,0.6866120100021362,-0.06933315098285675,0.5204567909240723
1710891177454581200,22.074581298828125,0.6615665555000305,-0.17776164412498474,0.4868592321872711
1710891177473541600,22.093541748046874,0.6444623470306396,-0.28924447298049927,0.45051276683807373
1710891177492502000,22.112501953125,0.6896663308143616,-0.25473061203956604,0.40286532044410706
1710891177511462400,22.13146240234375,0.7128791809082031,-0.17043127119541168,0.38698282837867737
1710891177530422800,22.1504228515625,0.6704241037368774,-0.205861434340477,0.3601047992706299
1710891177549383400,22.169383544921875,0.646905779838562,-0.05253437161445618,0.42363473773002625
1710891177568343600,22.188343505859375,0.6096430420875549,0.1130099818110466,0.508544921875
1710891177587304000,22.207303955078125,0.6224712133407593,0.12675444781780243,0.5119046568870544
1710891177606264600,22.2262646484375,0.647516667842865,0.004581485874950886,0.44959646463394165
1710891177625225000,22.245224853515627,0.6603448390960693,-0.14691297709941864,0.4105011224746704
1710891177644185300,22.264185302734376,0.6551524996757507,-0.14599667489528656,0.4401280879974365
1710891177663145700,22.283145751953125,0.6563742160797119,-0.038789913058280945,0.4883863925933838
1710891177682106000,22.302106201171874,0.6954695582389832,-0.03634645417332649,0.45937031507492065
1710891177701066500,22.32106640625,0.7168498039245605,-0.09926552325487137,0.4560105502605438
1710891177720027000,22.34002685546875,0.6600393652915955,-0.10690133273601532,0.4984656572341919
1710891177738987300,22.3589873046875,0.6108647584915161,-0.13194678723812103,0.5079340934753418
1710891177757947600,22.37794775390625,0.627968966960907,-0.09865466505289078,0.5131264328956604
1710891177776908000,22.396907958984375,0.695164144039154,-0.013133592903614044,0.5418370366096497
1710891177795868400,22.415868408203124,0.6994401812553406,0.016187917441129684,0.5335903763771057
1710891177814829000,22.4348291015625,0.6307178735733032,0.04306596517562866,0.4786125421524048
1710891177833789200,22.4537890625,0.5992583632469177,0.08643736690282822,0.40958482027053833
1710891177852749600,22.47274951171875,0.675616443157196,0.15699224174022675,0.41844236850738525
1710891177871710200,22.491710205078125,0.777325451374054,0.24251331388950348,0.47586366534233093
1710891177890670600,22.510670654296874,0.776103675365448,0.27519458532333374,0.5070177912712097
1710891177909631000,22.529630859375,0.7733548283576965,0.3121519088745117,0.5467239618301392
1710891177928591400,22.54859130859375,0.7806851863861084,0.42394015192985535,0.6017017960548401
1710891177947551700,22.5675517578125,0.7367029190063477,0.347582072019577,0.5369501113891602
1710891177966512000,22.58651220703125,0.7055488228797913,0.23732095956802368,0.3433060050010681
1710891177985472500,22.605472412109375,0.750141978263855,0.36254823207855225,0.20280711352825165
1710891178004433000,22.624432861328124,0.7623592615127563,0.49052441120147705,0.19425499439239502
1710891178023393500,22.6433935546875,0.7232639193534851,0.5057960152626038,0.268169641494751
1710891178042353700,22.662353759765626,0.6863065958023071,0.517707884311676,0.29535311460494995
1710891178061314000,22.68131396484375,0.6835576891899109,0.6337721943855286,0.2782489061355591
1710891178080274700,22.700274658203124,0.7232639193534851,0.7770199775695801,0.2813032269477844
1710891178099235000,22.719235107421873,0.8057306408882141,0.7281508445739746,0.3170388340950012
1710891178118195500,22.738195556640626,0.8384119272232056,0.4477638900279999,0.3970620930194855
1710891178137155800,22.75715576171875,0.7513636946678162,0.11698060482740402,0.49999281764030457
1710891178156116200,22.7761162109375,0.6676751971244812,-0.09285144507884979,0.572685718536377
1710891178175076600,22.79507666015625,0.6218603253364563,-0.22907429933547974,0.6246092319488525
1710891178194037000,22.814037109375,0.5488619804382324,-0.43432486057281494,0.6517927050590515
1710891178212997400,22.832997314453124,0.45998117327690125,-0.7024945020675659,0.6273581385612488
1710891178231958000,22.8519580078125,0.38270679116249084,-0.8161153197288513,0.5348120927810669
1710891178250918400,22.87091845703125,0.3995055556297302,-0.6136136651039124,0.4422661066055298
1710891178269878800,22.889878662109375,0.4923570156097412,-0.21838416159152985,0.24434591829776764
1710891178288839200,22.908839111328124,0.47036588191986084,0.1496618688106537,0.044898562133312225
1710891178307799600,22.927799560546877,0.17653992772102356,0.3555232882499695,-0.16768237948417664
1710891178326760000,22.946760009765626,0.015577051788568497,0.600785493850708,-0.37323838472366333
1710891178345720300,22.96572021484375,0.035124726593494415,1.1123847961425781,-0.5143481492996216
1710891178364680700,22.9846806640625,0.07299833744764328,1.6881247758865356,-0.5849030017852783
1710891178383641300,23.003641357421873,0.1288924664258957,1.8741331100463867,-0.5601630210876465
1710891178402601700,23.022601806640626,0.18081597983837128,1.5540399551391602,-0.4633409380912781
1710891178421562000,23.04156201171875,0.22968515753746033,0.9694424271583557,-0.314289927482605
1710891178440522500,23.0605224609375,0.2663370370864868,0.4407389461994171,-0.18173226714134216
1710891178459483000,23.07948291015625,0.29596397280693054,0.11392628401517868,-0.11087195575237274
1710891178478443300,23.098443359375,0.28008151054382324,0.05528326332569122,-0.12767073512077332
1710891178497403600,23.117403564453124,0.28435754776000977,0.08826996386051178,-0.21441353857517242
1710891178516364000,23.136364013671876,0.3426951467990875,0.168904110789299,-0.22754712402820587
1710891178535324700,23.15532470703125,0.37690356373786926,0.37843072414398193,-0.21960589289665222
1710891178554285000,23.17428515625,0.28557929396629333,0.2974911332130432,-0.1334739476442337
1710891178573245400,23.193245361328124,0.14233149588108063,0.08032871782779694,-0.06230820715427399
1710891178592205800,23.212205810546877,0.10476330667734146,0.06994401663541794,-0.08124501258134842
1710891178611166200,23.231166259765626,0.1380554437637329,-0.02412915788590908,-0.03634645417332649
1710891178630126600,23.250126708984375,0.10567960888147354,-0.10109812021255493,0.03817904740571976
