time,seconds_elapsed,z,y,x
1710891155441523200,0.061523193359375,0.06192641705274582,-0.21868959069252014,-0.0862082913517952
1710891155460483600,0.080483642578125,0.041157014667987823,-0.07544180005788803,-0.0862082913517952
1710891155479444000,0.09944384765625,0.0295505840331316,0.04062250629067421,-0.08956804871559143
1710891155498404000,0.118404052734375,0.03107774630188942,0.07422006875276566,-0.09323323518037796
1710891155517364500,0.137364501953125,0.032910339534282684,0.030543239787220955,-0.1011744812130928
1710891155536324900,0.156324951171875,0.03168861195445061,-0.040317077189683914,-0.11094831675291061
1710891155555285000,0.175284912109375,0.029856016859412193,-0.11453714966773987,-0.12102758139371872
1710891155574245400,0.194245361328125,0.023747367784380913,-0.189673513174057,-0.12438733875751495
1710891155593205500,0.21320556640625,0.00847574882209301,-0.24465134739875793,-0.12316560745239258
1710891155612166000,0.232165771484375,-0.013820815831422806,-0.27366742491722107,-0.11491893976926804
1710891155631126300,0.251126220703125,-0.03550651669502258,-0.2779434621334076,-0.10606139898300171
1710891155650086400,0.27008642578125,-0.05230529606342316,-0.2614501118659973,-0.09842558950185776
1710891155669046800,0.289046875,-0.06818778067827225,-0.23335035145282745,-0.09506583213806152
1710891155688007200,0.308007080078125,-0.07826705276966095,-0.205861434340477,-0.09292780607938766
1710891155706967300,0.32696728515625,-0.08437569439411163,-0.18264856934547424,-0.08987347781658173
1710891155725927700,0.345927734375,-0.09292780607938766,-0.17562362551689148,-0.08651372790336609
1710891155744888000,0.36488818359375,-0.10270164161920547,-0.1802051067352295,-0.08223766833543777
1710891155763848200,0.38384814453125,-0.116751529276371,-0.19394956529140472,-0.08254310488700867
1710891155782808600,0.40280859375,-0.13049599528312683,-0.21502439677715302,-0.08865175396203995
1710891155801769000,0.42176904296875,-0.13935352861881256,-0.2360992431640625,-0.09506583213806152
1710891155820729000,0.44072900390625,-0.14607304334640503,-0.24953825771808624,-0.09812015295028687
1710891155839689500,0.459689453125,-0.14485131204128265,-0.24556763470172882,-0.09445496648550034
1710891155858649600,0.478649658203125,-0.14393500983715057,-0.22876885533332825,-0.08651372790336609
1710891155877610000,0.49760986328125,-0.15859577059745789,-0.21258094906806946,-0.08468113094568253
1710891155896570400,0.5165703125,-0.17631085216999054,-0.19669845700263977,-0.08132137358188629
1710891155915530500,0.535530517578125,-0.17478369176387787,-0.1692095398902893,-0.06788235157728195
1710891155934491000,0.554490966796875,-0.16073378920555115,-0.14477495849132538,-0.05627591907978058
1710891155953451300,0.573451171875,-0.14698933064937592,-0.14294235408306122,-0.04558578506112099
1710891155972411400,0.592411376953125,-0.1375209391117096,-0.1542433500289917,-0.041615162044763565
1710891155991371800,0.611371826171875,-0.12957969307899475,-0.1698204129934311,-0.03367391973733902
1710891156010332200,0.630332275390625,-0.12011128664016724,-0.18295399844646454,-0.022983787581324577
1710891156029292300,0.649292236328125,-0.11400263756513596,-0.19272783398628235,-0.007406735327094793
1710891156048252700,0.668252685546875,-0.10483966767787933,-0.19792018830776215,0.012751801870763302
1710891156067212800,0.687212890625,-0.10239620506763458,-0.19150610268115997,0.0319940410554409
1710891156086173200,0.706173095703125,-0.09842558950185776,-0.17592905461788177,0.05215258151292801
1710891156105133600,0.725133544921875,-0.09567669779062271,-0.15271618962287903,0.07414371520280838
1710891156124094000,0.744093994140625,-0.10025817900896072,-0.12125665694475174,0.10315979272127151
1710891156143054000,0.76305419921875,-0.11094831675291061,-0.0974329337477684,0.14866921305656433
1710891156162014500,0.782014404296875,-0.11308634281158447,-0.09834922850131989,0.18837542831897736
1710891156180974600,0.800974609375,-0.09720385819673538,-0.13744457066059113,0.2067013680934906
1710891156199935000,0.81993505859375,-0.04192059487104416,-0.21471896767616272,0.2176969349384308
1710891156218895400,0.838895263671875,0.05734493210911751,-0.2968802750110626,0.24121522903442383
1710891156237855700,0.857855712890625,0.1450040340423584,-0.3536907136440277,0.284586638212204
1710891156256815900,0.87681591796875,0.16149736940860748,-0.3637699782848358,0.34750568866729736
1710891156275776300,0.8957763671875,0.09094249457120895,-0.33658650517463684,0.4177551567554474
1710891156294736400,0.914736328125,-0.05627591907978058,-0.324063777923584,0.45074185729026794
1710891156313696800,0.93369677734375,-0.2041051983833313,-0.3222311735153198,0.4156171381473541
1710891156332657200,0.9526572265625,-0.3479638397693634,-0.46883872151374817,0.33345580101013184
1710891156351617300,0.9716171875,-0.3378845751285553,-0.7699950337409973,0.2219729870557785
1710891156370577700,0.99057763671875,-0.1778380125761032,-1.063515543937683,0.05734493210911751
1710891156389538000,1.0095380859375,0.009392046369612217,-1.2794562578201294,-0.17050762474536896
1710891156408498400,1.02849853515625,0.14256057143211365,-1.444695234298706,-0.3775908052921295
1710891156427458600,1.04745849609375,0.2012035846710205,-1.4844014644622803,-0.5073995590209961
1710891156446419000,1.0664189453125,0.1804341822862625,-1.3726131916046143,-0.5544361472129822
1710891156465379300,1.08537939453125,0.09063705801963806,-1.1246020793914795,-0.5513818264007568
1710891156484339500,1.10433935546875,-0.03733910992741585,-0.8390227556228638,-0.5165625214576721
1710891156503299800,1.1232998046875,-0.15157082676887512,-0.6493492722511292,-0.45822495222091675
1710891156522260200,1.14226025390625,-0.21754421293735504,-0.5577195286750793,-0.3977493345737457
1710891156541220600,1.161220703125,-0.2716057598590851,-0.5082395076751709,-0.34032803773880005
1710891156560180700,1.1801806640625,-0.3232238292694092,-0.5198459029197693,-0.28809911012649536
1710891156579141000,1.19914111328125,-0.3592648506164551,-0.5907062292098999,-0.24930918216705322
1710891156598101500,1.2181015625,-0.3672060966491699,-0.6734784245491028,-0.2196822464466095
1710891156617062000,1.237061767578125,-0.34582582116127014,-0.7128791809082031,-0.183030366897583
1710891156636022000,1.25602197265625,-0.31009024381637573,-0.6933315396308899,-0.13629920780658722
1710891156654982400,1.274982421875,-0.26763513684272766,-0.5913171172142029,-0.07185296714305878
1710891156673942800,1.29394287109375,-0.22395829856395721,-0.40286532044410706,0.01977674663066864
1710891156692903000,1.31290283203125,-0.18119776248931885,-0.18723005056381226,0.1291215419769287
1710891156711863300,1.33186328125,-0.08315397053956985,0.023518294095993042,0.23357942700386047
1710891156730823700,1.35082373046875,0.1092684343457222,0.2565632164478302,0.32826346158981323
1710891156749784000,1.3697841796875,0.2424369603395462,0.40225446224212646,0.41408994793891907
1710891156768744400,1.388744384765625,0.1865428388118744,0.37354379892349243,0.4876991808414459
1710891156787704600,1.40770458984375,0.1043815165758133,0.287106454372406,0.5286270976066589
1710891156806665000,1.4266650390625,0.10835213959217072,0.27366742491722107,0.5130500793457031
1710891156825625300,1.445625244140625,0.17890702188014984,0.3756818473339081,0.464486300945282
1710891156844585700,1.464585693359375,0.30107998847961426,0.5757400393486023,0.40553784370422363
1710891156863546000,1.483546142578125,0.4883100390434265,0.8133664727210999,0.33162322640419006
1710891156882506200,1.50250634765625,0.7665589451789856,1.0036507844924927,0.2540434002876282
1710891156901466600,1.521466552734375,1.0512219667434692,1.08978271484375,0.16882775723934174
1710891156920427000,1.540427001953125,1.1993566751480103,0.9440914988517761,0.05826122686266899
1710891156939387400,1.559387451171875,1.1709513664245605,0.573602020740509,-0.024816380813717842
1710891156958347800,1.57834765625,1.0105993747711182,0.10384701192378998,-0.030925029888749123
1710891156977308000,1.597307861328125,0.7793871164321899,-0.2761108875274658,0.06986765563488007
1710891156996268300,1.616268310546875,0.5035816431045532,-0.5430588126182556,0.1651625633239746
1710891157015228700,1.635228759765625,0.2583194375038147,-0.7318159937858582,0.21403174102306366
1710891157034189000,1.65418896484375,0.10315979272127151,-0.8545998334884644,0.2021198868751526
1710891157053149400,1.6731494140625,0.014889828860759735,-0.962417483329773,0.13339759409427643
1710891157072109600,1.692109619140625,-0.02695440873503685,-1.091309905052185,0.020082179456949234
1710891157091070200,1.7110703125,-0.05230529606342316,-1.2528836727142334,-0.1222493126988411
1710891157110030300,1.7300302734375,-0.09323323518037796,-1.4370594024658203,-0.2713003158569336
1710891157128990700,1.74899072265625,-0.14973822236061096,-1.5919135808944702,-0.40171995759010315
1710891157147951000,1.767951171875,-0.19769111275672913,-1.6780455112457275,-0.5052615404129028
1710891157166911500,1.786911376953125,-0.22609633207321167,-1.7119485139846802,-0.5929206013679504
1710891157185872000,1.805871826171875,-0.24258968234062195,-1.7119485139846802,-0.663475513458252
1710891157204832300,1.824832275390625,-0.2548069655895233,-1.6896519660949707,-0.7120392322540283
1710891157223792400,1.84379248046875,-0.2774089574813843,-1.663690209388733,-0.7438042163848877
1710891157242753000,1.8627529296875,-0.3113119602203369,-1.6505566835403442,-0.7544943690299988
1710891157261713200,1.881713134765625,-0.33971717953681946,-1.6423099040985107,-0.7428879141807556
1710891157280673500,1.900673583984375,-0.34552037715911865,-1.6236785650253296,-0.7117338180541992
1710891157299634000,1.919634033203125,-0.34063348174095154,-1.5964951515197754,-0.6839394569396973
1710891157318594300,1.93859423828125,-0.32597270607948303,-1.5528182983398438,-0.6549233794212341
1710891157337554700,1.9575546875,-0.2914588451385498,-1.5213587284088135,-0.6219366788864136
1710891157356515000,1.97651513671875,-0.23892448842525482,-1.5036436319351196,-0.5938369035720825
1710891157375475500,1.995475341796875,-0.19280420243740082,-1.488982915878296,-0.5935314893722534
1710891157394435800,2.014435791015625,-0.16500984132289886,-1.5112794637680054,-0.6381246447563171
1710891157413396200,2.033396240234375,-0.17478369176387787,-1.5955787897109985,-0.7392227649688721
1710891157432356400,2.0523564453125,-0.2248746007680893,-1.6994258165359497,-0.8784999251365662
1710891157451317000,2.07131689453125,-0.2761872410774231,-1.7803653478622437,-1.0293835401535034
1710891157470277000,2.090277099609375,-0.30398157238960266,-1.8255693912506104,-1.1778236627578735
1710891157489237500,2.109237548828125,-0.30489787459373474,-1.8350378274917603,-1.3061052560806274
1710891157508198000,2.128197998046875,-0.28412848711013794,-1.8750494718551636,-1.4157555103302002
1710891157527158300,2.147158203125,-0.19708025455474854,-1.944993495941162,-1.4918081760406494
1710891157546118700,2.16611865234375,-0.027259841561317444,-2.0158538818359375,-1.487532138824463
1710891157565079000,2.1850791015625,0.03810269013047218,-2.1920883655548096,-1.413617491722107
1710891157584039400,2.204039306640625,-0.09720385819673538,-2.5134031772613525,-1.2749511003494263
1710891157602999800,2.222999755859375,-0.2599993348121643,-2.8038692474365234,-1.091386318206787
1710891157621960200,2.241960205078125,-0.30428701639175415,-2.8454082012176514,-0.8809433579444885
1710891157640920600,2.260920654296875,-0.24869832396507263,-2.6606216430664062,-0.6784417033195496
1710891157659881000,2.279880859375,-0.18241949379444122,-2.3707661628723145,-0.5180897116661072
1710891157678841300,2.29884130859375,-0.12835796177387238,-2.0696098804473877,-0.414242684841156
1710891157697801700,2.3178017578125,-0.07704532146453857,-1.802356481552124,-0.35132360458374023
1710891157716762000,2.33676220703125,-0.036422811448574066,-1.5696170330047607,-0.3070359230041504
1710891157735722500,2.355722412109375,-0.0019089524867013097,-1.3570361137390137,-0.27252206206321716
1710891157754683000,2.374682861328125,0.011224640533328056,-1.1688897609710693,-0.2401462197303772
1710891157773643300,2.393643310546875,-0.011682788841426373,-1.0293071269989014,-0.18700097501277924
1710891157792603600,2.412603759765625,-0.08651372790336609,-0.9590576887130737,-0.10300707072019577
1710891157811564000,2.43156396484375,-0.21754421293735504,-0.9721912741661072,0.03168861195445061
1710891157830524400,2.4505244140625,-0.40233081579208374,-1.0296125411987305,0.20364704728126526
1710891157849484800,2.46948486328125,-0.617355227470398,-1.1157444715499878,0.3875173330307007
1710891157868445200,2.488445068359375,-0.81099933385849,-1.1878265142440796,0.5863538384437561
1710891157887405600,2.507405517578125,-0.8928552269935608,-1.148425817489624,0.7473167181015015
1710891157906366000,2.526365966796875,-0.8702532649040222,-1.0348049402236938,0.8157335519790649
1710891157925326300,2.545326416015625,-0.7996983528137207,-0.8549052476882935,0.7717512845993042
1710891157944286700,2.56428662109375,-0.6830231547355652,-0.6973021626472473,0.6089558005332947
1710891157963247000,2.5832470703125,-0.5122864842414856,-0.5980366468429565,0.3386481702327728
1710891157982207500,2.60220751953125,-0.2713003158569336,-0.5445859432220459,0.03627009689807892
1710891158001168100,2.621168212890625,0.025274530053138733,-0.5277871489524841,-0.20349432528018951
1710891158020128300,2.640128173828125,0.2525162398815155,-0.4981602132320404,-0.3696495592594147
1710891158039088600,2.659088623046875,0.34842199087142944,-0.41844236850738525,-0.43165233731269836
1710891158058049300,2.67804931640625,0.29222244024276733,-0.40775224566459656,-0.41851872205734253
1710891158077009700,2.697009765625,0.17310380935668945,-0.5018253922462463,-0.3693441152572632
1710891158095970000,2.715969970703125,0.09002619981765747,-0.593149721622467,-0.27343833446502686
1710891158114930400,2.734930419921875,0.012140937149524689,-0.6652317643165588,-0.15431971848011017
1710891158133890800,2.753890869140625,-0.06330086290836334,-0.6792816519737244,-0.059024810791015625
1710891158152851200,2.772851318359375,-0.13324488699436188,-0.6325504779815674,0.004810560029000044
1710891158171811600,2.7918115234375,-0.21143557131290436,-0.6136136651039124,0.05459604039788246
1710891158190772000,2.81077197265625,-0.27832525968551636,-0.7031053900718689,0.11598794907331467
1710891158209732400,2.829732421875,-0.30947935581207275,-0.8930842876434326,0.16913318634033203
1710891158228692700,2.848692626953125,-0.3113119602203369,-1.138346552848816,0.17279838025569916
1710891158247653000,2.867653076171875,-0.2923751473426819,-1.4984513521194458,0.11659881472587585
1710891158266613500,2.886613525390625,-0.23159411549568176,-1.8283182382583618,0.01672242395579815
1710891158285574000,2.905573974609375,-0.1527925580739975,-1.8631376028060913,-0.08956804871559143
1710891158304534300,2.9245341796875,-0.1576794683933258,-1.5778636932373047,-0.14546217024326324
1710891158323495000,2.943494873046875,-0.2654971182346344,-1.1682789325714111,-0.13629920780658722
1710891158342455300,2.962455322265625,-0.399887353181839,-0.6896663308143616,-0.081015944480896
1710891158361415700,2.981415771484375,-0.5119810700416565,-0.13561198115348816,-0.010461059398949146
1710891158380375800,3.000375732421875,-0.5489383339881897,0.4425715208053589,0.015195261687040329
1710891158399336400,3.01933642578125,-0.497320294380188,0.9666935205459595,-0.046196650713682175
1710891158418296800,3.038296875,-0.45303258299827576,1.331685185432434,-0.17417281866073608
1710891158437257200,3.05725732421875,-0.41668614745140076,1.6264275312423706,-0.3119228184223175
1710891158456217600,3.076217529296875,-0.30031639337539673,1.9932518005371094,-0.409661203622818
1710891158475178000,3.095177978515625,-0.04039343446493149,2.4071125984191895,-0.46372273564338684
1710891158494138400,3.114138427734375,0.330706924200058,2.7342307567596436,-0.49334967136383057
1710891158513098800,3.1330986328125,0.6810378432273865,2.85854172706604,-0.48388126492500305
1710891158532059100,3.15205908203125,0.8450550436973572,2.522566080093384,-0.4670824706554413
1710891158551019500,3.17101953125,0.7644209265708923,1.8096868991851807,-0.41699156165122986
1710891158569980000,3.18997998046875,0.5438987016677856,0.9477567076683044,-0.31497713923454285
1710891158588940300,3.208940185546875,0.3493382930755615,0.19364413619041443,-0.21143557131290436
1710891158607901000,3.22790087890625,0.26595523953437805,-0.33078327775001526,-0.1222493126988411
1710891158626861300,3.246861328125,0.28550294041633606,-0.6701186895370483,-0.10422880202531815
1710891158645821700,3.26582177734375,0.3664425015449524,-0.7754928469657898,-0.1378263682126999
1710891158664782000,3.284781982421875,0.45593419671058655,-0.6704241037368774,-0.15462514758110046
1710891158683742500,3.303742431640625,0.5219075679779053,-0.4657844007015228,-0.10972658544778824
1710891158702702800,3.322702880859375,0.5564214587211609,-0.27947062253952026,-0.01259908638894558
1710891158721663200,3.341663330078125,0.5585594773292542,-0.17348559200763702,0.09613484144210815
1710891158740623600,3.36062353515625,0.5313760042190552,-0.14233149588108063,0.18226677179336548
1710891158759584000,3.379583984375,0.4889208972454071,-0.15485422313213348,0.2317468225955963
1710891158778544400,3.39854443359375,0.4541015923023224,-0.19761475920677185,0.24640758335590363
1710891158797504800,3.4175048828125,0.4324159026145935,-0.2632827162742615,0.23052509129047394
1710891158816465400,3.43646533203125,0.4278344213962555,-0.3335321843624115,0.19998185336589813
1710891158835425800,3.45542578125,0.4366919696331024,-0.3552178740501404,0.17340923845767975
1710891158854386200,3.47438623046875,0.44646579027175903,-0.30634868144989014,0.15661045908927917
1710891158873346600,3.4933466796875,0.43608108162879944,-0.2101374864578247,0.15905392169952393
1710891158892307000,3.512306884765625,0.3960694372653961,-0.08368847519159317,0.18226677179336548
1710891158911267300,3.531267333984375,0.3554469347000122,0.07299833744764328,0.22014039754867554
1710891158930227700,3.550227783203125,0.3511708974838257,0.24892739951610565,0.25526511669158936
1710891158949188000,3.56918798828125,0.3459785282611847,0.39400777220726013,0.26595523953437805
1710891158968148700,3.588148681640625,0.31268641352653503,0.45387253165245056,0.25984659790992737
1710891158987108900,3.60710888671875,0.2421315312385559,0.4257727563381195,0.2427423894405365
1710891159006069200,3.6260693359375,0.1395062506198883,0.32192572951316833,0.21067199110984802
1710891159025030000,3.64502978515625,0.02588539570569992,0.16676609218120575,0.17310380935668945
1710891159043990300,3.663990234375,-0.09201150387525558,-0.009162971749901772,0.12728895246982574
1710891159062950700,3.68295068359375,-0.22059854865074158,-0.18325942754745483,0.06925679743289948
1710891159081911000,3.7019111328125,-0.3427715003490448,-0.324063777923584,0.01824958436191082
1710891159100871400,3.720871337890625,-0.44325876235961914,-0.41294458508491516,-0.014431680552661419
1710891159119831800,3.739831787109375,-0.5312232971191406,-0.44929105043411255,-0.0449749194085598
1710891159138792200,3.758792236328125,-0.5981130003929138,-0.43829548358917236,-0.06879864633083344
1710891159157752600,3.777752685546875,-0.6314051151275635,-0.39186975359916687,-0.08376483619213104
1710891159176713000,3.796712890625,-0.6283507943153381,-0.32620179653167725,-0.09384410083293915
1710891159195673300,3.81567333984375,-0.5849793553352356,-0.2629773020744324,-0.10270164161920547
1710891159214633700,3.8346337890625,-0.5067886710166931,-0.23823726177215576,-0.11797326058149338
1710891159233594400,3.853594482421875,-0.414242684841156,-0.2684750556945801,-0.14576761424541473
1710891159252554800,3.8725546875,-0.32383468747138977,-0.35216355323791504,-0.17722713947296143
1710891159271515100,3.89151513671875,-0.2349538654088974,-0.49021899700164795,-0.20318889617919922
1710891159290475500,3.9104755859375,-0.15004366636276245,-0.6688969135284424,-0.2352592945098877
1710891159309436000,3.929435791015625,-0.07368556410074234,-0.888502836227417,-0.2722166180610657
1710891159328396300,3.948396240234375,-0.04253146052360535,-1.1343759298324585,-0.3021489977836609
1710891159347356700,3.967356689453125,-0.09781472384929657,-1.3796380758285522,-0.32933247089385986
1710891159366317000,3.986317138671875,-0.2294560819864273,-1.5934407711029053,-0.34552037715911865
1710891159385277400,4.00527734375,-0.3782016634941101,-1.731190800666809,-0.3226129710674286
1710891159404237800,4.02423779296875,-0.4902953505516052,-1.7504329681396484,-0.28290674090385437
1710891159423198200,4.0431982421875,-0.48937904834747314,-1.581528902053833,-0.2667188346385956
1710891159442158800,4.062158935546875,-0.38247770071029663,-1.2351685762405396,-0.261526495218277
1710891159461119200,4.081119140625,-0.2545015513896942,-0.8576541543006897,-0.24625486135482788
1710891159480079600,4.10007958984375,-0.18486295640468597,-0.5445859432220459,-0.20196716487407684
1710891159499040000,4.1190400390625,-0.13324488699436188,-0.35796675086021423,-0.15187625586986542
1710891159518000400,4.13800048828125,-0.022678354755043983,-0.22907429933547974,-0.11217004805803299
1710891159536960800,4.156960693359375,0.13095413148403168,-0.15057817101478577,-0.10942115634679794
1710891159555921200,4.175921142578125,0.2323576956987381,-0.1737910360097885,-0.106366828083992
1710891159574881500,4.194881591796875,0.274812787771225,-0.27855435013771057,-0.04711294546723366
1710891159593842000,4.213842041015625,0.26564982533454895,-0.4214966893196106,0.035964664071798325
1710891159612802300,4.23280224609375,0.24549128115177155,-0.5302306413650513,0.12148573249578476
1710891159631762700,4.2517626953125,0.24365869164466858,-0.5858193039894104,0.18012875318527222
1710891159650723000,4.27072314453125,0.23846633732318878,-0.6145299673080444,0.1856265366077423
1710891159669683500,4.289683349609375,0.2372446060180664,-0.5739074349403381,0.14133884012699127
1710891159688643800,4.308643798828125,0.27114760875701904,-0.4718930423259735,0.057039499282836914
1710891159707604500,4.3276044921875,0.3358992636203766,-0.3894262909889221,-0.038560837507247925
1710891159726564900,4.34656494140625,0.40492698550224304,-0.38759371638298035,-0.12438733875751495
1710891159745525200,4.365525146484375,0.45074185729026794,-0.4517345130443573,-0.19524765014648438
1710891159764485600,4.384485595703125,0.4797579348087311,-0.5845975875854492,-0.2658025324344635
1710891159783446000,4.403446044921875,0.48586657643318176,-0.7455604672431946,-0.3494910001754761
1710891159802406400,4.422406494140625,0.4889208972454071,-0.9049961566925049,-0.43867728114128113
1710891159821366800,4.44136669921875,0.5035816431045532,-1.0115920305252075,-0.5086212754249573
1710891159840327200,4.4603271484375,0.5240456461906433,-1.082757830619812,-0.5620719790458679
1710891159859287600,4.47928759765625,0.5610029697418213,-1.1035271883010864,-0.5834522247314453
1710891159878248000,4.498248046875,0.604374349117279,-1.0903936624526978,-0.5752055644989014
1710891159897208300,4.517208251953125,0.6129264235496521,-1.135903000831604,-0.5724566578865051
1710891159916168700,4.536168701171875,0.549091100692749,-1.2898409366607666,-0.5553524494171143
1710891159935129000,4.555129150390625,0.4388299882411957,-1.4834851026535034,-0.4762454628944397
1710891159954089500,4.57408935546875,0.29222244024276733,-1.5741984844207764,-0.33941173553466797
1710891159973049900,4.5930498046875,0.10560324788093567,-1.4984513521194458,-0.17234022915363312
1710891159992010200,4.61201025390625,-0.03367391973733902,-1.1893537044525146,0.01000291109085083
1710891160010970600,4.630970703125,-0.039477135986089706,-0.6362156867980957,0.19356778264045715
1710891160029931300,4.64993115234375,0.08086322247982025,0.057726722210645676,0.35300347208976746
1710891160048891600,4.6688916015625,0.2427423894405365,0.7064651250839233,0.46906778216362
1710891160067851800,4.687851806640625,0.38140869140625,1.237612009048462,0.5298488140106201
1710891160086812200,4.706812255859375,0.4583776593208313,1.6071852445602417,0.5054142475128174
1710891160105772800,4.725772705078125,0.49747300148010254,1.7699806690216064,0.40981391072273254
1710891160124733200,4.744733154296875,0.46601346135139465,1.73088538646698,0.2781725525856018
1710891160143693600,4.763693603515625,0.345062255859375,1.5311325788497925,0.13706278800964355
1710891160162654000,4.782654052734375,0.15691588819026947,1.2107340097427368,-0.0022143847309052944
1710891160181614300,4.8016142578125,-0.04955640435218811,0.8002328872680664,-0.12041672319173813
1710891160200574700,4.82057470703125,-0.23220497369766235,0.3445277214050293,-0.19646938145160675
1710891160219535000,4.83953515625,-0.35559967160224915,-0.08552107214927673,-0.24930918216705322
1710891160238495500,4.85849560546875,-0.41302093863487244,-0.4211912751197815,-0.29848378896713257
1710891160257455900,4.877455810546875,-0.4307360351085663,-0.6026180982589722,-0.3220020830631256
1710891160276416300,4.896416259765625,-0.46311184763908386,-0.6407971382141113,-0.31986406445503235
1710891160295376600,4.915376708984375,-0.4960985481739044,-0.5589412450790405,-0.2951240539550781
1710891160314337000,4.9343369140625,-0.4915170669555664,-0.411722868680954,-0.2297615110874176
1710891160333297400,4.95329736328125,-0.40660688281059265,-0.15210533142089844,-0.14485131204128265
1710891160352257800,4.9722578125,-0.25816673040390015,0.11117739230394363,-0.08284853398799896
1710891160371218200,4.99121826171875,-0.09903645515441895,0.3588830530643463,-0.04864010959863663
1710891160390178600,5.010178466796875,0.015500693581998348,0.5433642268180847,-0.03428478538990021
1710891160409139000,5.029138916015625,0.07872519642114639,0.6227766275405884,-0.02542724646627903
1710891160428099300,5.048099365234375,0.12087486684322357,0.5812378525733948,-0.013209951110184193
1710891160447059700,5.067059814453125,0.20028728246688843,0.4248564541339874,-0.020540328696370125
1710891160466020000,5.08602001953125,0.3242928385734558,0.21807873249053955,-0.0758235901594162
1710891160484980700,5.104980712890625,0.44616037607192993,0.017104214057326317,-0.16989676654338837
1710891160503940900,5.12394091796875,0.5063305497169495,-0.13713914155960083,-0.23617559671401978
1710891160522901200,5.1429013671875,0.5069414377212524,-0.21777328848838806,-0.2505309283733368
1710891160541862000,5.16186181640625,0.49136435985565186,-0.28008151054382324,-0.25877758860588074
1710891160560822300,5.180822265625,0.47731447219848633,-0.3445277214050293,-0.29878923296928406
1710891160579782400,5.199782470703125,0.45593419671058655,-0.42394015192985535,-0.35101816058158875
1710891160598742800,5.21874267578125,0.437302827835083,-0.5024362802505493,-0.3898080885410309
1710891160617703400,5.237703369140625,0.4278344213962555,-0.5558869242668152,-0.4246273934841156
1710891160636663800,5.256663818359375,0.4314996004104614,-0.6142245531082153,-0.4612792730331421
1710891160655624000,5.2756240234375,0.4522690176963806,-0.7046325206756592,-0.5073995590209961
1710891160674584600,5.29458447265625,0.5066359639167786,-0.8200859427452087,-0.553214430809021
1710891160693545000,5.313544921875,0.6312524080276489,-1.018311619758606,-0.5865065455436707
1710891160712505300,5.33250537109375,0.8013782501220703,-1.2455532550811768,-0.626518189907074
1710891160731465700,5.3514658203125,0.9693660736083984,-1.375972867012024,-0.6640864014625549
1710891160750426000,5.370426025390625,1.1159735918045044,-1.3964369297027588,-0.653701663017273
1710891160769386500,5.389386474609375,1.2295944690704346,-1.3335177898406982,-0.5962803959846497
1710891160788347000,5.408346923828125,1.2928189039230347,-1.2400555610656738,-0.5119810700416565
1710891160807307300,5.427307373046875,1.3294708728790283,-1.174692988395691,-0.4139372408390045
1710891160826267600,5.446267578125,1.3639847040176392,-1.0937533378601074,-0.29359689354896545
1710891160845228000,5.46522802734375,1.4122430086135864,-0.9676098227500916,-0.1573740392923355
1710891160864188400,5.4841884765625,1.4794381856918335,-0.8463531732559204,-0.017486004158854485
1710891160883148800,5.503148681640625,1.566180944442749,-0.6973021626472473,0.09949459880590439
1710891160902109200,5.522109130859375,1.674914836883545,-0.5723803043365479,0.15691588819026947
1710891160921069600,5.541069580078125,1.826103925704956,-0.47372564673423767,0.247629314661026
1710891160940030000,5.560030029296875,1.8881067037582397,-0.4169152081012726,0.41500625014305115
1710891160958990300,5.578990234375,1.8254929780960083,-0.416304349899292,0.6083449721336365
1710891160977950700,5.59795068359375,1.7720423936843872,-0.4367683231830597,0.7891609072685242
1710891160996911000,5.6169111328125,1.743637204170227,-0.4535670876502991,0.9409608244895935
1710891161015871500,5.63587158203125,1.7369176149368286,-0.4679224193096161,1.1236094236373901
1710891161034832000,5.654831787109375,1.7427208423614502,-0.4883863925933838,1.3135883808135986
1710891161053792300,5.673792236328125,1.7564653158187866,-0.47983428835868835,1.5243366956710815
1710891161072752600,5.692752685546875,1.7695989608764648,-0.4214966893196106,1.7204242944717407
1710891161091713000,5.711713134765625,1.7763184309005737,-0.4205803871154785,1.852371096611023
1710891161110673400,5.73067333984375,1.785481333732605,-0.4526508152484894,1.936059594154358
1710891161129633800,5.7496337890625,1.8218278884887695,-0.5143481492996216,1.984012484550476
1710891161148594200,5.76859423828125,1.880470871925354,-0.555276095867157,2.0228023529052734
1710891161167554600,5.787554443359375,1.908265233039856,-0.5473348498344421,2.0643410682678223
1710891161186515000,5.806514892578125,1.844124436378479,-0.4615083336830139,2.1019093990325928
1710891161205475300,5.825475341796875,1.7332524061203003,-0.29901832342147827,2.133674383163452
1710891161224435700,5.844435791015625,1.677663803100586,-0.10170898586511612,2.1239004135131836
1710891161243396000,5.86339599609375,1.7094286680221558,-0.060781046748161316,2.0454044342041016
1710891161262356500,5.8823564453125,1.7839542627334595,-0.053145237267017365,2.0084469318389893
1710891161281316900,5.90131689453125,1.741804599761963,0.18264856934547424,2.077780246734619
1710891161300277200,5.92027734375,1.5869503021240234,0.5665770769119263,2.2320234775543213
1710891161319237600,5.939237548828125,1.4974586963653564,0.7330377101898193,2.234467029571533
1710891161338198000,5.958197998046875,1.4586687088012695,0.7000510096549988,2.119013547897339
1710891161357158400,5.977158447265625,1.4021637439727783,0.6096430420875549,1.962632179260254
1710891161376118800,5.996118896484375,1.3129774332046509,0.39736753702163696,1.7152318954467773
1710891161395079200,6.0150791015625,1.187444806098938,0.25809037685394287,1.6593377590179443
1710891161414039600,6.03403955078125,1.0264818668365479,0.30482152104377747,1.739361047744751
1710891161433000000,6.053,0.9027817845344543,0.2522871494293213,1.684994101524353
1710891161451960300,6.071960205078125,0.7143300175666809,0.07788526266813278,1.5246421098709106
1710891161470920700,6.090920654296875,0.5219075679779053,-0.08277218043804169,1.3578760623931885
1710891161489881000,6.109881103515625,0.3862956166267395,-0.27030766010284424,1.1376593112945557
1710891161508841500,6.128841552734375,0.32276567816734314,-0.43279770016670227,0.7912989854812622
1710891161527801900,6.1478017578125,0.2537379562854767,-0.5149590373039246,0.385990172624588
1710891161546762200,6.16676220703125,0.08636100590229034,-0.4098902642726898,0.13156500458717346
1710891161565722600,6.18572265625,-0.21113014221191406,-0.019242240116000175,0.21281002461910248
1710891161584683000,6.20468310546875,-0.710512101650238,0.5412262082099915,0.432110458612442
1710891161603643400,6.223643310546875,-1.060232162475586,0.49632763862609863,0.10499238222837448
1710891161622603800,6.242603759765625,-1.0385464429855347,-0.2977965772151947,-0.22304199635982513
1710891161641564200,6.261564208984375,-0.9524145722389221,-0.859792172908783,-0.31436628103256226
1710891161660524800,6.28052490234375,-0.9356157779693604,-0.7666352987289429,-0.3736201822757721
1710891161679485200,6.299485107421875,-0.9182060956954956,-0.4370737373828888,-0.42829257249832153
1710891161698445300,6.3184453125,-0.7712931632995605,0.12980876863002777,-0.20349432528018951
1710891161717406000,6.337406005859375,-0.4301251769065857,0.833219587802887,0.3972911834716797
1710891161736366300,6.356366455078125,0.10865757614374161,1.0009019374847412,0.8065705895423889
1710891161755326700,6.37532666015625,0.18440480530261993,0.5876519083976746,0.8013782501220703
1710891161774287000,6.394287109375,-0.3690386712551117,-0.035124726593494415,0.20028728246688843
1710891161793247500,6.41324755859375,-1.2315797805786133,0.00946840364485979,-0.13904809951782227
1710891161812207900,6.432207763671875,-1.7135521173477173,0.27427828311920166,0.0017562361899763346
1710891161831168300,6.451168212890625,-1.5165481567382812,0.13225223124027252,0.22288928925991058
1710891161850128600,6.470128662109375,-0.9237039089202881,-0.34666576981544495,0.33742642402648926
1710891161869089000,6.489089111328125,-0.5920043587684631,-0.7412844300270081,0.21464261412620544
1710891161888049400,6.50804931640625,-0.8244383931159973,-1.027169108390808,0.04543306678533554
1710891161907009800,6.527009765625,-1.359250545501709,-1.1123847961425781,0.015806125476956367
1710891161925970400,6.545970458984375,-1.6402482986450195,-0.878118097782135,0.0011453714687377214
1710891161944930800,6.564930908203125,-1.5599195957183838,-0.36224281787872314,-0.019929463043808937
1710891161963891000,6.583890869140625,-1.4572943449020386,0.26419901847839355,-0.07154753804206848
1710891161982851300,6.602851318359375,-1.5742748975753784,0.7596103549003601,-0.05413788929581642
1710891162001812000,6.62181201171875,-1.8522183895111084,1.0610721111297607,0.02130390889942646
1710891162020772400,6.6407724609375,-2.0147085189819336,1.1227694749832153,0.10499238222837448
1710891162039732700,6.659732666015625,-2.0226495265960693,1.1065815687179565,0.16974404454231262
1710891162058693000,6.678693115234375,-2.0098214149475098,1.0329723358154297,0.22655446827411652
1710891162077653500,6.697653564453125,-2.0388376712799072,0.8845322132110596,0.23052509129047394
1710891162096614000,6.71661376953125,-2.0757949352264404,0.7947350740432739,0.18287764489650726
1710891162115574300,6.73557421875,-1.9331579208374023,0.8384119272232056,0.13309216499328613
1710891162134534700,6.75453466796875,-1.6307798624038696,0.934012234210968,-0.06696604937314987
1710891162153495300,6.773495361328125,-1.486310362815857,1.1212422847747803,-0.14637847244739532
1710891162172455700,6.79245556640625,-1.5370121002197266,1.1068869829177856,-0.16134466230869293
1710891162191415800,6.811415771484375,-1.5217405557632446,0.9896009564399719,-0.2612210512161255
1710891162210376400,6.83037646484375,-1.4243075847625732,0.9743293523788452,-0.27343833446502686
1710891162229336800,6.8493369140625,-1.3506983518600464,1.061682939529419,-0.13080142438411713
1710891162248297200,6.868297119140625,-1.1741584539413452,1.0604612827301025,-0.012904518283903599
1710891162267257600,6.887257568359375,-0.9530254006385803,0.89705491065979,0.056428633630275726
1710891162286218000,6.906218017578125,-0.7276163101196289,0.6673697829246521,0.0680350661277771
1710891162305178400,6.925178466796875,-0.5825359225273132,0.47586366534233093,0.06223184987902641
1710891162324138800,6.944138671875,-0.5022072196006775,0.383928507566452,0.07597630470991135
1710891162343099100,6.96309912109375,-0.3904189467430115,0.3582721948623657,0.10254892706871033
1710891162362059800,6.982059814453125,-0.2709949016571045,0.3539961278438568,0.14347685873508453
1710891162381020200,7.001020263671875,-0.2297615110874176,0.4474584460258484,0.2632063627243042
1710891162399980500,7.01998046875,-0.26213735342025757,0.500298261642456,0.3850739002227783
1710891162418941000,7.03894091796875,-0.2618319094181061,0.47067132592201233,0.45104727149009705
1710891162437901300,7.0579013671875,-0.17203480005264282,0.36285367608070374,0.4589885175228119
1710891162456861700,7.07686181640625,-0.08437569439411163,0.1792888194322586,0.42966702580451965
1710891162475822300,7.095822265625,-0.06085740402340889,0.0720820426940918,0.36919140815734863
1710891162494782700,7.11478271484375,-0.05994110554456711,0.022296564653515816,0.2729802131652832
1710891162513743000,7.1337431640625,-0.05994110554456711,0.008857538923621178,0.17676898837089539
1710891162532703500,7.152703369140625,-0.09292780607938766,0.007024944759905338,0.10041090101003647
1710891162551663900,7.171663818359375,-0.13996438682079315,0.011911863461136818,0.023136503994464874
1710891162570624300,7.190624267578125,-0.168675035238266,0.01282816007733345,-0.06788235157728195
1710891162589585000,7.2095849609375,-0.189444437623024,0.02626718580722809,-0.1417969912290573
1710891162608545300,7.228545166015625,-0.203799769282341,0.001832594396546483,-0.18211406469345093
1710891162627505700,7.247505615234375,-0.14943279325962067,-0.05925388261675835,-0.2190713882446289
1710891162646466000,7.266466064453125,-0.08498656004667282,-0.10506874322891235,-0.2456440031528473
1710891162665426400,7.285426513671875,-0.0709366723895073,-0.15485422313213348,-0.23800818622112274
1710891162684386800,7.30438671875,-0.08376483619213104,-0.17104214429855347,-0.2196822464466095
1710891162703347500,7.323347412109375,-0.05719221383333206,-0.18356487154960632,-0.20105087757110596
1710891162722307800,7.342307861328125,0.024663666263222694,-0.20127993822097778,-0.19036073982715607
1710891162741268200,7.361268310546875,0.08208495378494263,-0.2974911332130432,-0.20135630667209625
1710891162760228600,7.380228515625,0.07658717036247253,-0.37751442193984985,-0.22182027995586395
1710891162779189000,7.39918896484375,0.0243582334369421,-0.4218021333217621,-0.2401462197303772
1710891162798149400,7.4181494140625,-0.008017600513994694,-0.44440412521362305,-0.26702427864074707
1710891162817110000,7.437110107421875,-0.06268999725580215,-0.46364638209342957,-0.3360520005226135
1710891162836070400,7.4560703125,-0.14851650595664978,-0.43310311436653137,-0.42676541209220886
1710891162855030800,7.47503076171875,-0.20166173577308655,-0.36193737387657166,-0.5339722037315369
1710891162873991200,7.4939912109375,-0.25236350297927856,-0.35063639283180237,-0.6323214173316956
1710891162892951600,7.51295166015625,-0.3110065162181854,-0.4783071279525757,-0.7175370454788208
1710891162911912200,7.531912109375,-0.3494910001754761,-0.656679630279541,-0.8461240530014038
1710891162930872600,7.55087255859375,-0.3672060966491699,-0.7318159937858582,-0.9707404971122742
1710891162949833000,7.5698330078125,-0.3638463318347931,-0.8381064534187317,-1.0855830907821655
1710891162968793300,7.58879345703125,-0.25877758860588074,-0.8765909671783447,-1.2343286275863647
1710891162987753700,7.607753662109375,-0.1833357959985733,-0.8100066781044006,-1.2712860107421875
1710891163006714400,7.62671435546875,-0.2920697331428528,-0.7290670871734619,-1.188819169998169
1710891163025674800,7.6456748046875,-0.34124433994293213,-0.7247910499572754,-1.1204023361206055
1710891163044635100,7.66463525390625,-0.29481860995292664,-0.6429351568222046,-1.026940107345581
1710891163063595500,7.683595458984375,-0.31955865025520325,-0.6087267398834229,-0.7899245023727417
1710891163082556200,7.70255615234375,-0.3268890082836151,-0.685084879398346,-0.5962803959846497
1710891163101516500,7.7215166015625,-0.27404922246932983,-0.7596103549003601,-0.4814378023147583
1710891163120477000,7.740476806640625,-0.26794055104255676,-0.8084795475006104,-0.418824166059494
1710891163139437300,7.759437255859375,-0.22701261937618256,-0.7886264324188232,-0.40630143880844116
1710891163158397700,7.778397705078125,-0.13568833470344543,-0.721431314945221,-0.4307360351085663
1710891163177358300,7.7973583984375,-0.070631243288517,-0.6774490475654602,-0.42737627029418945
1710891163196318700,7.816318603515625,-0.06421715766191483,-0.7174606919288635,-0.39622217416763306
1710891163215279000,7.835279052734375,-0.10483966767787933,-0.7422007322311401,-0.34521496295928955
1710891163234239500,7.854239501953125,-0.14973822236061096,-0.8035926222801208,-0.3171151876449585
1710891163253200100,7.8732001953125,-0.15645773708820343,-0.8072578310966492,-0.2722166180610657
1710891163272160500,7.892160400390625,-0.2138790339231491,-0.8106175661087036,-0.18211406469345093
1710891163291121000,7.911120849609375,-0.32078036665916443,-0.9083559513092041,-0.019624030217528343
1710891163310081300,7.930081298828125,-0.32078036665916443,-0.8930842876434326,0.07414371520280838
1710891163329042000,7.9490419921875,-0.2966512143611908,-0.9550870656967163,0.07536543905735016
1710891163348002300,7.968002197265625,-0.2713003158569336,-0.9489784240722656,0.00603228947147727
1710891163366962700,7.986962646484375,-0.3488801419734955,-0.9896009564399719,-0.20838125050067902
1710891163385923300,8.00592333984375,-0.5522981286048889,-1.0231984853744507,-0.4304305911064148
1710891163404883700,8.0248837890625,-0.7340303659439087,-1.0427461862564087,-0.7294489145278931
1710891163423844000,8.043843994140625,-0.9389755129814148,-0.7434224486351013,-1.1228457689285278
1710891163442804500,8.062804443359376,-1.0321323871612549,-0.3488037884235382,-1.5779401063919067
1710891163461765000,8.08176513671875,-1.1127665042877197,-0.02626718580722809,-1.9356013536453247
1710891163480725500,8.1007255859375,-1.0672571659088135,0.15790854394435883,-2.072129726409912
1710891163499686000,8.119685791015625,-0.9658535718917847,0.27000224590301514,-2.058079719543457
1710891163518646300,8.138646240234374,-0.7569378018379211,0.3194822669029236,-1.8870376348495483
1710891163537606700,8.157606689453125,-0.5593230724334717,0.3326158821582794,-1.5956552028656006
1710891163556567300,8.1765673828125,-0.47899433970451355,0.3491092324256897,-1.1790454387664795
1710891163575527700,8.195527587890625,-0.49854201078414917,0.33628106117248535,-0.7489965558052063
1710891163594488000,8.214488037109374,-0.46799877285957336,0.24526220560073853,-0.3336085379123688
1710891163613448700,8.23344873046875,-0.4151589870452881,0.09162971377372742,-0.05933023989200592
1710891163632409000,8.2524091796875,-0.4240165054798126,0.1078176349401474,0.08513928204774857
1710891163651369500,8.271369384765626,-0.4249328076839447,0.15179990231990814,0.14225514233112335
1710891163670330000,8.290330078125,-0.455781489610672,0.08063415437936783,0.2485456019639969
1710891163689290500,8.30929052734375,-0.5174788236618042,0.030543239787220955,0.30566146969795227
1710891163708251000,8.3282509765625,-0.455781489610672,-0.06017018109560013,0.2687041461467743
1710891163727211300,8.347211181640626,-0.2199876755475998,-0.20952661335468292,0.20364704728126526
1710891163746172000,8.366171875,-0.06696604937314987,-0.2415970265865326,0.21555891633033752
1710891163765132300,8.38513232421875,-0.06666062027215958,-0.18264856934547424,0.18532110750675201
1710891163784092700,8.4040927734375,-0.04589121788740158,-0.1844811588525772,0.09644027799367905
1710891163803053300,8.42305322265625,0.0985783040523529,-0.1792888194322586,0.009392046369612217
1710891163822013700,8.442013671875,0.2848920524120331,-0.0925460159778595,-0.13568833470344543
1710891163840974000,8.46097412109375,0.41378453373908997,-0.12370011955499649,-0.2199876755475998
1710891163859934500,8.4799345703125,0.44646579027175903,-0.16676609218120575,-0.28443390130996704
1710891163878895000,8.49889501953125,0.46631890535354614,-0.287106454372406,-0.2709949016571045
1710891163897855500,8.51785546875,0.4479929506778717,-0.36285367608070374,-0.11797326058149338
1710891163916816000,8.53681591796875,0.4082867503166199,-0.37354379892349243,0.034437503665685654
1710891163935776500,8.555776611328126,0.349643737077713,-0.4059196412563324,0.23113596439361572
1710891163954737000,8.57473681640625,0.3197113573551178,-0.3995055556297302,0.43913543224334717
1710891163973697300,8.593697265625,0.3499491512775421,-0.3845393657684326,0.6440805792808533
1710891163992658000,8.612657958984375,0.3615556061267853,-0.38301220536231995,0.7592285871505737
1710891164011618300,8.631618408203124,0.3508654534816742,-0.46395179629325867,0.7476221323013306
1710891164030578700,8.65057861328125,0.3927097022533417,-0.5671879649162292,0.7580068111419678
1710891164049539000,8.6695390625,0.4122573733329773,-0.6264418363571167,0.722882091999054
1710891164068499500,8.68849951171875,0.3456731140613556,-0.6282744407653809,0.6095666885375977
1710891164087460000,8.707460205078124,0.31268641352653503,-0.5451968312263489,0.46601346135139465
1710891164106420500,8.72642041015625,0.28214317560195923,-0.4324922561645508,0.3655261993408203
1710891164125381000,8.745381103515625,0.22502730786800385,-0.29046618938446045,0.289168119430542
1710891164144341500,8.764341552734376,0.20822852849960327,-0.4263836145401001,0.10804671049118042
1710891164163302000,8.783302001953125,0.29649847745895386,-0.5839866995811462,0.009392046369612217
1710891164182262300,8.80226220703125,0.5472584962844849,-0.6246092319488525,-0.016875140368938446
1710891164201223000,8.821222900390625,0.6929497122764587,-0.5693259835243225,-0.03917170315980911
1710891164220183300,8.840183349609376,0.7635046243667603,-0.4935787320137024,-0.03153589367866516
1710891164239143700,8.859143798828125,0.7995456457138062,-0.39370235800743103,0.029245151206851006
1710891164258104000,8.87810400390625,0.7198277711868286,-0.40378162264823914,0.16180281341075897
1710891164277064700,8.897064697265625,0.6211731433868408,-0.42302384972572327,0.3804923892021179
1710891164296025000,8.916025146484374,0.5921570658683777,-0.42882707715034485,0.6449968218803406
1710891164314985700,8.93498583984375,0.5329031348228455,-0.47922343015670776,0.8413898944854736
1710891164333946000,8.953946044921874,0.45562875270843506,-0.4920515716075897,0.9317978620529175
1710891164352906500,8.972906494140625,0.483423113822937,-0.4981602132320404,0.9516509771347046
1710891164371867000,8.991866943359375,0.6055960655212402,-0.4101957082748413,0.9247729182243347
1710891164390827300,9.0108271484375,0.6898953914642334,-0.32100942730903625,0.8059597015380859
1710891164409788000,9.029787841796875,0.7653372287750244,-0.26022839546203613,0.7708349823951721
1710891164428748300,9.048748291015626,0.8169552683830261,-0.19914191961288452,0.7179951667785645
1710891164447708700,9.067708740234375,0.8646027445793152,-0.2409861534833908,0.7271581888198853
1710891164466669300,9.08666943359375,0.87254399061203,-0.21380266547203064,0.685924768447876
1710891164485629700,9.105629638671875,0.862770140171051,-0.23884813487529755,0.6856193542480469
1710891164504590000,9.124590087890626,0.8172607421875,-0.19089524447917938,0.715246319770813
1710891164523550700,9.14355078125,0.7183006405830383,-0.12156209349632263,0.7262418866157532
1710891164542511000,9.162510986328124,0.6825650334358215,-0.08613193035125732,0.6944769024848938
1710891164561471500,9.181471435546875,0.7399863004684448,-0.1386663019657135,0.6364447474479675
1710891164580432000,9.200431884765624,0.7720566987991333,-0.18845178186893463,0.5924624800682068
1710891164599392500,9.219392578125,0.750981867313385,-0.2110537886619568,0.5622246861457825
1710891164618353000,9.238352783203124,0.7766382098197937,-0.14721840620040894,0.5585594773292542
1710891164637313300,9.257313232421875,0.8163444399833679,-0.1438586562871933,0.6184242367744446
1710891164656274000,9.27627392578125,0.862770140171051,-0.14294235408306122,0.630641520023346
1710891164675234300,9.295234375,0.9235512018203735,-0.19639302790164948,0.6327795386314392
1710891164694194700,9.314194580078125,0.928438127040863,-0.23335035145282745,0.7027235627174377
1710891164713155300,9.3331552734375,0.8835395574569702,-0.2409861534833908,0.7659480571746826
1710891164732115700,9.35211572265625,0.8389464020729065,-0.2309068888425827,0.7748056054115295
1710891164751076000,9.371076171875,0.843833327293396,-0.2629773020744324,0.825507402420044
1710891164770036500,9.390036376953125,0.8566614985466003,-0.30512696504592896,0.9000328779220581
1710891164788997000,9.4089970703125,0.8493311405181885,-0.364991694688797,0.9244675040245056
1710891164807957500,9.42795751953125,0.8371137976646423,-0.40866854786872864,0.9776127338409424
1710891164826918000,9.44691796875,0.8572723865509033,-0.4358520209789276,1.026787281036377
1710891164845878500,9.46587841796875,0.9006437659263611,-0.47036588191986084,0.9876919984817505
1710891164864839000,9.4848388671875,0.94523686170578,-0.3992001414299011,0.9479857683181763
1710891164883799300,9.50379931640625,0.9861648082733154,-0.35216355323791504,0.9238566160202026
1710891164902759700,9.522759765625,0.9947169423103333,-0.374765545129776,0.8847612738609314
1710891164921720300,9.54172021484375,0.9589813351631165,-0.26419901847839355,0.8939242362976074
1710891164940680700,9.5606806640625,0.9427934288978577,-0.22479823231697083,0.8749874234199524
1710891164959641300,9.579641357421876,0.9559270143508911,-0.21502439677715302,0.8655190467834473
1710891164978601700,9.598601806640625,0.9800561666488647,-0.21685700118541718,0.8578832149505615
1710891164997562000,9.61756201171875,0.9794453382492065,-0.1997527778148651,0.8658244609832764
1710891165016522500,9.6365224609375,0.9858593940734863,-0.13744457066059113,0.9519563913345337
1710891165035483100,9.655483154296874,0.9883028268814087,-0.19639302790164948,0.9840267896652222
1710891165054443500,9.674443603515625,0.9702823162078857,-0.2464839369058609,0.9620356559753418
1710891165073404000,9.69340380859375,0.9479857683181763,-0.3072649836540222,0.9455423355102539
1710891165092364500,9.712364501953125,0.9476803541183472,-0.2306014597415924,0.9901354312896729
1710891165111325000,9.731324951171874,0.9763910174369812,-0.19120067358016968,0.9684497714042664
1710891165130285300,9.750285400390625,0.9941060543060303,-0.2764163017272949,0.898200273513794
1710891165149246000,9.769245849609375,1.0093777179718018,-0.2715294063091278,0.8245911002159119
1710891165168206300,9.788206298828126,1.0536653995513916,-0.24770566821098328,0.7540361881256104
1710891165187166700,9.807166748046875,1.0533599853515625,-0.2666424810886383,0.7042507529258728
1710891165206127000,9.826127197265626,0.9806670546531677,-0.24862197041511536,0.6969203352928162
1710891165225087700,9.845087646484375,0.9266055226325989,-0.23212862014770508,0.7134137153625488
1710891165244048100,9.864048095703126,0.9006437659263611,-0.19730933010578156,0.7207440733909607
1710891165263008500,9.883008544921875,0.8862884640693665,-0.20769402384757996,0.7314342260360718
1710891165281969200,9.90196923828125,0.8878155946731567,-0.28588470816612244,0.6868410706520081
1710891165300929500,9.920929443359375,0.8759037256240845,-0.314289927482605,0.6425533890724182
1710891165319890000,9.939889892578124,0.852996289730072,-0.30604326725006104,0.6477457284927368
1710891165338850300,9.958850341796875,0.8111520409584045,-0.35277441143989563,0.6694314479827881
1710891165357811000,9.97781103515625,0.7549524903297424,-0.33139413595199585,0.6779835224151611
1710891165376771300,9.996771240234375,0.8001564741134644,-0.13958260416984558,0.6556869745254517
1710891165395732000,10.01573193359375,0.8911753296852112,-0.010690134018659592,0.5613083839416504
1710891165414692400,10.0346923828125,0.9040035009384155,0.00946840364485979,0.5072468519210815
1710891165433652700,10.05365283203125,0.8768200278282166,0.0821613147854805,0.5130500793457031
1710891165452613000,10.072613037109376,0.8001564741134644,0.11636973917484283,0.5411498546600342
1710891165471573800,10.09157373046875,0.7329613566398621,0.09132428467273712,0.520380437374115
1710891165490534100,10.1105341796875,0.69722580909729,0.03481929376721382,0.5103011727333069
1710891165509494800,10.129494873046875,0.6883682608604431,-0.022907428443431854,0.5041925311088562
1710891165528455200,10.148455078125,0.6810378432273865,-0.1438586562871933,0.48097965121269226
1710891165547415600,10.16741552734375,0.6920334100723267,-0.19822561740875244,0.4516581594944
1710891165566376000,10.1863759765625,0.6920334100723267,-0.168904110789299,0.4522690176963806
1710891165585336600,10.205336669921875,0.6724857687950134,-0.09987638890743256,0.47120583057403564
1710891165604297000,10.224296875,0.6547706723213196,0.022296564653515816,0.5017490386962891
1710891165623257300,10.24325732421875,0.6101775765419006,0.02718348242342472,0.4541015923023224
1710891165642218000,10.262218017578125,0.584826648235321,0.02412915788590908,0.47517645359039307
1710891165661178400,10.281178466796876,0.6401099562644958,0.08949168771505356,0.5280162692070007
1710891165680138800,10.300138671875,0.7115811109542847,0.020769402384757996,0.5588648915290833
1710891165699099100,10.31909912109375,0.7088322043418884,-0.043982263654470444,0.6257545948028564
1710891165718059800,10.338059814453125,0.6730966567993164,-0.06536252796649933,0.6364447474479675
1710891165737020200,10.357020263671876,0.6544652581214905,-0.1594357043504715,0.595211386680603
1710891165755980500,10.37598046875,0.677067220211029,-0.17562362551689148,0.6123155951499939
1710891165774941200,10.394941162109374,0.7011964321136475,-0.1701258420944214,0.6535489559173584
1710891165793901600,10.413901611328125,0.6840922236442566,-0.17348559200763702,0.6248382925987244
1710891165812862000,10.432862060546874,0.6694314479827881,-0.08124501258134842,0.6000983119010925
1710891165831822600,10.451822509765625,0.6749292016029358,0.02779434807598591,0.5881864428520203
1710891165850783000,10.470782958984374,0.6929497122764587,0.11453714966773987,0.5924624800682068
1710891165869743400,10.489743408203125,0.6877573728561401,0.11972949653863907,0.5655844211578369
1710891165888703700,10.508703857421875,0.7015018463134766,0.18723005056381226,0.5750528573989868
1710891165907664400,10.527664306640625,0.7512873411178589,0.27427828311920166,0.5836049318313599
1710891165926624800,10.546624755859375,0.7518981695175171,0.2574795186519623,0.5090794563293457
1710891165945585200,10.565585205078126,0.7311288118362427,0.24037529528141022,0.40523242950439453
1710891165964545800,10.5845458984375,0.7366265654563904,0.2877173125743866,0.345062255859375
1710891165983506200,10.603506103515626,0.7668643593788147,0.40744680166244507,0.33315038681030273
1710891166002466600,10.622466552734375,0.7442623972892761,0.5351175665855408,0.31665703654289246
1710891166021427200,10.64142724609375,0.7384591698646545,0.6368265151977539,0.3206276595592499
1710891166040387600,10.6603876953125,0.7427352070808411,0.6530144214630127,0.344451367855072
1710891166059348000,10.679347900390624,0.7329613566398621,0.5070177912712097,0.2995528280735016
1710891166078308400,10.698308349609375,0.7497601509094238,0.3295615613460541,0.2574031352996826
1710891166097269000,10.71726904296875,0.7912989854812622,0.3023780584335327,0.3239873945713043
1710891166116229400,10.7362294921875,0.8090140223503113,0.16829325258731842,0.43058329820632935
1710891166135189800,10.755189697265624,0.8029053807258606,-0.12064579129219055,0.4382191300392151
1710891166154150400,10.774150390625,0.7900772094726562,-0.2159406989812851,0.4021781086921692
1710891166173110800,10.79311083984375,0.7210494875907898,-0.12156209349632263,0.3823249936103821
1710891166192071200,10.8120712890625,0.6562978625297546,-0.02779434807598591,0.349643737077713
1710891166211031600,10.831031494140625,0.6431642770767212,0.09407317638397217,0.284586638212204
1710891166229992200,10.8499921875,0.5900190472602844,0.25900667905807495,0.2329685539007187
1710891166248952600,10.86895263671875,0.4956403970718384,0.4376846253871918,0.24610215425491333
1710891166267913000,10.887912841796876,0.4583776593208313,0.5219839811325073,0.191735178232193
1710891166286873600,10.90687353515625,0.47548186779022217,0.48044514656066895,0.11690424382686615
1710891166305834000,10.925833984375,0.47028952836990356,0.46883872151374817,0.12759438157081604
1710891166324794400,10.94479443359375,0.3652207851409912,0.4990765154361725,0.1862373948097229
1710891166343755000,10.963755126953124,0.29374960064888,0.5143481492996216,0.16699515283107758
1710891166362715400,10.98271533203125,0.23327398300170898,0.6438514590263367,0.05887209251523018
1710891166381675800,11.00167578125,0.2067013680934906,0.8176425099372864,-0.059635672718286514
1710891166400636200,11.02063623046875,0.1599702090024948,0.8720094561576843,-0.16684244573116302
1710891166419596800,11.0395966796875,0.06620246917009354,0.8084795475006104,-0.19524765014648438
1710891166438557200,11.05855712890625,0.02588539570569992,0.7076868414878845,-0.17631085216999054
1710891166457517800,11.077517822265625,0.01030834298580885,0.5042688846588135,-0.10850485414266586
1710891166476478200,11.096478271484376,-0.01107192412018776,0.18845178186893463,-0.0651334598660469
1710891166495438600,11.1154384765625,-0.00038179047987796366,-0.09498947113752365,-0.02084576152265072
1710891166514399000,11.13439892578125,0.00847574882209301,-0.2608392536640167,0.027717988938093185
1710891166533359400,11.153359375,0.023747367784380913,-0.35674503445625305,0.07108938694000244
1710891166552320000,11.172320068359374,0.035964664071798325,-0.4416552484035492,0.07597630470991135
1710891166571280400,11.1912802734375,0.042073313146829605,-0.4462367296218872,0.02649625949561596
1710891166590241000,11.210240966796874,0.07047852128744125,-0.2620609998703003,-0.051389001309871674
1710891166609201400,11.229201416015625,0.093691386282444,0.10354158282279968,-0.1375209391117096
1710891166628161800,11.248161865234374,0.10102175921201706,0.4728093445301056,-0.22365286946296692
1710891166647122200,11.2671220703125,0.1037706509232521,0.6808087825775146,-0.25786128640174866
1710891166666082800,11.286082763671875,0.06039925664663315,0.6863065958023071,-0.25297439098358154
1710891166685043200,11.305043212890626,0.015500693581998348,0.5971203446388245,-0.22670719027519226
1710891166704003800,11.32400390625,0.08422297984361649,0.5094612240791321,-0.16745330393314362
1710891166722964200,11.342964111328126,0.1556941568851471,0.34666576981544495,-0.08865175396203995
1710891166741924600,11.361924560546875,0.1395062506198883,0.15088360011577606,-0.03611737862229347
1710891166760885000,11.380885009765626,0.1141553521156311,0.0204639695584774,-0.010766491293907166
1710891166779845600,11.399845703125,0.12362375855445862,-0.02260199747979641,0.016416991129517555
1710891166798806000,11.418805908203124,0.07597630470991135,-0.005803215317428112,-0.0031306820455938578
1710891166817766700,11.4377666015625,0.009697478264570236,0.07849612087011337,0.000839939049910754
1710891166836727000,11.45672705078125,-0.01107192412018776,0.1585194170475006,0.00603228947147727
1710891166855687400,11.4756875,0.03627009689807892,0.18173226714134216,0.028634287416934967
1710891166874647800,11.494647705078124,0.06864593178033829,0.15790854394435883,0.029245151206851006
1710891166893608400,11.5136083984375,0.04085158184170723,0.16004657745361328,0.017027854919433594
1710891166912568800,11.53256884765625,0.02649625949561596,0.18784092366695404,0.03168861195445061
1710891166931529500,11.551529541015626,0.04848739132285118,0.18356487154960632,0.048792824149131775
1710891166950489900,11.57048974609375,0.035964664071798325,0.15760311484336853,0.003283398225903511
1710891166969450200,11.5894501953125,-0.004963276442140341,0.18173226714134216,-0.031841326504945755
1710891166988411000,11.608410888671875,-0.019624030217528343,0.23335035145282745,-0.016569707542657852
1710891167007371300,11.627371337890626,-0.044669486582279205,0.2510654330253601,-0.037033677101135254
1710891167026331600,11.64633154296875,-0.0602465383708477,0.19944734871387482,-0.06452259421348572
1710891167045292300,11.665292236328124,-0.0553596206009388,0.14660754799842834,-0.04283689334988594
1710891167064252700,11.684252685546875,-0.04589121788740158,0.09132428467273712,-0.004963276442140341
1710891167083213300,11.70321337890625,-0.03581194952130318,0.04978547990322113,0.00755945174023509
1710891167102173700,11.722173583984375,-0.03275762498378754,0.02626718580722809,-0.002825249684974551
1710891167121134000,11.741134033203124,-0.05810851231217384,0.03848448023200035,-0.0019089524867013097
1710891167140094700,11.7600947265625,-0.07918334752321243,0.07757982611656189,-0.008017600513994694
1710891167159055000,11.77905517578125,-0.08345939964056015,0.1438586562871933,-0.012293653562664986
1710891167178015700,11.798015625,-0.07765618711709976,0.19120067358016968,-0.011377356946468353
1710891167196976000,11.81697607421875,-0.06268999725580215,0.19181154668331146,0.0035888305865228176
1710891167215936500,11.8359365234375,-0.05474875494837761,0.17776164412498474,0.00022907429956831038
1710891167234897200,11.854897216796875,-0.03672824427485466,0.16310089826583862,0.006337722297757864
1710891167253857500,11.873857421875,-0.03611737862229347,0.1646280586719513,0.01611155830323696
1710891167272818000,11.89281787109375,-0.046807512640953064,0.1847866028547287,0.005421424750238657
1710891167291778600,11.911778564453124,-0.05352702736854553,0.18173226714134216,-0.0022143847309052944
1710891167310739000,11.930739013671875,-0.04650207981467247,0.16615521907806396,0.012140937149524689
1710891167329699600,11.949699462890624,-0.03550651669502258,0.18356487154960632,0.007864884100854397
1710891167348660000,11.968659912109375,-0.03306305781006813,0.2415970265865326,-0.030925029888749123
1710891167367620600,11.98762060546875,-0.043753188103437424,0.25870123505592346,-0.038560837507247925
1710891167386581000,12.0065810546875,-0.049250971525907516,0.17165300250053406,-0.0025198173243552446
1710891167405541400,12.025541259765625,-0.04650207981467247,0.023212861269712448,0.05062541738152504
1710891167424502000,12.044501953125,-0.024510949850082397,-0.10567960888147354,0.08605557680130005
1710891167443462400,12.06346240234375,-0.0012980876490473747,-0.16798780858516693,0.0732274129986763
1710891167462422800,12.0824228515625,0.01183550525456667,-0.1536324918270111,0.04940368980169296
1710891167481383400,12.101383544921875,0.008781181648373604,-0.08674279600381851,0.020693045109510422
1710891167500344000,12.120343994140624,-0.004963276442140341,-0.014660755172371864,0.020082179456949234
1710891167519304400,12.139304443359375,-0.019624030217528343,-0.012522728182375431,0.02588539570569992
1710891167538264800,12.158264892578124,-0.024205517023801804,-0.05925388261675835,0.04298960790038109
1710891167557225500,12.1772255859375,-0.008933897130191326,-0.10354158282279968,0.06375901401042938
1710891167576185900,12.196185791015624,0.00022907429956831038,-0.14630211889743805,0.08116865903139114
1710891167595146200,12.215146240234375,0.004505127668380737,-0.15057817101478577,0.07170025259256363
1710891167614107000,12.23410693359375,0.014278964139521122,-0.09132428467273712,0.057039499282836914
1710891167633067300,12.2530673828125,0.010919207707047462,-0.02412915788590908,0.03260490670800209
1710891167652028000,12.27202783203125,-0.0077121676877141,0.006719512399286032,0.027717988938093185
1710891167670988300,12.29098828125,-0.008323032408952713,0.005803215317428112,0.0322994738817215
1710891167689949000,12.309948974609375,0.015806125476956367,-0.047952886670827866,0.0243582334369421
1710891167708909300,12.328909423828126,0.04604393243789673,-0.14141519367694855,0.03993528336286545
1710891167727870000,12.347869873046875,0.0371863916516304,-0.2156352698802948,0.060704685747623444
1710891167746830300,12.366830322265624,0.02893971838057041,-0.25503605604171753,0.06345357745885849
1710891167765790700,12.385790771484375,0.037491824477910995,-0.2370155304670334,0.04482220485806465
1710891167784751400,12.40475146484375,0.03840812295675278,-0.17195843160152435,0.020998476073145866
1710891167803711700,12.423711669921875,0.015806125476956367,-0.08002328872680664,-0.0077121676877141
1710891167822672400,12.44267236328125,0.00603228947147727,0.003665188793092966,-0.022067490965127945
1710891167841633000,12.461633056640625,0.019471315667033195,0.04367683082818985,-0.03367391973733902
1710891167860593400,12.480593505859375,0.021914774551987648,0.0513126403093338,-0.036422811448574066
1710891167879553800,12.4995537109375,0.011224640533328056,0.05925388261675835,-0.046196650713682175
1710891167898514400,12.518514404296875,0.009697478264570236,0.05192350596189499,-0.04344775900244713
1710891167917474800,12.537474853515626,0.022220205515623093,0.026878049597144127,-0.02328922040760517
1710891167936435500,12.556435546875,0.014889828860759735,-0.023518294095993042,-0.014126247726380825
1710891167955395800,12.575395751953126,0.0035888305865228176,-0.041844237595796585,-0.01718057133257389
1710891167974356200,12.594356201171875,0.013973532244563103,-0.020769402384757996,-0.019013166427612305
1710891167993316900,12.61331689453125,0.021609341725707054,0.013133592903614044,-0.029397867619991302
1710891168012277500,12.632277587890625,0.011224640533328056,0.04459312930703163,-0.04344775900244713
1710891168031238000,12.65123779296875,-0.004046979360282421,0.07635809481143951,-0.04558578506112099
1710891168050198500,12.670198486328125,-0.013515383005142212,0.10140355676412582,-0.039477135986089706
1710891168069159000,12.689158935546875,0.00022907429956831038,0.07880155742168427,-0.026648975908756256
1710891168088119600,12.70811962890625,0.002672533504664898,0.002443459117785096,0.013362666592001915
1710891168107080000,12.727079833984375,0.017333287745714188,-0.07880155742168427,0.025274530053138733
1710891168126040300,12.746040283203126,0.03657552972435951,-0.11056652665138245,0.03107774630188942
1710891168145001000,12.7650009765625,0.03657552972435951,-0.10323614627122879,0.02802342176437378
1710891168163961300,12.78396142578125,0.049709122627973557,-0.06933315098285675,0.022525638341903687
1710891168182922000,12.802921875,0.03993528336286545,-0.010384701192378998,-0.004963276442140341
1710891168201882400,12.82188232421875,0.014889828860759735,0.04153880476951599,-0.02084576152265072
1710891168220843000,12.840843017578125,0.009392046369612217,0.05803215503692627,-0.0193185992538929
1710891168239803600,12.8598037109375,0.02130390889942646,0.011911863461136818,-0.007406735327094793
1710891168258764000,12.878763916015625,0.01763872057199478,-0.03848448023200035,-0.011682788841426373
1710891168277724700,12.897724609375,0.009086613543331623,-0.0204639695584774,-0.018402300775051117
1710891168296685000,12.91668505859375,0.010613775812089443,0.05192350596189499,-0.01626427471637726
1710891168315645700,12.935645751953125,-0.0058795735239982605,0.09804379940032959,-0.02909243479371071
1710891168334606000,12.954606201171876,-0.019929463043808937,0.11606431007385254,-0.03917170315980911
1710891168353566500,12.97356640625,-0.018096869811415672,0.1441640853881836,-0.01779143698513508
1710891168372527000,12.992527099609376,-0.018402300775051117,0.1542433500289917,-0.019624030217528343
1710891168391487500,13.011487548828125,0.003894262947142124,0.11636973917484283,-0.025121813639998436
1710891168410448100,13.0304482421875,0.015500693581998348,0.05345066636800766,-0.008323032408952713
1710891168429408500,13.049408447265625,-0.005574141163378954,0.00946840364485979,0.004810560029000044
1710891168448369200,13.068369140625,-0.03367391973733902,0.007024944759905338,0.011224640533328056
1710891168467329800,13.087329833984375,-0.013209951110184193,0.03237583488225937,0.015500693581998348
1710891168486290200,13.106290283203125,0.004199695307761431,0.03481929376721382,0.015195261687040329
1710891168505250800,13.125250732421875,-0.0077121676877141,0.02260199747979641,0.0057268571108579636
1710891168524211200,13.144211181640625,-0.01565340906381607,0.050090912729501724,-0.0025198173243552446
1710891168543171800,13.163171875,-0.01565340906381607,0.10323614627122879,-0.01565340906381607
1710891168562132200,13.18213232421875,-0.02909243479371071,0.13713914155960083,-0.01779143698513508
1710891168581092900,13.2010927734375,-0.05047270283102989,0.14813470840454102,-0.013820815831422806
1710891168600053200,13.22005322265625,-0.04283689334988594,0.1331685185432434,0.0005345066892914474
1710891168619014000,13.239013916015624,-0.017486004158854485,0.07360920310020447,0.0057268571108579636
1710891168637974300,13.257974365234375,-0.022983787581324577,0.027488915249705315,0.001450803829357028
1710891168656935000,13.276934814453124,-0.030314164236187935,0.032681263983249664,0.0017562361899763346
1710891168675895300,13.295895263671875,-0.02390008419752121,0.05436696484684944,0.02649625949561596
1710891168694856000,13.31485595703125,-0.019624030217528343,0.05742128938436508,0.015195261687040329
1710891168713816600,13.333816650390625,-0.021456625312566757,0.05955931544303894,-0.002825249684974551
1710891168732777000,13.35277685546875,-0.025121813639998436,0.08124501258134842,0.007254019379615784
1710891168751737600,13.371737548828126,-0.026343543082475662,0.06597339361906052,0.02130390889942646
1710891168770698000,13.390697998046875,-0.012293653562664986,0.004581485874950886,0.02588539570569992
1710891168789658600,13.40965869140625,0.007254019379615784,-0.029016077518463135,0.01824958436191082
1710891168808619000,13.428618896484375,0.004199695307761431,-0.017715077847242355,0.00847574882209301
1710891168827579600,13.44757958984375,-0.005574141163378954,0.006108647678047419,0.013057234697043896
1710891168846540000,13.4665400390625,-0.004352411720901728,0.021380268037319183,0.0322994738817215
1710891168865500700,13.485500732421874,-0.010155626572668552,0.004886918235570192,0.03107774630188942
1710891168884461000,13.5044609375,-0.022067490965127945,-0.022907428443431854,0.020387612283229828
1710891168903421700,13.523421630859374,-0.014737112447619438,-0.023518294095993042,0.021609341725707054
1710891168922382000,13.542382080078125,-0.0034361144062131643,-0.014049889519810677,0.022525638341903687
1710891168941342700,13.5613427734375,-0.019013166427612305,-0.0054977829568088055,0.015195261687040329
1710891168960303000,13.58030322265625,-0.026343543082475662,0.019853105768561363,0.01030834298580885
1710891168979263700,13.599263671875,-0.016569707542657852,0.04581485688686371,0.012140937149524689
1710891168998224100,13.61822412109375,-0.004352411720901728,0.0360410213470459,0.01000291109085083
1710891169017184800,13.637184814453125,-0.00923932995647192,0.013744457624852657,0.009392046369612217
1710891169036145200,13.656145263671876,-0.019013166427612305,0.01435532234609127,0.007864884100854397
1710891169055105800,13.675105712890625,-0.011377356946468353,0.04306596517562866,0.00022907429956831038
1710891169074066200,13.694066162109374,-0.010155626572668552,0.036651886999607086,0.0005345066892914474
1710891169093026800,13.71302685546875,-0.02542724646627903,0.015577051788568497,0.001450803829357028
1710891169111987200,13.7319873046875,-0.016875140368938446,0.029626941308379173,-0.003741546766832471
1710891169130947800,13.75094775390625,0.0057268571108579636,0.025045456364750862,0.01000291109085083
1710891169149908200,13.769908203125,0.0066431546583771706,-0.0256563201546669,0.007254019379615784
1710891169168868900,13.788868896484376,-0.007101302966475487,-0.06230820715427399,0.003894262947142124
1710891169187829200,13.807829345703125,0.003283398225903511,-0.051618073135614395,0.015500693581998348
1710891169206790000,13.826789794921876,0.011224640533328056,-0.0412333719432354,0.023441936820745468
1710891169225750500,13.84575048828125,0.006337722297757864,-0.049480047076940536,0.012446369975805283
1710891169244711000,13.8647109375,0.005421424750238657,-0.0308486707508564,0.0035888305865228176
1710891169263671600,13.883671630859375,0.020387612283229828,-0.000610864779446274,0.00755945174023509
1710891169282632000,13.9026318359375,0.022525638341903687,-0.003970621153712273,-0.0022143847309052944
1710891169301592300,13.92159228515625,0.020998476073145866,-0.010690134018659592,-0.018096869811415672
1710891169320553000,13.940552978515624,0.01977674663066864,0.023518294095993042,-0.024816380813717842
1710891169339513300,13.959513427734375,0.012446369975805283,0.0873536616563797,-0.038560837507247925
1710891169358474000,13.978473876953124,-0.0022143847309052944,0.14599667489528656,-0.06238456442952156
1710891169377434400,13.997434326171875,-0.014737112447619438,0.1902843713760376,-0.07643445581197739
1710891169396395000,14.01639501953125,-0.015347977168858051,0.189673513174057,-0.07826705276966095
1710891169415355400,14.03535546875,-0.005268708802759647,0.13683371245861053,-0.07429642975330353
1710891169434316000,14.05431591796875,0.013057234697043896,0.04367683082818985,-0.06268999725580215
1710891169453276700,14.073276611328126,0.0322994738817215,-0.06108647957444191,-0.04528035223484039
1710891169472237000,14.092237060546875,0.055512335151433945,-0.1542433500289917,-0.021151192486286163
1710891169491197400,14.111197509765624,0.07017309218645096,-0.22754712402820587,0.003283398225903511
1710891169510158000,14.130157958984375,0.07078395783901215,-0.24984370172023773,0.0011453714687377214
1710891169529118500,14.149118408203124,0.06375901401042938,-0.21410810947418213,-0.01870773360133171
1710891169548079000,14.1680791015625,0.06620246917009354,-0.1334739476442337,-0.03245219215750694
1710891169567039500,14.18703955078125,0.057039499282836914,-0.04306596517562866,-0.05566505342721939
1710891169586000000,14.205999755859375,0.042073313146829605,0.016187917441129684,-0.0859028622508049
1710891169604960500,14.22496044921875,0.050930850207805634,0.04764745384454727,-0.09567669779062271
1710891169623921200,14.243921142578126,0.07170025259256363,0.03848448023200035,-0.09262236952781677
1710891169642881500,14.262881591796875,0.07444914430379868,0.02626718580722809,-0.09720385819673538
1710891169661842200,14.28184228515625,0.07597630470991135,0.037262752652168274,-0.11033745110034943
1710891169680802600,14.300802490234375,0.07750347256660461,0.043371398001909256,-0.11430807411670685
1710891169699763000,14.319762939453126,0.07475458085536957,0.021685699000954628,-0.10025817900896072
1710891169718723600,14.3387236328125,0.07353284955024719,-0.03543015569448471,-0.08040507882833481
1710891169737684000,14.35768408203125,0.0784197673201561,-0.09132428467273712,-0.06696604937314987
1710891169756644600,14.37664453125,0.07414371520280838,-0.11942406743764877,-0.06299543380737305
1710891169775605000,14.39560498046875,0.07872519642114639,-0.11636973917484283,-0.04864010959863663
1710891169794565600,14.414565673828125,0.0781143307685852,-0.09498947113752365,-0.041004300117492676
1710891169813526000,14.433526123046875,0.07047852128744125,-0.07269290834665298,-0.04833467677235603
1710891169832486700,14.452486572265625,0.058566659688949585,-0.05253437161445618,-0.05474875494837761
1710891169851447000,14.471447021484375,0.056428633630275726,-0.02626718580722809,-0.06268999725580215
1710891169870407400,14.490407470703126,0.04787652567028999,0.011911863461136818,-0.06666062027215958
1710891169889368000,14.5093681640625,0.02588539570569992,0.05955931544303894,-0.07918334752321243
1710891169908328400,14.528328369140626,0.024052800610661507,0.08857539296150208,-0.0755181610584259
1710891169927288800,14.547288818359375,0.026190826669335365,0.07299833744764328,-0.05352702736854553
1710891169946249500,14.56624951171875,0.015500693581998348,0.028099779039621353,-0.04528035223484039
1710891169965209900,14.5852099609375,-0.007101302966475487,-0.004276053514331579,-0.041615162044763565
1710891169984170500,14.60417041015625,0.0017562361899763346,-0.03145953640341759,-0.014126247726380825
1710891170003131000,14.623130859375,0.009697478264570236,-0.05803215503692627,0.010613775812089443
1710891170022091500,14.642091552734374,-0.01779143698513508,-0.056199558079242706,-0.0034361144062131643
1710891170041052000,14.661052001953125,-0.03428478538990021,-0.008857538923621178,-0.026038112118840218
1710891170060012300,14.68001220703125,-0.019624030217528343,0.0204639695584774,-0.010766491293907166
1710891170078973000,14.698972900390626,-0.005268708802759647,-0.06505709886550903,0.04909825697541237
1710891170097933300,14.717933349609375,-0.0058795735239982605,-0.24465134739875793,0.1141553521156311
1710891170116894000,14.73689404296875,0.01611155830323696,-0.3863719701766968,0.1654679924249649
1710891170135854300,14.755854248046875,0.04940368980169296,-0.3894262909889221,0.1602756530046463
1710891170154814700,14.774814697265626,0.0322994738817215,-0.24740023910999298,0.10590868443250656
1710891170173775400,14.793775390625,-0.03733910992741585,-0.06261363625526428,0.050319984555244446
1710891170192735700,14.81273583984375,-0.09201150387525558,0.04917461425065994,0.05062541738152504
1710891170211696000,14.831696044921875,-0.09292780607938766,0.035124726593494415,0.0732274129986763
1710891170230656800,14.85065673828125,-0.08743002265691757,-0.0513126403093338,0.09063705801963806
1710891170249617200,14.8696171875,-0.0755181610584259,-0.10445787757635117,0.12087486684322357
1710891170268577500,14.88857763671875,-0.060551971197128296,-0.13988803327083588,0.15813761949539185
1710891170287538200,14.9075380859375,-0.06299543380737305,-0.1948658674955368,0.1651625633239746
1710891170306498600,14.92649853515625,-0.08437569439411163,-0.1701258420944214,0.10957387089729309
1710891170325459000,14.945458984375,-0.11217004805803299,-0.028099779039621353,0.049709122627973557
1710891170344419600,14.964419677734375,-0.1378263682126999,0.1285870373249054,0.017944153398275375
1710891170363380000,14.9833798828125,-0.13355031609535217,0.18387030065059662,0.013057234697043896
1710891170382340600,15.002340576171875,-0.13049599528312683,0.16737695038318634,0.006337722297757864
1710891170401301000,15.021301025390626,-0.11980585753917694,0.12034036219120026,0.006948587018996477
1710891170420261400,15.040261474609375,-0.07185296714305878,0.060781046748161316,0.019471315667033195
1710891170439221800,15.0592216796875,-0.02695440873503685,0.01802051067352295,0.0295505840331316
1710891170458182400,15.078182373046875,-0.0077121676877141,-0.02626718580722809,0.017027854919433594
1710891170477142800,15.097142822265624,0.017027854919433594,-0.08399390429258347,0.003283398225903511
1710891170496103200,15.116103271484375,0.04482220485806465,-0.11728604137897491,-0.00038179047987796366
1710891170515063800,15.135063720703124,0.057955797761678696,-0.09498947113752365,-0.02023489587008953
1710891170534024200,15.154024169921875,0.06772962957620621,-0.07910698652267456,-0.038560837507247925
1710891170552984600,15.172984619140625,0.08025235682725906,-0.11911863088607788,-0.036422811448574066
1710891170571945200,15.1919453125,0.0985783040523529,-0.1805105358362198,-0.01718057133257389
1710891170590905600,15.210905517578125,0.11323905736207962,-0.21288637816905975,-0.002825249684974551
1710891170609866000,15.229865966796876,0.114460788667202,-0.20463970303535461,-0.008628465235233307
1710891170628826400,15.248826416015625,0.11782054603099823,-0.1844811588525772,-0.007406735327094793
1710891170647787000,15.267787109375,0.13370302319526672,-0.1805105358362198,0.004810560029000044
1710891170666747400,15.286747314453125,0.12851068377494812,-0.1649334877729416,-0.005268708802759647
1710891170685708000,15.3057080078125,0.11537708342075348,-0.09315688163042068,-0.0397825688123703
1710891170704668400,15.32466845703125,0.10682497918605804,0.02260199747979641,-0.053832460194826126
1710891170723628800,15.34362890625,0.08177952468395233,0.10506874322891235,-0.057497646659612656
1710891170742589200,15.362589111328125,0.06345357745885849,0.1279761642217636,-0.0657443255186081
1710891170761549600,15.381549560546874,0.07872519642114639,0.1288924664258957,-0.0651334598660469
1710891170780510200,15.40051025390625,0.09491311758756638,0.13744457066059113,-0.05352702736854553
1710891170799470600,15.419470703125,0.06711876392364502,0.1337793916463852,-0.05169443041086197
1710891170818431000,15.438430908203125,0.024052800610661507,0.11667517572641373,-0.04039343446493149
1710891170837391400,15.457391357421875,0.012140937149524689,0.11484257876873016,-0.03245219215750694
1710891170856352000,15.47635205078125,0.006948587018996477,0.1334739476442337,-0.05261072888970375
1710891170875312400,15.4953125,0.007254019379615784,0.18631376326084137,-0.07735075056552887
1710891170894272800,15.514272705078126,-0.0016035200096666813,0.28466299176216125,-0.0907897800207138
1710891170913233200,15.533233154296875,-0.01718057133257389,0.4016436040401459,-0.1164461001753807
1710891170932193800,15.55219384765625,-0.02237292192876339,0.4944950342178345,-0.16562071442604065
1710891170951154200,15.571154296875,-0.02176205813884735,0.536339282989502,-0.1983019858598709
1710891170970114600,15.590114501953124,-0.01626427471637726,0.5009090900421143,-0.19799654185771942
1710891170989075000,15.609074951171875,-0.0016035200096666813,0.3799578845500946,-0.1476002037525177
1710891171008035600,15.62803564453125,0.027107125148177147,0.20708316564559937,-0.08529199659824371
1710891171026996000,15.646995849609375,0.058566659688949585,0.04306596517562866,-0.03764454275369644
1710891171045956400,15.665956298828124,0.06101011857390404,-0.049480047076940536,-0.013209951110184193
1710891171064916700,15.684916748046875,0.05306887626647949,-0.05864302068948746,0.004505127668380737
1710891171083877000,15.703877197265625,0.04451677203178406,0.008246674202382565,-0.015347977168858051
1710891171102837800,15.722837646484376,0.03871355578303337,0.11331541836261749,-0.03245219215750694
1710891171121798100,15.741798095703125,0.01763872057199478,0.1902843713760376,-0.04802924394607544
1710891171140758500,15.760758544921876,-0.0019089524867013097,0.23793183267116547,-0.0602465383708477
1710891171159719000,15.779718994140625,-0.016569707542657852,0.2620609998703003,-0.05199986323714256
1710891171178679300,15.79867919921875,-0.024816380813717842,0.2834412455558777,-0.038560837507247925
1710891171197640000,15.817639892578125,-0.031230462715029716,0.28527384996414185,-0.02542724646627903
1710891171216600300,15.836600341796874,-0.041004300117492676,0.2620609998703003,-0.0193185992538929
1710891171235560700,15.855560791015625,-0.05994110554456711,0.24006985127925873,-0.013515383005142212
1710891171254521000,15.87452099609375,-0.06818778067827225,0.2574795186519623,-0.018402300775051117
1710891171273481500,15.8934814453125,-0.06421715766191483,0.2889390289783478,-0.024205517023801804
1710891171292441900,15.91244189453125,-0.052916161715984344,0.2678641974925995,-0.012904518283903599
1710891171311402500,15.931402587890625,-0.0397825688123703,0.21441353857517242,-0.022983787581324577
1710891171330363000,15.95036279296875,-0.026038112118840218,0.16768237948417664,-0.033979352563619614
1710891171349323300,15.9693232421875,-0.018096869811415672,0.12247838824987411,-0.012904518283903599
1710891171368283600,15.98828369140625,-0.024510949850082397,0.05711585655808449,0.01824958436191082
1710891171387244000,16.007244140625,-0.024510949850082397,-0.011911863461136818,0.04024071618914604
1710891171406204700,16.02620458984375,-0.007406735327094793,-0.07757982611656189,0.05367974191904068
1710891171425165000,16.0451650390625,0.005421424750238657,-0.143553227186203,0.06742420047521591
1710891171444125400,16.06412548828125,0.015500693581998348,-0.1805105358362198,0.072921983897686
1710891171463085800,16.0830859375,0.0191658828407526,-0.18387030065059662,0.06681333482265472
1710891171482046500,16.10204638671875,0.018555017188191414,-0.1331685185432434,0.05612320080399513
1710891171501006800,16.1210068359375,0.021609341725707054,-0.07635809481143951,0.04940368980169296
1710891171519967200,16.13996728515625,0.010613775812089443,-0.0720820426940918,0.03168861195445061
1710891171538927600,16.158927734375,0.0057268571108579636,-0.10659590363502502,0.02893971838057041
1710891171557888000,16.177887939453125,-0.004046979360282421,-0.143553227186203,0.03993528336286545
1710891171576848400,16.196848388671874,-0.014737112447619438,-0.16676609218120575,0.06375901401042938
1710891171595808800,16.215808837890624,-0.017486004158854485,-0.15485422313213348,0.07597630470991135
1710891171614769200,16.23476904296875,-0.02084576152265072,-0.13103049993515015,0.0683404952287674
1710891171633729800,16.253729736328125,-0.02848157100379467,-0.11178825795650482,0.05581776797771454
1710891171652690200,16.272690185546875,-0.030314164236187935,-0.07971785217523575,0.05459604039788246
1710891171671650600,16.291650634765624,-0.026648975908756256,-0.060781046748161316,0.06620246917009354
1710891171690611000,16.31061083984375,-0.02542724646627903,-0.09101885557174683,0.0781143307685852
1710891171709571300,16.3295712890625,-0.02756527252495289,-0.12370011955499649,0.07750347256660461
1710891171728532000,16.348531982421875,-0.0193185992538929,-0.08002328872680664,0.04390590637922287
1710891171747492400,16.367492431640624,-0.02237292192876339,0.04734202101826668,0.003894262947142124
1710891171766452700,16.38645263671875,-0.04864010959863663,0.17073670029640198,-0.014431680552661419
1710891171785413000,16.4054130859375,-0.07154753804206848,0.20861032605171204,-0.015347977168858051
1710891171804373500,16.42437353515625,-0.0651334598660469,0.14233149588108063,0.006948587018996477
1710891171823334100,16.443334228515624,-0.02390008419752121,0.018631376326084137,0.030161447823047638
1710891171842294500,16.46229443359375,0.007254019379615784,-0.10231985151767731,0.042684175074100494
1710891171861255000,16.4812548828125,0.01000291109085083,-0.19333870708942413,0.05215258151292801
1710891171880215300,16.50021533203125,0.01763872057199478,-0.2519817352294922,0.08269581943750381
1710891171899175700,16.51917578125,0.024663666263222694,-0.28588470816612244,0.09796743839979172
1710891171918136000,16.538135986328125,0.03107774630188942,-0.2938259541988373,0.08666644245386124
1710891171937096400,16.557096435546875,0.03779725730419159,-0.2510654330253601,0.06528617441654205
1710891171956057000,16.57605712890625,0.030466880649328232,-0.1805105358362198,0.04818195849657059
1710891171975017500,16.595017578125,0.015195261687040329,-0.14172062277793884,0.042073313146829605
1710891171993977900,16.613977783203126,0.012751801870763302,-0.12614357471466064,0.03993528336286545
1710891172012938200,16.632938232421875,0.020387612283229828,-0.10445787757635117,0.030161447823047638
1710891172031898600,16.651898681640624,0.018555017188191414,-0.07819069176912308,0.007254019379615784
1710891172050859300,16.670859375,0.0029779658652842045,-0.039706211537122726,-0.0031306820455938578
1710891172069819600,16.689819580078126,-0.0009926552884280682,-0.019853105768561363,-0.005574141163378954
1710891172088780000,16.708780029296875,0.0057268571108579636,-0.03756818547844887,0.0035888305865228176
1710891172107740400,16.727740478515624,0.009086613543331623,-0.053756099194288254,0.0005345066892914474
1710891172126701000,16.746701171875,0.004505127668380737,-0.01588248461484909,0.00511599238961935
1710891172145661400,16.765661376953126,-0.008017600513994694,0.03390299528837204,0.010919207707047462
1710891172164621800,16.784621826171875,-0.004046979360282421,0.03298669680953026,0.001450803829357028
1710891172183582200,16.803582275390625,0.01030834298580885,0.021991131827235222,-0.0077121676877141
1710891172202542600,16.82254248046875,0.004505127668380737,0.029626941308379173,-0.02390008419752121
1710891172221503000,16.8415029296875,0.0029779658652842045,0.053756099194288254,-0.022678354755043983
1710891172240463600,16.860463623046876,0.01183550525456667,0.07483093440532684,-0.010766491293907166
1710891172259424000,16.879424072265625,0.019471315667033195,0.06200277432799339,-0.015958841890096664
1710891172278384400,16.89838427734375,0.003894262947142124,0.02779434807598591,-0.02848157100379467
1710891172297344800,16.9173447265625,0.012140937149524689,-0.007635809946805239,-0.023594651371240616
1710891172316305200,16.93630517578125,0.03107774630188942,-0.04245510324835777,0.004810560029000044
1710891172335265500,16.955265625,0.029245151206851006,-0.06047561392188072,0.008781181648373604
1710891172354226200,16.97422607421875,0.015500693581998348,-0.05833758786320686,-0.0077121676877141
1710891172373186600,16.9931865234375,0.023441936820745468,-0.049480047076940536,-0.0009926552884280682
1710891172392147000,17.01214697265625,0.037491824477910995,-0.05406153202056885,-0.004352411720901728
1710891172411107300,17.031107421875,0.033826638013124466,-0.06719512492418289,-0.012293653562664986
1710891172430068000,17.05006787109375,0.019471315667033195,-0.054672397673130035,-0.017486004158854485
1710891172449028400,17.0690283203125,0.0191658828407526,-0.03176496922969818,-0.013209951110184193
1710891172467988700,17.08798876953125,0.023747367784380913,-0.03909534588456154,0.003283398225903511
1710891172486949000,17.10694921875,0.012751801870763302,-0.057726722210645676,0.0035888305865228176
1710891172505909500,17.125909423828126,0.012140937149524689,-0.040317077189683914,-0.00923932995647192
1710891172524870100,17.1448701171875,0.02283107116818428,-0.001832594396546483,-0.014126247726380825
1710891172543830500,17.16383056640625,0.036880962550640106,0.028405211865901947,-0.04344775900244713
1710891172562791000,17.182791015625,0.003283398225903511,0.05894844979047775,-0.12469277530908585
1710891172581751300,17.201751220703127,-0.04894553869962692,0.2208276242017746,-0.18272492289543152
1710891172600712000,17.2207119140625,-0.036422811448574066,0.45998117327690125,-0.15706861019134521
1710891172619672300,17.23967236328125,-0.027259841561317444,0.5277871489524841,-0.12988512217998505
1710891172638632700,17.2586328125,-0.031841326504945755,0.40225446224212646,-0.12469277530908585
1710891172657593000,17.277593017578123,-0.04436405375599861,0.21960589289665222,-0.10361793637275696
1710891172676553700,17.2965537109375,-0.013820815831422806,0.10384701192378998,-0.043142326176166534
1710891172695514000,17.31551416015625,-0.00679587060585618,0.01893680728971958,-0.002825249684974551
1710891172714474500,17.334474609375,-0.02237292192876339,-0.01649334840476513,0.01000291109085083
1710891172733435000,17.353434814453124,-0.02542724646627903,0.012217295356094837,0.011224640533328056
1710891172752395500,17.3723955078125,-0.03428478538990021,0.027488915249705315,0.018555017188191414
1710891172771356000,17.39135595703125,-0.024816380813717842,-0.001832594396546483,0.040546149015426636
1710891172790316300,17.41031640625,-0.0025198173243552446,-0.07147117704153061,0.06101011857390404
1710891172809276700,17.429276611328124,0.007864884100854397,-0.15821397304534912,0.07536543905735016
1710891172828237000,17.448237060546877,0.00755945174023509,-0.19150610268115997,0.08636100590229034
1710891172847197700,17.46719775390625,0.013362666592001915,-0.17898337543010712,0.0985783040523529
1710891172866158000,17.486157958984375,0.021914774551987648,-0.13469567894935608,0.07628174126148224
1710891172885118500,17.505118408203124,-0.003741546766832471,-0.06230820715427399,0.035964664071798325
1710891172904078800,17.524078857421873,-0.013515383005142212,0.023518294095993042,-0.002825249684974551
1710891172923039500,17.54303955078125,-0.014737112447619438,0.07269290834665298,-0.008323032408952713
1710891172941999900,17.561999755859375,-0.014431680552661419,0.06780599057674408,0.0066431546583771706
1710891172960960300,17.580960205078124,-0.02084576152265072,0.02626718580722809,0.021609341725707054
1710891172979920600,17.599920654296874,-0.01870773360133171,-0.014660755172371864,0.013362666592001915
1710891172998881300,17.61888134765625,-0.00954476185142994,-0.023823726922273636,0.01611155830323696
1710891173017841700,17.637841552734375,-0.010461059398949146,-0.039706211537122726,0.027107125148177147
1710891173036802000,17.656802001953125,-0.021456625312566757,-0.03817904740571976,0.0243582334369421
1710891173055762700,17.6757626953125,-0.013515383005142212,-0.014966187067329884,0.022220205515623093
1710891173074723000,17.69472314453125,-0.0009926552884280682,0.00946840364485979,0.02130390889942646
1710891173093683500,17.713683349609376,-0.01107192412018776,0.004581485874950886,0.011530072428286076
1710891173112643800,17.732643798828125,-0.011377356946468353,0.004581485874950886,0.00847574882209301
1710891173131604500,17.7516044921875,-0.004046979360282421,0.0030543238390237093,0.010613775812089443
1710891173150564900,17.77056494140625,0.000839939049910754,-0.02932151034474373,0.00603228947147727
1710891173169525200,17.789525146484376,0.013362666592001915,-0.06719512492418289,-0.013820815831422806
1710891173188485600,17.808485595703125,0.0191658828407526,-0.07757982611656189,-0.018096869811415672
1710891173207446000,17.827446044921874,0.0371863916516304,-0.07513637095689774,-0.04069886729121208
1710891173226406700,17.84640673828125,0.06589704006910324,-0.11178825795650482,-0.06177370250225067
1710891173245367000,17.865366943359376,0.13706278800964355,-0.1954767256975174,-0.1472947746515274
1710891173264327700,17.88432763671875,0.18379394710063934,-0.1951712965965271,-0.1689804643392563
1710891173283288000,17.9032880859375,0.15355613827705383,-0.05039634555578232,-0.10209077596664429
1710891173302248400,17.92224853515625,0.07139482349157333,0.04550942778587341,-0.019013166427612305
1710891173321208800,17.941208740234377,-0.026038112118840218,0.05558869615197182,-0.0012980876490473747
1710891173340169500,17.96016943359375,-0.09812015295028687,0.10629047453403473,0.006337722297757864
1710891173359129900,17.9791298828125,-0.17081306874752045,0.21838416159152985,0.04787652567028999
1710891173378090200,17.99809033203125,-0.19616395235061646,0.1899789422750473,0.07261654734611511
1710891173397050600,18.017050537109377,-0.1735619604587555,0.07452550530433655,0.08422297984361649
1710891173416011300,18.03601123046875,-0.12286017835140228,-0.002443459117785096,0.08269581943750381
1710891173434971600,18.0549716796875,-0.08254310488700867,0.01740964688360691,0.08147408813238144
1710891173453932300,18.073932373046876,-0.07185296714305878,0.1029307171702385,0.0683404952287674
1710891173472892700,18.092892578125,-0.037033677101135254,0.15210533142089844,0.02802342176437378
1710891173491853000,18.11185302734375,-0.024510949850082397,0.1997527778148651,-0.02084576152265072
1710891173510813400,18.1308134765625,-0.03153589367866516,0.2370155304670334,-0.04558578506112099
1710891173529773800,18.14977392578125,-0.034895651042461395,0.23426663875579834,-0.05169443041086197
1710891173548734500,18.168734375,-0.037033677101135254,0.19181154668331146,-0.03367391973733902
1710891173567694800,18.18769482421875,-0.055970486253499985,0.12767073512077332,-0.018096869811415672
1710891173586655500,18.206655517578124,-0.057497646659612656,0.06230820715427399,0.01824958436191082
1710891173605615900,18.225615966796877,-0.052916161715984344,0.03237583488225937,0.03840812295675278
1710891173624576300,18.244576171875,-0.03611737862229347,0.029626941308379173,0.02588539570569992
1710891173643536600,18.26353662109375,-0.03214675933122635,0.1484401375055313,-0.009850194677710533
1710891173662497300,18.282497314453124,-0.04864010959863663,0.29443681240081787,-0.05230529606342316
1710891173681457700,18.301457763671873,-0.03764454275369644,0.4221075773239136,-0.13843722641468048
1710891173700418000,18.32041796875,-0.03550651669502258,0.4871646761894226,-0.25938844680786133
1710891173719378700,18.339378662109375,-0.06940951198339462,0.39370235800743103,-0.3006218373775482
1710891173738339000,18.358339111328124,-0.06604975461959839,0.22418737411499023,-0.22884522378444672
1710891173757299500,18.377299560546874,-0.021456625312566757,0.3707949221134186,-0.11522436887025833
1710891173776260000,18.396260009765626,0.08452841639518738,0.6212494969367981,-0.07857248187065125
1710891173795220500,18.415220458984376,0.13675735890865326,0.6914989352226257,-0.041004300117492676
1710891173814180900,18.434180908203125,0.08513928204774857,0.8032872080802917,-0.039477135986089706
1710891173833141500,18.4531416015625,-0.043753188103437424,0.6331613659858704,-0.053832460194826126
1710891173852102000,18.472101806640627,-0.15004366636276245,0.07269290834665298,0.037491824477910995
1710891173871062300,18.491062255859376,-0.03306305781006813,-0.6743947267532349,0.17340923845767975
1710891173890023000,18.51002294921875,0.26015204191207886,-1.6249003410339355,0.3661370873451233
1710891173908983300,18.5289833984375,0.4156171381473541,-2.4938554763793945,0.6278926134109497
1710891173927943700,18.547943603515623,0.35758498311042786,-2.986823320388794,0.7030289769172668
1710891173946904300,18.566904296875,0.1245400533080101,-2.8096725940704346,0.5384009480476379
1710891173965864700,18.58586474609375,-0.15065452456474304,-2.064723014831543,0.22319471836090088
1710891173984825000,18.6048251953125,-0.3983601927757263,-1.2443315982818604,0.001450803829357028
1710891174003785700,18.62378564453125,-0.5611556768417358,-0.7089085578918457,-0.14546217024326324
1710891174022746000,18.64274609375,-0.5898662805557251,-0.545502245426178,-0.15615230798721313
1710891174041706500,18.66170654296875,-0.5538252592086792,-0.5467239618301392,-0.070631243288517
1710891174060667000,18.6806669921875,-0.6372083425521851,-0.7779362797737122,-0.09017891436815262
1710891174079627500,18.69962744140625,-0.8363502621650696,-0.8371901512145996,-0.16500984132289886
1710891174098588000,18.718587890625,-0.9973130822181702,-0.9086613655090332,-0.16103923320770264
1710891174117548500,18.737548583984374,-1.0147227048873901,-1.1615593433380127,-0.11247547715902328
1710891174136509000,18.756509033203123,-0.9832631945610046,-1.286786675453186,-0.05933023989200592
1710891174155469300,18.77546923828125,-0.9918153285980225,-1.1505638360977173,0.020387612283229828
1710891174174429700,18.7944296875,-1.0113630294799805,-0.952643632888794,0.04909825697541237
1710891174193390300,18.813390380859374,-1.119180679321289,-0.8420770764350891,-0.1115591824054718
1710891174212350700,18.832350830078123,-1.0681734085083008,-0.7721330523490906,-0.16103923320770264
1710891174231311400,18.851311279296876,-0.9747111201286316,-0.7800742983818054,-0.1170569658279419
1710891174250271700,18.870271728515625,-1.0672571659088135,-0.9584468603134155,-0.08223766833543777
1710891174269232000,18.889232177734375,-1.0953569412231445,-0.9737184643745422,-0.05719221383333206
1710891174288192500,18.908192626953124,-1.0721440315246582,-0.8396336436271667,-0.04650207981467247
1710891174307153000,18.92715283203125,-1.051680088043213,-0.8402445316314697,-0.10270164161920547
1710891174326113500,18.946113525390626,-1.0080032348632812,-0.6585122346878052,-0.147905632853508
1710891174345074000,18.965073974609375,-0.9316451549530029,-0.4471530318260193,-0.14637847244739532
1710891174364034300,18.984034423828124,-0.9050725102424622,-0.43401941657066345,-0.19463679194450378
1710891174382995000,19.002994873046877,-0.9789871573448181,-0.35124725103378296,-0.2343430072069168
1710891174401955300,19.021955322265626,-0.949971079826355,-0.30451610684394836,-0.30856308341026306
1710891174420915700,19.040915771484375,-0.9151517748832703,-0.2565632164478302,-0.3778962194919586
1710891174439876400,19.05987646484375,-0.9322559833526611,-0.05436696484684944,-0.4441750645637512
1710891174458836700,19.078836669921873,-0.978681743144989,0.048563748598098755,-0.4765508770942688
1710891174477797000,19.097797119140626,-0.9985348582267761,0.12614357471466064,-0.5367210507392883
1710891174496757500,19.116757568359375,-1.006170630455017,0.15546508133411407,-0.6646972298622131
1710891174515718100,19.13571826171875,-1.0095304250717163,0.2364046722650528,-0.7004328370094299
1710891174534678500,19.154678466796874,-0.9624938368797302,0.26908594369888306,-0.7157044410705566
1710891174553639000,19.173638916015626,-0.8894954919815063,0.21838416159152985,-0.820162296295166
1710891174572599600,19.192599609375,-0.8513164520263672,0.2614501118659973,-0.9249256253242493
1710891174591560000,19.211559814453125,-0.839099109172821,0.36163195967674255,-0.9594395160675049
1710891174610520300,19.230520263671874,-0.8812488317489624,0.4471530318260193,-0.8739184141159058
1710891174629480700,19.249480712890627,-0.9105703234672546,0.45448338985443115,-0.8812488317489624
1710891174648441300,19.26844140625,-0.867504358291626,0.4108065664768219,-0.9350048899650574
1710891174667401700,19.287401611328125,-0.8235220909118652,0.2926042377948761,-0.9511927962303162
1710891174686362000,19.306362060546874,-0.8595631122589111,0.3536907136440277,-0.8308524489402771
1710891174705322500,19.325322509765623,-0.9188169836997986,0.3533852696418762,-0.7975603342056274
1710891174724283100,19.344283203125,-0.9463059306144714,0.30604326725006104,-0.755105197429657
1710891174743243500,19.363243408203125,-0.9069051146507263,0.25503605604171753,-0.821384072303772
1710891174762204000,19.382203857421874,-0.8610902428627014,0.2574795186519623,-0.8937715291976929
1710891174781164300,19.401164306640624,-0.8998801708221436,0.4315759539604187,-0.802752673625946
1710891174800125000,19.420125,-0.9255365133285522,0.4413498044013977,-0.8555924892425537
1710891174819085300,19.439085205078126,-0.8726966977119446,0.4272999167442322,-0.8904117941856384
1710891174838045700,19.458045654296875,-0.9108757376670837,0.44898560643196106,-0.8143591284751892
1710891174857006300,19.47700634765625,-0.9020181894302368,0.39309149980545044,-0.8751401305198669
1710891174875966700,19.495966796875,-0.8894954919815063,0.36224281787872314,-0.8717803955078125
1710891174894927000,19.514927001953126,-0.9472221732139587,0.4053087830543518,-0.7661007642745972
1710891174913887500,19.533887451171875,-0.988455593585968,0.3750709891319275,-0.75571608543396
1710891174932848000,19.55284814453125,-1.0138064622879028,0.36712974309921265,-0.6759982109069824
1710891174951808500,19.57180859375,-1.0446550846099854,0.3863719701766968,-0.7300597429275513
1710891174970769000,19.590768798828126,-0.9860121011734009,0.3894262909889221,-0.7822887301445007
1710891174989729300,19.609729248046875,-1.0388518571853638,0.39217519760131836,-0.6992111206054688
1710891175008689700,19.628689697265624,-1.1106284856796265,0.3704894781112671,-0.792062520980835
1710891175027650300,19.647650390625,-1.081612467765808,0.4263836145401001,-0.9414190053939819
1710891175046610700,19.666610595703126,-1.1500293016433716,0.6093376278877258,-0.9420298337936401
1710891175065571000,19.685571044921875,-1.124678373336792,0.6255255341529846,-1.1393392086029053
1710891175084531500,19.704531494140625,-1.0049489736557007,0.5525271892547607,-1.366580843925476
1710891175103492000,19.7234921875,-0.9466113448143005,0.591622531414032,-1.4539345502853394
1710891175122452500,19.742452392578127,-1.1042144298553467,0.6869174242019653,-1.2786163091659546
1710891175141412900,19.761412841796876,-1.2218059301376343,0.6157516837120056,-1.0761146545410156
1710891175160373200,19.780373291015625,-1.2734240293502808,0.40927940607070923,-0.8934661149978638
1710891175179333600,19.799333740234374,-1.2499057054519653,0.2263254076242447,-0.8882737755775452
1710891175198294000,19.8182939453125,-1.239215612411499,0.20127993822097778,-0.9429461359977722
1710891175217254400,19.83725439453125,-1.3452006578445435,0.4685332775115967,-0.7361684441566467
1710891175236215000,19.856215087890625,-1.3723840713500977,0.49082985520362854,-0.6918807029724121
1710891175255175400,19.875175537109374,-1.3238203525543213,0.3594939112663269,-0.699821949005127
1710891175274135800,19.8941357421875,-1.3238203525543213,0.23273947834968567,-0.5675697326660156
1710891175293096200,19.91309619140625,-1.4084250926971436,0.21746785938739777,-0.48296496272087097
1710891175312056600,19.932056640625,-1.3867393732070923,0.08277218043804169,-0.39561131596565247
1710891175331017000,19.951016845703126,-1.4194207191467285,0.09101885557174683,-0.30886849761009216
1710891175349977600,19.9699775390625,-1.4160609245300293,0.0772743970155716,-0.3632354736328125
1710891175368938000,19.98893798828125,-1.3473386764526367,0.15179990231990814,-0.36537349224090576
1710891175387898400,20.0078984375,-1.347949504852295,0.14263692498207092,-0.34002259373664856
1710891175406858800,20.026858642578127,-1.3708568811416626,0.07483093440532684,-0.4041634202003479
1710891175425819100,20.045819091796876,-1.3125193119049072,-0.007330377586185932,-0.42737627029418945
1710891175444779500,20.064779541015625,-1.3207659721374512,0.04581485688686371,-0.37026041746139526
1710891175463740000,20.083739990234374,-1.2859467267990112,0.039706211537122726,-0.38614290952682495
1710891175482700300,20.1027001953125,-1.2605957984924316,0.14172062277793884,-0.39164069294929504
1710891175501661000,20.121660888671876,-1.2624284029006958,0.15027274191379547,-0.4356229603290558
1710891175520621300,20.140621337890625,-1.2141700983047485,0.17806708812713623,-0.4444804787635803
1710891175539581700,20.159581787109374,-1.1396446228027344,0.06536252796649933,-0.48876819014549255
1710891175558542000,20.1785419921875,-1.0764200687408447,0.054672397673130035,-0.5556578636169434
1710891175577502500,20.19750244140625,-1.0318269729614258,0.13225223124027252,-0.5358047485351562
1710891175596462800,20.216462890625,-1.026940107345581,0.20341797173023224,-0.40110909938812256
1710891175615423200,20.23542333984375,-0.9078214168548584,0.06627883017063141,-0.3791179656982422
1710891175634383600,20.254383544921875,-0.8775836229324341,-0.06566796451807022,-0.41210466623306274
1710891175653344300,20.27334423828125,-0.8885791897773743,-0.056810423731803894,-0.3849211633205414
1710891175672304600,20.2923046875,-0.9188169836997986,0.08613193035125732,-0.34460410475730896
1710891175691265000,20.31126513671875,-0.8216894865036011,0.03023780696094036,-0.43837183713912964
1710891175710225400,20.330225341796876,-0.692186176776886,-0.09468404203653336,-0.4542543292045593
1710891175729185800,20.349185791015625,-0.7141773104667664,-0.09407317638397217,-0.5168679356575012
1710891175748146200,20.368146240234374,-0.7340303659439087,0.040317077189683914,-0.5037343502044678
1710891175767106600,20.3871064453125,-0.7001274228096008,-0.02107483521103859,-0.492127925157547
1710891175786067000,20.40606689453125,-0.7004328370094299,-0.10995566099882126,-0.4560869038105011
1710891175805027300,20.42502734375,-0.6262127757072449,-0.18692462146282196,-0.3937787115573883
1710891175823987700,20.44398779296875,-0.63568115234375,-0.13194678723812103,-0.3131445646286011
1710891175842948000,20.462947998046875,-0.655228853225708,-0.01740964688360691,-0.29420775175094604
1710891175861908700,20.48190869140625,-0.5923097729682922,-0.053145237267017365,-0.3589594066143036
1710891175880868900,20.500868896484373,-0.4295142889022827,-0.1802051067352295,-0.3171151876449585
1710891175899829200,20.519829345703126,-0.3134499788284302,-0.2205221801996231,-0.22182027995586395
1710891175918790000,20.538789794921875,-0.22884522378444672,-0.18203771114349365,-0.11797326058149338
1710891175937750300,20.557750244140625,-0.1784488707780838,-0.17837251722812653,-0.10056361556053162
1710891175956710700,20.576710693359374,-0.06604975461959839,-0.1649334877729416,-0.05688678100705147
1710891175975671000,20.595671142578126,0.01183550525456667,-0.19272783398628235,-0.0657443255186081
1710891175994631400,20.61463134765625,0.09185878932476044,-0.314289927482605,-0.09842558950185776
1710891176013591800,20.633591796875,0.15141810476779938,-0.3042106628417969,-0.12621992826461792
1710891176032552200,20.65255224609375,0.2070067971944809,-0.12705987691879272,-0.20196716487407684
1710891176051512600,20.6715126953125,0.24029892683029175,-0.1802051067352295,-0.14943279325962067
1710891176070473000,20.690472900390624,0.18684826791286469,-0.21258094906806946,-0.028176138177514076
1710891176089433300,20.709433349609377,0.1764635592699051,-0.1594357043504715,-0.01565340906381607
1710891176108393700,20.728393798828126,0.2323576956987381,-0.10231985151767731,0.06956222653388977
1710891176127354000,20.74735400390625,0.20395247638225555,-0.09834922850131989,0.12240202724933624
1710891176146314500,20.766314453125,0.19845469295978546,-0.04367683082818985,0.13278673589229584
1710891176165275000,20.78527490234375,0.27023130655288696,-0.08949168771505356,0.17493639886379242
1710891176184235300,20.8042353515625,0.2629009187221527,-0.13988803327083588,0.1605810821056366
1710891176203195600,20.823195556640623,0.29649847745895386,-0.10201441496610641,0.08666644245386124
1710891176222156000,20.842156005859376,0.36430448293685913,-0.006719512399286032,0.024663666263222694
1710891176241116400,20.861116455078125,0.432110458612442,0.01954767294228077,0.07658717036247253
1710891176260076800,20.880076904296875,0.4846448302268982,0.012522728182375431,0.16180281341075897
1710891176279037200,20.899037109375,0.510606586933136,-0.02107483521103859,0.28122687339782715
1710891176297997600,20.91799755859375,0.6071232557296753,-0.06230820715427399,0.35391977429389954
1710891176316958000,20.9369580078125,0.7131083011627197,-0.10354158282279968,0.4516581594944
1710891176335918300,20.95591845703125,0.8080977201461792,-0.1640172004699707,0.558254063129425
1710891176354878700,20.974878662109376,0.8300888538360596,-0.15790854394435883,0.5979602336883545
1710891176373839000,20.993839111328125,0.7778599262237549,-0.1649334877729416,0.5167152285575867
1710891176392799500,21.012799560546874,0.8065705895423889,-0.09040798991918564,0.45532333850860596
1710891176411759900,21.031759765625,0.844444215297699,-0.000610864779446274,0.40462157130241394
1710891176430720300,21.05072021484375,0.8664353489875793,-0.009773836471140385,0.2781725525856018
1710891176449680600,21.0696806640625,0.9669225811958313,-0.12583814561367035,0.20914483070373535
1710891176468641000,21.08864111328125,1.0719913244247437,-0.15729768574237823,0.1043815165758133
1710891176487601400,21.107601318359375,1.2066869735717773,-0.13011419773101807,0.06956222653388977
1710891176506561800,21.126561767578124,1.2470040321350098,-0.21471896767616272,0.14286600053310394
1710891176525522200,21.145522216796873,1.1966077089309692,-0.30543237924575806,0.3038288652896881
1710891176544482600,21.164482666015626,1.1572070121765137,-0.2367101013660431,0.4318050444126129
1710891176563443000,21.18344287109375,1.1016182899475098,-0.22357651591300964,0.5894081592559814
1710891176582403300,21.2024033203125,1.0160971879959106,-0.23335035145282745,0.7323505282402039
1710891176601363700,21.22136376953125,1.0047961473464966,-0.2828303873538971,0.8404735922813416
1710891176620324000,21.240323974609375,1.0307579040527344,-0.36163195967674255,0.8325323462486267
1710891176639284500,21.259284423828124,1.0884846448898315,-0.41325002908706665,0.8322269320487976
1710891176658244900,21.278244873046877,1.0906226634979248,-0.281914085149765,0.9009491801261902
1710891176677205200,21.297205322265626,1.011210322380066,-0.19120067358016968,0.9043089747428894
1710891176696165600,21.31616552734375,1.0127373933792114,-0.13133592903614044,0.8111520409584045
1710891176715126000,21.3351259765625,1.1126137971878052,-0.11942406743764877,0.7671698331832886
1710891176734086400,21.35408642578125,1.159345030784607,-0.11911863088607788,0.7580068111419678
1710891176753046800,21.373046875,1.1208604574203491,-0.11209368705749512,0.7726675868034363
1710891176772007200,21.392007080078123,1.0777945518493652,-0.15241076052188873,0.8206204771995544
1710891176790967600,21.410967529296876,1.13002347946167,-0.19181154668331146,0.8239802122116089
1710891176809928000,21.429927978515625,1.2705223560333252,-0.19425499439239502,0.7833577394485474
1710891176828888300,21.448888427734374,1.3954442739486694,-0.23854269087314606,0.7748056054115295
1710891176847848700,21.4678486328125,1.4128538370132446,-0.3601047992706299,0.8313106298446655
1710891176866809000,21.48680908203125,1.3908627033233643,-0.44318240880966187,0.8920916318893433
1710891176885769500,21.50576953125,1.4391210079193115,-0.425467312335968,0.8383355736732483
1710891176904729900,21.524729736328126,1.4702751636505127,-0.3836230933666229,0.8135955333709717
1710891176923690200,21.543690185546875,1.427820086479187,-0.3066541254520416,0.8212313652038574
1710891176942650600,21.562650634765625,1.3569597005844116,-0.3689623177051544,0.816038966178894
1710891176961611000,21.581611083984374,1.2708277702331543,-0.42943793535232544,0.8294780254364014
1710891176980571400,21.6005712890625,1.186223030090332,-0.33169957995414734,0.8682679533958435
1710891176999531800,21.61953173828125,1.1523200273513794,-0.33200499415397644,0.8636864423751831
1710891177018492200,21.6384921875,1.1272746324539185,-0.36774060130119324,0.8325323462486267
1710891177037452500,21.65745263671875,1.1223876476287842,-0.32070401310920715,0.7748056054115295
1710891177056413000,21.676412841796875,1.1422407627105713,-0.30604326725006104,0.6758455038070679
1710891177075373300,21.695373291015624,1.1361321210861206,-0.4156934916973114,0.6266708970069885
1710891177094334000,21.714333984375,1.065882682800293,-0.35246896743774414,0.6068177819252014
1710891177113294000,21.733294189453126,1.0023527145385742,-0.16707152128219604,0.5857429504394531
1710891177132254500,21.75225439453125,1.0121265649795532,-0.09285144507884979,0.5435932874679565
1710891177151215000,21.771215087890624,1.011515736579895,-0.03176496922969818,0.5793288946151733
1710891177170175500,21.790175537109373,0.9592867493629456,-0.07452550530433655,0.612621009349823
1710891177189135600,21.809135498046874,0.9067524075508118,-0.16340632736682892,0.6150645017623901
1710891177208096300,21.82809619140625,0.8948405385017395,-0.31123560667037964,0.5585594773292542
1710891177227056600,21.847056640625,0.88995361328125,-0.4425715208053589,0.5225184559822083
1710891177246017000,21.86601708984375,0.8786526322364807,-0.4776962697505951,0.558254063129425
1710891177264977400,21.884977294921875,0.871016800403595,-0.5170970559120178,0.5362629294395447
1710891177283937800,21.903937744140624,0.8474985361099243,-0.5119046568870544,0.5118283033370972
1710891177302898200,21.922898193359377,0.8380300998687744,-0.3597993552684784,0.5063305497169495
1710891177321858600,21.941858642578126,0.8395572900772095,-0.3298669755458832,0.4837285578250885
1710891177340819000,21.96081884765625,0.806876003742218,-0.328645259141922,0.5060251355171204
1710891177359779300,21.979779296875,0.7625883221626282,-0.35705047845840454,0.4837285578250885
1710891177378739700,21.99873974609375,0.6996692419052124,-0.3481929302215576,0.4889208972454071
1710891177397700000,22.0177001953125,0.6779835224151611,-0.27427828311920166,0.4748710095882416
1710891177416660500,22.036660400390623,0.6813433170318604,-0.11972949653863907,0.5099957585334778
1710891177435620900,22.055620849609376,0.6868410706520081,-0.06566796451807022,0.5344303250312805
1710891177454581200,22.074581298828125,0.6617956161499023,-0.1740964651107788,0.500832736492157
1710891177473541600,22.093541748046874,0.6446914076805115,-0.28557929396629333,0.464486300945282
1710891177492502000,22.112501953125,0.6898953914642334,-0.2510654330253601,0.4168388545513153
1710891177511462400,22.13146240234375,0.7131083011627197,-0.16676609218120575,0.4009563624858856
1710891177530422800,22.1504228515625,0.6706531643867493,-0.20219624042510986,0.37407833337783813
1710891177549383400,22.169383544921875,0.6471349000930786,-0.04886918142437935,0.4376082420349121
1710891177568343600,22.188343505859375,0.6098721027374268,0.11667517572641373,0.5225184559822083
1710891177587304000,22.207303955078125,0.6227002739906311,0.13041962683200836,0.5258781909942627
1710891177606264600,22.2262646484375,0.6477457284927368,0.008246674202382565,0.4635699987411499
1710891177625225000,22.245224853515627,0.6605738997459412,-0.1432477980852127,0.42447465658187866
1710891177644185300,22.264185302734376,0.6553815603256226,-0.14233149588108063,0.4541015923023224
1710891177663145700,22.283145751953125,0.6566032767295837,-0.035124726593494415,0.502359926700592
1710891177682106000,22.302106201171874,0.695698618888855,-0.032681263983249664,0.4733438491821289
1710891177701066500,22.32106640625,0.7170788645744324,-0.09560033679008484,0.4699840843677521
1710891177720027000,22.34002685546875,0.6602684855461121,-0.10323614627122879,0.5124391913414001
1710891177738987300,22.3589873046875,0.6110938787460327,-0.1282816082239151,0.5219075679779053
1710891177757947600,22.37794775390625,0.6281980872154236,-0.09498947113752365,0.5270999670028687
1710891177776908000,22.396907958984375,0.6953932046890259,-0.00946840364485979,0.5558105707168579
1710891177795868400,22.415868408203124,0.6996692419052124,0.019853105768561363,0.547563910484314
1710891177814829000,22.4348291015625,0.630946934223175,0.04673115536570549,0.49258607625961304
1710891177833789200,22.4537890625,0.5994874238967896,0.09010255336761475,0.4235583543777466
1710891177852749600,22.47274951171875,0.6758455038070679,0.16065743565559387,0.4324159026145935
1710891177871710200,22.491710205078125,0.7775545120239258,0.2461785078048706,0.4898371994495392
1710891177890670600,22.510670654296874,0.7763327956199646,0.2788597643375397,0.520991325378418
1710891177909631000,22.529630859375,0.7735838890075684,0.31581708788871765,0.5606974959373474
1710891177928591400,22.54859130859375,0.7809142470359802,0.4276053309440613,0.6156753301620483
1710891177947551700,22.5675517578125,0.7369319796562195,0.35124725103378296,0.5509236454963684
1710891177966512000,22.58651220703125,0.7057778835296631,0.2409861534833908,0.35727953910827637
1710891177985472500,22.605472412109375,0.7503710389137268,0.36621344089508057,0.2167806327342987
1710891178004433000,22.624432861328124,0.7625883221626282,0.49418962001800537,0.20822852849960327
1710891178023393500,22.6433935546875,0.7234929800033569,0.5094612240791321,0.28214317560195923
1710891178042353700,22.662353759765626,0.686535656452179,0.5213730931282043,0.3093266487121582
1710891178061314000,22.68131396484375,0.6837867498397827,0.6374374032020569,0.29222244024276733
1710891178080274700,22.700274658203124,0.7234929800033569,0.7806851863861084,0.2952767610549927
1710891178099235000,22.719235107421873,0.8059597015380859,0.7318159937858582,0.3310123383998871
1710891178118195500,22.738195556640626,0.8386409878730774,0.4514290690422058,0.4110356271266937
1710891178137155800,22.75715576171875,0.751592755317688,0.12064579129219055,0.5139663815498352
1710891178156116200,22.7761162109375,0.667904257774353,-0.08918625861406326,0.5866592526435852
1710891178175076600,22.79507666015625,0.6220894455909729,-0.2254091054201126,0.6385827660560608
1710891178194037000,22.814037109375,0.549091100692749,-0.430659681558609,0.6657662391662598
1710891178212997400,22.832997314453124,0.46021026372909546,-0.6988292932510376,0.641331672668457
1710891178231958000,22.8519580078125,0.38293585181236267,-0.8124501705169678,0.5487856268882751
1710891178250918400,22.87091845703125,0.39973464608192444,-0.609948456287384,0.45623964071273804
1710891178269878800,22.889878662109375,0.49258607625961304,-0.21471896767616272,0.2583194375038147
1710891178288839200,22.908839111328124,0.47059494256973267,0.1533270627260208,0.05887209251523018
1710891178307799600,22.927799560546877,0.17676898837089539,0.3591884970664978,-0.15370884537696838
1710891178326760000,22.946760009765626,0.015806125476956367,0.6044507026672363,-0.3592648506164551
1710891178345720300,22.96572021484375,0.03535379841923714,1.1160500049591064,-0.5003746151924133
1710891178364680700,22.9846806640625,0.0732274129986763,1.691789984703064,-0.5709294676780701
1710891178383641300,23.003641357421873,0.1291215419769287,1.877798318862915,-0.5461894869804382
1710891178402601700,23.022601806640626,0.1810450553894043,1.5577051639556885,-0.4493674039840698
1710891178421562000,23.04156201171875,0.22991423308849335,0.9731075763702393,-0.30031639337539673
1710891178440522500,23.0605224609375,0.26656612753868103,0.44440412521362305,-0.1677587330341339
1710891178459483000,23.07948291015625,0.29619306325912476,0.11759147047996521,-0.09689842909574509
1710891178478443300,23.098443359375,0.28031057119369507,0.05894844979047775,-0.11369720846414566
1710891178497403600,23.117403564453124,0.284586638212204,0.09193515032529831,-0.20044000446796417
1710891178516364000,23.136364013671876,0.34292420744895935,0.17256930470466614,-0.2135736048221588
1710891178535324700,23.15532470703125,0.3771326541900635,0.38209593296051025,-0.20563235878944397
1710891178554285000,23.17428515625,0.28580835461616516,0.30115634202957153,-0.11950042098760605
1710891178573245400,23.193245361328124,0.14256057143211365,0.08399390429258347,-0.04833467677235603
1710891178592205800,23.212205810546877,0.10499238222837448,0.07360920310020447,-0.06727148592472076
1710891178611166200,23.231166259765626,0.13828451931476593,-0.0204639695584774,-0.02237292192876339
