time,seconds_elapsed,z,y,x
1711550131908399900,0.03739990234375,6.16810417175293,6.355199813842773,4.211451530456543
1711550131927358200,0.056358154296875,6.11267614364624,6.412397384643555,4.205559730529785
1711550131946316500,0.075316650390625,6.083126068115234,6.447554111480713,4.194639205932617
1711550131965275000,0.09427490234375,6.093712329864502,6.4234747886657715,4.216160297393799
1711550131984233000,0.11323291015625,6.063040733337402,6.400888919830322,4.2940144538879395
1711550132003191300,0.13219140625,5.954314708709717,6.410551071166992,4.429599761962891
1711550132022149400,0.1511494140625,5.7790846824646,6.465581893920898,4.579172134399414
1711550132041107700,0.170107666015625,5.5836076736450195,6.5462646484375,4.705329418182373
1711550132060065800,0.189065673828125,5.409200191497803,6.585237979888916,4.8523783683776855
1711550132079024000,0.208024169921875,5.270523548126221,6.543844223022461,5.056684970855713
1711550132097982500,0.226982421875,5.1523051261901855,6.533027172088623,5.190731048583984
1711550132116940500,0.2459404296875,5.084176540374756,6.51076602935791,5.285023212432861
1711550132135899000,0.26489892578125,4.992298126220703,6.4949564933776855,5.390999794006348
1711550132154857000,0.28385693359375,4.889141082763672,6.479762554168701,5.5026679039001465
1711550132173815300,0.302815185546875,4.7932868003845215,6.465763092041016,5.602560997009277
1711550132192773600,0.321773681640625,4.699315071105957,6.463998794555664,5.683619499206543
1711550132211732000,0.34073193359375,4.600851058959961,6.463220119476318,5.764488220214844
1711550132230690000,0.35968994140625,4.510948657989502,6.477001667022705,5.819808483123779
1711550132249648400,0.3786484375,4.423527240753174,6.484643459320068,5.878110885620117
1711550132268606500,0.3976064453125,4.331240177154541,6.482113838195801,5.949197292327881
1711550132287564800,0.416564697265625,4.250864505767822,6.474903583526611,6.014662742614746
1711550132306523000,0.43552294921875,4.166236400604248,6.476282596588135,6.072119235992432
1711550132325481200,0.454481201171875,4.09771728515625,6.495131015777588,6.0985541343688965
1711550132344439600,0.473439453125,4.053126811981201,6.526949882507324,6.094380855560303
1711550132363397600,0.492397705078125,4.023115634918213,6.54448938369751,6.095456123352051
1711550132382356000,0.51135595703125,3.9595510959625244,6.582979202270508,6.095631122589111
1711550132401314300,0.530314208984375,3.8847293853759766,6.618364334106445,6.105449199676514
1711550132420272400,0.5492724609375,3.8520567417144775,6.634152412414551,6.109015464782715
1711550132439230700,0.568230712890625,3.864539384841919,6.616915225982666,6.119816303253174
1711550132458188800,0.587188720703125,3.872671604156494,6.6027140617370605,6.130006313323975
1711550132477147100,0.606147216796875,3.852585554122925,6.620180130004883,6.123821258544922
1711550132496105500,0.62510546875,3.866380453109741,6.620811939239502,6.114436626434326
1711550132515063600,0.6440634765625,3.8982110023498535,6.595553398132324,6.121521472930908
1711550132534022000,0.66302197265625,3.8866097927093506,6.5811638832092285,6.144341468811035
1711550132552980000,0.68197998046875,3.8056998252868652,6.615029335021973,6.158604145050049
1711550132571938300,0.700938232421875,3.725250005722046,6.616510391235352,6.206021308898926
1711550132590896600,0.719896728515625,3.612968683242798,6.601511478424072,6.287837028503418
1711550132609854700,0.738854736328125,3.4638829231262207,6.569387912750244,6.404299736022949
1711550132628813000,0.75781298828125,3.305183172225952,6.501452922821045,6.555704116821289
1711550132647771400,0.776771484375,3.12528395652771,6.403249740600586,6.738054275512695
1711550132666729500,0.7957294921875,2.90962290763855,6.294254779815674,6.934467315673828
1711550132685687800,0.814687744140625,2.688636302947998,6.185330390930176,7.1192216873168945
1711550132704646000,0.83364599609375,2.520413398742676,6.084371089935303,7.2662458419799805
1711550132723604200,0.852604248046875,2.452166795730591,5.995656490325928,7.362700939178467
1711550132742562600,0.8715625,2.4725751876831055,5.921648979187012,7.415580749511719
1711550132761521000,0.89052099609375,2.542086362838745,5.864078998565674,7.437792778015137
1711550132780479000,0.90947900390625,2.618394374847412,5.842623233795166,7.428199768066406
1711550132799437300,0.928437255859375,2.7023792266845703,5.833628177642822,7.405154705047607
1711550132818395400,0.9473955078125,2.764691114425659,5.838658809661865,7.378139019012451
1711550132837353700,0.966353759765625,2.7881815433502197,5.841211795806885,7.3672709465026855
1711550132856312000,0.98531201171875,2.7758820056915283,5.8184332847595215,7.38990592956543
1711550132875270400,1.0042705078125,2.757967710494995,5.791845321655273,7.417447566986084
1711550132894228500,1.023228515625,2.7476987838745117,5.795539379119873,7.418372631072998
1711550132913186800,1.042186767578125,2.72356915473938,5.811056137084961,7.41513204574585
1711550132932145000,1.061144775390625,2.63140606880188,5.914456367492676,7.366497993469238
1711550132951103200,1.080103271484375,2.4956109523773193,6.121608257293701,7.243495941162109
1711550132970061600,1.0990615234375,2.38578724861145,6.281805515289307,7.142642021179199
1711550132989019600,1.11801953125,2.3955862522125244,6.362829685211182,7.067244529724121
1711550133007978000,1.13697802734375,2.49285888671875,6.443238258361816,6.959936141967773
1711550133026936300,1.155936279296875,2.5991733074188232,6.554246425628662,6.815903663635254
1711550133045894700,1.174894775390625,2.682147741317749,6.679011821746826,6.66087532043457
1711550133064852700,1.193852783203125,2.73229718208313,6.809210777282715,6.506887435913086
1711550133083811000,1.21281103515625,2.72723126411438,6.918637275695801,6.392579078674316
1711550133102769400,1.231769287109375,2.698852777481079,6.996352195739746,6.319622993469238
1711550133121727500,1.2507275390625,2.670897960662842,7.055768966674805,6.265206336975098
1711550133140685800,1.269685791015625,2.624356269836426,7.121371269226074,6.2104105949401855
1711550133159644200,1.28864404296875,2.539623975753784,7.189146518707275,6.167403697967529
1711550133178602500,1.3076025390625,2.418285608291626,7.232468605041504,6.165524005889893
1711550133197560600,1.326560546875,2.2676427364349365,7.232891082763672,6.222014427185059
1711550133216519000,1.345518798828125,2.102979898452759,7.206849098205566,6.309452056884766
1711550133235477200,1.364477294921875,1.9644938707351685,7.165156841278076,6.400911808013916
1711550133254435600,1.383435546875,1.7472491264343262,7.309788227081299,6.299563407897949
1711550133273394000,1.402393798828125,1.476569414138794,7.558733940124512,6.070886611938477
1711550133292352000,1.42135205078125,1.3754037618637085,7.707291603088379,5.905616760253906
1711550133311310300,1.440310302734375,1.3174148797988892,7.805924892425537,5.788119792938232
1711550133330268700,1.4592685546875,1.2156453132629395,7.934389114379883,5.633655071258545
1711550133349227000,1.47822705078125,1.1023658514022827,8.084531784057617,5.440178394317627
1711550133368185000,1.49718505859375,1.0116363763809204,8.221144676208496,5.249739646911621
1711550133387143400,1.516143310546875,0.9466296434402466,8.329925537109375,5.087888240814209
1711550133406101800,1.535101806640625,0.9165459275245667,8.414715766906738,4.952059745788574
1711550133425060000,1.55406005859375,0.9386738538742065,8.467512130737305,4.857004642486572
1711550133444018200,1.57301806640625,1.022204875946045,8.485550880432129,4.808420181274414
1711550133462976500,1.5919765625,1.1651082038879395,8.48047161102295,4.784820079803467
1711550133481934800,1.610934814453125,1.3380718231201172,8.457185745239258,4.78079080581665
1711550133500893200,1.62989306640625,1.505937933921814,8.404245376586914,4.824021816253662
1711550133519851500,1.6488515625,1.6532070636749268,8.310796737670898,4.936392307281494
1711550133538809900,1.667809814453125,1.77727210521698,8.183833122253418,5.102604389190674
1711550133557768200,1.686768310546875,1.8753879070281982,8.033028602600098,5.30318546295166
1711550133576726500,1.7057265625,1.9433618783950806,7.863250732421875,5.528383731842041
1711550133595684600,1.7246845703125,1.967716097831726,7.685550212860107,5.764615535736084
1711550133614643000,1.743642822265625,1.9346575736999512,7.506728172302246,6.006372451782227
1711550133633601300,1.762601318359375,1.8211244344711304,7.325231075286865,6.260581970214844
1711550133652559600,1.7815595703125,1.607500433921814,7.139219284057617,6.528237342834473
1711550133671518000,1.80051806640625,1.3007100820541382,6.951139450073242,6.794130325317383
1711550133690476300,1.819476318359375,0.9264815449714661,6.76765775680542,7.036393165588379
1711550133709434400,1.838434326171875,0.5120855569839478,6.590808868408203,7.2435760498046875
1711550133728392700,1.857392822265625,0.07391936331987381,6.415778160095215,7.416381359100342
1711550133747351000,1.87635107421875,-0.37060457468032837,6.234679222106934,7.560543060302734
1711550133766309400,1.895309326171875,-0.7969856262207031,6.044869422912598,7.68080472946167
1711550133785267700,1.914267822265625,-1.1888724565505981,5.846423149108887,7.783078193664551
1711550133804226000,1.93322607421875,-1.5303049087524414,5.644631385803223,7.871891975402832
1711550133823184400,1.952184326171875,-1.8153202533721924,5.439481735229492,7.955315113067627
1711550133842142700,1.971142822265625,-2.05141544342041,5.224018573760986,8.041872024536133
1711550133861101000,1.99010107421875,-2.2347562313079834,4.99916934967041,8.13538932800293
1711550133880059400,2.009059326171875,-2.366765022277832,4.789169788360596,8.223907470703125
1711550133899017700,2.028017822265625,-2.468330144882202,4.612612247467041,8.294669151306152
1711550133917975800,2.046975830078125,-2.5638484954833984,4.458163738250732,8.349961280822754
1711550133936934100,2.06593408203125,-2.6448581218719482,4.313004970550537,8.400779724121094
1711550133955892500,2.084892578125,-2.695859670639038,4.1842570304870605,8.449540138244629
1711550133974850800,2.103850830078125,-2.7227821350097656,4.088486671447754,8.487704277038574
1711550133993809200,2.12280908203125,-2.737884044647217,4.037537574768066,8.507211685180664
1711550134012767500,2.141767578125,-2.7315282821655273,4.035951614379883,8.510007858276367
1711550134031725800,2.160725830078125,-2.6773552894592285,4.076995849609375,8.507658958435059
1711550134050684200,2.17968408203125,-2.564941167831421,4.146270751953125,8.50881290435791
1711550134069642500,2.198642578125,-2.4117774963378906,4.2500152587890625,8.502416610717773
1711550134088600800,2.217600830078125,-2.2654917240142822,4.328945159912109,8.502832412719727
1711550134107559200,2.23655908203125,-2.175279140472412,4.3523759841918945,8.514420509338379
1711550134126517500,2.255517578125,-2.1872220039367676,4.347368240356445,8.513920783996582
1711550134145475800,2.274475830078125,-2.244474411010742,4.357747554779053,8.493688583374023
1711550134164434200,2.29343408203125,-2.3338100910186768,4.396431922912598,8.449562072753906
1711550134183392500,2.312392578125,-2.396563768386841,4.437194347381592,8.410597801208496
1711550134202350800,2.331350830078125,-2.354376792907715,4.482631683349609,8.39841079711914
1711550134221309200,2.35030908203125,-2.234346389770508,4.526782035827637,8.407517433166504
1711550134240267500,2.369267578125,-2.1075706481933594,4.564371109008789,8.419919967651367
1711550134259225900,2.388225830078125,-2.0261123180389404,4.587254047393799,8.42747688293457
1711550134278184200,2.40718408203125,-2.018669843673706,4.580237865447998,8.433076858520508
1711550134297142500,2.426142578125,-2.079561948776245,4.54896879196167,8.435205459594727
1711550134316100900,2.445100830078125,-2.168577194213867,4.513070106506348,8.432072639465332
1711550134335059200,2.46405908203125,-2.2149691581726074,4.475831508636475,8.439859390258789
1711550134354017500,2.483017578125,-2.186371326446533,4.4488444328308105,8.461556434631348
1711550134372975900,2.501975830078125,-2.133058547973633,4.451919078826904,8.473538398742676
1711550134391934200,2.520934326171875,-2.094147205352783,4.480038166046143,8.468422889709473
1711550134410892500,2.539892578125,-2.106311798095703,4.504354476928711,8.452491760253906
1711550134429851000,2.558850830078125,-2.1784727573394775,4.490721702575684,8.441449165344238
1711550134448809200,2.577809326171875,-2.271815538406372,4.428350448608398,8.449790000915527
1711550134467767600,2.596767578125,-2.3651981353759766,4.329049110412598,8.475586891174316
1711550134486726000,2.615725830078125,-2.4552221298217773,4.204292297363281,8.512707710266113
1711550134505684200,2.634684326171875,-2.5431315898895264,4.077402114868164,8.548547744750977
1711550134524642600,2.653642578125,-2.6207642555236816,3.950397491455078,8.584656715393066
1711550134543601000,2.672600830078125,-2.6859617233276367,3.812152862548828,8.62690544128418
1711550134562559500,2.6915595703125,-2.7132182121276855,3.666055917739868,8.681525230407715
1711550134581517800,2.710517822265625,-2.6953628063201904,3.532562017440796,8.742220878601074
1711550134600476200,2.72947607421875,-2.6538267135620117,3.416002035140991,8.80105209350586
1711550134619434500,2.7484345703125,-2.595292568206787,3.331446886062622,8.850780487060547
1711550134638392800,2.767392822265625,-2.540961980819702,3.2928197383880615,8.880948066711426
1711550134657351200,2.78635107421875,-2.5151002407073975,3.285757303237915,8.89091968536377
1711550134676309500,2.8053095703125,-2.5214874744415283,3.29223895072937,8.886711120605469
1711550134695267800,2.824267822265625,-2.5370545387268066,3.3118655681610107,8.874980926513672
1711550134714226200,2.84322607421875,-2.558065414428711,3.345388174057007,8.85635757446289
1711550134733184500,2.8621845703125,-2.597423553466797,3.386310338973999,8.829307556152344
1711550134752143000,2.88114306640625,-2.6658759117126465,3.428250789642334,8.792644500732422
1711550134771101400,2.900101318359375,-2.763599157333374,3.447876214981079,8.754715919494629
1711550134790059800,2.919059814453125,-2.8636233806610107,3.432192087173462,8.728693962097168
1711550134809018000,2.93801806640625,-2.935055732727051,3.4080119132995605,8.714430809020996
1711550134827976400,2.9569765625,-2.9636406898498535,3.3965744972229004,8.709218978881836
1711550134846934800,2.975934814453125,-2.946441173553467,3.3845112323760986,8.719745635986328
1711550134865893000,2.99489306640625,-2.8802754878997803,3.3549206256866455,8.753223419189453
1711550134884851500,3.0138515625,-2.778517723083496,3.319654703140259,8.799439430236816
1711550134903809800,3.032809814453125,-2.6788175106048584,3.298891067504883,8.838079452514648
1711550134922768100,3.05176806640625,-2.633269786834717,3.2911877632141113,8.854622840881348
1711550134941726500,3.0707265625,-2.6666100025177,3.2717084884643555,8.8518648147583
1711550134960685000,3.08968505859375,-2.74708890914917,3.236565351486206,8.840165138244629
1711550134979643400,3.108643310546875,-2.8250529766082764,3.205571413040161,8.82687759399414
1711550134998601700,3.127601806640625,-2.8768250942230225,3.192091226577759,8.815033912658691
1711550135017560000,3.14656005859375,-2.8990304470062256,3.1809253692626953,8.81179428100586
1711550135036518400,3.165518310546875,-2.8933937549591064,3.1603643894195557,8.821041107177734
1711550135055476700,3.184476806640625,-2.862483501434326,3.13896107673645,8.838749885559082
1711550135074435000,3.20343505859375,-2.8269388675689697,3.1236321926116943,8.85560417175293
1711550135093393400,3.222393310546875,-2.8063464164733887,3.10439395904541,8.868908882141113
1711550135112351700,3.241351806640625,-2.8003134727478027,3.0768179893493652,8.88041877746582
1711550135131310300,3.260310302734375,-2.8028435707092285,3.0479135513305664,8.889581680297852
1711550135150268700,3.2792685546875,-2.819286346435547,3.031806230545044,8.889890670776367
1711550135169227000,3.29822705078125,-2.853773832321167,3.0368478298187256,8.877157211303711
1711550135188185300,3.317185302734375,-2.8779211044311523,3.0560154914855957,8.862771987915039
1711550135207143700,3.336143798828125,-2.8715405464172363,3.089733123779297,8.853145599365234
1711550135226102000,3.35510205078125,-2.8695526123046875,3.126116991043091,8.841010093688965
1711550135245060600,3.374060546875,-2.8755593299865723,3.140934944152832,8.833803176879883
1711550135264019000,3.39301904296875,-2.8639333248138428,3.142674207687378,8.836960792541504
1711550135282977300,3.411977294921875,-2.8095104694366455,3.1509616374969482,8.85146713256836
1711550135301935600,3.430935546875,-2.7120020389556885,3.1665823459625244,8.876270294189453
1711550135320894000,3.44989404296875,-2.573058605194092,3.1999127864837646,8.905633926391602
1711550135339852300,3.468852294921875,-2.4107587337493896,3.259317398071289,8.929471969604492
1711550135358810600,3.487810546875,-2.2632882595062256,3.3416101932525635,8.937647819519043
1711550135377769000,3.50676904296875,-2.1503896713256836,3.4361133575439453,8.929688453674316
1711550135396727600,3.5257275390625,-2.091592788696289,3.53718638420105,8.904152870178223
1711550135415686000,3.544685791015625,-2.0950632095336914,3.636422634124756,8.863268852233887
1711550135434644200,3.563644287109375,-2.15440034866333,3.7340376377105713,8.808286666870117
1711550135453602600,3.5826025390625,-2.22668194770813,3.8379709720611572,8.745412826538086
1711550135472561000,3.601560791015625,-2.2572929859161377,3.9335639476776123,8.6949462890625
1711550135491519200,3.620519287109375,-2.2735302448272705,3.9954817295074463,8.662423133850098
1711550135510477600,3.6394775390625,-2.257786989212036,4.017910480499268,8.65616512298584
1711550135529436200,3.658436279296875,-2.226850986480713,4.049312114715576,8.649543762207031
1711550135548394500,3.67739453125,-2.219891309738159,4.116616725921631,8.619508743286133
1711550135567352800,3.696352783203125,-2.2449963092803955,4.175934791564941,8.584402084350586
1711550135586311200,3.715311279296875,-2.266489028930664,4.190247535705566,8.571769714355469
1711550135605269800,3.734269775390625,-2.19201922416687,4.173255920410156,8.599382400512695
1711550135624228000,3.75322802734375,-2.0270273685455322,4.155597686767578,8.648268699645996
1711550135643186400,3.7721865234375,-1.8680925369262695,4.169144153594971,8.677491188049316
1711550135662144800,3.791144775390625,-1.7365049123764038,4.232523441314697,8.674139022827148
1711550135681103000,3.81010302734375,-1.6926263570785522,4.353470802307129,8.62279987335205
1711550135700061400,3.8290615234375,-1.7587125301361084,4.527618408203125,8.519271850585938
1711550135719019800,3.848019775390625,-1.889029622077942,4.767367362976074,8.359076499938965
1711550135737978400,3.866978271484375,-1.9917104244232178,5.106151580810547,8.132079124450684
1711550135756936700,3.885936767578125,-1.9670376777648926,5.523416996002197,7.86085319519043
1711550135775895000,3.90489501953125,-1.8459776639938354,5.962845325469971,7.563546657562256
1711550135794853400,3.923853271484375,-1.606227159500122,6.3838887214660645,7.26886510848999
1711550135813811700,3.942811767578125,-1.1823358535766602,6.743709564208984,7.021028518676758
1711550135832770000,3.96177001953125,-0.5415767431259155,7.032228946685791,6.813577175140381
1711550135851728600,3.980728759765625,0.23995447158813477,7.252518177032471,6.596498489379883
1711550135870687000,3.99968701171875,1.0353388786315918,7.416497707366943,6.331984043121338
1711550135889645300,4.018645263671875,1.7932493686676025,7.513164043426514,6.042103290557861
1711550135908603600,4.037603759765625,2.4995667934417725,7.55597448348999,5.729728698730469
1711550135927562200,4.056562255859375,3.0999491214752197,7.593932628631592,5.375211715698242
1711550135946520600,4.0755205078125,3.5888118743896484,7.623162746429443,5.017788887023926
1711550135965479000,4.09447900390625,3.997781276702881,7.593554496765137,4.746164321899414
1711550135984437200,4.113437255859375,4.356785297393799,7.507460117340088,4.5636444091796875
1711550136003395600,4.1323955078125,4.707885265350342,7.390335559844971,4.403310298919678
1711550136022354000,4.15135400390625,5.03518009185791,7.272057056427002,4.234919548034668
1711550136041312500,4.1703125,5.302937984466553,7.1646528244018555,4.088642120361328
1711550136060270800,4.189270751953125,5.4973039627075195,7.078719139099121,3.9801740646362305
1711550136079229200,4.208229248046875,5.627905368804932,7.006585121154785,3.9249000549316406
1711550136098187500,4.2271875,5.711146831512451,6.938853740692139,3.9249823093414307
1711550136117146000,4.24614599609375,5.7579803466796875,6.877843856811523,3.963749885559082
1711550136136104400,4.2651044921875,5.777201175689697,6.811187267303467,4.049946308135986
1711550136155062800,4.284062744140625,5.800192832946777,6.735191345214844,4.143108367919922
1711550136174021000,4.303021240234375,5.837625980377197,6.692286968231201,4.160025596618652
1711550136192979500,4.3219794921875,5.87730598449707,6.709468364715576,4.075623035430908
1711550136211937800,4.340937744140625,5.890475273132324,6.806746959686279,3.8911283016204834
1711550136230896400,4.359896484375,5.846365451812744,6.997161865234375,3.6097254753112793
1711550136249854700,4.378854736328125,5.731429576873779,7.237582206726074,3.307342290878296
1711550136268813000,4.39781298828125,5.527976036071777,7.47911262512207,3.110424280166626
1711550136287771600,4.416771728515625,5.239841938018799,7.679710865020752,3.120335578918457
1711550136306730000,4.43572998046875,4.911782741546631,7.7977447509765625,3.3526031970977783
1711550136325688300,4.454688232421875,4.636500358581543,7.808184623718262,3.7020952701568604
1711550136344646700,4.473646728515625,4.506422996520996,7.742563724517822,3.989391803741455
1711550136363605000,4.49260498046875,4.580714702606201,7.64473295211792,4.092126369476318
1711550136382563300,4.511563232421875,4.882268905639648,7.501158237457275,4.008298397064209
1711550136401522000,4.53052197265625,5.324697017669678,7.3334126472473145,3.746873617172241
1711550136420480300,4.549480224609375,5.7851338386535645,7.1591644287109375,3.383633852005005
1711550136439438600,4.5684384765625,6.188938140869141,6.959012508392334,3.072387933731079
1711550136458397000,4.58739697265625,6.506261348724365,6.7263689041137695,2.9317076206207275
1711550136477355300,4.606355224609375,6.747690677642822,6.475342273712158,2.951101779937744
1711550136496313900,4.62531396484375,6.935551166534424,6.20912504196167,3.0846853256225586
1711550136515272200,4.644272216796875,7.089415550231934,5.966129779815674,3.211831569671631
1711550136534230500,4.66323046875,7.253846645355225,5.795306205749512,3.156980276107788
1711550136553188900,4.68218896484375,7.429651737213135,5.722713947296143,2.8672635555267334
1711550136572147500,4.7011474609375,7.567944049835205,5.735898494720459,2.4486889839172363
1711550136591105800,4.720105712890625,7.6448655128479,5.804437637329102,2.0087127685546875
1711550136610064100,4.739064208984375,7.6506218910217285,5.943026542663574,1.522762656211853
1711550136629022500,4.7580224609375,7.5603413581848145,6.165578365325928,0.998637855052948
1711550136647980800,4.776980712890625,7.386119842529297,6.427943706512451,0.5451271533966064
1711550136666939400,4.795939453125,7.1865997314453125,6.667020797729492,0.2720317840576172
1711550136685897700,4.814897705078125,6.99459981918335,6.870289325714111,0.21230682730674744
1711550136704856000,4.83385595703125,6.804793357849121,7.052707195281982,0.3528406023979187
1711550136723814700,4.852814697265625,6.619014739990234,7.209066867828369,0.6232063174247742
1711550136742773000,4.87177294921875,6.469202518463135,7.312230587005615,0.9225391745567322
1711550136761731300,4.8907314453125,6.34782075881958,7.375179767608643,1.2174973487854004
1711550136780689700,4.909689697265625,6.268531322479248,7.3970160484313965,1.4697107076644897
1711550136799648000,4.92864794921875,6.2374677658081055,7.375802993774414,1.6917177438735962
1711550136818606600,4.947606689453125,6.248746871948242,7.314919948577881,1.9014445543289185
1711550136837565000,4.96656494140625,6.271466255187988,7.235836029052734,2.11702299118042
1711550136856523300,4.985523193359375,6.281261920928955,7.154961585998535,2.3500351905822754
1711550136875481600,5.004481689453125,6.28028678894043,7.080191135406494,2.5689074993133545
1711550136894440200,5.023440185546875,6.2651214599609375,7.027573585510254,2.7444205284118652
1711550136913398500,5.0423984375,6.234605312347412,7.005118370056152,2.8685195446014404
1711550136932356900,5.06135693359375,6.199758529663086,7.002605438232422,2.949051856994629
1711550136951315200,5.080315185546875,6.171300411224365,7.003381729125977,3.006340742111206
1711550136970273500,5.0992734375,6.137316703796387,7.002216339111328,3.077773094177246
1711550136989232000,5.118232177734375,6.091099262237549,7.002330780029297,3.1680073738098145
1711550137008190500,5.1371904296875,6.047996520996094,7.006492614746094,3.240555763244629
1711550137027148800,5.156148681640625,6.0085906982421875,7.022886276245117,3.2781543731689453
1711550137046107100,5.175107177734375,5.971325397491455,7.060058116912842,3.2663817405700684
1711550137065065500,5.1940654296875,5.951066970825195,7.122194766998291,3.1669442653656006
1711550137084024000,5.213024169921875,5.941949844360352,7.220670223236084,2.953901529312134
1711550137102982400,5.231982421875,5.9229736328125,7.3464813232421875,2.667954444885254
1711550137121940700,5.250940673828125,5.8789448738098145,7.462933540344238,2.431668996810913
1711550137140899300,5.2698994140625,5.8119893074035645,7.550845623016357,2.3186001777648926
1711550137159857700,5.288857666015625,5.721952438354492,7.6190385818481445,2.319460868835449
1711550137178816000,5.30781591796875,5.618905544281006,7.667535305023193,2.4098093509674072
1711550137197774300,5.3267744140625,5.536475658416748,7.692812442779541,2.5176327228546143
1711550137216732700,5.345732666015625,5.487630844116211,7.716731548309326,2.551147222518921
1711550137235691300,5.364691162109375,5.458517074584961,7.754884243011475,2.497346878051758
1711550137254649600,5.383649658203125,5.442960739135742,7.793019771575928,2.411102294921875
1711550137273608000,5.40260791015625,5.4314727783203125,7.8173828125,2.35754656791687
1711550137292566500,5.42156640625,5.412679195404053,7.828131675720215,2.365091323852539
1711550137311524900,5.44052490234375,5.383123397827148,7.832328796386719,2.418053388595581
1711550137330483200,5.459483154296875,5.343896865844727,7.840240001678467,2.478668212890625
1711550137349441500,5.478441650390625,5.296364784240723,7.858811378479004,2.521507978439331
1711550137368400000,5.49739990234375,5.249460220336914,7.881226539611816,2.5494730472564697
1711550137387358500,5.5163583984375,5.199793338775635,7.90618896484375,2.5738470554351807
1711550137406316800,5.53531689453125,5.13313102722168,7.942941665649414,2.5944247245788574
1711550137425275100,5.554275146484375,5.052844524383545,7.987561225891113,2.6149609088897705
1711550137444233700,5.573233642578125,4.964953899383545,8.030372619628906,2.651930809020996
1711550137463192000,5.592192138671875,4.864569664001465,8.068975448608398,2.719923496246338
1711550137482150400,5.611150390625,4.764432430267334,8.099900245666504,2.8039629459381104
1711550137501108700,5.630108642578125,4.6752848625183105,8.12509536743164,2.880092144012451
1711550137520067000,5.649067138671875,4.597023963928223,8.152363777160645,2.928603410720825
1711550137539025700,5.668025634765625,4.5261406898498535,8.185006141662598,2.9478988647460938
1711550137557984000,5.68698388671875,4.452838897705078,8.222533226013184,2.955089569091797
1711550137576942300,5.7059423828125,4.37175989151001,8.263150215148926,2.9628450870513916
1711550137595900700,5.724900634765625,4.276103496551514,8.30820083618164,2.9764318466186523
1711550137614859300,5.743859375,4.162364959716797,8.355411529541016,3.0053627490997314
1711550137633817600,5.762817626953125,4.041604518890381,8.398021697998047,3.0510735511779785
1711550137652776000,5.78177587890625,3.9291300773620605,8.433700561523438,3.0991978645324707
1711550137671734500,5.800734619140625,3.833688259124756,8.461019515991211,3.143941640853882
1711550137690692900,5.81969287109375,3.758202075958252,8.475642204284668,3.1952762603759766
1711550137709651200,5.838651123046875,3.6935763359069824,8.478100776672363,3.2633864879608154
1711550137728609500,5.857609619140625,3.638458251953125,8.469837188720703,3.3457248210906982
1711550137747567900,5.87656787109375,3.5872912406921387,8.450480461120605,3.4483482837677
1711550137766526500,5.8955263671875,3.517016887664795,8.417197227478027,3.5988574028015137
1711550137785484800,5.91448486328125,3.41513991355896,8.362950325012207,3.8168375492095947
1711550137804443400,5.933443359375,3.2832143306732178,8.290742874145508,4.080986499786377
1711550137823401700,5.952401611328125,3.1322622299194336,8.211541175842285,4.3508501052856445
1711550137842360000,5.971360107421875,2.9732606410980225,8.128379821777344,4.61081075668335
1711550137861318400,5.990318359375,2.8036510944366455,8.038923263549805,4.8667893409729
1711550137880276700,6.00927685546875,2.6114213466644287,7.945582389831543,5.120408535003662
1711550137899235300,6.0282353515625,2.393734931945801,7.843512535095215,5.377707004547119
1711550137918193700,6.047193603515625,2.1506760120391846,7.725500583648682,5.6446099281311035
1711550137937152300,6.06615234375,1.8562402725219727,7.592679500579834,5.922497749328613
1711550137956110600,6.085110595703125,1.4897269010543823,7.450256824493408,6.200385093688965
1711550137975069000,6.10406884765625,1.0582743883132935,7.292397499084473,6.470809459686279
1711550137994027300,6.12302734375,0.5833181142807007,7.120351791381836,6.717939376831055
1711550138012985900,6.14198583984375,0.09578181803226471,6.942915916442871,6.925108432769775
1711550138031944200,6.160944091796875,-0.3804696500301361,6.76182222366333,7.092487335205078
1711550138050902500,6.179902587890625,-0.8194451332092285,6.581821918487549,7.223468780517578
1711550138069861000,6.198861083984375,-1.1784738302230835,6.409990310668945,7.327592849731445
1711550138088819500,6.2178193359375,-1.4463274478912354,6.24830961227417,7.418702602386475
1711550138107777800,6.23677783203125,-1.657449722290039,6.093208312988281,7.5030694007873535
1711550138126736400,6.255736328125,-1.8211795091629028,5.9468770027160645,7.582107067108154
1711550138145694700,6.27469482421875,-1.9366658926010132,5.817472457885742,7.653542995452881
1711550138164653000,6.293653076171875,-2.0158724784851074,5.720760822296143,7.705812931060791
1711550138183611600,6.312611572265625,-2.102593183517456,5.648993968963623,7.735525608062744
1711550138202570000,6.331570068359375,-2.2061612606048584,5.5829339027404785,7.754616737365723
1711550138221528300,6.3505283203125,-2.289252281188965,5.522693157196045,7.773645877838135
1711550138240487000,6.36948681640625,-2.296299457550049,5.488760948181152,7.79556941986084
1711550138259445200,6.3884453125,-2.226182699203491,5.492434024810791,7.813300132751465
1711550138278403800,6.40740380859375,-2.1244101524353027,5.5112481117248535,7.828372001647949
1711550138297362200,6.426362060546875,-2.0300581455230713,5.536176681518555,7.835814952850342
1711550138316320500,6.445320556640625,-1.9775832891464233,5.553591728210449,7.836910724639893
1711550138335278800,6.46427880859375,-1.987662672996521,5.550542831420898,7.836520195007324
1711550138354237400,6.483237548828125,-2.0375607013702393,5.5352630615234375,7.834513187408447
1711550138373195800,6.50219580078125,-2.0755724906921387,5.5221943855285645,7.833757400512695
1711550138392154000,6.521154052734375,-2.0696487426757812,5.517642021179199,7.838531017303467
1711550138411112700,6.54011279296875,-2.023805618286133,5.517193794250488,7.850806713104248
1711550138430071000,6.559071044921875,-1.9649956226348877,5.5167155265808105,7.8660688400268555
1711550138449029600,6.578029541015625,-1.9296618700027466,5.530807018280029,7.864919185638428
1711550138467988000,6.596988037109375,-1.9444719552993774,5.570403575897217,7.833264350891113
1711550138486946300,6.6159462890625,-2.025704860687256,5.630096912384033,7.769743919372559
1711550138505905000,6.63490478515625,-2.1707241535186768,5.690619468688965,7.686038494110107
1711550138524863200,6.65386328125,-2.357732057571411,5.7242584228515625,7.605547904968262
1711550138543821800,6.67282177734375,-2.5652894973754883,5.706837177276611,7.551270008087158
1711550138562780200,6.6917802734375,-2.7392563819885254,5.633684158325195,7.545094966888428
1711550138581738800,6.71073876953125,-2.8050312995910645,5.535223960876465,7.593647003173828
1711550138600697000,6.729697021484375,-2.711207389831543,5.444874286651611,7.692404747009277
1711550138619655700,6.74865576171875,-2.520416021347046,5.367252349853516,7.810921669006348
1711550138638614000,6.767614013671875,-2.3130013942718506,5.310539245605469,7.913190841674805
1711550138657572400,6.786572265625,-2.187152147293091,5.269686222076416,7.976036071777344
1711550138676531000,6.805531005859375,-2.2218737602233887,5.197660446166992,8.0136137008667
1711550138695489300,6.8244892578125,-2.4102790355682373,5.069582462310791,8.041160583496094
1711550138714448000,6.84344775390625,-2.6926543712615967,4.9146833419799805,8.047725677490234
1711550138733406200,6.86240625,-2.9885952472686768,4.75649881362915,8.038308143615723
1711550138752364800,6.88136474609375,-3.205798387527466,4.6118855476379395,8.03888988494873
1711550138771323100,6.9003232421875,-3.326878547668457,4.477540016174316,8.06559944152832
1711550138790281700,6.91928173828125,-3.3628642559051514,4.341722011566162,8.124713897705078
1711550138809240000,6.938239990234375,-3.3148083686828613,4.186155319213867,8.225480079650879
1711550138828198700,6.95719873046875,-3.207991361618042,4.021234512329102,8.349183082580566
1711550138847157000,6.976156982421875,-3.087298631668091,3.8632845878601074,8.468412399291992
1711550138866115600,6.995115478515625,-2.965299367904663,3.7102644443511963,8.579704284667969
1711550138885074000,7.014073974609375,-2.8591361045837402,3.5808029174804688,8.670269966125488
1711550138904032500,7.033032470703125,-2.767613172531128,3.4796857833862305,8.740851402282715
1711550138922990800,7.051990966796875,-2.700730800628662,3.4046835899353027,8.791163444519043
1711550138941949400,7.070949462890625,-2.674595355987549,3.3711562156677246,8.812049865722656
1711550138960907800,7.08990771484375,-2.661121129989624,3.3863301277160645,8.810311317443848
1711550138979866400,7.108866455078125,-2.634371757507324,3.436675786972046,8.798847198486328
1711550138998824700,7.12782470703125,-2.600504159927368,3.523085117340088,8.774715423583984
1711550139017783300,7.146783203125,-2.5684022903442383,3.640313148498535,8.736235618591309
1711550139036741600,7.16574169921875,-2.5560178756713867,3.7588388919830322,8.689550399780273
1711550139055700200,7.1847001953125,-2.596348285675049,3.8651483058929443,8.630758285522461
1711550139074658800,7.203658935546875,-2.6556155681610107,3.9544622898101807,8.572066307067871
1711550139093617200,7.2226171875,-2.673698663711548,4.05966854095459,8.51708984375
1711550139112575700,7.24157568359375,-2.709958553314209,4.18655252456665,8.443890571594238
1711550139131534000,7.2605341796875,-2.7797186374664307,4.288912296295166,8.369514465332031
1711550139150492700,7.27949267578125,-2.8452439308166504,4.333312034606934,8.324505805969238
1711550139169451000,7.298450927734375,-2.8813109397888184,4.334265232086182,8.311592102050781
1711550139188409600,7.31740966796875,-2.8855788707733154,4.338862895965576,8.30771255493164
1711550139207368200,7.3363681640625,-2.8710806369781494,4.3665056228637695,8.298247337341309
1711550139226326500,7.355326416015625,-2.860734701156616,4.392153739929199,8.288278579711914
1711550139245285000,7.37428515625,-2.8595855236053467,4.385758876800537,8.292061805725098
1711550139264243500,7.393243408203125,-2.87581205368042,4.352535724639893,8.303946495056152
1711550139283202000,7.4122021484375,-2.9227023124694824,4.314114570617676,8.307623863220215
1711550139302160400,7.431160400390625,-3.0141708850860596,4.2693095207214355,8.298080444335938
1711550139321119000,7.450118896484375,-3.134396553039551,4.211266994476318,8.283186912536621
1711550139340077600,7.46907763671875,-3.261441707611084,4.131589889526367,8.274258613586426
1711550139359036000,7.488035888671875,-3.356987476348877,4.021703720092773,8.290170669555664
1711550139377994500,7.506994384765625,-3.3839664459228516,3.8841700553894043,8.344602584838867
1711550139396953000,7.525953125,-3.35664963722229,3.732449531555176,8.424493789672852
1711550139415911400,7.544911376953125,-3.3260622024536133,3.5617494583129883,8.510090827941895
1711550139434870000,7.5638701171875,-3.2984046936035156,3.3665192127227783,8.599851608276367
1711550139453828600,7.58282861328125,-3.240856885910034,3.1609878540039062,8.6991605758667
1711550139472787000,7.601786865234375,-3.1736013889312744,2.9661831855773926,8.792064666748047
1711550139491745500,7.62074560546875,-3.1284339427948,2.765913963317871,8.873162269592285
1711550139510704000,7.6397041015625,-3.0777857303619385,2.53593111038208,8.95916748046875
1711550139529662500,7.658662353515625,-3.002969980239868,2.290271043777466,9.050260543823242
1711550139548621000,7.67762109375,-2.932586431503296,2.046593427658081,9.131361961364746
1711550139567579600,7.69657958984375,-2.871455192565918,1.8069485425949097,9.201091766357422
1711550139586538000,7.7155380859375,-2.76347017288208,1.582222819328308,9.275246620178223
1711550139605496600,7.73449658203125,-2.5514683723449707,1.4270172119140625,9.360770225524902
1711550139624455200,7.753455078125,-2.27451229095459,1.386846661567688,9.437883377075195
1711550139643413500,7.77241357421875,-2.0451714992523193,1.4239780902862549,9.484721183776855
1711550139662372000,7.7913720703125,-1.9383792877197266,1.4680644273757935,9.500412940979004
1711550139681330700,7.81033056640625,-1.9603846073150635,1.4646044969558716,9.496431350708008
1711550139700289000,7.8292890625,-2.102386236190796,1.4511444568634033,9.468080520629883
1711550139719247600,7.84824755859375,-2.2848751544952393,1.478561282157898,9.421442985534668
1711550139738206200,7.867206298828125,-2.4244210720062256,1.5536061525344849,9.374373435974121
1711550139757164500,7.88616455078125,-2.487682580947876,1.6782915592193604,9.336228370666504
1711550139776123100,7.905123046875,-2.511476516723633,1.8581068515777588,9.295714378356934
1711550139795081700,7.924081787109375,-2.499500274658203,2.0151147842407227,9.266185760498047
1711550139814040300,7.943040283203125,-2.423825979232788,2.076354503631592,9.27276611328125
1711550139832999000,7.9619990234375,-2.246802568435669,2.0961203575134277,9.312816619873047
1711550139851957200,7.980957275390625,-2.0084304809570312,2.140301465988159,9.357120513916016
1711550139870915800,7.999915771484375,-1.7899696826934814,2.2363715171813965,9.378968238830566
1711550139889874400,8.01887451171875,-1.6435998678207397,2.388732671737671,9.368186950683594
1711550139908832800,8.037832763671876,-1.5312316417694092,2.530048131942749,9.350110054016113
1711550139927791400,8.056791259765625,-1.4129186868667603,2.61818265914917,9.344472885131836
1711550139946750000,8.07575,-1.2819948196411133,2.6773767471313477,9.346577644348145
1711550139965708500,8.09470849609375,-1.152189016342163,2.7370352745056152,9.34620189666748
1711550139984667100,8.113667236328125,-1.0083904266357422,2.7949132919311523,9.345693588256836
1711550140003625500,8.13262548828125,-0.8239716291427612,2.8376245498657227,9.350900650024414
1711550140022584000,8.151583984375,-0.6395931243896484,2.840458631515503,9.364459037780762
1711550140041542700,8.170542724609374,-0.4838862717151642,2.7726149559020996,9.394085884094238
1711550140060501000,8.1895009765625,-0.33490872383117676,2.649196147918701,9.436100006103516
1711550140079459600,8.20845947265625,-0.17123465240001678,2.522608757019043,9.475098609924316
1711550140098418200,8.227418212890624,-0.02291908673942089,2.397960662841797,9.50892448425293
1711550140117376800,8.246376708984375,0.07964702695608139,2.228090763092041,9.549851417541504
1711550140136335400,8.26533544921875,0.15830034017562866,2.0244901180267334,9.594100952148438
1711550140155293700,8.284293701171874,0.2428017556667328,1.8138612508773804,9.634383201599121
1711550140174252300,8.303252197265625,0.3553902208805084,1.5838384628295898,9.671377182006836
1711550140193211000,8.3222109375,0.5004744529724121,1.3367637395858765,9.702215194702148
1711550140212169500,8.34116943359375,0.6791777610778809,1.1041200160980225,9.720598220825195
1711550140231128000,8.360128173828125,0.9098781943321228,0.8793405294418335,9.724672317504883
1711550140250086400,8.37908642578125,1.1513828039169312,0.6525843143463135,9.716936111450195
1711550140269045000,8.398044921875,1.3221698999404907,0.44856345653533936,9.70675277709961
1711550140288003600,8.417003662109375,1.4268531799316406,0.29722195863723755,9.697739601135254
1711550140306962200,8.435962158203125,1.5611598491668701,0.19048364460468292,9.679715156555176
1711550140325920800,8.454920654296876,1.6921204328536987,0.11961081624031067,9.658819198608398
1711550140344879400,8.47387939453125,1.7265496253967285,0.11720967292785645,9.652754783630371
1711550140363838000,8.492837890625,1.6602599620819092,0.17973673343658447,9.663416862487793
1711550140382796500,8.511796630859376,1.537698745727539,0.27663150429725647,9.681391716003418
1711550140401755000,8.5307548828125,1.3904975652694702,0.39248108863830566,9.69963264465332
1711550140420713500,8.54971337890625,1.1890872716903687,0.5336499810218811,9.719654083251953
1711550140439672000,8.568672119140626,0.9232504963874817,0.7197409272193909,9.736527442932129
1711550140458630700,8.587630615234374,0.618302047252655,0.9306440353393555,9.742791175842285
1711550140477589200,8.60658935546875,0.3070920407772064,1.1432785987854004,9.734936714172363
1711550140496547600,8.625547607421876,-0.007836039178073406,1.3570380210876465,9.712300300598145
1711550140515506200,8.644506103515624,-0.3179794251918793,1.5736198425292969,9.674346923828125
1711550140534464800,8.66346484375,-0.6502367854118347,1.7787483930587769,9.622038841247559
1711550140553423400,8.68242333984375,-0.9718434810638428,1.9873782396316528,9.55385971069336
1711550140572382000,8.7013818359375,-1.2064694166183472,2.231929063796997,9.472766876220703
1711550140591340500,8.720340576171875,-1.3733975887298584,2.537360429763794,9.372617721557617
1711550140610299100,8.739299072265625,-1.4916439056396484,2.8444135189056396,9.265780448913574
1711550140629257500,8.758257568359374,-1.5672701597213745,3.1278367042541504,9.161369323730469
1711550140648216000,8.777216064453125,-1.5924533605575562,3.401167869567871,9.05905818939209
1711550140667174700,8.796174560546875,-1.5668349266052246,3.6762988567352295,8.955459594726562
1711550140686133200,8.81513330078125,-1.4729852676391602,3.94342303276062,8.857206344604492
1711550140705091800,8.834091796875,-1.3044646978378296,4.187887668609619,8.770995140075684
1711550140724050200,8.85305029296875,-1.08615243434906,4.415626525878906,8.688665390014648
1711550140743009000,8.872009033203126,-0.8447753190994263,4.632705211639404,8.602022171020508
1711550140761967400,8.89096728515625,-0.585599422454834,4.849956035614014,8.503257751464844
1711550140780926000,8.909926025390625,-0.3431342840194702,5.072707176208496,8.385720252990723
1711550140799884500,8.928884521484376,-0.13526463508605957,5.304912567138672,8.246816635131836
1711550140818843100,8.947843017578125,-0.0003519906895235181,5.539421081542969,8.092292785644531
1711550140837801700,8.9668017578125,0.08518184721469879,5.749780178070068,7.943748950958252
1711550140856760300,8.98576025390625,0.16025933623313904,5.9599480628967285,7.786123275756836
1711550140875719000,9.004718994140624,0.26583412289619446,6.174275875091553,7.614331245422363
1711550140894677200,9.02367724609375,0.40074390172958374,6.384795665740967,7.432642936706543
1711550140913635800,9.0426357421875,0.5410251021385193,6.587134838104248,7.244813919067383
1711550140932594400,9.061594482421874,0.649588406085968,6.776573181152344,7.0587873458862305
1711550140951553000,9.080552978515625,0.7195363640785217,6.947752952575684,6.883413791656494
1711550140970511600,9.09951171875,0.7717704176902771,7.1100687980651855,6.709819793701172
1711550140989470200,9.11847021484375,0.8353471159934998,7.2742414474487305,6.523649215698242
1711550141008428800,9.1374287109375,0.9270724058151245,7.443522930145264,6.317032337188721
1711550141027387100,9.15638720703125,1.0229111909866333,7.609938144683838,6.100236415863037
1711550141046346000,9.175345947265624,1.089664340019226,7.773561954498291,5.878329753875732
1711550141065304300,9.19430419921875,1.1173278093338013,7.910304069519043,5.687622547149658
1711550141084263000,9.213262939453125,1.1018180847167969,8.022238731384277,5.531732559204102
1711550141103221500,9.232221435546874,1.0718822479248047,8.116154670715332,5.3990254402160645
1711550141122180000,9.25118017578125,1.0286023616790771,8.195679664611816,5.286133289337158
1711550141141138700,9.270138671875,0.977498471736908,8.254964828491211,5.202926158905029
1711550141160097300,9.28909716796875,0.9283292293548584,8.29691219329834,5.14488410949707
1711550141179055900,9.308055908203125,0.886721670627594,8.327801704406738,5.102139949798584
1711550141198014500,9.327014404296875,0.8463572263717651,8.348260879516602,5.0754899978637695
1711550141216972800,9.345972900390626,0.8050342202186584,8.359894752502441,5.063048362731934
1711550141235931400,9.364931396484375,0.7751913070678711,8.358200073242188,5.070498943328857
1711550141254890000,9.383889892578125,0.7626321315765381,8.339381217956543,5.103282928466797
1711550141273848600,9.4028486328125,0.7668370604515076,8.304947853088379,5.158506393432617
1711550141292807200,9.42180712890625,0.7841877341270447,8.252620697021484,5.239243507385254
1711550141311765800,9.440765869140625,0.8227382898330688,8.17951774597168,5.346865653991699
1711550141330724400,9.459724365234376,0.8785207867622375,8.089008331298828,5.474170207977295
1711550141349683000,9.478682861328124,0.9392408132553101,7.985710620880127,5.613966941833496
1711550141368641500,9.4976416015625,0.9955171346664429,7.871413707733154,5.763695240020752
1711550141387600000,9.516599853515626,1.0383689403533936,7.745480537414551,5.924501419067383
1711550141406558500,9.535558349609374,1.0483253002166748,7.612824440002441,6.092314720153809
1711550141425517000,9.55451708984375,1.019540786743164,7.481130123138428,6.258085250854492
1711550141444475600,9.5734755859375,1.0094654560089111,7.361879825592041,6.399538040161133
1711550141463434200,9.592434326171874,1.0342590808868408,7.259227752685547,6.51185941696167
1711550141482392800,9.611392822265625,1.0637810230255127,7.155576229095459,6.620913505554199
1711550141501351400,9.630351318359375,1.1162352561950684,7.050118923187256,6.724599361419678
1711550141520309800,9.649309814453124,1.187452793121338,6.96062707901001,6.805145263671875
1711550141539268400,9.668268310546875,1.2744168043136597,6.885986804962158,6.86508846282959
1711550141558227000,9.68722705078125,1.391150951385498,6.819924831390381,6.908235549926758
1711550141577185500,9.706185546875,1.5220050811767578,6.7580413818359375,6.941380023956299
1711550141596144000,9.72514404296875,1.6456345319747925,6.695678234100342,6.97353458404541
1711550141615102700,9.744102783203125,1.7592778205871582,6.641162395477295,6.997877597808838
1711550141634061300,9.763061279296876,1.8585234880447388,6.586970806121826,7.023396968841553
1711550141653019600,9.78201953125,1.9385888576507568,6.52252721786499,7.061792373657227
1711550141671978200,9.800978271484375,2.0034868717193604,6.4433369636535645,7.116168022155762
1711550141690936800,9.819936767578126,2.0599184036254883,6.359154224395752,7.175534248352051
1711550141709895400,9.8388955078125,2.107264757156372,6.278066158294678,7.232959747314453
1711550141728854000,9.85785400390625,2.1167242527008057,6.227397441864014,7.273882865905762
1711550141747812600,9.8768125,2.085406541824341,6.217068195343018,7.291744709014893
1711550141766771200,9.895771240234374,2.048461675643921,6.221228122711182,7.298666000366211
1711550141785729500,9.9147294921875,2.021639108657837,6.230013370513916,7.29865026473999
1711550141804688100,9.933688232421876,1.9877642393112183,6.242680072784424,7.297131538391113
1711550141823646700,9.952646728515624,1.938059687614441,6.250157833099365,7.3040971755981445
1711550141842605300,9.971605224609375,1.8917193412780762,6.261144161224365,7.306836128234863
1711550141861564000,9.99056396484375,1.8473732471466064,6.273154258728027,7.307881832122803
1711550141880522200,10.009522216796874,1.8196321725845337,6.286280155181885,7.303562164306641
1711550141899480800,10.028480712890625,1.8308756351470947,6.290633678436279,7.297000408172607
1711550141918439400,10.047439453125,1.8734709024429321,6.263742446899414,7.309310436248779
1711550141937398000,10.06639794921875,1.9273314476013184,6.222832202911377,7.3302202224731445
1711550141956356600,10.085356689453125,1.9843807220458984,6.181339740753174,7.350078105926514
1711550141975315200,10.104315185546875,2.0303800106048584,6.138632297515869,7.37327241897583
1711550141994273800,10.123273681640624,2.0519587993621826,6.106912136077881,7.393610954284668
1711550142013232000,10.142232177734375,2.066417694091797,6.0805535316467285,7.411286354064941
1711550142032190700,10.161190673828125,2.0849220752716064,6.05747127532959,7.424994468688965
1711550142051149300,10.1801494140625,2.1046323776245117,6.036843776702881,7.436223983764648
1711550142070108000,10.19910791015625,2.1101796627044678,6.007595539093018,7.4583048820495605
1711550142089066500,10.21806640625,2.1081435680389404,5.962268352508545,7.495163440704346
1711550142108025000,10.237025146484376,2.1133930683135986,5.911350727081299,7.533915996551514
1711550142126983700,10.255983642578125,2.1158313751220703,5.865502834320068,7.56898307800293
1711550142145942300,10.2749423828125,2.143268346786499,5.805936813354492,7.6070942878723145
1711550142164900600,10.293900634765626,2.1941564083099365,5.735449314117432,7.645959854125977
1711550142183859200,10.312859130859374,2.2165133953094482,5.677840232849121,7.68242073059082
1711550142202817800,10.33181787109375,2.2144837379455566,5.631463050842285,7.717062950134277
1711550142221776400,10.3507763671875,2.2330291271209717,5.596066951751709,7.737441062927246
1711550142240735000,10.36973486328125,2.2647435665130615,5.581274032592773,7.738908767700195
1711550142259693300,10.388693359375,2.2649924755096436,5.587644100189209,7.734238147735596
1711550142278652200,10.407652099609376,2.248992919921875,5.596676826477051,7.732374668121338
1711550142297610500,10.426610595703124,2.2505505084991455,5.602613925933838,7.727622032165527
1711550142316569000,10.445569091796875,2.2610678672790527,5.609189510345459,7.719775199890137
1711550142335527700,10.464527587890625,2.2593276500701904,5.62139892578125,7.711400032043457
1711550142354486300,10.483486328125,2.255326747894287,5.6302080154418945,7.706143379211426
1711550142373444900,10.50244482421875,2.2517340183258057,5.626190662384033,7.710126876831055
1711550142392403200,10.5214033203125,2.2606470584869385,5.612215995788574,7.717700004577637
1711550142411361800,10.54036181640625,2.2637650966644287,5.60702657699585,7.72055721282959
1711550142430320400,10.5593203125,2.232034921646118,5.612860679626465,7.725555419921875
1711550142449279000,10.578279052734375,2.212629795074463,5.617919921875,7.727459907531738
1711550142468237600,10.597237548828126,2.212803840637207,5.634047031402588,7.7156596183776855
1711550142487196000,10.61619580078125,2.205629587173462,5.665874481201172,7.694377899169922
1711550142506154800,10.63515478515625,2.175055980682373,5.702993392944336,7.67563533782959
1711550142525113000,10.654113037109376,2.1469380855560303,5.7357988357543945,7.659089088439941
1711550142544071700,10.67307177734375,2.13999605178833,5.7640604972839355,7.639792442321777
1711550142563030300,10.6920302734375,2.1435229778289795,5.785999298095703,7.62219762802124
1711550142581988900,10.71098876953125,2.142228126525879,5.799886226654053,7.612002372741699
1711550142600947500,10.729947509765625,2.1501691341400146,5.812361717224121,7.6002373695373535
1711550142619905800,10.74890576171875,2.170567750930786,5.82778787612915,7.582605361938477
1711550142638864400,10.767864501953126,2.2038896083831787,5.832401752471924,7.569435119628906
1711550142657823000,10.786822998046874,2.2527213096618652,5.812657833099365,7.570247173309326
1711550142676781600,10.805781494140625,2.2968814373016357,5.785731792449951,7.577600479125977
1711550142695740200,10.824740234375,2.332892417907715,5.760401248931885,7.5858941078186035
1711550142714698800,10.84369873046875,2.3752899169921875,5.732633113861084,7.593768119812012
1711550142733657600,10.86265771484375,2.4279234409332275,5.696882724761963,7.604018211364746
1711550142752615400,10.881615478515625,2.4653804302215576,5.646521091461182,7.629487037658691
1711550142771574000,10.900573974609374,2.4818694591522217,5.595698356628418,7.661518573760986
1711550142790532600,10.91953271484375,2.5063531398773193,5.5634846687316895,7.6769938468933105
1711550142809491200,10.9384912109375,2.5442352294921875,5.539081573486328,7.682175636291504
1711550142828449800,10.95744970703125,2.577268123626709,5.516251564025879,7.6875901222229
1711550142847408000,10.976408203125,2.582451343536377,5.49761962890625,7.699188709259033
1711550142866367000,10.995366943359375,2.5616300106048584,5.49680233001709,7.706725120544434
1711550142885325300,11.0143251953125,2.531130075454712,5.51722526550293,7.702207565307617
1711550142904284000,11.033283935546875,2.5009212493896484,5.560571193695068,7.680874824523926
1711550142923242500,11.052242431640625,2.4729645252227783,5.612876892089844,7.651825904846191
1711550142942201000,11.071201171875,2.4517171382904053,5.650503158569336,7.630942344665527
1711550142961159700,11.09015966796875,2.4202373027801514,5.670353412628174,7.626266002655029
1711550142980118300,11.1091181640625,2.3904647827148438,5.680665016174316,7.627982139587402
1711550142999076900,11.128076904296876,2.380037307739258,5.687266826629639,7.6263227462768555
1711550143018035200,11.14703515625,2.386884927749634,5.690330505371094,7.621895790100098
1711550143036993800,11.165993896484375,2.4077112674713135,5.673912048339844,7.627584457397461
1711550143055952400,11.184952392578126,2.4289493560791016,5.641343593597412,7.6449875831604
1711550143074911000,11.203910888671874,2.4374520778656006,5.606692790985107,7.667737007141113
1711550143093869600,11.22286962890625,2.436069965362549,5.575423717498779,7.690943241119385
1711550143112828200,11.241828125,2.433469533920288,5.563567161560059,7.70034646987915
1711550143131786800,11.260786865234374,2.433469533920288,5.560237884521484,7.702750205993652
1711550143150745300,11.279745361328125,2.4304280281066895,5.560644149780273,7.703418254852295
1711550143169704000,11.298703857421875,2.4110002517700195,5.566071033477783,7.705603122711182
1711550143188662300,11.317662353515624,2.3916239738464355,5.578064441680908,7.702968120574951
1711550143207620900,11.336620849609375,2.3966240882873535,5.586979389190674,7.694948673248291
1711550143226579500,11.355579345703125,2.4002513885498047,5.5963921546936035,7.6869730949401855
1711550143245538000,11.3745380859375,2.395974636077881,5.606215000152588,7.681148529052734
1711550143264496600,11.39349658203125,2.3951456546783447,5.606799602508545,7.680980205535889
1711550143283455200,11.412455322265625,2.402299165725708,5.609643936157227,7.676668167114258
1711550143302413800,11.431413818359376,2.415972948074341,5.619172096252441,7.66540002822876
1711550143321372400,11.450372314453125,2.436433792114258,5.617502212524414,7.660147190093994
1711550143340331000,11.4693310546875,2.4532928466796875,5.596648216247559,7.670024394989014
1711550143359289600,11.48828955078125,2.479241371154785,5.562532901763916,7.6864800453186035
1711550143378248200,11.507248291015625,2.515651226043701,5.52027702331543,7.705090522766113
1711550143397206800,11.526206787109375,2.5458240509033203,5.4854912757873535,7.720009803771973
1711550143416165400,11.545165283203126,2.545616388320923,5.464351654052734,7.735055446624756
1711550143435124000,11.5641240234375,2.549459934234619,5.45095682144165,7.743236064910889
1711550143454082300,11.583082275390625,2.5614006519317627,5.442864894866943,7.744987487792969
1711550143473041200,11.602041259765626,2.5730557441711426,5.445955753326416,7.738949298858643
1711550143491999500,11.62099951171875,2.565075635910034,5.45805025100708,7.733076572418213
1711550143510958300,11.639958251953125,2.545487403869629,5.479067325592041,7.724681377410889
1711550143529916700,11.658916748046876,2.5260698795318604,5.5058159828186035,7.712026596069336
1711550143548875300,11.677875244140624,2.504941701889038,5.538989067077637,7.695145606994629
1711550143567833900,11.696833740234375,2.4704017639160156,5.578415870666504,7.677811145782471
1711550143586792400,11.71579248046875,2.4368643760681152,5.611208915710449,7.664621353149414
1711550143605751000,11.7347509765625,2.4088072776794434,5.636800289154053,7.6547064781188965
1711550143624709600,11.753709716796875,2.3869755268096924,5.654751777648926,7.648301601409912
1711550143643668200,11.772668212890625,2.3746163845062256,5.658363342285156,7.649477958679199
1711550143662626800,11.791626708984374,2.3698365688323975,5.650430679321289,7.656820297241211
1711550143681585400,11.81058544921875,2.3754889965057373,5.634247303009033,7.66698694229126
1711550143700544000,11.8295439453125,2.399005174636841,5.607736587524414,7.6790924072265625
1711550143719502600,11.848502685546874,2.4316816329956055,5.577014446258545,7.691179275512695
1711550143738461200,11.867461181640625,2.4644715785980225,5.551174640655518,7.699430465698242
1711550143757419800,11.886419677734375,2.4932870864868164,5.533636569976807,7.702776908874512
1711550143776378400,11.90537841796875,2.524700880050659,5.514610290527344,7.706188201904297
1711550143795337000,11.9243369140625,2.549790143966675,5.5033979415893555,7.705943584442139
1711550143814295600,11.943295654296875,2.5673651695251465,5.505339622497559,7.698718070983887
1711550143833254100,11.962254150390624,2.587256669998169,5.5161237716674805,7.684326171875
1711550143852212700,11.981212646484375,2.6135950088500977,5.524196147918701,7.669600009918213
1711550143871171300,12.00017138671875,2.6392598152160645,5.525058269500732,7.66018533706665
1711550143890130000,12.0191298828125,2.665559768676758,5.520064830780029,7.654675006866455
1711550143909088800,12.0380888671875,2.6883745193481445,5.507981777191162,7.655400276184082
1711550143928047000,12.057047119140625,2.705256462097168,5.496701240539551,7.6575608253479
1711550143947006000,12.076005859375,2.7236082553863525,5.487912178039551,7.6573591232299805
1711550143965964500,12.094964599609375,2.749396800994873,5.472992420196533,7.6588215827941895
1711550143984923100,12.113923095703125,2.7677509784698486,5.464463710784912,7.65830135345459
1711550144003881700,12.1328818359375,2.766441583633423,5.467915058135986,7.65631103515625
1711550144022840300,12.15184033203125,2.757934808731079,5.478192329406738,7.652031421661377
1711550144041799000,12.170798828125,2.7570369243621826,5.4855499267578125,7.647082328796387
1711550144060757500,12.189757568359376,2.7677624225616455,5.4926323890686035,7.638119697570801
1711550144079716000,12.208716064453125,2.7657458782196045,5.510426998138428,7.626023292541504
1711550144098674700,12.2276748046875,2.742572784423828,5.533264636993408,7.617851257324219
1711550144117633300,12.24663330078125,2.7197084426879883,5.544025897979736,7.618224143981934
1711550144136592000,12.265591796875,2.705127239227295,5.550043106079102,7.619034767150879
1711550144155550500,12.284550537109375,2.68380069732666,5.566880702972412,7.614292144775391
1711550144174509000,12.303509033203126,2.6458652019500732,5.589780807495117,7.610790729522705
1711550144193468000,12.322468017578124,2.6024608612060547,5.610405921936035,7.610580921173096
1711550144212426200,12.34142626953125,2.566037178039551,5.623719215393066,7.61312198638916
1711550144231385000,12.360385009765626,2.5323688983917236,5.634795665740967,7.616205215454102
1711550144250343700,12.37934375,2.520401954650879,5.640408992767334,7.616018772125244
1711550144269302300,12.39830224609375,2.525995969772339,5.649214267730713,7.607635974884033
1711550144288260900,12.4172607421875,2.5293352603912354,5.655393123626709,7.601933002471924
1711550144307219500,12.436219482421874,2.5297582149505615,5.648827075958252,7.606672286987305
1711550144326178000,12.455177978515625,2.5359413623809814,5.637024879455566,7.613366603851318
1711550144345136600,12.47413671875,2.5501599311828613,5.618666648864746,7.622182369232178
1711550144364095500,12.493095458984374,2.5640978813171387,5.601327419281006,7.630263328552246
1711550144383054000,12.51205419921875,2.5825860500335693,5.587655544281006,7.6340508460998535
1711550144402012700,12.5310126953125,2.605929136276245,5.5783514976501465,7.632922649383545
1711550144420971300,12.54997119140625,2.616330862045288,5.578701972961426,7.629107475280762
1711550144439929900,12.568929931640625,2.609607219696045,5.592291355133057,7.621457099914551
1711550144458888400,12.587888427734375,2.603395462036133,5.6026201248168945,7.615993976593018
1711550144477847300,12.606847412109374,2.6062402725219727,5.606916904449463,7.611858367919922
1711550144496806000,12.625805908203125,2.628242015838623,5.60165548324585,7.608166217803955
1711550144515764500,12.644764404296875,2.6717896461486816,5.590965747833252,7.600857257843018
1711550144534723000,12.66372314453125,2.72086501121521,5.578557968139648,7.592560291290283
1711550144553681700,12.682681640625,2.7630631923675537,5.568465232849121,7.584725379943848
1711550144572640300,12.70164013671875,2.8021750450134277,5.555384159088135,7.579967498779297
1711550144591598800,12.720598876953124,2.8515663146972656,5.533502578735352,7.577552795410156
1711550144610557700,12.7395576171875,2.9156579971313477,5.502405643463135,7.575807571411133
1711550144629516300,12.758516357421875,2.9763169288635254,5.476912498474121,7.570690631866455
1711550144648475000,12.777474853515624,3.0276103019714355,5.461844444274902,7.561230659484863
1711550144667433500,12.79643359375,3.0678293704986572,5.460855484008789,7.545718669891357
1711550144686392000,12.81539208984375,3.099562168121338,5.457597732543945,7.53510046005249
1711550144705351000,12.834350830078124,3.122905731201172,5.447173595428467,7.533004283905029
1711550144724309500,12.8533095703125,3.1505370140075684,5.436383247375488,7.529292106628418
1711550144743268000,12.87226806640625,3.1851069927215576,5.441370487213135,7.511123180389404
1711550144762226700,12.891226806640624,3.2182414531707764,5.458225727081299,7.4847235679626465
1711550144781185500,12.910185546875,3.242558479309082,5.472912788391113,7.463472843170166
1711550144800144100,12.92914404296875,3.257838010787964,5.486208438873291,7.447039604187012
1711550144819102700,12.948102783203124,3.2807986736297607,5.4970927238464355,7.428910255432129
1711550144838061300,12.967061279296875,3.305206775665283,5.494941711425781,7.419676780700684
1711550144857020000,12.98602001953125,3.3223860263824463,5.490900993347168,7.414993762969971
1711550144875978800,13.004978759765624,3.3308870792388916,5.50247049331665,7.402594089508057
1711550144894937300,13.023937255859375,3.341461420059204,5.526272773742676,7.380063533782959
1711550144913896000,13.04289599609375,3.3617489337921143,5.5397491455078125,7.360721588134766
1711550144932854500,13.0618544921875,3.3613157272338867,5.53494119644165,7.364534854888916
1711550144951813000,13.080813232421875,3.3114161491394043,5.5623393058776855,7.366497993469238
1711550144970772000,13.09977197265625,3.232828140258789,5.644621849060059,7.338763236999512
1711550144989730600,13.11873046875,3.2138571739196777,5.66982889175415,7.327656269073486
1711550145008689200,13.137689208984375,3.230900526046753,5.6463775634765625,7.338261604309082
1711550145027647700,13.156647705078125,3.1692874431610107,5.665959358215332,7.350028038024902
1711550145046606600,13.175606689453126,3.150334358215332,5.647680759429932,7.3722100257873535
1711550145065565200,13.194565185546875,3.177403450012207,5.6062116622924805,7.392218112945557
1711550145084523800,13.213523681640625,3.184490442276001,5.578210830688477,7.410327434539795
1711550145103482400,13.232482421875,3.174288749694824,5.556001663208008,7.431360244750977
1711550145122441200,13.251441162109375,3.1585922241210938,5.542681694030762,7.447976589202881
1711550145141399800,13.27039990234375,3.117309331893921,5.579662799835205,7.437751293182373
1711550145160358400,13.2893583984375,3.085998058319092,5.593809127807617,7.440182209014893
1711550145179317200,13.308317138671875,3.067111015319824,5.576303482055664,7.461103439331055
1711550145198275800,13.32727587890625,2.9879915714263916,5.611777305603027,7.46660852432251
1711550145217234400,13.346234375,2.9660792350769043,5.607022285461426,7.478907108306885
1711550145236193000,13.365193115234375,2.963937759399414,5.585667133331299,7.495717525482178
1711550145255151900,13.38415185546875,2.967568874359131,5.574624061584473,7.502498626708984
1711550145274110500,13.4031103515625,2.9207825660705566,5.5992255210876465,7.502539157867432
1711550145293069000,13.422069091796875,2.8734493255615234,5.625074863433838,7.501480579376221
1711550145312028000,13.44102783203125,2.850743055343628,5.656646251678467,7.486387252807617
1711550145330986500,13.459986572265626,2.813178062438965,5.679667949676514,7.4831671714782715
1711550145349945000,13.478945068359375,2.766197443008423,5.698110580444336,7.486659526824951
1711550145368903700,13.497903564453125,2.73000431060791,5.701866149902344,7.497077941894531
1711550145387862500,13.516862548828126,2.7014875411987305,5.691962718963623,7.514913082122803
1711550145406821000,13.535821044921875,2.69167423248291,5.6570353507995605,7.544748306274414
1711550145425779700,13.55477978515625,2.6800055503845215,5.616734504699707,7.578934669494629
1711550145444738600,13.573738525390626,2.663935899734497,5.589785575866699,7.604480743408203
1711550145463697200,13.592697265625,2.6422572135925293,5.596404552459717,7.607175350189209
1711550145482655700,13.61165576171875,2.6446967124938965,5.607758045196533,7.59796142578125
1711550145501614600,13.630614501953126,2.6876211166381836,5.561433792114258,7.616924285888672
1711550145520573200,13.6495732421875,2.6144580841064453,5.614514350891113,7.6034345626831055
1711550145539531800,13.66853173828125,2.6337316036224365,5.613160133361816,7.597781658172607
1711550145558490600,13.68749072265625,2.6928279399871826,5.5793914794921875,7.601937770843506
1711550145577449200,13.70644921875,2.67556095123291,5.572559833526611,7.613038539886475
1711550145596407800,13.72540771484375,2.618473768234253,5.603538990020752,7.610146522521973
1711550145615366400,13.744366455078126,2.598154067993164,5.629791259765625,7.597726345062256
1711550145634325200,13.7633251953125,2.6129307746887207,5.65964937210083,7.570426940917969
1711550145653283800,13.782283935546875,2.593597888946533,5.705904960632324,7.542299747467041
1711550145672242400,13.801242431640626,2.5560762882232666,5.74003791809082,7.529198169708252
1711550145691201000,13.820200927734374,2.5256283283233643,5.773953914642334,7.513524532318115
1711550145710160000,13.839159912109375,2.531700611114502,5.80155086517334,7.49018669128418
1711550145729118500,13.858118408203126,2.571331739425659,5.80851411819458,7.4712653160095215
1711550145748077000,13.8770771484375,2.6137068271636963,5.79967737197876,7.463421821594238
1711550145767036000,13.896035888671875,2.6378047466278076,5.810401439666748,7.4465837478637695
1711550145785994500,13.914994384765626,2.6602389812469482,5.830320358276367,7.422996997833252
1711550145804953300,13.933953369140625,2.695425033569336,5.85199499130249,7.393187522888184
1711550145823912000,13.952911865234375,2.732564926147461,5.883779525756836,7.354223728179932
1711550145842870500,13.97187060546875,2.7627410888671875,5.919841289520264,7.313899993896484
1711550145861829000,13.9908291015625,2.7853646278381348,5.948561668395996,7.281946659088135
1711550145880788000,14.0097880859375,2.8079581260681152,5.9745192527771,7.251955986022949
1711550145899746600,14.02874658203125,2.841784954071045,5.996627330780029,7.220463752746582
1711550145918705200,14.047705078125,2.892185688018799,5.99559211730957,7.201286792755127
1711550145937663700,14.066663818359375,2.9609169960021973,5.951269626617432,7.210114479064941
1711550145956622600,14.08562255859375,3.0446770191192627,5.870863437652588,7.241085052490234
1711550145975581200,14.104581298828125,3.146461248397827,5.764206409454346,7.283137798309326
1711550145994539800,14.123539794921875,3.2534968852996826,5.637652397155762,7.334985733032227
1711550146013498600,14.14249853515625,3.3563756942749023,5.490502834320068,7.399966716766357
1711550146032457200,14.161457275390624,3.4428999423980713,5.320473670959473,7.48394250869751
1711550146051415800,14.180415771484375,3.5191264152526855,5.135181903839111,7.577337265014648
1711550146070374700,14.199374755859376,3.61507248878479,4.956331253051758,7.650909900665283
1711550146089333200,14.218333251953124,3.72806978225708,4.780275821685791,7.708491325378418
1711550146108291800,14.237291748046875,3.835354804992676,4.60662841796875,7.7614054679870605
1711550146127250400,14.25625048828125,3.9105517864227295,4.441351413726807,7.819997787475586
1711550146146209300,14.275209228515624,3.9415059089660645,4.275000095367432,7.896790027618408
1711550146165167900,14.29416796875,3.937347412109375,4.113037109375,7.984398365020752
1711550146184126500,14.31312646484375,3.930820941925049,3.9612319469451904,8.063974380493164
1711550146203085300,14.332085205078124,3.902627468109131,3.8173413276672363,8.14664363861084
1711550146222044000,14.3510439453125,3.8242599964141846,3.6824982166290283,8.245279312133789
1711550146241002500,14.37000244140625,3.6911418437957764,3.546269416809082,8.364797592163086
1711550146259961300,14.38896142578125,3.5351240634918213,3.426893472671509,8.4811372756958
1711550146278920000,14.407919921875,3.3943850994110107,3.3418304920196533,8.572088241577148
1711550146297878500,14.42687841796875,3.260277271270752,3.284024715423584,8.646164894104004
1711550146316837000,14.445837158203124,3.1437928676605225,3.234020471572876,8.707931518554688
1711550146335795700,14.464795654296875,3.005692720413208,3.167393445968628,8.780879020690918
1711550146354754600,14.483754638671876,2.836212635040283,3.0779824256896973,8.868613243103027
1711550146373713200,14.502713134765624,2.6752750873565674,2.9662036895751953,8.956279754638672
1711550146392671700,14.521671630859375,2.5484859943389893,2.8499457836151123,9.030694007873535
1711550146411630600,14.540630615234376,2.4752743244171143,2.765857219696045,9.077083587646484
1711550146430589200,14.559589111328124,2.413001537322998,2.696093797683716,9.114761352539062
1711550146449547800,14.5785478515625,2.3123812675476074,2.626067638397217,9.161170959472656
1711550146468506600,14.597506591796876,2.17549467086792,2.5737197399139404,9.209429740905762
1711550146487465200,14.61646533203125,2.059260368347168,2.5610620975494385,9.239632606506348
1711550146506423800,14.635423828125,2.004411458969116,2.5784456729888916,9.246855735778809
1711550146525382400,14.65438232421875,1.992063283920288,2.6127851009368896,9.239882469177246
1711550146544341200,14.67334130859375,1.9674676656723022,2.6718547344207764,9.228252410888672
1711550146563299800,14.6922998046875,1.8978188037872314,2.7603559494018555,9.216785430908203
1711550146582258400,14.711258544921876,1.7904151678085327,2.87844181060791,9.202139854431152
1711550146601217300,14.73021728515625,1.685394287109375,3.001894950866699,9.18250846862793
1711550146620176000,14.74917578125,1.6064754724502563,3.107644557952881,9.161450386047363
1711550146639134500,14.768134521484376,1.5317777395248413,3.207357168197632,9.139852523803711
1711550146658093000,14.787093017578124,1.4468462467193604,3.313828945159912,9.115677833557129
1711550146677051600,14.8060517578125,1.3429644107818604,3.4355437755584717,9.086466789245605
1711550146696010500,14.825010498046876,1.1987179517745972,3.5645530223846436,9.056899070739746
1711550146714969000,14.843968994140624,1.0306321382522583,3.6973769664764404,9.024277687072754
1711550146733927700,14.862927734375,0.8592078685760498,3.8419606685638428,8.981730461120605
1711550146752886500,14.881886474609376,0.6793245077133179,3.9954981803894043,8.930000305175781
1711550146771845000,14.90084521484375,0.489524781703949,4.154238700866699,8.869784355163574
1711550146790803700,14.9198037109375,0.28828468918800354,4.318682670593262,8.799787521362305
1711550146809762300,14.93876220703125,0.07873764634132385,4.4932661056518555,8.716349601745605
1711550146828721200,14.95772119140625,-0.13866345584392548,4.6721625328063965,8.621023178100586
1711550146847679700,14.9766796875,-0.3618501126766205,4.844611167907715,8.518754959106445
1711550146866638300,14.995638427734375,-0.5870005488395691,5.005908966064453,8.412294387817383
1711550146885597200,15.01459716796875,-0.7963356375694275,5.150804042816162,8.306953430175781
1711550146904555800,15.0335556640625,-0.9878329634666443,5.267049789428711,8.212964057922363
1711550146923514400,15.052514404296875,-1.1378288269042969,5.3384928703308105,8.147160530090332
1711550146942473000,15.071472900390624,-1.2671260833740234,5.37245512008667,8.105646133422852
1711550146961431600,15.090431640625,-1.3829320669174194,5.386770725250244,8.077164649963379
1711550146980390400,15.109390380859375,-1.447448968887329,5.377810478210449,8.071829795837402
1711550146999349000,15.128348876953124,-1.4871333837509155,5.337313652038574,8.091471672058105
1711550147018307600,15.1473076171875,-1.4765506982803345,5.262106895446777,8.142505645751953
1711550147037266200,15.16626611328125,-1.40497624874115,5.140555381774902,8.232321739196777
1711550147056224800,15.185224853515624,-1.2766542434692383,4.987059593200684,8.346841812133789
1711550147075183600,15.20418359375,-1.115082025527954,4.823622703552246,8.465202331542969
1711550147094142200,15.22314208984375,-0.9486170411109924,4.658285140991211,8.577348709106445
1711550147113101000,15.24210107421875,-0.8264335989952087,4.49063777923584,8.678799629211426
1711550147132059600,15.2610595703125,-0.8055121898651123,4.332391738891602,8.760817527770996
1711550147151018200,15.280018310546875,-0.8754560351371765,4.212911128997803,8.812226295471191
1711550147169976800,15.298976806640624,-0.9790578484535217,4.134864330291748,8.83825397491455
1711550147188935400,15.317935302734375,-1.0456724166870117,4.092040061950684,8.850545883178711
1711550147207894300,15.336894287109375,-1.0649559497833252,4.085400104522705,8.851314544677734
1711550147226852900,15.355852783203124,-1.047650933265686,4.096086025238037,8.848440170288086
1711550147245811500,15.3748115234375,-0.9721040725708008,4.088334560394287,8.860638618469238
1711550147264770000,15.39377001953125,-0.7845108509063721,4.104190826416016,8.871896743774414
1711550147283728600,15.412728759765624,-0.5446319580078125,4.150513172149658,8.868314743041992
1711550147302687500,15.4316875,-0.3883892297744751,4.169378757476807,8.867684364318848
1711550147321646000,15.45064599609375,-0.33917662501335144,4.159857273101807,8.874173164367676
1711550147340604700,15.469604736328124,-0.38311147689819336,4.128143787384033,8.887184143066406
1711550147359563300,15.488563232421875,-0.4845823049545288,4.084604263305664,8.902334213256836
1711550147378521900,15.50752197265625,-0.609549343585968,4.039121150970459,8.915398597717285
1711550147397480700,15.526480712890624,-0.7456056475639343,3.984342098236084,8.929697036743164
1711550147416439300,15.545439208984375,-0.8906047940254211,3.890843152999878,8.957596778869629
1711550147435398000,15.56439794921875,-1.0210440158843994,3.7586302757263184,9.000030517578125
1711550147454356500,15.5833564453125,-1.107272982597351,3.6307973861694336,9.042214393615723
1711550147473315300,15.6023154296875,-1.1520837545394897,3.5203492641448975,9.080211639404297
1711550147492274000,15.62127392578125,-1.1665037870407104,3.4428374767303467,9.108047485351562
1711550147511232500,15.640232421875,-1.1772116422653198,3.387119770050049,9.12753963470459
1711550147530191000,15.659191162109375,-1.2296186685562134,3.3318686485290527,9.140955924987793
1711550147549149700,15.678149658203125,-1.3504899740219116,3.2798540592193604,9.142708778381348
1711550147568108500,15.697108642578126,-1.5344678163528442,3.2394866943359375,9.128063201904297
1711550147587067100,15.716067138671875,-1.753185749053955,3.2086737155914307,9.099513053894043
1711550147606025700,15.735025634765625,-1.9520454406738281,3.185101270675659,9.06725025177002
1711550147624984300,15.753984375,-2.089906930923462,3.162642002105713,9.044356346130371
1711550147643943000,15.77294287109375,-2.164214611053467,3.1293578147888184,9.03845500946045
1711550147662901800,15.79190185546875,-2.182788372039795,3.0879151821136475,9.048237800598145
1711550147681860400,15.8108603515625,-2.160759449005127,3.0571889877319336,9.063945770263672
1711550147700819000,15.82981884765625,-2.118745803833008,3.046320915222168,9.07751178741455
1711550147719777500,15.848777587890625,-2.077003002166748,3.061889886856079,9.081920623779297
1711550147738736000,15.867736083984376,-2.0679099559783936,3.0993993282318115,9.071266174316406
1711550147757695000,15.886695068359375,-2.115753650665283,3.1430740356445312,9.045167922973633
1711550147776653600,15.905653564453125,-2.2252702713012695,3.1819040775299072,9.00522232055664
1711550147795612200,15.924612060546876,-2.382966995239258,3.2069687843322754,8.955846786499023
1711550147814570800,15.94357080078125,-2.5637567043304443,3.2223334312438965,8.900230407714844
1711550147833529600,15.962529541015625,-2.7221226692199707,3.248507261276245,8.84350872039795
1711550147852488200,15.98148828125,-2.8178870677948,3.3130807876586914,8.78939151763916
1711550147871446800,16.00044677734375,-2.8313844203948975,3.4009907245635986,8.751394271850586
1711550147890405400,16.0194052734375,-2.7581119537353516,3.4968883991241455,8.73698902130127
1711550147909364000,16.038364013671874,-2.61393141746521,3.6207993030548096,8.730839729309082
1711550147928322800,16.05732275390625,-2.4266672134399414,3.776334047317505,8.718999862670898
1711550147947281400,16.076281494140623,-2.2242462635040283,3.9576311111450195,8.692541122436523
1711550147966240000,16.095239990234376,-2.045257091522217,4.1561055183410645,8.643731117248535
1711550147985198600,16.114198486328124,-1.9213660955429077,4.360329627990723,8.571246147155762
1711550148004157200,16.1331572265625,-1.8590141534805298,4.560134410858154,8.480544090270996
1711550148023116000,16.152115966796874,-1.8401851654052734,4.759264945983887,8.374574661254883
1711550148042074600,16.17107470703125,-1.8422915935516357,4.974122047424316,8.248299598693848
1711550148061033200,16.190033203125,-1.8569505214691162,5.2196149826049805,8.091832160949707
1711550148079992000,16.208991943359376,-1.8894941806793213,5.503813743591309,7.893556594848633
1711550148098950700,16.22795068359375,-1.9307886362075806,5.8177595138549805,7.654810905456543
1711550148117909200,16.2469091796875,-1.9563764333724976,6.171910285949707,7.365494251251221
1711550148136867800,16.265867919921874,-1.949245572090149,6.582344055175781,7.003111839294434
1711550148155826400,16.284826416015626,-1.8964653015136719,7.013843059539795,6.586335182189941
1711550148174785300,16.303785400390623,-1.803713083267212,7.410281181335449,6.164799690246582
1711550148193744000,16.322743896484376,-1.6616299152374268,7.753552436828613,5.769905090332031
1711550148212702500,16.341702392578124,-1.4657732248306274,8.067575454711914,5.37923002243042
1711550148231661000,16.3606611328125,-1.2361985445022583,8.372773170471191,4.953672885894775
1711550148250620000,16.379619873046874,-0.9853720664978027,8.65794849395752,4.49881649017334
1711550148269578500,16.39857861328125,-0.7380834817886353,8.903854370117188,4.043142795562744
1711550148288537000,16.417537109375,-0.5183609127998352,9.096735000610352,3.6264421939849854
1711550148307495700,16.43649560546875,-0.33878445625305176,9.230835914611816,3.2935214042663574
1711550148326454500,16.45545458984375,-0.1925864964723587,9.313825607299805,3.063648223876953
1711550148345413000,16.4744130859375,-0.05306730791926384,9.36194896697998,2.919159173965454
1711550148364371700,16.493371826171874,0.0948951467871666,9.397984504699707,2.799868583679199
1711550148383330300,16.512330322265626,0.22662846744060516,9.439207077026367,2.6496012210845947
1711550148402289200,16.5312890625,0.34305083751678467,9.4898042678833,2.448739528656006
1711550148421247700,16.550247802734376,0.44282758235931396,9.548582077026367,2.1906301975250244
1711550148440206300,16.569206298828124,0.4891883134841919,9.60995864868164,1.8920310735702515
1711550148459165200,16.588165283203125,0.4743925929069519,9.665647506713867,1.58763587474823
1711550148478123800,16.607123779296874,0.4291480779647827,9.706598281860352,1.3297228813171387
1711550148497082400,16.626082275390626,0.3961823582649231,9.73576545715332,1.1082897186279297
1711550148516041000,16.645041015625,0.3791773319244385,9.760939598083496,0.8664060235023499
1711550148534999800,16.663999755859376,0.3675147593021393,9.782525062561035,0.5809633731842041
1711550148553958400,16.68295849609375,0.3629691004753113,9.796337127685547,0.26539239287376404
1711550148572917000,16.7019169921875,0.352912962436676,9.800238609313965,-0.033970799297094345
1711550148591875800,16.720875732421874,0.3223657011985779,9.79708480834961,-0.2891156077384949
1711550148610834400,16.73983447265625,0.2881607413291931,9.788537979125977,-0.5213977694511414
1711550148629793000,16.75879296875,0.2630422115325928,9.774398803710938,-0.7498753070831299
1711550148648751600,16.777751708984376,0.23669159412384033,9.755553245544434,-0.9713626503944397
1711550148667710500,16.79671044921875,0.21189221739768982,9.733687400817871,-1.1750885248184204
1711550148686669000,16.8156689453125,0.1980404257774353,9.709001541137695,-1.366184949874878
1711550148705627600,16.834627685546874,0.20297834277153015,9.680431365966797,-1.5551315546035767
1711550148724586200,16.853586181640626,0.22929461300373077,9.652556419372559,-1.7163832187652588
1711550148743545000,16.872545166015627,0.26933416724205017,9.62831974029541,-1.8420934677124023
1711550148762503700,16.891503662109375,0.3015204668045044,9.604070663452148,-1.959925889968872
1711550148781462300,16.910462158203124,0.3121677041053772,9.578503608703613,-2.07971453666687
1711550148800421000,16.929421142578125,0.31268221139907837,9.551043510437012,-2.2023143768310547
1711550148819379700,16.948379638671874,0.3203878402709961,9.522790908813477,-2.320387125015259
1711550148838338600,16.967338623046874,0.34479472041130066,9.498592376708984,-2.414177656173706
1711550148857297200,16.986297119140627,0.3829220235347748,9.478071212768555,-2.487952709197998
1711550148876255700,17.005255859375,0.4221750497817993,9.459274291992188,-2.5523123741149902
1711550148895214600,17.024214599609376,0.45785534381866455,9.445841789245605,-2.5955426692962646
1711550148914173200,17.043173095703125,0.4873550236225128,9.440893173217773,-2.608140707015991
1711550148933131800,17.0621318359375,0.505591094493866,9.443798065185547,-2.5941152572631836
1711550148952090600,17.081090576171874,0.5111726522445679,9.452484130859375,-2.5611793994903564
1711550148971049200,17.10004931640625,0.5027756690979004,9.465188980102539,-2.5155105590820312
1711550148990007800,17.1190078125,0.47836753726005554,9.480385780334473,-2.462486505508423
1711550149008966700,17.137966552734376,0.4444883167743683,9.49666690826416,-2.40543794631958
1711550149027925200,17.15692529296875,0.4059555232524872,9.515061378479004,-2.3386309146881104
1711550149046883800,17.1758837890625,0.3641833961009979,9.53737735748291,-2.253037452697754
1711550149065842700,17.1948427734375,0.32349929213523865,9.563486099243164,-2.14603853225708
1711550149084801300,17.21380126953125,0.28899872303009033,9.591695785522461,-2.0214455127716064
1711550149103760000,17.232759765625,0.2718900144100189,9.622533798217773,-1.871711254119873
1711550149122718700,17.25171875,0.2765684127807617,9.654449462890625,-1.69868004322052
1711550149141677300,17.27067724609375,0.29718708992004395,9.685739517211914,-1.506157398223877
1711550149160636200,17.28963623046875,0.3175848126411438,9.715361595153809,-1.2966458797454834
1711550149179594800,17.3085947265625,0.3328438699245453,9.744087219238281,-1.0546897649765015
1711550149198553300,17.32755322265625,0.3464837968349457,9.769882202148438,-0.7744180560112
1711550149217512200,17.34651220703125,0.3623759150505066,9.788942337036133,-0.4644211232662201
1711550149236470800,17.365470703125,0.394275039434433,9.797891616821289,-0.12749114632606506
1711550149255429400,17.384429443359377,0.42051026225090027,9.794567108154297,0.24498538672924042
1711550149274388200,17.40338818359375,0.4187830686569214,9.77627944946289,0.6475873589515686
1711550149293346800,17.422346923828126,0.37771686911582947,9.74147891998291,1.0636258125305176
1711550149312305700,17.4413056640625,0.2871447801589966,9.691649436950684,1.4696487188339233
1711550149331264300,17.46026416015625,0.1380763053894043,9.62996768951416,1.8479825258255005
1711550149350223000,17.47922314453125,-0.0652947798371315,9.558645248413086,2.1905314922332764
1711550149369181700,17.498181640625,-0.3164943754673004,9.473994255065918,2.5126962661743164
1711550149388140300,17.517140380859374,-0.6126716732978821,9.368239402770996,2.833921432495117
1711550149407099100,17.53609912109375,-0.9619206786155701,9.232077598571777,3.1644649505615234
1711550149426057700,17.5550576171875,-1.3750338554382324,9.05202579498291,3.5129029750823975
1711550149445016600,17.5740166015625,-1.8441306352615356,8.81995964050293,3.870128631591797
1711550149463975200,17.59297509765625,-2.3307902812957764,8.539384841918945,4.220986366271973
1711550149482934000,17.61193408203125,-2.7891690731048584,8.222909927368164,4.55792236328125
1711550149501892600,17.630892578125,-3.1899187564849854,7.887143611907959,4.877272129058838
1711550149520851500,17.6498515625,-3.525214910507202,7.5452141761779785,5.178125381469727
1711550149539810000,17.66881005859375,-3.788231611251831,7.196895599365234,5.479451656341553
1711550149558768600,17.6877685546875,-3.955329656600952,6.857304096221924,5.788188934326172
1711550149577727500,17.7067275390625,-4.034326076507568,6.540860652923584,6.091942310333252
1711550149596686000,17.72568603515625,-4.055099964141846,6.245921611785889,6.380832195281982
1711550149615645000,17.74464501953125,-4.0383830070495605,5.976193428039551,6.644318103790283
1711550149634603500,17.763603515625,-4.014545917510986,5.73429012298584,6.868167400360107
1711550149653562400,17.782562255859375,-4.016315460205078,5.524454593658447,7.037045001983643
1711550149672521000,17.80152099609375,-4.0527753829956055,5.354140281677246,7.146928310394287
1711550149691479800,17.820479736328124,-4.10996675491333,5.228181838989258,7.207265377044678
1711550149710438400,17.8394384765625,-4.184403419494629,5.14625883102417,7.223377227783203
1711550149729397200,17.858397216796874,-4.267125129699707,5.101188659667969,7.206933975219727
1711550149748355800,17.87735595703125,-4.333517074584961,5.084322452545166,7.179183483123779
1711550149767314700,17.896314697265623,-4.379732608795166,5.072430610656738,7.159523010253906
1711550149786273300,17.915273193359376,-4.412777423858643,5.0396881103515625,7.162355422973633
1711550149805232000,17.934232177734376,-4.433276653289795,4.983429908752441,7.189010143280029
1711550149824190700,17.953190673828125,-4.450515270233154,4.9126667976379395,7.226963520050049
1711550149843149600,17.972149658203126,-4.4608235359191895,4.836763858795166,7.271667957305908
1711550149862108200,17.991108154296874,-4.469915390014648,4.775487899780273,7.306501865386963
1711550149881067000,18.01006689453125,-4.497592926025391,4.725014686584473,7.322314262390137
1711550149900025600,18.029025634765624,-4.507991313934326,4.672148704528809,7.349792003631592
1711550149918984400,18.047984375,-4.470160484313965,4.602851390838623,7.416319847106934
1711550149937943000,18.066943115234373,-4.384362697601318,4.511183738708496,7.523095607757568
1711550149956902000,18.08590185546875,-4.250738143920898,4.402610778808594,7.662809371948242
1711550149975860700,18.10486083984375,-4.065656661987305,4.296011924743652,7.822089672088623
1711550149994819300,18.1238193359375,-3.844616174697876,4.218089580535889,7.974774360656738
1711550150013778000,18.14277783203125,-3.594712257385254,4.149213790893555,8.126035690307617
1711550150032736800,18.16173681640625,-3.2549498081207275,4.136845111846924,8.274188995361328
1711550150051695600,18.180695556640625,-2.943227529525757,4.169825553894043,8.37378978729248
1711550150070654200,18.199654296875,-2.817321538925171,4.149937629699707,8.42680835723877
1711550150089613000,18.218613037109375,-2.882438898086548,4.072199821472168,8.442696571350098
1711550150108571600,18.237571533203123,-3.09737491607666,3.9646735191345215,8.417720794677734
1711550150127530500,18.256530517578124,-3.3862321376800537,3.8533287048339844,8.357970237731934
1711550150146489000,18.275489013671876,-3.665945291519165,3.7611379623413086,8.281610488891602
1711550150165448000,18.294447998046873,-3.881446361541748,3.697591781616211,8.2117338180542
1711550150184406800,18.31340673828125,-4.024665832519531,3.658724308013916,8.160036087036133
1711550150203365400,18.332365478515626,-4.114261627197266,3.639296293258667,8.12396240234375
1711550150222324200,18.35132421875,-4.17350435256958,3.644768238067627,8.091224670410156
1711550150241282800,18.37028271484375,-4.2206597328186035,3.6583635807037354,8.06057071685791
1711550150260241700,18.38924169921875,-4.256453514099121,3.664212226867676,8.039063453674316
1711550150279200300,18.4082001953125,-4.270500183105469,3.6791627407073975,8.024772644042969
1711550150298159000,18.4271591796875,-4.230257034301758,3.721940517425537,8.026361465454102
1711550150317117700,18.44611767578125,-4.093818664550781,3.8109219074249268,8.055302619934082
1711550150336076500,18.46507666015625,-3.8356075286865234,3.9689853191375732,8.105901718139648
1711550150355035400,18.484035400390624,-3.4835565090179443,4.186223030090332,8.155412673950195
1711550150373994000,18.502993896484377,-3.098193883895874,4.444887161254883,8.174016952514648
1711550150392952800,18.521952880859374,-2.739900827407837,4.721327304840088,8.14692497253418
1711550150411911700,18.54091162109375,-2.4243197441101074,4.998939514160156,8.08106803894043
1711550150430870300,18.559870361328127,-2.1307897567749023,5.289536952972412,7.978152751922607
1711550150449828900,18.578828857421875,-1.8303884267807007,5.596774578094482,7.841949939727783
1711550150468787700,18.59778759765625,-1.4844532012939453,5.907495975494385,7.685589790344238
1711550150487746600,18.61674658203125,-1.0586004257202148,6.201418876647949,7.522775650024414
1711550150506705200,18.635705078125,-0.5591941475868225,6.494241714477539,7.326835632324219
1711550150525664000,18.6546640625,-0.023559490218758583,6.789517879486084,7.076176643371582
1711550150544622600,18.67362255859375,0.5001418590545654,7.049883842468262,6.798482894897461
1711550150563581400,18.69258154296875,0.987148106098175,7.254646301269531,6.524265289306641
1711550150582540300,18.711540283203124,1.4079022407531738,7.403963565826416,6.274514198303223
1711550150601499000,18.730498779296877,1.7608338594436646,7.504802227020264,6.061995506286621
1711550150620457700,18.749457763671874,2.105562925338745,7.56634521484375,5.872597694396973
1711550150639416300,18.768416259765626,2.4374606609344482,7.583480358123779,5.720139980316162
1711550150658375200,18.787375244140627,2.7004921436309814,7.554034233093262,5.640416145324707
1711550150677333800,18.806333740234376,2.8526856899261475,7.484853744506836,5.6576972007751465
1711550150696292600,18.825292724609376,2.8904788494110107,7.371793746948242,5.785514831542969
1711550150715251500,18.84425146484375,2.7947325706481934,7.240543365478516,5.994528293609619
1711550150734210000,18.8632099609375,2.569354772567749,7.119875907897949,6.235074996948242
1711550150753169000,18.8821689453125,2.2165346145629883,6.981881141662598,6.520022869110107
1711550150772127500,18.90112744140625,1.7439005374908447,6.819275856018066,6.828371047973633
1711550150791086300,18.92008642578125,1.1654400825500488,6.652533054351807,7.110270023345947
1711550150810045200,18.939045166015624,0.5059122443199158,6.4800591468811035,7.343247890472412
1711550150829003800,18.958003662109373,-0.1725427806377411,6.280645847320557,7.529548645019531
1711550150847962600,18.976962646484374,-0.8219692707061768,6.0484185218811035,7.675375461578369
1711550150866921500,18.99592138671875,-1.4277743101119995,5.792632102966309,7.783139228820801
1711550150885880000,19.014880126953123,-1.984399437904358,5.515500068664551,7.8620476722717285
1711550150904838700,19.033838623046876,-2.466076612472534,5.219054698944092,7.92781925201416
1711550150923797500,19.052797607421876,-2.8452422618865967,4.93211555480957,7.984310626983643
1711550150942756400,19.07175634765625,-3.1101231575012207,4.693048477172852,8.029496192932129
1711550150961715000,19.09071484375,-3.2919230461120605,4.508131504058838,8.062901496887207
1711550150980673800,19.109673828125,-3.4565858840942383,4.3439249992370605,8.084102630615234
1711550150999632400,19.12863232421875,-3.650204658508301,4.162054061889648,8.094671249389648
1711550151018591200,19.14759130859375,-3.827543020248413,3.9622414112091064,8.113011360168457
1711550151037550000,19.166550048828125,-3.9501876831054688,3.7892231941223145,8.1368408203125
1711550151056508700,19.1855087890625,-4.039436340332031,3.6591036319732666,8.15256404876709
1711550151075467500,19.204467529296874,-4.110588550567627,3.5722830295562744,8.15550422668457
1711550151094426400,19.22342626953125,-4.142526626586914,3.534348249435425,8.155871391296387
1711550151113385000,19.242385009765623,-4.128514766693115,3.555629014968872,8.153726577758789
1711550151132343600,19.261343505859376,-4.085850238800049,3.6053013801574707,8.153406143188477
1711550151151302400,19.280302490234376,-4.012515544891357,3.6595239639282227,8.165658950805664
1711550151170261200,19.29926123046875,-3.9474427700042725,3.7136049270629883,8.172957420349121
1711550151189219800,19.3182197265625,-3.9333763122558594,3.756859540939331,8.15995979309082
1711550151208178700,19.3371787109375,-3.9187169075012207,3.789724111557007,8.151812553405762
1711550151227137300,19.35613720703125,-3.8598592281341553,3.828505516052246,8.161766052246094
1711550151246096100,19.37509619140625,-3.7831835746765137,3.866548776626587,8.179713249206543
1711550151265055000,19.394054931640625,-3.7402803897857666,3.8878045082092285,8.189363479614258
1711550151284013600,19.413013671875,-3.733386754989624,3.888840913772583,8.1920166015625
1711550151302972200,19.43197216796875,-3.751051902770996,3.8794198036193848,8.1884126663208
1711550151321931000,19.450930908203127,-3.7947170734405518,3.861353635787964,8.176823616027832
1711550151340889900,19.469889892578124,-3.817408323287964,3.848043441772461,8.172536849975586
1711550151359848400,19.488848388671876,-3.8029041290283203,3.8547112941741943,8.176155090332031
1711550151378807300,19.507807373046877,-3.7978782653808594,3.861093759536743,8.1754789352417
1711550151397766100,19.52676611328125,-3.8373801708221436,3.8447463512420654,8.164730072021484
1711550151416724700,19.545724853515626,-3.9309041500091553,3.7972490787506104,8.142436981201172
1711550151435683600,19.56468359375,-4.095788955688477,3.7137269973754883,8.09957504272461
1711550151454642200,19.58364208984375,-4.3448286056518555,3.5864293575286865,8.026853561401367
1711550151473601000,19.60260107421875,-4.588911056518555,3.4243321418762207,7.9615478515625
1711550151492559600,19.6215595703125,-4.689527988433838,3.278714895248413,7.964216709136963
1711550151511518500,19.6405185546875,-4.6200337409973145,3.166520357131958,8.049773216247559
1711550151530477000,19.65947705078125,-4.426054000854492,3.0619778633117676,8.19784927368164
1711550151549436000,19.678435791015627,-4.132332801818848,2.9649906158447266,8.38469123840332
1711550151568394800,19.697394775390624,-3.817668914794922,2.8846871852874756,8.560044288635254
1711550151587353300,19.716353271484376,-3.5882246494293213,2.807131767272949,8.684183120727539
1711550151606312200,19.735312255859377,-3.5104129314422607,2.7162983417510986,8.744662284851074
1711550151625270800,19.754270751953126,-3.571320056915283,2.6119208335876465,8.751795768737793
1711550151644229600,19.773229736328126,-3.695220947265625,2.5003676414489746,8.732919692993164
1711550151663188200,19.792188232421875,-3.8139472007751465,2.4017670154571533,8.709518432617188
1711550151682147000,19.81114697265625,-3.903878688812256,2.3370070457458496,8.687261581420898
1711550151701106000,19.83010595703125,-3.938002347946167,2.281527280807495,8.686607360839844
1711550151720064500,19.849064453125,-3.893606424331665,2.2140963077545166,8.723989486694336
1711550151739023000,19.868023193359374,-3.794210910797119,2.1522274017333984,8.78306770324707
1711550151757982000,19.88698193359375,-3.706385850906372,2.1123569011688232,8.830121040344238
1711550151776940800,19.90594091796875,-3.6925859451293945,2.075110673904419,8.844721794128418
1711550151795899400,19.9248994140625,-3.7514846324920654,2.001660108566284,8.836860656738281
1711550151814858200,19.943858154296876,-3.8013598918914795,1.8992613554000854,8.83814811706543
1711550151833816800,19.96281689453125,-3.7859737873077393,1.79991614818573,8.865499496459961
1711550151852775700,19.981775634765626,-3.703583002090454,1.721834421157837,8.915669441223145
1711550151871734300,20.000734375,-3.5841448307037354,1.652660846710205,8.977360725402832
1711550151890693000,20.019693115234375,-3.4804890155792236,1.5919885635375977,9.028962135314941
1711550151909652000,20.03865185546875,-3.4282045364379883,1.5421404838562012,9.057571411132812
1711550151928610600,20.057610595703125,-3.4252915382385254,1.500115990638733,9.065727233886719
1711550151947569200,20.076569091796873,-3.453768253326416,1.468724012374878,9.06006145477295
1711550151966528000,20.095528076171874,-3.4603867530822754,1.4377154111862183,9.062509536743164
1711550151985486800,20.11448681640625,-3.410372018814087,1.4062938690185547,9.0863676071167
1711550152004445400,20.133445556640623,-3.32123064994812,1.3938580751419067,9.121237754821777
1711550152023404300,20.152404296875,-3.236086130142212,1.4242513179779053,9.147110939025879
1711550152042363000,20.17136279296875,-3.2319116592407227,1.4607069492340088,9.142837524414062
1711550152061321700,20.19032177734375,-3.3027679920196533,1.480032205581665,9.114362716674805
1711550152080280300,20.2092802734375,-3.4177966117858887,1.5149918794631958,9.066082000732422
1711550152099239200,20.2282392578125,-3.5510575771331787,1.5831098556518555,9.003006935119629
1711550152118197800,20.24719775390625,-3.7018752098083496,1.6676796674728394,8.926665306091309
1711550152137156600,20.266156494140624,-3.848912000656128,1.7486720085144043,8.848639488220215
1711550152156115200,20.285115234375,-3.9476301670074463,1.8281793594360352,8.788877487182617
1711550152175074000,20.304073974609373,-3.976454734802246,1.9216220378875732,8.755887031555176
1711550152194032600,20.32303271484375,-3.9569365978240967,2.0395681858062744,8.738032341003418
1711550152212991500,20.341991455078126,-3.9256601333618164,2.153235912322998,8.724858283996582
1711550152231950000,20.3609501953125,-3.899451971054077,2.241743564605713,8.714312553405762
1711550152250909000,20.379908935546876,-3.881878137588501,2.310758352279663,8.70412540435791
1711550152269867500,20.398867431640625,-3.8627750873565674,2.3696017265319824,8.69680118560791
1711550152288826400,20.417826416015625,-3.826878309249878,2.4198954105377197,8.698822021484375
1711550152307785200,20.43678515625,-3.7780137062072754,2.4594030380249023,8.709095001220703
1711550152326743800,20.455743896484375,-3.734428882598877,2.4788100719451904,8.722380638122559
1711550152345702400,20.474702392578124,-3.696089029312134,2.484767198562622,8.737004280090332
1711550152364661200,20.4936611328125,-3.6611790657043457,2.4809768199920654,8.752766609191895
1711550152383620000,20.5126201171875,-3.629392623901367,2.4669206142425537,8.769960403442383
1711550152402578700,20.53157861328125,-3.596881628036499,2.4485111236572266,8.788494110107422
1711550152421537300,20.550537353515626,-3.5701472759246826,2.4278759956359863,8.80510425567627
1711550152440496000,20.56949609375,-3.542855739593506,2.392014980316162,8.82591724395752
1711550152459455000,20.588455078125,-3.495332717895508,2.3416521549224854,8.858312606811523
1711550152478413600,20.60741357421875,-3.414504051208496,2.301976203918457,8.900137901306152
1711550152497372200,20.6263720703125,-3.3387413024902344,2.271961212158203,8.93652057647705
1711550152516331000,20.6453310546875,-3.2747645378112793,2.2355129718780518,8.969324111938477
1711550152535289900,20.664289794921874,-3.2136857509613037,2.1873061656951904,9.0032377243042
1711550152554248400,20.68324853515625,-3.167185068130493,2.1229028701782227,9.035077095031738
1711550152573207300,20.702207275390624,-3.1389923095703125,2.0397109985351562,9.064032554626465
1711550152592166000,20.721165771484376,-3.1256000995635986,1.9501062631607056,9.088349342346191
1711550152611124700,20.740124755859377,-3.1176252365112305,1.8617675304412842,9.109588623046875
1711550152630083300,20.759083251953125,-3.1028358936309814,1.7729880809783936,9.132323265075684
1711550152649042200,20.778042236328126,-3.0717053413391113,1.6824100017547607,9.159940719604492
1711550152668000800,20.797000732421875,-3.0231170654296875,1.5877069234848022,9.192950248718262
1711550152686959600,20.815959716796876,-2.95086932182312,1.4835301637649536,9.233736991882324
1711550152705918200,20.834918212890624,-2.8277595043182373,1.383014440536499,9.287703514099121
1711550152724877000,20.853876953125,-2.6350865364074707,1.3031963109970093,9.355660438537598
1711550152743835600,20.872835693359374,-2.4296140670776367,1.2498505115509033,9.41834545135498
1711550152762794500,20.89179443359375,-2.2788143157958984,1.207190990447998,9.461504936218262
1711550152781753000,20.910753173828127,-2.1976478099823,1.1664015054702759,9.485791206359863
1711550152800712000,20.9297119140625,-2.171149253845215,1.133804440498352,9.495840072631836
1711550152819670500,20.94867041015625,-2.163142681121826,1.1191776990890503,9.49940299987793
1711550152838629400,20.96762939453125,-2.1380698680877686,1.128232717514038,9.504006385803223
1711550152857588000,20.986587890625,-2.0682923793792725,1.1625323295593262,9.51530647277832
1711550152876546800,21.005546875,-1.981817364692688,1.2112611532211304,9.52762508392334
1711550152895505400,21.02450537109375,-1.9040905237197876,1.279272198677063,9.53458309173584
1711550152914464300,21.04346435546875,-1.8848357200622559,1.3502438068389893,9.528620719909668
1711550152933422800,21.0624228515625,-1.9434417486190796,1.3796509504318237,9.512621879577637
1711550152952381700,21.081381591796877,-2.033829927444458,1.360295295715332,9.496500968933105
1711550152971340300,21.10034033203125,-2.1119513511657715,1.3217687606811523,9.484882354736328
1711550152990299100,21.119299072265626,-2.1421756744384766,1.286858081817627,9.482903480529785
1711550153009257700,21.1382578125,-2.1181082725524902,1.2662150859832764,9.49108600616455
1711550153028216600,21.157216552734376,-2.0657782554626465,1.2816567420959473,9.500541687011719
1711550153047175200,21.176175048828124,-2.04546856880188,1.3325716257095337,9.497930526733398
1711550153066134000,21.195134033203125,-2.120331287384033,1.3870631456375122,9.473681449890137
1711550153085092600,21.214092529296874,-2.3208813667297363,1.4125405550003052,9.422772407531738
1711550153104051500,21.233051513671874,-2.6152091026306152,1.421026587486267,9.344075202941895
1711550153123010000,21.252010009765623,-2.9268767833709717,1.4197040796279907,9.251389503479004
1711550153141969000,21.270968994140624,-3.1918082237243652,1.4303103685379028,9.161712646484375
1711550153160927500,21.289927490234376,-3.3947482109069824,1.450141429901123,9.085326194763184
1711550153179886300,21.30888623046875,-3.5193793773651123,1.4877814054489136,9.031659126281738
1711550153198845200,21.32784521484375,-3.5487284660339355,1.5365326404571533,9.011990547180176
1711550153217803800,21.3468037109375,-3.465000867843628,1.6157289743423462,9.030701637268066
1711550153236762400,21.365762451171875,-3.24123477935791,1.7414436340332031,9.09022331237793
1711550153255721200,21.38472119140625,-2.93813419342041,1.9076955318450928,9.1596097946167
1711550153274680000,21.40368017578125,-2.681614875793457,2.095911979675293,9.197091102600098
1711550153293638700,21.422638671875,-2.5313940048217773,2.2774977684020996,9.196489334106445
1711550153312597500,21.441597412109374,-2.465829372406006,2.426706552505493,9.176119804382324
1711550153331556000,21.46055615234375,-2.4064457416534424,2.5478367805480957,9.159034729003906
1711550153350515000,21.479514892578123,-2.23667049407959,2.693754196166992,9.160316467285156
1711550153369473500,21.4984736328125,-1.9487454891204834,2.870802402496338,9.172309875488281
1711550153388432400,21.517432373046876,-1.5697821378707886,3.0265674591064453,9.194893836975098
1711550153407391200,21.53639111328125,-1.0102829933166504,3.1137523651123047,9.244147300720215
1711550153426349800,21.555349853515626,-0.31493210792541504,3.121966600418091,9.29110050201416
1711550153445308700,21.57430859375,0.3668956160545349,3.075056552886963,9.304826736450195
1711550153464267300,21.593267333984375,0.9644303917884827,2.9895308017730713,9.289938926696777
1711550153483226000,21.61222607421875,1.4800713062286377,2.8244106769561768,9.27375316619873
1711550153502184700,21.631184814453125,1.8730047941207886,2.560039520263672,9.279463768005371
1711550153521143600,21.6501435546875,2.1260323524475098,2.221721887588501,9.312052726745605
1711550153540102400,21.669102294921874,2.3816745281219482,1.8116613626480103,9.338944435119629
1711550153559061000,21.68806103515625,2.721010684967041,1.3760157823562622,9.320571899414062
1711550153578019800,21.707019775390624,3.1323635578155518,0.9519057869911194,9.244054794311523
1711550153596978400,21.725978515625,3.5551726818084717,0.5333512425422668,9.123961448669434
1711550153615937300,21.744937255859377,3.9264700412750244,0.13257983326911926,8.985301971435547
1711550153634896100,21.763896240234374,4.150359630584717,-0.1569995880126953,8.883707046508789
1711550153653854700,21.782854736328126,4.1656880378723145,-0.32304877042770386,8.872038841247559
1711550153672813600,21.8018134765625,3.960076332092285,-0.4330916702747345,8.961060523986816
1711550153691772200,21.820772216796875,3.5968189239501953,-0.4588257670402527,9.111682891845703
1711550153710731000,21.83973095703125,3.1418020725250244,-0.36095353960990906,9.282735824584961
1711550153729689600,21.858689697265625,2.6210403442382812,-0.2292904108762741,9.447113037109375
1711550153748648400,21.8776484375,2.0901939868927,-0.12223123013973236,9.58052921295166
1711550153767607300,21.896607177734374,1.6500227451324463,-0.028244748711586,9.666799545288086
1711550153786566000,21.91556591796875,1.3367834091186523,0.07835658639669418,9.71479606628418
1711550153805524700,21.934524658203124,1.111940622329712,0.17055518925189972,9.741913795471191
1711550153824483600,21.953483642578124,0.9927792549133301,0.2689691185951233,9.75256061553955
1711550153843442200,21.972442138671877,0.9835990071296692,0.4352553188800812,9.747486114501953
1711550153862401000,21.991401123046874,1.01901376247406,0.6608569622039795,9.731149673461914
1711550153881360000,22.01035986328125,0.9987013936042786,0.9368358850479126,9.710577964782715
1711550153900318500,22.029318359375,0.9138046503067017,1.250382423400879,9.683588981628418
1711550153919277300,22.04827734375,0.8158479332923889,1.619806170463562,9.637479782104492
1711550153938236200,22.067236083984376,0.7522615790367126,2.0737497806549072,9.555315017700195
1711550153957194800,22.08619482421875,0.7508367896080017,2.5948524475097656,9.427267074584961
1711550153976153600,22.105153564453126,0.8106778264045715,3.10801100730896,9.265713691711426
1711550153995112200,22.1241123046875,0.8999340534210205,3.5777344703674316,9.086271286010742
1711550154014071000,22.143071044921875,0.9948216676712036,4.023947715759277,8.887551307678223
1711550154033030000,22.16202978515625,1.081327199935913,4.4437103271484375,8.674939155578613
1711550154051988500,22.180988525390624,1.1534919738769531,4.794701099395752,8.47647762298584
1711550154070947300,22.199947265625,1.2357134819030762,5.076192378997803,8.2991361618042
1711550154089906200,22.21890625,1.3331705331802368,5.308152198791504,8.137356758117676
1711550154108864800,22.23786474609375,1.452392816543579,5.508238315582275,7.982496738433838
1711550154127823600,22.25682373046875,1.6019710302352905,5.705239772796631,7.81372594833374
1711550154146782500,22.275782470703124,1.7116423845291138,5.930778503417969,7.62014102935791
1711550154165741000,22.294740966796876,1.7447232007980347,6.182980537414551,7.409257411956787
1711550154184700000,22.313699951171873,1.7423855066299438,6.437740325927734,7.1895751953125
1711550154203658800,22.33265869140625,1.7406623363494873,6.6873579025268555,6.958428382873535
1711550154222617600,22.35161767578125,1.7153509855270386,6.930917263031006,6.722376346588135
1711550154241576200,22.370576171875,1.645928144454956,7.167802810668945,6.48721170425415
1711550154260535000,22.38953515625,1.5426640510559082,7.372564315795898,6.279798984527588
1711550154279494000,22.408493896484377,1.4304786920547485,7.544569492340088,6.099475383758545
1711550154298452500,22.427452392578125,1.321141242980957,7.692934036254883,5.936642646789551
1711550154317411300,22.446411376953126,1.2241182327270508,7.823056697845459,5.785473346710205
1711550154336370200,22.4653701171875,1.1531487703323364,7.9363484382629395,5.644023895263672
1711550154355329000,22.4843291015625,1.1106023788452148,8.014981269836426,5.540490627288818
1711550154374287600,22.50328759765625,1.0531245470046997,8.078441619873047,5.458946228027344
1711550154393246500,22.52224658203125,0.9955655336380005,8.126607894897461,5.397915363311768
1711550154412205300,22.541205322265625,0.9496046304702759,8.162361145019531,5.352055549621582
1711550154431164200,22.5601640625,0.9176495671272278,8.18230152130127,5.327122688293457
1711550154450122800,22.579122802734375,0.901946485042572,8.196388244628906,5.308117389678955
1711550154469081600,22.59808154296875,0.8841942548751831,8.201343536376953,5.303447246551514
1711550154488040400,22.61704052734375,0.8746063709259033,8.205276489257812,5.298952579498291
1711550154506999000,22.6359990234375,0.8697881698608398,8.196772575378418,5.312885761260986
1711550154525958000,22.6549580078125,0.8497695326805115,8.184163093566895,5.335519313812256
1711550154544916700,22.673916748046874,0.8257068991661072,8.186147689819336,5.336251258850098
1711550154563875600,22.69287548828125,0.7896520495414734,8.189769744873047,5.336152076721191
1711550154582834200,22.711834228515624,0.7515255808830261,8.204803466796875,5.318532943725586
1711550154601793000,22.73079296875,0.7017070055007935,8.227481842041016,5.290228843688965
1711550154620752000,22.749751953125,0.6275727152824402,8.261443138122559,5.246435642242432
1711550154639710700,22.768710693359374,0.5498130917549133,8.304259300231934,5.187232971191406
1711550154658669600,22.787669677734375,0.48833605647087097,8.343744277954102,5.129703044891357
1711550154677628200,22.806628173828123,0.4399765431880951,8.379839897155762,5.074946880340576
1711550154696587000,22.8255869140625,0.40888604521751404,8.409631729125977,5.02805233001709
1711550154715545900,22.8445458984375,0.4115774631500244,8.424893379211426,5.002216815948486
1711550154734504700,22.863504638671873,0.430632084608078,8.430835723876953,4.990585803985596
1711550154753463600,22.882463623046874,0.45557329058647156,8.422640800476074,5.002194881439209
1711550154772422100,22.901422119140626,0.49385491013526917,8.401041984558105,5.03477668762207
1711550154791381000,22.920381103515624,0.5676677823066711,8.365816116333008,5.085398197174072
1711550154810339800,22.93933984375,0.6945353150367737,8.323651313781738,5.138564109802246
1711550154829298400,22.95829833984375,0.8635887503623962,8.269432067871094,5.200106620788574
1711550154848257300,22.97725732421875,1.0318320989608765,8.194718360900879,5.286993503570557
1711550154867216100,22.996216064453126,1.1540411710739136,8.10096549987793,5.4048991203308105
1711550154886175000,23.015175048828127,1.2431467771530151,7.9950361251831055,5.541152000427246
1711550154905133800,23.0341337890625,1.3187963962554932,7.8891282081604,5.6738715171813965
1711550154924092700,23.0530927734375,1.3572232723236084,7.7940568923950195,5.794912338256836
1711550154943051300,23.07205126953125,1.3543322086334229,7.720821380615234,5.892800331115723
1711550154962010000,23.091010009765625,1.3473684787750244,7.663082122802734,5.969267845153809
1711550154980969000,23.109968994140626,1.3621302843093872,7.600625991821289,6.045283794403076
1711550154999927800,23.128927734375,1.3879218101501465,7.538520812988281,6.116761684417725
1711550155018886700,23.14788671875,1.4141874313354492,7.483534336090088,6.1779584884643555
1711550155037845200,23.16684521484375,1.4432357549667358,7.42907190322876,6.236693382263184
1711550155056804000,23.18580419921875,1.470520257949829,7.37176513671875,6.298017501831055
1711550155075763000,23.204762939453126,1.513417363166809,7.312689304351807,6.3564558029174805
1711550155094721800,23.2237216796875,1.5600413084030151,7.246572017669678,6.4205803871154785
1711550155113680600,23.2426806640625,1.5937244892120361,7.175446033477783,6.491795063018799
1711550155132639500,23.261639404296876,1.6211670637130737,7.0965352058410645,6.571255683898926
1711550155151598000,23.28059814453125,1.6515837907791138,7.007945537567139,6.658179759979248
1711550155170557000,23.299556884765625,1.6662448644638062,6.916192531585693,6.749836444854736
1711550155189515800,23.318515869140626,1.648000955581665,6.827031135559082,6.844421863555908
1711550155208474600,23.337474609375,1.622833013534546,6.741016387939453,6.935091018676758
1711550155227433200,23.35643310546875,1.6210578680038452,6.666879653930664,7.006801605224609
1711550155246392000,23.37539208984375,1.6234955787658691,6.6039910316467285,7.065546989440918
1711550155265351000,23.394350830078125,1.6182324886322021,6.553259372711182,7.113824367523193
1711550155284309800,23.413309814453125,1.6113990545272827,6.514803409576416,7.1506028175354
1711550155303268600,23.4322685546875,1.5958653688430786,6.481634616851807,7.184150695800781
1711550155322227500,23.4512275390625,1.5696775913238525,6.441611289978027,7.225797653198242
1711550155341186000,23.47018603515625,1.5231282711029053,6.387388229370117,7.28366231918335
1711550155360145000,23.489144775390624,1.4308929443359375,6.326934814453125,7.3547821044921875
1711550155379103700,23.508103759765625,1.287329912185669,6.268284320831299,7.431136608123779
1711550155398062600,23.5270625,1.1327388286590576,6.2229533195495605,7.494140148162842
1711550155417021400,23.546021484375,1.022109031677246,6.204674243927002,7.525137901306152
1711550155435980300,23.564980224609375,0.9536840319633484,6.206891059875488,7.532288551330566
1711550155454939100,23.583939208984376,0.8965851068496704,6.222075462341309,7.5267720222473145
1711550155473897700,23.602897705078124,0.8301224112510681,6.24133825302124,7.518443584442139
1711550155492856600,23.621856689453125,0.7833341956138611,6.263996601104736,7.504607200622559
1711550155511815400,23.6408154296875,0.7789908051490784,6.27874231338501,7.492727279663086
1711550155530774300,23.659774169921874,0.8094519376754761,6.265350341796875,7.500704765319824
1711550155549733000,23.678733154296875,0.8646609783172607,6.230274677276611,7.523723602294922
1711550155568692000,23.69769189453125,0.9232243299484253,6.190288543701172,7.549726963043213
1711550155587650600,23.716650634765625,0.9758169651031494,6.160759925842285,7.567245006561279
1711550155606609400,23.735609375,1.0211576223373413,6.150449275970459,7.5696492195129395
1711550155625568300,23.754568359375,1.0608481168746948,6.163813591003418,7.553303241729736
1711550155644527000,23.773527099609375,1.0882668495178223,6.203402996063232,7.516905307769775
1711550155663486000,23.79248583984375,1.102439284324646,6.250596046447754,7.4756317138671875
1711550155682444800,23.81144482421875,1.1029688119888306,6.2800397872924805,7.450836181640625
1711550155701403600,23.830403564453125,1.089697003364563,6.3007402420043945,7.435296058654785
1711550155720362200,23.8493623046875,1.084316372871399,6.311697006225586,7.426783561706543
1711550155739321000,23.868321044921874,1.1147942543029785,6.286371231079102,7.443732738494873
1711550155758280000,23.887280029296875,1.1637656688690186,6.227972030639648,7.485212802886963
1711550155777238800,23.90623876953125,1.19129478931427,6.163506984710693,7.534081935882568
1711550155796197400,23.925197265625,1.2017667293548584,6.111480712890625,7.574691295623779
1711550155815156200,23.94415625,1.2213692665100098,6.0664381980896,7.607691764831543
1711550155834115000,23.963114990234374,1.2632460594177246,6.015212059020996,7.641454219818115
1711550155853074000,23.982073974609374,1.3309015035629272,5.9615631103515625,7.6719512939453125
1711550155872032800,24.00103271484375,1.3819628953933716,5.920660495758057,7.694565773010254
1711550155890991600,24.01999169921875,1.4199528694152832,5.897882461547852,7.705134391784668
1711550155909950200,24.0389501953125,1.441334843635559,5.887442588806152,7.709147930145264
1711550155928909000,24.057908935546877,1.432999610900879,5.8828511238098145,7.714204788208008
1711550155947868000,24.076867919921874,1.402841567993164,5.884934425354004,7.71815824508667
1711550155966826800,24.09582666015625,1.3722968101501465,5.898654937744141,7.713175296783447
1711550155985785600,24.11478564453125,1.347692608833313,5.926544666290283,7.696115016937256
1711550156004744400,24.133744384765624,1.3307161331176758,5.955333232879639,7.676822185516357
1711550156023703300,24.152703369140625,1.3081403970718384,5.962447166442871,7.6751790046691895
1711550156042662000,24.171661865234373,1.280268669128418,5.937289237976074,7.699344158172607
1711550156061620700,24.190620849609374,1.2769229412078857,5.8954362869262695,7.731990814208984
1711550156080579600,24.20957958984375,1.2989972829818726,5.856253147125244,7.758046627044678
1711550156099538400,24.228538330078123,1.2990787029266357,5.847737789154053,7.764454364776611
1711550156118497300,24.247497314453124,1.2656785249710083,5.83698034286499,7.77805233001709
1711550156137456000,24.2664560546875,1.2184780836105347,5.82038688659668,7.797999858856201
1711550156156414700,24.285414794921873,1.1719592809677124,5.824000358581543,7.802430629730225
1711550156175373600,24.30437353515625,1.1119344234466553,5.844150543212891,7.796146869659424
1711550156194332400,24.32333251953125,1.0555225610733032,5.851328372955322,7.798603534698486
1711550156213291300,24.342291259765624,1.001783847808838,5.847726821899414,7.808387756347656
1711550156232250000,24.36125,0.9362860321998596,5.85770320892334,7.809037685394287
1711550156251209000,24.380208984375,0.8942376375198364,5.858623504638672,7.81327486038208
1711550156270167800,24.399167724609374,0.8784814476966858,5.837024211883545,7.8312087059021
1711550156289126400,24.41812646484375,0.8658263683319092,5.804477214813232,7.856766700744629
1711550156308085200,24.437085205078127,0.8535375595092773,5.7674174308776855,7.885351181030273
1711550156327044000,24.456044189453124,0.8600396513938904,5.72575569152832,7.914950370788574
1711550156346003000,24.4750029296875,0.8817354440689087,5.6769561767578125,7.9476470947265625
1711550156364961500,24.49396142578125,0.9128096699714661,5.609393119812012,7.991988658905029
1711550156383920600,24.512920654296874,0.9336624145507812,5.539962291717529,8.037878036499023
1711550156402879200,24.531879150390626,0.9339351058006287,5.480140209197998,8.078750610351562
