time,seconds_elapsed,z,y,x
1711550131966381800,0.0953818359375,5.771488189697266,6.0023956298828125,3.91705060005188
1711550131985340000,0.11433984375,5.819344520568848,6.401997089385986,4.455435752868652
1711550132004298200,0.13329833984375,5.084748268127441,6.610172748565674,4.383651256561279
1711550132023256300,0.15225634765625,4.711467742919922,6.482156753540039,4.089334011077881
1711550132042214700,0.171214599609375,5.438885688781738,7.375875949859619,4.622933387756348
1711550132061173000,0.190173095703125,5.648257732391357,7.015756130218506,5.9545392990112305
1711550132080131000,0.209131103515625,5.708078384399414,6.502495765686035,5.907878875732422
1711550132099089400,0.22808935546875,5.8959150314331055,5.953342914581299,5.163711071014404
1711550132118047500,0.247047607421875,5.839683532714844,5.712863922119141,5.381458282470703
1711550132137005800,0.266005859375,5.350351333618164,6.021538257598877,5.769095420837402
1711550132155964000,0.2849638671875,5.14576530456543,5.50229549407959,5.6590256690979
1711550132174922200,0.303922119140625,4.7952165603637695,6.0263237953186035,5.647061347961426
1711550132193880600,0.322880615234375,4.778466701507568,6.2297139167785645,5.965306758880615
1711550132212839000,0.3418388671875,4.627718925476074,6.532405853271484,5.821737289428711
1711550132231797000,0.360796875,4.494917392730713,6.2500529289245605,5.67338228225708
1711550132250755300,0.37975537109375,4.376472473144531,6.403193473815918,5.740381717681885
1711550132269713400,0.39871337890625,4.54636287689209,6.017949104309082,5.901896953582764
1711550132288671700,0.417671630859375,4.143172264099121,6.233303070068359,6.38165807723999
1711550132307630000,0.436630126953125,4.332205295562744,7.5804619789123535,7.2921271324157715
1711550132326588200,0.455588134765625,4.621737003326416,7.520641803741455,7.39980411529541
1711550132345546500,0.47454638671875,4.240081787109375,5.85284423828125,6.38165807723999
1711550132364504600,0.493504638671875,3.4911282062530518,6.385247230529785,5.917450428009033
1711550132383463000,0.512462890625,3.2793633937835693,6.918846607208252,5.6590256690979
1711550132402421200,0.531421142578125,4.1970109939575195,7.392625331878662,6.209374904632568
1711550132421379300,0.55037939453125,4.737788677215576,6.198606967926025,6.419943332672119
1711550132440337700,0.569337646484375,4.409972190856934,5.580062389373779,6.183053493499756
1711550132459296000,0.5882958984375,3.4504501819610596,7.262216567993164,6.105287075042725
1711550132478254000,0.607254150390625,3.8727834224700928,6.8482584953308105,6.376872539520264
1711550132497212400,0.62621240234375,4.671986103057861,4.926821708679199,6.227321147918701
1711550132516170500,0.64517041015625,3.487539052963257,5.420939922332764,5.876772403717041
1711550132535128800,0.66412890625,2.717050075531006,7.612765312194824,5.420939922332764
1711550132554087200,0.683087158203125,2.9587252140045166,5.6446685791015625,4.474578380584717
1711550132573045200,0.702045166015625,2.950350284576416,5.2283172607421875,4.82751989364624
1711550132592003600,0.721003662109375,2.7218358516693115,5.093122959136963,5.032105922698975
1711550132610961700,0.739961669921875,3.332005500793457,4.685146808624268,5.333601474761963
1711550132629920000,0.758919921875,3.944568157196045,4.503292083740234,5.888736724853516
1711550132648878300,0.77787841796875,3.970889091491699,5.3216376304626465,6.780063152313232
1711550132667836400,0.79683642578125,3.6705899238586426,6.409175395965576,7.797012805938721
1711550132686794800,0.815794677734375,3.2853455543518066,7.6390862464904785,8.616554260253906
1711550132705753000,0.834753173828125,2.8283164501190186,8.35453987121582,9.623932838439941
1711550132724711200,0.853711181640625,2.7661030292510986,8.415556907653809,9.797411918640137
1711550132743669500,0.87266943359375,3.146561861038208,7.153343200683594,9.079565048217773
1711550132762627800,0.8916279296875,3.3750762939453125,6.799205780029297,8.4562349319458
1711550132781586000,0.9105859375,2.517249345779419,6.652047157287598,6.669992923736572
1711550132800544300,0.929544189453125,2.0961127281188965,6.452246189117432,6.574280261993408
1711550132819502600,0.948502685546875,2.4646072387695312,5.418546676635742,6.3529438972473145
1711550132838460700,0.967460693359375,2.5471596717834473,4.783252239227295,6.34217643737793
1711550132857419000,0.9864189453125,2.7529425621032715,4.965106964111328,7.022934436798096
1711550132876377300,1.00537744140625,3.0759735107421875,5.605186939239502,7.843672752380371
1711550132895335400,1.02433544921875,3.0831520557403564,4.867001056671143,7.850851058959961
1711550132914293800,1.043293701171875,1.812563180923462,7.286144733428955,7.7838521003723145
1711550132933251800,1.062251953125,0.4450650215148926,10.838290214538574,7.852047443389893
1711550132952210200,1.081210205078125,-0.2225325107574463,11.245070457458496,5.480760097503662
1711550132971168500,1.10016845703125,2.6153552532196045,5.855237007141113,8.642875671386719
1711550132990126800,1.119126953125,5.13021183013916,2.664407968521118,9.263813018798828
1711550133009085000,1.1380849609375,5.551348686218262,3.3164522647857666,8.475378036499023
1711550133028043300,1.157043212890625,4.983053207397461,4.895715236663818,6.916453838348389
1711550133047001600,1.176001708984375,3.678964853286743,5.02133846282959,5.4628143310546875
1711550133065959700,1.194959716796875,2.204986095428467,6.1950178146362305,4.480560302734375
1711550133084918000,1.21391796875,2.5292134284973145,6.0849480628967285,4.487739086151123
1711550133103876400,1.23287646484375,3.346362352371216,5.398207664489746,4.5391845703125
1711550133122834400,1.25183447265625,3.425325632095337,5.767899036407471,4.674378871917725
1711550133141792800,1.270792724609375,2.9359934329986572,5.850451469421387,4.027120590209961
1711550133160751000,1.289751220703125,2.7014968395233154,5.016552448272705,2.7912275791168213
1711550133179709400,1.30870947265625,2.840280532836914,4.435096740722656,2.4155545234680176
1711550133198667800,1.327667724609375,2.967100143432617,4.974678039550781,3.5222349166870117
1711550133217625900,1.3466259765625,2.853440999984741,5.635097503662109,5.150550842285156
1711550133236584200,1.365584228515625,2.644068956375122,10.334601402282715,8.506484031677246
1711550133255542500,1.38454248046875,1.786242127418518,12.363714218139648,6.439085960388184
1711550133274500900,1.4035009765625,0.27756741642951965,10.743773460388184,2.5567309856414795
1711550133293459000,1.422458984375,-0.10887342691421509,10.006784439086914,3.765106439590454
1711550133312417300,1.441417236328125,0.4091726839542389,8.9312105178833,5.265406131744385
1711550133331375600,1.460375732421875,-0.04307080805301666,9.584450721740723,4.919643402099609
1711550133350334000,1.479333984375,0.06939185410737991,9.830911636352539,4.384847640991211
1711550133369292000,1.4982919921875,-0.26081767678260803,9.999606132507324,4.573880672454834
1711550133388250400,1.51725048828125,-0.49172505736351013,10.113265037536621,5.702096462249756
1711550133407208700,1.536208740234375,-0.34217363595962524,9.745966911315918,6.606583118438721
1711550133426167000,1.5551669921875,-0.08015955984592438,9.952945709228516,7.258627414703369
1711550133445125400,1.57412548828125,0.4630111753940582,10.15035343170166,7.573283672332764
1711550133464083700,1.593083740234375,1.155733346939087,9.798608779907227,7.251449108123779
1711550133483041800,1.612041748046875,1.1988041400909424,9.084351539611816,6.486942291259766
1711550133502000000,1.631000244140625,0.8446664214134216,8.499305725097656,6.159125328063965
1711550133520958500,1.64995849609375,0.6508477330207825,8.416753768920898,6.601797580718994
1711550133539916800,1.668916748046875,0.3756731450557709,8.267202377319336,7.044469833374023
1711550133558875100,1.687875244140625,0.12801600992679596,7.684549808502197,7.062416076660156
1711550133577833500,1.70683349609375,0.21176479756832123,6.984649181365967,7.184450149536133
1711550133596791600,1.72579150390625,0.007178467698395252,6.4594244956970215,6.960721015930176
1711550133615750000,1.74475,-0.22612173855304718,6.228517532348633,6.876972198486328
1711550133634708200,1.763708251953125,-0.5383850932121277,5.6590256690979,6.869793891906738
1711550133653666600,1.78266650390625,-0.9702895879745483,5.377869129180908,7.136593341827393
1711550133672625000,1.801625,-1.100698471069336,5.453242778778076,7.832904815673828
1711550133691583200,1.820583251953125,-1.1126625537872314,5.54177713394165,8.319844245910645
1711550133710541300,1.839541259765625,-0.914058268070221,5.459224700927734,8.791230201721191
1711550133729499600,1.858499755859375,-0.6831508874893188,5.175675392150879,9.227920532226562
1711550133748458000,1.8774580078125,-0.7094719409942627,5.112265586853027,9.183652877807617
1711550133767416300,1.896416259765625,-0.8087740540504456,5.194818019866943,9.31166934967041
1711550133786374700,1.915374755859375,-0.9750752449035645,5.249852657318115,9.31047248840332
1711550133805333000,1.9343330078125,-1.1868400573730469,5.277370452880859,9.221938133239746
1711550133824291300,1.953291259765625,-1.5708880424499512,5.125426292419434,8.903693199157715
1711550133843249700,1.972249755859375,-2.063809633255005,5.1218366622924805,8.940781593322754
1711550133862208000,1.9912080078125,-2.1918256282806396,5.508277893066406,9.08674430847168
1711550133881166300,2.010166259765625,-2.4023938179016113,5.942574977874756,8.554341316223145
1711550133900124700,2.029124755859375,-2.5232315063476562,5.838487148284912,7.788637638092041
1711550133919083000,2.0480830078125,-2.3461625576019287,5.434100151062012,7.29810905456543
1711550133938041000,2.067041015625,-2.36291241645813,5.493920803070068,7.1509504318237305
1711550133956999400,2.08599951171875,-2.480160713195801,6.013163089752197,7.155735969543457
1711550133975957800,2.104957763671875,-2.6117658615112305,6.519245147705078,7.27537727355957
1711550133994916000,2.123916015625,-2.4849462509155273,7.216753005981445,7.396214962005615
1711550134013874400,2.14287451171875,-1.144965648651123,7.5912299156188965,7.69531774520874
1711550134032832800,2.161832763671875,0.4977070987224579,5.894718647003174,8.00638484954834
1711550134051791000,2.180791015625,-1.1162517070770264,4.624129772186279,8.056633949279785
1711550134070749400,2.19974951171875,-2.4430718421936035,4.400400638580322,7.536194801330566
1711550134089707800,2.218707763671875,-1.5146567821502686,4.597808837890625,7.438089370727539
1711550134108666000,2.237666015625,-5.190032482147217,6.282355785369873,8.014759063720703
1711550134127624400,2.25662451171875,-3.809373617172241,7.294519901275635,7.384250640869141
1711550134146582800,2.275582763671875,-2.0374884605407715,6.565905570983887,6.668796539306641
1711550134165541000,2.294541015625,-0.349352091550827,5.143372058868408,6.508477687835693
1711550134184499500,2.31349951171875,0.22013968229293823,5.570491313934326,7.6151580810546875
1711550134203457800,2.332457763671875,-0.06819544732570648,6.602993965148926,8.566305160522461
1711550134222416100,2.351416015625,-1.557727575302124,6.284748554229736,8.598608016967773
1711550134241374500,2.37037451171875,-2.504088878631592,5.429314613342285,7.779066562652588
1711550134260332800,2.389332763671875,-3.5820555686950684,4.628915309906006,6.698707103729248
1711550134279291100,2.408291015625,-4.016352653503418,4.974678039550781,6.669992923736572
1711550134298249500,2.42724951171875,-2.909672260284424,5.893522262573242,7.677371501922607
1711550134317207800,2.446207763671875,-1.5002998113632202,5.758327484130859,9.06999397277832
1711550134336166100,2.465166259765625,-1.0109676122665405,5.575276851654053,9.128618240356445
1711550134355124500,2.48412451171875,-1.6773686408996582,5.935396671295166,8.167900085449219
1711550134374082800,2.503082763671875,-2.245664119720459,6.534798622131348,7.18086051940918
1711550134393041200,2.522041259765625,-2.043470621109009,5.989234924316406,7.100701332092285
1711550134411999500,2.54099951171875,-2.1475582122802734,4.73300313949585,7.3399834632873535
1711550134430958000,2.5599580078125,-2.142772674560547,3.946960926055908,8.094919204711914
1711550134449916400,2.57891650390625,-2.038684844970703,4.094119548797607,8.47298526763916
1711550134468874800,2.597874755859375,-2.26959228515625,4.8777689933776855,8.549555778503418
1711550134487833000,2.6168330078125,-2.581855535507202,5.349154949188232,9.517452239990234
1711550134506791400,2.63579150390625,-2.80558443069458,5.303691387176514,9.805787086486816
1711550134525749800,2.654749755859375,-2.8929226398468018,4.615755081176758,9.789037704467773
1711550134544708000,2.6737080078125,-2.8139593601226807,4.060619831085205,9.432506561279297
1711550134563666400,2.69266650390625,-2.4155545234680176,4.2281174659729,8.890532493591309
1711550134582624800,2.711624755859375,-2.0482561588287354,4.541577339172363,8.271987915039062
1711550134601583000,2.7305830078125,-1.6977076530456543,4.514060020446777,8.075776100158691
1711550134620541400,2.74954150390625,-2.2995026111602783,4.4961137771606445,7.345965385437012
1711550134639499800,2.768499755859375,-2.3569302558898926,3.9984066486358643,6.788437843322754
1711550134658458000,2.7874580078125,-2.2719850540161133,3.387040376663208,6.796812534332275
1711550134677416400,2.80641650390625,-2.5363919734954834,3.0448668003082275,7.0025954246521
1711550134696374800,2.825374755859375,-2.293520450592041,2.847458839416504,7.069594383239746
1711550134715333000,2.8443330078125,-2.6464617252349854,3.0867412090301514,7.202396392822266
1711550134734291500,2.86329150390625,-3.0975089073181152,3.0185458660125732,7.8077802658081055
1711550134753250000,2.88225,-3.6598222255706787,2.4119651317596436,8.591429710388184
1711550134772208400,2.90120849609375,-4.206582069396973,2.654836654663086,9.598808288574219
1711550134791166700,2.920166748046875,-4.029513359069824,3.579662561416626,10.89571762084961
1711550134810125000,2.939125,-3.7495529651641846,3.462414264678955,11.48076343536377
1711550134829083400,2.95808349609375,-3.4480574131011963,2.757728099822998,11.11346435546875
1711550134848041700,2.977041748046875,-2.495713949203491,2.4741785526275635,10.445867538452148
1711550134867000000,2.996,-2.200200319290161,2.9718856811523438,10.04267692565918
1711550134885958400,3.01495849609375,-2.7314071655273438,3.500699520111084,9.237491607666016
1711550134904916700,3.033916748046875,-3.201596736907959,3.300898790359497,8.0350980758667
1711550134923875000,3.052875,-3.1800613403320312,2.462214469909668,7.295716285705566
1711550134942833400,3.07183349609375,-2.7732813358306885,1.9884356260299683,7.613961696624756
1711550134961792000,3.0907919921875,-2.1846470832824707,2.276770830154419,8.547162055969238
1711550134980750300,3.109750244140625,-1.8496519327163696,2.737389087677002,9.233902931213379
1711550134999708700,3.128708740234375,-1.6630117893218994,2.5674986839294434,9.29611587524414
1711550135018667000,3.1476669921875,-1.9956140518188477,2.5184457302093506,9.506684303283691
1711550135037625300,3.166625244140625,-2.149951219558716,2.8594231605529785,9.969695091247559
1711550135056583700,3.185583740234375,-1.9465612173080444,2.8773691654205322,9.81535816192627
1711550135075542300,3.204542236328125,-1.8197416067123413,2.671586513519287,9.294919967651367
1711550135094500600,3.22350048828125,-1.683350682258606,2.9479575157165527,9.323633193969727
1711550135113459000,3.242458984375,-1.2729816436767578,2.92283296585083,9.424132347106934
1711550135132417300,3.261417236328125,-1.3878371715545654,2.3641088008880615,8.981459617614746
1711550135151375600,3.280375732421875,-2.0374884605407715,2.313859462738037,8.50169849395752
1711550135170334000,3.299333984375,-3.073580741882324,3.1800613403320312,8.493324279785156
1711550135189292300,3.318292236328125,-3.562912940979004,3.7806596755981445,9.707681655883789
1711550135208250600,3.337250732421875,-3.2374889850616455,2.9599215984344482,10.514062881469727
1711550135227209000,3.356208984375,-2.3306093215942383,1.561316728591919,9.627521514892578
1711550135246167600,3.37516748046875,-1.5720844268798828,1.4608181715011597,9.52941608428955
1711550135265126000,3.3941259765625,-1.3112667798995972,2.1020946502685547,9.919445991516113
1711550135284084200,3.413084228515625,-1.3028919696807861,2.032702922821045,9.540184020996094
1711550135303042600,3.43204248046875,-1.8664016723632812,2.551945447921753,9.29731273651123
1711550135322001000,3.4510009765625,-1.8472590446472168,3.2709884643554688,9.7005033493042
1711550135340959200,3.469959228515625,-2.6045875549316406,3.6095728874206543,9.878767967224121
1711550135359917600,3.48891748046875,-2.60339093208313,3.3104701042175293,9.049654960632324
1711550135378876000,3.5078759765625,-2.276770830154419,2.9623143672943115,8.24566650390625
1711550135397834500,3.52683447265625,-3.1345977783203125,3.7950167655944824,8.065009117126465
1711550135416792800,3.545792724609375,-2.9862427711486816,5.807380676269531,8.950352668762207
1711550135435751200,3.564751220703125,-2.630908489227295,6.672386169433594,10.302297592163086
1711550135454709500,3.58370947265625,-2.662015199661255,5.944967746734619,9.9469633102417
1711550135473667800,3.602667724609375,-2.366501569747925,4.859822750091553,9.473184585571289
1711550135492626400,3.62162646484375,-1.537388563156128,3.889533281326294,9.20997428894043
1711550135511584800,3.640584716796875,-2.746960401535034,3.9397823810577393,9.29731273651123
1711550135530543000,3.659543212890625,-4.073780536651611,3.7974095344543457,8.025527000427246
1711550135549501400,3.67850146484375,-1.3615161180496216,1.672582983970642,6.592226505279541
1711550135568459800,3.697459716796875,-0.32183465361595154,-0.36729827523231506,6.890132904052734
1711550135587418000,3.716418212890625,0.4007977843284607,-0.36729827523231506,7.514659404754639
1711550135606376700,3.735376708984375,1.9525432586669922,1.5074782371520996,6.701099872589111
1711550135625335000,3.7543349609375,-0.8386843204498291,3.9984066486358643,5.870790481567383
1711550135644293400,3.77329345703125,-2.011167526245117,5.795416355133057,4.766502857208252
1711550135663251700,3.792251708984375,-2.063809633255005,5.574080467224121,4.353740692138672
1711550135682210000,3.8112099609375,-2.8139593601226807,5.560919761657715,3.7698919773101807
1711550135701168400,3.83016845703125,-2.7672994136810303,6.186643123626709,3.570091485977173
1711550135720126700,3.849126708984375,-2.376072883605957,7.8556365966796875,4.18145751953125
1711550135739085300,3.868085205078125,-2.043470621109009,10.162318229675293,4.485345840454102
1711550135758043600,3.887043701171875,-0.7381857633590698,10.807183265686035,6.775277137756348
1711550135777002000,3.906001953125,1.4919248819351196,9.857233047485352,10.204192161560059
1711550135795960300,3.924960205078125,3.5222349166870117,8.890532493591309,11.745169639587402
1711550135814919000,3.9439189453125,2.9276185035705566,8.906085968017578,13.043275833129883
1711550135833877200,3.962877197265625,2.014756679534912,9.722038269042969,13.878371238708496
1711550135852835600,3.981835693359375,1.368694543838501,7.867600917816162,12.953545570373535
1711550135871794000,4.0007939453125,0.7166503667831421,6.345765590667725,11.3180513381958
1711550135890752300,4.019752197265625,0.21415762603282928,6.474977970123291,9.44447135925293
1711550135909710600,4.038710693359375,-0.6484549641609192,7.8041911125183105,8.47298526763916
1711550135928669200,4.057669189453125,-0.8805587291717529,8.868997573852539,7.4225358963012695
1711550135947627500,4.07662744140625,0.3314059376716614,8.96231746673584,5.30129861831665
1711550135966585900,4.0955859375,3.1106693744659424,7.70249605178833,3.3822548389434814
1711550135985544200,4.114544189453125,5.542973518371582,7.311269760131836,3.4672000408172607
1711550136004502800,4.133502685546875,6.597012042999268,8.291130065917969,4.626522541046143
1711550136023461000,4.152461181640625,6.141179084777832,8.935996055603027,4.715056896209717
1711550136042419500,4.17141943359375,4.991427898406982,8.973084449768066,4.159922122955322
1711550136061377800,4.190377685546875,3.056830883026123,7.081558704376221,3.82373046875
1711550136080336100,4.209336181640625,2.9970104694366455,5.907878875732422,4.11206579208374
1711550136099294500,4.22829443359375,3.507878065109253,5.38624382019043,4.633700847625732
1711550136118253000,4.247253173828125,3.3918261528015137,4.969892501831055,5.115854740142822
1711550136137211400,4.26621142578125,2.981456995010376,4.803591251373291,6.1088762283325195
1711550136156169700,4.285169677734375,3.7184464931488037,5.532206058502197,6.422336101531982
1711550136175128000,4.304128173828125,4.155136585235596,5.575276851654053,5.504688262939453
1711550136194086400,4.32308642578125,4.809573650360107,5.32403039932251,4.210171222686768
1711550136213044700,4.342044677734375,5.076373100280762,5.661418437957764,3.2590243816375732
1711550136232003300,4.36100341796875,3.184846878051758,5.468796253204346,1.4177473783493042
1711550136250961700,4.379961669921875,1.8628123998641968,6.199803352355957,-0.26560330390930176
1711550136269920000,4.398919921875,1.2801600694656372,8.524430274963379,-1.5230315923690796
1711550136288878600,4.417878662109375,1.439282774925232,9.720842361450195,-0.9667003750801086
1711550136307837000,4.4368369140625,3.3439695835113525,9.105886459350586,3.2961132526397705
1711550136326795300,4.455795166015625,8.305487632751465,10.043872833251953,8.918049812316895
1711550136345753600,4.474753662109375,12.448659896850586,10.753344535827637,11.131410598754883
1711550136364712000,4.4937119140625,14.642878532409668,9.803394317626953,7.980063438415527
1711550136383670300,4.512670166015625,13.724034309387207,9.996016502380371,5.162514686584473
1711550136402628900,4.53162890625,9.869196891784668,10.823933601379395,2.585444927215576
1711550136421587200,4.550587158203125,5.2630133628845215,10.584650993347168,-1.144965648651123
1711550136440545500,4.569545654296875,2.159522533416748,9.621540069580078,-3.3164522647857666
1711550136459504000,4.588504150390625,1.7934205532073975,8.547162055969238,-2.2923240661621094
1711550136478462500,4.60746240234375,3.297309637069702,6.978667259216309,0.43908295035362244
1711550136497420800,4.6264208984375,5.563312530517578,5.4173502922058105,4.632504463195801
1711550136516379100,4.645379150390625,6.599404811859131,5.406582832336426,8.542376518249512
1711550136535337500,4.66433740234375,6.467799663543701,5.362315654754639,8.172685623168945
1711550136554295800,4.6832958984375,5.209175109863281,3.8835511207580566,5.485546112060547
1711550136573254400,4.70225439453125,3.9768712520599365,2.6356940269470215,3.559323787689209
1711550136592212700,4.721212646484375,4.957928657531738,2.671586513519287,2.4191436767578125
1711550136611171000,4.740171142578125,4.591826438903809,3.2350962162017822,1.9202401638031006
1711550136630129700,4.759129638671875,2.0338993072509766,3.3475589752197266,0
1711550136649088000,4.778087890625,1.0408778190612793,3.576073408126831,-3.1692936420440674
1711550136668046300,4.79704638671875,2.7254250049591064,4.820341110229492,-4.563112735748291
1711550136687004700,4.816004638671875,4.9986066818237305,7.037291526794434,-3.9421753883361816
1711550136705963000,4.834962890625,7.459624767303467,10.321440696716309,-1.6426727771759033
1711550136724921600,4.853921630859375,8.841479301452637,12.534801483154297,1.3363914489746094
1711550136743880000,4.8728798828125,10.76411247253418,11.639885902404785,4.981856822967529
1711550136762838300,4.89183837890625,11.236695289611816,8.200202941894531,6.350551128387451
1711550136781796600,4.910796630859375,9.123832702636719,6.646064758300781,5.6446685791015625
1711550136800755000,4.9297548828125,6.650850772857666,7.854440212249756,4.00319242477417
1711550136819713500,4.948713623046875,5.91505765914917,7.643871784210205,2.286342144012451
1711550136838672000,4.967671875,6.4510498046875,6.0777692794799805,0.9858429431915283
1711550136857630200,4.986630126953125,6.775277137756348,6.289534091949463,0.6472585201263428
1711550136876588500,5.005588623046875,6.387639999389648,8.49452018737793,0.9152546525001526
1711550136895547100,5.024547119140625,5.637490272521973,9.42891788482666,1.2143574953079224
1711550136914505500,5.04350537109375,5.740381717681885,8.285148620605469,1.0253244638442993
1711550136933463800,5.0624638671875,5.880361557006836,6.952346324920654,0.7286145091056824
1711550136952422100,5.081422119140625,5.736792087554932,6.351747512817383,0.8877372145652771
1711550136971380500,5.10038037109375,5.828916072845459,6.174678802490234,1.6462619304656982
1711550136990339000,5.119339111328125,6.221338748931885,6.534798622131348,2.6572296619415283
1711550137009297400,5.13829736328125,6.988238334655762,6.7417778968811035,3.656233072280884
1711550137028255700,5.157255859375,7.800601959228516,6.7657060623168945,4.645665168762207
1711550137047214300,5.17621435546875,7.5050883293151855,6.770491600036621,5.234299659729004
1711550137066172700,5.195172607421875,6.747759819030762,7.044469833374023,5.258227825164795
1711550137085131000,5.214131103515625,5.160121917724609,6.679564476013184,3.893122434616089
1711550137104089300,5.23308935546875,3.050848960876465,6.680760860443115,1.423729419708252
1711550137123047700,5.252047607421875,2.7146573066711426,7.240681171417236,-0.3900300860404968
1711550137142006300,5.27100634765625,4.164707660675049,7.4979095458984375,-0.4785645306110382
1711550137160964600,5.289964599609375,5.672185897827148,6.818347930908203,0.4989035129547119
1711550137179923000,5.3089228515625,6.757331371307373,7.58644437789917,2.3162522315979004
1711550137198881500,5.327881591796875,7.768298625946045,8.768498420715332,4.080958843231201
1711550137217839900,5.34683984375,8.007580757141113,8.565108299255371,4.71744966506958
1711550137236798200,5.365798095703125,7.523034572601318,7.727620601654053,4.1491546630859375
1711550137255756500,5.384756591796875,6.5766730308532715,7.2335028648376465,3.5365917682647705
1711550137274715000,5.40371484375,5.9198431968688965,7.149754047393799,3.4193434715270996
1711550137293673500,5.422673583984375,5.581258773803711,7.335197925567627,3.748356580734253
1711550137312631800,5.4416318359375,5.525027275085449,7.46201753616333,4.342973232269287
1711550137331590100,5.460590087890625,5.62672233581543,7.232306480407715,4.628915309906006
1711550137350548700,5.479548828125,5.485546112060547,7.0169525146484375,4.429114818572998
1711550137369506800,5.4985068359375,5.344369411468506,6.672386169433594,3.9828531742095947
1711550137388465400,5.51746533203125,5.400600910186768,6.483353137969971,3.6526436805725098
1711550137407423700,5.536423828125,5.247459888458252,6.655636310577393,3.129812002182007
1711550137426382000,5.555382080078125,5.138586521148682,7.050451755523682,2.700300455093384
1711550137445340700,5.574340576171875,5.574080467224121,7.081558704376221,2.6285157203674316
1711550137464299000,5.593299072265625,5.8923258781433105,7.219145774841309,2.9491539001464844
1711550137483257300,5.61225732421875,5.92223596572876,7.636693477630615,3.2721848487854004
1711550137502215700,5.631215576171875,5.682953834533691,7.968099594116211,3.078366279602051
1711550137521174000,5.650174072265625,5.584847927093506,8.141578674316406,2.4741785526275635
1711550137540132600,5.669132568359375,5.702096462249756,8.12123966217041,1.8592232465744019
1711550137559091000,5.688091064453125,5.56450891494751,7.843672752380371,1.2167502641677856
1711550137578049300,5.70704931640625,5.041677474975586,7.920242786407471,0.8662018179893494
1711550137597008000,5.7260078125,4.377668857574463,8.149953842163086,0.760917603969574
1711550137615966200,5.74496630859375,3.9972102642059326,8.283951759338379,1.0911271572113037
1711550137634924500,5.763924560546875,4.033102512359619,8.335397720336914,1.8340985774993896
1711550137653883000,5.7828828125,4.388436794281006,8.505288124084473,2.421536445617676
1711550137672841500,5.801841552734375,4.454239368438721,8.602197647094727,2.7314071655273438
1711550137691799800,5.8207998046875,4.097708702087402,9.016156196594238,3.1992039680480957
1711550137710758100,5.839758056640625,3.4719855785369873,9.32004451751709,3.55214524269104
1711550137729716700,5.858716796875,3.3415768146514893,9.157332420349121,3.52103853225708
1711550137748675000,5.877675048828125,3.238685369491577,8.791230201721191,3.4959139823913574
1711550137767633400,5.89663330078125,2.431107759475708,8.35573673248291,4.046263217926025
1711550137786591700,5.915591796875,1.7312071323394775,8.018348693847656,5.368297576904297
1711550137805550300,5.93455029296875,1.6426727771759033,8.206185340881348,6.362515449523926
1711550137824508700,5.9535087890625,1.5649060010910034,8.228917121887207,6.782455921173096
1711550137843467000,5.972467041015625,1.5182459354400635,7.770691394805908,6.744170665740967
1711550137862425600,5.991425537109375,1.3674981594085693,7.423732280731201,6.4426751136779785
1711550137881384000,6.010384033203125,0.9511470198631287,7.561319351196289,6.033502101898193
1711550137900342300,6.02934228515625,0.3696911036968231,7.785048484802246,5.588437080383301
1711550137919300600,6.048300537109375,0.20937198400497437,8.02193832397461,5.4041900634765625
1711550137938259200,6.06725927734375,0.18305093050003052,7.818548202514648,5.406582832336426
1711550137957217500,6.086217529296875,-0.16151553392410278,7.691728591918945,5.134997367858887
1711550137976175900,6.10517578125,-0.45104706287384033,7.908278942108154,5.217549800872803
1711550137995134500,6.124134521484375,0.059820566326379776,8.147561073303223,5.818148136138916
1711550138014092800,6.1430927734375,0.3326023519039154,8.123632431030273,6.449853420257568
1711550138033051100,6.162051025390625,0.34695929288864136,8.075776100158691,7.36032247543335
1711550138052009500,6.181009521484375,0.589830756187439,7.9585280418396,8.280363082885742
1711550138070968000,6.199968017578125,0.6329016089439392,7.936992645263672,7.886743545532227
1711550138089926400,6.218926513671875,0.2632105052471161,7.767102241516113,7.106683254241943
1711550138108884700,6.237884765625,-0.2763710021972656,7.765905857086182,6.6113691329956055
1711550138127843300,6.25684326171875,-0.6484549641609192,8.00518798828125,6.5874409675598145
1711550138146801700,6.2758017578125,-0.7549355626106262,8.561519622802734,6.265605926513672
1711550138165760000,6.294760009765625,-0.576670229434967,8.617751121520996,5.7547383308410645
1711550138184718600,6.313718505859375,-0.8195417523384094,7.496713161468506,5.985645771026611
1711550138203677000,6.332677001953125,-1.022931694984436,6.831508636474609,6.939185619354248
1711550138222635300,6.35163525390625,-0.9607182741165161,6.949953556060791,7.670193195343018
1711550138241593900,6.37059375,-0.6640082597732544,6.782455921173096,7.131807804107666
1711550138260552200,6.38955224609375,-1.5433706045150757,6.302694797515869,6.3254265785217285
1711550138279510800,6.4085107421875,-2.583052158355713,6.290730953216553,6.715456962585449
1711550138298469000,6.42746923828125,-3.136990547180176,6.768098831176758,7.5433735847473145
1711550138317427500,6.446427490234375,-3.4121651649475098,6.514459609985352,7.830512046813965
1711550138336385800,6.4653857421875,-3.0281169414520264,5.777470111846924,8.181060791015625
1711550138355344400,6.484344482421875,-2.2983062267303467,5.051248550415039,8.301898002624512
1711550138374302700,6.503302734375,-1.7455641031265259,4.529613494873047,8.149953842163086
1711550138393261300,6.52226123046875,-1.6366907358169556,4.101297855377197,7.448856830596924
1711550138412219600,6.5412197265625,-2.2636101245880127,4.420739650726318,6.941578388214111
1711550138431178000,6.560177978515625,-2.2995026111602783,5.318048477172852,6.7657060623168945
1711550138450136600,6.579136474609375,-2.451446771621704,6.015556335449219,6.5252275466918945
1711550138469095000,6.598094970703125,-3.1513473987579346,6.284748554229736,6.613761901855469
1711550138488053500,6.617053466796875,-3.4157543182373047,6.16271448135376,7.022934436798096
1711550138507011800,6.63601171875,-3.0544381141662598,5.687739372253418,7.747959613800049
1711550138525970200,6.65497021484375,-2.50289249420166,4.989035129547119,8.9910306930542
1711550138544928800,6.6739287109375,-1.8065811395645142,4.5822553634643555,10.15753173828125
1711550138563887000,6.69288720703125,-0.9320043921470642,4.394418716430664,11.532208442687988
1711550138582845700,6.711845703125,-0.32303106784820557,4.9399824142456055,11.300105094909668
1711550138601804000,6.730803955078125,-1.184447169303894,5.690132141113281,9.352347373962402
1711550138620762600,6.7497626953125,-2.3509483337402344,5.907878875732422,8.295916557312012
1711550138639721000,6.768720947265625,-4.107280254364014,5.684150218963623,7.142575740814209
1711550138658679600,6.787679443359375,-5.42572546005249,5.072783946990967,5.74397087097168
1711550138677638000,6.806637939453125,-5.14576530456543,4.545166492462158,5.641079425811768
1711550138696596200,6.82559619140625,-4.468596458435059,4.7605204582214355,6.839883327484131
1711550138715554800,6.844554931640625,-3.4480574131011963,5.150550842285156,8.46580696105957
1711550138734513400,6.863513427734375,-2.118844509124756,5.115854740142822,9.66221809387207
1711550138753471700,6.8824716796875,-1.3663017749786377,4.711467742919922,9.976874351501465
1711550138772430000,6.90143017578125,-0.9702895879745483,4.470989227294922,10.070194244384766
1711550138791388700,6.920388671875,-1.0564311742782593,4.652843475341797,10.082158088684082
1711550138810347000,6.939346923828125,-1.5122638940811157,4.744967460632324,9.912267684936523
1711550138829305600,6.9583056640625,-1.7216359376907349,5.169693470001221,9.424132347106934
1711550138848264000,6.977263916015625,-1.730010747909546,5.136193752288818,8.47896671295166
1711550138867222500,6.996222412109375,-2.407179594039917,5.2043890953063965,7.927421569824219
1711550138886180900,7.015180908203125,-2.4765713214874268,4.971088886260986,7.09711217880249
1711550138905139500,7.034139404296875,-2.344966173171997,4.2795634269714355,6.399604320526123
1711550138924097800,7.053097900390625,-2.6979074478149414,3.9912281036376953,6.400800704956055
1711550138943056400,7.072056396484375,-2.2504496574401855,4.593023300170898,6.705885410308838
1711550138962015000,7.091014892578125,-1.4871392250061035,4.595416069030762,6.857829570770264
1711550138980973300,7.109973388671875,-1.6139588356018066,3.7256247997283936,7.16650390625
1711550138999931600,7.128931640625,-2.39401912689209,3.142972469329834,7.491927623748779
1711550139018890200,7.14789013671875,-3.049652576446533,2.6297121047973633,6.975078105926514
1711550139037848800,7.166848876953125,-3.6167514324188232,2.5986053943634033,7.221538543701172
1711550139056807200,7.18580712890625,-3.840480327606201,3.1453654766082764,8.401200294494629
1711550139075765800,7.204765869140625,-3.3056845664978027,4.122833251953125,9.230313301086426
1711550139094724000,7.22372412109375,-3.7782669067382812,4.143172264099121,9.30449104309082
1711550139113682700,7.2426826171875,-4.541577339172363,2.383251428604126,9.352347373962402
1711550139132641000,7.26164111328125,-3.8703906536102295,1.755135416984558,9.716055870056152
1711550139151599600,7.280599609375,-2.912065267562866,2.2504496574401855,9.826126098632812
1711550139170558200,7.29955810546875,-2.638087034225464,3.2937204837799072,10.054640769958496
1711550139189516500,7.3185166015625,-2.726621389389038,3.94815731048584,9.967302322387695
1711550139208475100,7.33747509765625,-3.025724172592163,3.762713670730591,9.21117115020752
1711550139227433500,7.35643359375,-3.665804386138916,2.8965117931365967,8.50289535522461
1711550139246392000,7.37539208984375,-4.358526229858398,2.3784656524658203,8.592626571655273
1711550139265350400,7.394350341796875,-4.5308098793029785,2.968296527862549,8.336593627929688
1711550139284309000,7.41330908203125,-4.176671981811523,3.6945180892944336,8.10688304901123
1711550139303267600,7.432267578125,-3.7435710430145264,3.649054527282715,8.585447311401367
1711550139322226000,7.451225830078125,-3.0723843574523926,3.249453067779541,9.410971641540527
1711550139341184500,7.4701845703125,-2.5076780319213867,3.1860432624816895,10.204192161560059
1711550139360143000,7.48914306640625,-2.200200319290161,3.212364435195923,11.056036949157715
1711550139379101400,7.508101318359375,-2.8630123138427734,3.6370904445648193,11.539386749267578
1711550139398060000,7.52706005859375,-3.4923245906829834,3.85483717918396,10.944770812988281
1711550139417018600,7.5460185546875,-3.080759048461914,3.671786308288574,10.490134239196777
1711550139435977000,7.56497705078125,-2.4011974334716797,3.570091485977173,10.007980346679688
1711550139454935600,7.583935546875,-2.200200319290161,3.844069480895996,9.418149948120117
1711550139473894000,7.602893798828125,-2.33180570602417,3.6610186100006104,9.21715259552002
1711550139492852500,7.6218525390625,-2.366501569747925,3.170490026473999,9.274580955505371
1711550139511811000,7.64081103515625,-2.0063817501068115,3.1932218074798584,9.33440113067627
1711550139530769400,7.659769287109375,-2.355733871459961,3.2027931213378906,9.215956687927246
1711550139549728000,7.67872802734375,-2.586641311645508,3.2626137733459473,8.951549530029297
1711550139568686600,7.6976865234375,-2.2612173557281494,3.321237802505493,9.359525680541992
1711550139587645000,7.71664501953125,-2.190629243850708,3.4061830043792725,9.708877563476562
1711550139606603500,7.735603515625,-1.9932212829589844,3.830909013748169,7.920242786407471
1711550139625562000,7.75456201171875,-1.7934205532073975,3.442075490951538,5.886343479156494
1711550139644520700,7.773520751953125,-1.9310078620910645,2.6117658615112305,4.999803066253662
1711550139663479000,7.79247900390625,-1.683350682258606,1.7048860788345337,4.4614176750183105
1711550139682437600,7.811437744140625,-2.108076810836792,1.5146567821502686,6.467799663543701
1711550139701396200,7.830396240234375,-2.2157537937164307,1.9800606966018677,8.681160926818848
1711550139720354600,7.8493544921875,-1.8221344947814941,2.5663022994995117,9.127422332763672
1711550139739313200,7.868313232421875,-0.486939400434494,2.4765713214874268,8.970691680908203
1711550139758271700,7.887271728515625,-1.690529227256775,1.3866406679153442,9.920642852783203
1711550139777230000,7.90622998046875,-5.168497085571289,-0.3840480446815491,10.778470039367676
1711550139796188700,7.925188720703125,-6.667600154876709,-1.5541383028030396,11.026126861572266
1711550139815147300,7.944147216796875,-6.675975322723389,-1.592423439025879,11.316854476928711
1711550139834105900,7.96310595703125,-5.544169902801514,0.1663011759519577,10.183853149414062
1711550139853064200,7.982064208984375,-4.438685894012451,2.878565549850464,7.850851058959961
1711550139872022800,8.001022705078125,-4.016352653503418,3.1968109607696533,7.417750358581543
1711550139890981400,8.0199814453125,-3.726821184158325,0.9320043921470642,7.133004188537598
1711550139909940000,8.03893994140625,-3.219542980194092,-0.10049854964017868,6.270391941070557
1711550139928898300,8.057898193359375,-1.9669002294540405,0.7740781307220459,5.563312530517578
1711550139947857000,8.07685693359375,-0.9810572862625122,1.94297194480896,5.167300701141357
1711550139966815500,8.0958154296875,-0.7250252366065979,2.2612173557281494,5.051248550415039
1711550139985774000,8.114774169921875,-1.2610175609588623,1.5517455339431763,5.551348686218262
1711550140004732400,8.133732421875,-2.4287149906158447,0.1902294009923935,6.295516490936279
1711550140023691000,8.15269091796875,-2.6488547325134277,-1.0528420209884644,6.151947021484375
1711550140042649600,8.171649658203124,-2.612962245941162,-0.5000999569892883,6.351747512817383
1711550140061608200,8.190608154296875,-2.368894338607788,1.7539390325546265,7.369893550872803
1711550140080566500,8.20956640625,-0.98703932762146,2.5471596717834473,8.031509399414062
1711550140099525000,8.228525146484374,-0.5551348328590393,1.3124631643295288,8.317451477050781
1711550140118483700,8.247483642578125,-1.32921302318573,1.672582983970642,10.02712345123291
1711550140137442300,8.2664423828125,0.04785645380616188,2.5351955890655518,11.584851264953613
1711550140156401000,8.28540087890625,1.4656038284301758,2.0757737159729004,11.915060043334961
1711550140175359200,8.304359130859375,1.207179069519043,1.0911271572113037,13.133007049560547
1711550140194317800,8.32331787109375,1.3854442834854126,1.1892328262329102,14.874981880187988
1711550140213276400,8.3422763671875,2.520838737487793,1.534995675086975,14.312668800354004
1711550140232235000,8.361235107421875,2.6811578273773193,1.6654045581817627,12.399606704711914
1711550140251193600,8.380193603515625,1.0504491329193115,2.6871397495269775,11.34078311920166
1711550140270152000,8.39915185546875,1.2478569746017456,0.9056833982467651,11.82891845703125
1711550140289110500,8.418110595703125,3.6155550479888916,-1.643869161605835,12.32542896270752
1711550140308069000,8.437069091796875,1.9836499691009521,-1.306481122970581,13.01216983795166
1711550140327027700,8.45602783203125,-0.7022934556007385,1.1365907192230225,11.846864700317383
1711550140345986300,8.474986328125,-0.6592226624488831,1.557727575302124,10.080962181091309
1711550140364945000,8.49394482421875,0.062213387340307236,-0.9260223507881165,10.016355514526367
1711550140383903500,8.512903564453126,0.6640082597732544,-2.9204399585723877,9.10110092163086
1711550140402861800,8.53186181640625,0.6340979933738708,-1.8556339740753174,9.001798629760742
1711550140421820400,8.5508203125,-0.5060819983482361,0.5240281820297241,9.768698692321777
1711550140440779000,8.569779052734376,-1.2346965074539185,1.23589289188385,10.00439167022705
1711550140459737600,8.588737548828124,0.007178467698395252,0.5000999569892883,9.705288887023926
1711550140478696200,8.6076962890625,0.5742774605751038,0.32542386651039124,9.878767967224121
1711550140497654500,8.626654541015625,0.8769695162773132,0.6352944374084473,10.642078399658203
1711550140516613000,8.645613037109374,0.48574298620224,0.41515472531318665,10.979466438293457
1711550140535571700,8.66457177734375,0.6855437159538269,1.2095718383789062,12.591032981872559
1711550140554530300,8.6835302734375,1.2729816436767578,4.981856822967529,13.649856567382812
1711550140573489000,8.702489013671874,1.4452649354934692,6.2668023109436035,14.979069709777832
1711550140592447500,8.721447509765625,2.561516523361206,4.286741733551025,13.325629234313965
1711550140611406000,8.740406005859375,2.8809585571289062,3.869194269180298,11.583654403686523
1711550140630364700,8.75936474609375,2.0542383193969727,5.1182475090026855,11.193624496459961
1711550140649323000,8.778322998046875,1.5900306701660156,5.742774486541748,11.167303085327148
1711550140668281600,8.797281494140625,0.8506484627723694,6.100501537322998,10.533205032348633
1711550140687240200,8.816240234375,0.3852444589138031,6.114858150482178,10.326226234436035
1711550140706198800,8.83519873046875,0.5419743061065674,5.280959606170654,9.7005033493042
1711550140725157400,8.854157470703125,-0.2153540402650833,4.947160720825195,9.060422897338867
1711550140744116000,8.873115966796876,-1.3722838163375854,5.402993679046631,8.799605369567871
1711550140763074600,8.892074462890625,-1.2239288091659546,4.90408992767334,9.390632629394531
1711550140782033000,8.911032958984375,-0.19740787148475647,4.281956195831299,8.959924697875977
1711550140800991500,8.929991455078126,0.397208571434021,3.294916868209839,8.067401885986328
1711550140819950000,8.9489501953125,0.064606212079525,3.0687949657440186,7.160521984100342
1711550140838908700,8.96790869140625,-0.592223584651947,4.624129772186279,7.590033531188965
1711550140857867300,8.9868671875,-0.2787638306617737,6.9104719161987305,9.011369705200195
1711550140876825900,9.005825927734374,-0.0323031060397625,6.619743824005127,10.179067611694336
1711550140895784400,9.024784423828125,1.5014961957931519,6.087340831756592,9.396614074707031
1711550140914742800,9.04374267578125,1.2191431522369385,5.79063081741333,7.828119277954102
1711550140933701400,9.062701416015624,0.4163511395454407,6.165107727050781,6.951149940490723
1711550140952660000,9.081659912109375,0.8027920126914978,5.931807518005371,7.746763229370117
1711550140971618600,9.10061865234375,1.568495273590088,5.119443893432617,7.911868095397949
1711550140990577200,9.1195771484375,2.572284460067749,6.069394588470459,7.362715244293213
1711550141009535700,9.13853564453125,1.657029628753662,6.083751678466797,6.394818305969238
1711550141028494300,9.157494384765625,1.368694543838501,5.769095420837402,6.259624004364014
1711550141047453000,9.176452880859374,0.8051848411560059,4.997410297393799,4.577469825744629
1711550141066411500,9.19541162109375,0.9379864931106567,5.089533805847168,5.517848968505859
1711550141085369900,9.214369873046875,0.9284151792526245,5.285745143890381,4.880161762237549
1711550141104328400,9.233328369140626,1.0552347898483276,5.388636589050293,5.309673309326172
1711550141123287000,9.252287109375,1.200000524520874,5.402993679046631,4.677968502044678
1711550141142245600,9.27124560546875,0.6041877269744873,5.624329566955566,4.628915309906006
1711550141161204200,9.290204345703126,1.0683952569961548,6.3840508460998535,5.117051124572754
1711550141180162800,9.309162841796875,1.521835207939148,6.626922130584717,5.190032482147217
1711550141199121400,9.328121337890625,1.4644074440002441,7.025327205657959,5.000999450683594
1711550141218079700,9.347079833984376,1.856830358505249,6.892525672912598,5.279763221740723
1711550141237038300,9.366038330078124,2.1332013607025146,6.893722057342529,5.1050872802734375
1711550141255997000,9.384996826171875,1.7934205532073975,7.482356548309326,4.758127689361572
1711550141274955500,9.40395556640625,1.6295121908187866,7.950153350830078,4.88853645324707
1711550141293914000,9.4229140625,1.4991034269332886,7.963313579559326,5.020142078399658
1711550141312872700,9.441872802734375,1.34476637840271,7.441678524017334,4.934000492095947
1711550141331831300,9.460831298828126,0.9547362327575684,7.201199531555176,4.734199523925781
1711550141350790000,9.479789794921874,0.8841479420661926,7.529016494750977,5.167300701141357
1711550141369748500,9.49874853515625,1.1940184831619263,6.91765022277832,5.545366287231445
1711550141388706800,9.517706787109375,1.3435698747634888,5.9198431968688965,5.188836097717285
1711550141407665400,9.53666552734375,0.6999006271362305,5.651846885681152,5.103890895843506
1711550141426624000,9.5556240234375,1.2083754539489746,7.459624767303467,6.826723098754883
1711550141445582600,9.57458251953125,1.8472590446472168,9.019744873046875,8.157132148742676
1711550141464541200,9.593541259765624,2.7553353309631348,7.432106971740723,7.5673017501831055
1711550141483499800,9.612499755859375,2.5914268493652344,8.01356315612793,7.372286796569824
1711550141502458400,9.631458251953125,1.9310078620910645,9.098708152770996,7.60080099105835
1711550141521417000,9.6504169921875,2.4885356426239014,9.291330337524414,7.707281589508057
1711550141540375300,9.669375244140625,2.6668007373809814,9.555737495422363,8.322237014770508
1711550141559334000,9.688333984375,2.3150558471679688,8.446663856506348,8.175078392028809
1711550141578292500,9.70729248046875,1.3926228284835815,7.843672752380371,7.597211837768555
1711550141597251000,9.7262509765625,1.215553879737854,8.127222061157227,7.95134973526001
1711550141616209700,9.745209716796875,0.18903298676013947,8.287541389465332,7.183253765106201
1711550141635168300,9.764168212890626,-0.36729827523231506,8.023134231567383,6.117250919342041
1711550141654126800,9.783126953125,-0.7585247755050659,7.214360237121582,5.48793888092041
1711550141673085200,9.802085205078125,-0.4426721930503845,6.510870456695557,5.376672267913818
1711550141692043800,9.821043701171876,0.0849452018737793,5.799005508422852,5.332405090332031
1711550141711002400,9.84000244140625,0.9475577473640442,5.290530681610107,5.8923258781433105
1711550141729961000,9.8589609375,1.6845471858978271,5.4951171875,6.3014984130859375
1711550141748919600,9.87791943359375,2.5950162410736084,5.367101192474365,7.048058986663818
1711550141767878100,9.896878173828124,2.4981069564819336,6.090929985046387,7.765905857086182
1711550141786836700,9.915836669921875,2.579462766647339,6.447460651397705,7.479963779449463
1711550141805795000,9.934795166015626,2.781656265258789,6.267998695373535,7.401000499725342
1711550141824753700,9.953753662109374,2.882154941558838,6.479763507843018,7.917850017547607
1711550141843712300,9.972712158203125,3.0723843574523926,6.392425537109375,8.080561637878418
1711550141862670800,9.9916708984375,2.7565317153930664,6.932007312774658,8.483752250671387
1711550141881629400,10.01062939453125,2.1092731952667236,7.737192153930664,8.103293418884277
1711550141900587800,10.029587890625,1.124626636505127,7.676175117492676,6.610172748565674
1711550141919546600,10.048546630859375,0.5623133182525635,7.8317084312438965,5.962913990020752
1711550141938505000,10.0675048828125,0.7070791125297546,7.795815944671631,6.486942291259766
1711550141957463600,10.086463623046875,0.727418065071106,7.056434154510498,6.471388816833496
1711550141976422100,10.105422119140625,0.5335994362831116,6.4510498046875,6.939185619354248
1711550141995380700,10.124380615234376,1.26699960231781,5.4795637130737305,7.423732280731201
1711550142014339300,10.14333935546875,1.6163517236709595,5.472385406494141,7.777870178222656
1711550142033297700,10.162297607421875,1.2717852592468262,6.448657035827637,7.592426300048828
1711550142052256300,10.18125634765625,1.6390835046768188,6.0849480628967285,7.2681989669799805
1711550142071214800,10.20021484375,1.9405791759490967,5.577669620513916,7.798209190368652
1711550142090173400,10.21917333984375,2.586641311645508,5.434100151062012,7.196413993835449
1711550142109132000,10.238132080078126,3.0592236518859863,6.302694797515869,7.032505512237549
1711550142128090600,10.257090576171874,3.1968109607696533,6.939185619354248,8.740981101989746
1711550142147049200,10.27604931640625,2.638087034225464,6.0466628074646,8.6907320022583
1711550142166007600,10.295007568359376,2.035095691680908,5.259424209594727,7.671389579772949
1711550142184966100,10.313966064453124,1.6474584341049194,4.792823791503906,7.438089370727539
1711550142203924700,10.3329248046875,2.2755744457244873,4.843072891235352,8.1224365234375
1711550142222883300,10.35188330078125,2.4670002460479736,5.753541946411133,7.542177200317383
1711550142241842000,10.370842041015624,2.012363910675049,6.555137634277344,6.75374174118042
1711550142260800300,10.38980029296875,2.1954147815704346,6.169893264770508,6.867401123046875
1711550142279759000,10.408759033203125,2.3856441974639893,5.542973518371582,8.171489715576172
1711550142298717700,10.4277177734375,2.720639228820801,5.26899528503418,8.474181175231934
1711550142317676000,10.446676025390625,2.9491539001464844,5.796612739562988,7.944170951843262
1711550142336634600,10.465634521484375,2.6153552532196045,6.110072612762451,7.625925540924072
1711550142355593200,10.48459326171875,2.2815563678741455,6.51326322555542,7.17368221282959
1711550142374551800,10.5035517578125,2.630908489227295,6.185446739196777,7.919046401977539
1711550142393510400,10.522510498046875,2.1583259105682373,5.960521221160889,8.324629783630371
1711550142412468700,10.54146875,2.691925525665283,5.540580749511719,7.421339511871338
1711550142431427300,10.56042724609375,2.513660192489624,6.123233318328857,7.688138961791992
1711550142450386000,10.579385986328125,2.2815563678741455,6.449853420257568,7.974081516265869
1711550142469344500,10.598344482421876,2.390429735183716,6.000002861022949,7.603193759918213
1711550142488303000,10.61730322265625,2.537588357925415,5.613562107086182,7.661818027496338
1711550142507261700,10.63626171875,2.5076780319213867,6.051448345184326,8.388039588928223
1711550142526220300,10.65522021484375,2.3306093215942383,6.849454879760742,8.796015739440918
1711550142545178600,10.6741787109375,2.4526431560516357,6.892525672912598,8.25523853302002
1711550142564137200,10.69313720703125,2.744567632675171,6.409175395965576,8.094919204711914
1711550142583095800,10.712095703125,2.9288148880004883,5.815755367279053,8.688339233398438
1711550142602054400,10.731054443359374,3.160918712615967,5.4281182289123535,8.919246673583984
1711550142621013000,10.750012939453125,3.0592236518859863,6.183053493499756,8.886942863464355
1711550142639971300,10.768971435546876,2.6727828979492188,5.992824077606201,8.286344528198242
1711550142658930000,10.787929931640624,2.700300455093384,5.820540904998779,7.323233604431152
1711550142677888500,10.806888427734375,2.9790642261505127,5.542973518371582,6.997809886932373
1711550142696847000,10.82584716796875,2.5399811267852783,5.429314613342285,7.512266635894775
1711550142715805700,10.8448056640625,2.172683000564575,5.255835056304932,7.428517818450928
1711550142734764500,10.8637646484375,1.9070796966552734,4.776073932647705,6.0370917320251465
1711550142753722400,10.882722412109375,1.8735800981521606,4.650450706481934,5.300102233886719
1711550142772681000,10.901680908203126,2.251646041870117,5.213960647583008,6.260820388793945
1711550142791639600,10.9206396484375,2.5363919734954834,5.077569484710693,6.745367050170898
1711550142810598100,10.93959814453125,1.6462619304656982,4.874179840087891,6.6915283203125
1711550142829556700,10.958556640625,0.672383189201355,5.099104881286621,6.1088762283325195
1711550142848515300,10.977515380859375,1.0336993932724,4.893322467803955,6.047859191894531
1711550142867474000,10.996473876953125,1.6354942321777344,5.078765869140625,6.574280261993408
1711550142886432500,11.0154326171875,2.170290231704712,5.583651542663574,6.850651264190674
1711550142905390800,11.034390869140625,2.843869686126709,5.346762180328369,6.970292568206787
1711550142924349400,11.053349365234375,2.531606435775757,6.315855503082275,7.631907939910889
1711550142943308000,11.07230810546875,2.007578134536743,6.129215240478516,8.09850788116455
1711550142962266600,11.0912666015625,2.662015199661255,5.527420520782471,8.166703224182129
1711550142981225200,11.11022509765625,3.0580272674560547,5.757131099700928,8.726624488830566
1711550143000183800,11.129183837890626,3.1920254230499268,6.1124653816223145,8.38564682006836
1711550143019142400,11.148142333984374,3.102294445037842,5.493920803070068,7.963313579559326
1711550143038100700,11.167100830078125,2.417947292327881,5.997610092163086,7.971688747406006
1711550143057059300,11.186059326171875,1.8604196310043335,5.933003902435303,7.994420528411865
1711550143076018000,11.205017822265624,1.4967105388641357,4.878965377807617,7.464410305023193
1711550143094976500,11.2239765625,1.6917256116867065,4.95074987411499,7.356733322143555
1711550143113935000,11.24293505859375,1.7072789669036865,4.783252239227295,7.256234645843506
1711550143132893700,11.261893798828124,1.5361921787261963,5.520241737365723,7.304090976715088
1711550143151852300,11.280852294921875,1.5541383028030396,6.343372821807861,7.101897716522217
1711550143170811000,11.299810791015625,1.7982062101364136,5.745167255401611,7.386643409729004
1711550143189769500,11.31876953125,2.554338216781616,5.505885124206543,7.8819580078125
1711550143208727800,11.337727783203125,2.5950162410736084,5.78345251083374,7.684549808502197
1711550143227686700,11.356686767578125,1.7276179790496826,5.982056617736816,7.653443336486816
1711550143246645000,11.37564501953125,1.825723648071289,5.186442852020264,8.085348129272461
1711550143265603600,11.394603515625,2.833101987838745,5.073980331420898,8.036294937133789
1711550143284562200,11.413562255859375,2.778067111968994,6.216553211212158,8.484949111938477
1711550143303520800,11.432520751953126,2.5387847423553467,6.099305152893066,8.730213165283203
1711550143322479400,11.451479248046875,2.9144580364227295,5.172086238861084,8.260024070739746
1711550143341438000,11.47043798828125,2.8151557445526123,5.539384365081787,8.523234367370605
1711550143360396500,11.489396484375,3.0209386348724365,5.466403484344482,8.449056625366211
1711550143379355100,11.508355224609375,2.2097716331481934,5.769095420837402,7.459624767303467
1711550143398313700,11.527313720703125,1.8089739084243774,5.55015230178833,6.850651264190674
1711550143417272300,11.546272216796876,2.1032910346984863,5.212764263153076,7.29093074798584
1711550143436231000,11.56523095703125,2.5674986839294434,5.24626350402832,7.507481098175049
1711550143455189200,11.584189208984375,1.9489539861679077,5.901896953582764,7.045666217803955
1711550143474148000,11.603148193359376,1.7455641031265259,5.491528034210205,6.7621169090271
1711550143493106400,11.6221064453125,2.0997018814086914,4.9292144775390625,6.900900363922119
1711550143512065300,11.641065185546875,2.1678972244262695,5.296513080596924,7.379465103149414
1711550143531024000,11.66002392578125,2.14516544342041,5.629115104675293,7.707281589508057
1711550143549982200,11.678982177734374,2.355733871459961,5.558526992797852,7.487142086029053
1711550143568941000,11.697941162109375,2.785245656967163,5.570491313934326,7.635497093200684
1711550143587899400,11.7168994140625,3.311666488647461,5.686542987823486,7.959724426269531
1711550143606858200,11.735858154296874,3.480360507965088,5.974878311157227,8.189435958862305
1711550143625816600,11.754816650390625,3.4002010822296143,5.84566593170166,8.427521705627441
1711550143644775400,11.773775390625,3.449253797531128,5.702096462249756,8.252845764160156
1711550143663733800,11.792733642578124,3.2829527854919434,5.946164131164551,8.184649467468262
1711550143682692400,11.8116923828125,3.157329559326172,5.821737289428711,8.220541954040527
1711550143701651000,11.83065087890625,3.0041887760162354,5.44008207321167,7.926225185394287
1711550143720609500,11.849609619140624,2.647658348083496,5.893522262573242,7.554141044616699
1711550143739568000,11.868568115234375,2.2648067474365234,6.052644729614258,7.631907939910889
1711550143758526700,11.887526611328125,2.1655044555664062,5.37906551361084,7.380661487579346
1711550143777485300,11.9064853515625,2.1894326210021973,5.5621161460876465,7.251449108123779
1711550143796444000,11.92544384765625,2.423929452896118,5.649454116821289,7.136593341827393
1711550143815402500,11.944402587890625,2.770888566970825,5.388636589050293,7.294519901275635
1711550143834361300,11.963361328125,2.796013355255127,5.496313571929932,7.444071292877197
1711550143853319700,11.982319580078125,2.730210542678833,5.55733060836792,7.493124008178711
1711550143872278500,12.001278564453125,2.99222469329834,5.563312530517578,7.464410305023193
1711550143891236900,12.02023681640625,2.963510751724243,5.9545392990112305,7.351947784423828
1711550143910195700,12.03919580078125,2.8522446155548096,5.8719868659973145,7.403393268585205
1711550143929154000,12.058154052734375,2.7876384258270264,5.676971912384033,7.629515171051025
1711550143948113000,12.07711279296875,2.9359934329986572,5.4041900634765625,7.744370460510254
1711550143967071500,12.096071533203125,2.840280532836914,5.547759532928467,7.716853141784668
1711550143986030000,12.115030029296875,2.4227328300476074,5.763113498687744,7.4261250495910645
1711550144004988700,12.13398876953125,2.5148565769195557,5.704489231109619,7.263412952423096
1711550144023947300,12.152947265625,2.7912275791168213,5.473581790924072,7.594819068908691
1711550144042905900,12.17190576171875,2.950350284576416,5.420939922332764,7.798209190368652
1711550144061864400,12.190864501953126,2.812762975692749,5.631507873535156,7.448856830596924
1711550144080823000,12.209822998046874,2.4047868251800537,5.91505765914917,7.245467185974121
1711550144099781600,12.22878173828125,2.4574289321899414,5.678168296813965,7.345965385437012
1711550144118740200,12.247740234375,2.7553353309631348,5.318048477172852,7.509873867034912
1711550144137699000,12.266698974609374,2.7349963188171387,5.505885124206543,7.393822193145752
1711550144156657400,12.285657470703125,2.365305185317993,5.565705299377441,7.325626373291016
1711550144175616300,12.3046162109375,2.307877540588379,5.532206058502197,7.47637414932251
1711550144194574800,12.323574951171874,2.472982168197632,5.547759532928467,7.465606689453125
1711550144213533400,12.342533447265625,2.5746772289276123,5.578866004943848,7.643871784210205
1711550144232492000,12.361491943359376,2.8582265377044678,5.265406131744385,7.550551891326904
1711550144251450600,12.38045068359375,3.1489546298980713,5.32403039932251,7.634300708770752
1711550144270409200,12.3994091796875,2.9766714572906494,5.86002254486084,7.871190071105957
1711550144289367800,12.418367919921875,2.685943365097046,5.631507873535156,7.786244869232178
1711550144308326400,12.437326416015624,2.688336133956909,5.708078384399414,7.70249605178833
1711550144327285000,12.456284912109375,2.7397818565368652,5.674578666687012,7.623532772064209
1711550144346243800,12.475243896484375,2.4909284114837646,5.672185897827148,7.536194801330566
1711550144365202400,12.494202392578124,2.5878376960754395,5.520241737365723,7.4261250495910645
1711550144384161000,12.5131611328125,2.6847469806671143,5.536991596221924,7.545766353607178
1711550144403119600,12.53211962890625,2.3569302558898926,5.650650501251221,7.554141044616699
1711550144422078200,12.551078125,1.8460626602172852,6.022734642028809,7.4811601638793945
1711550144441036800,12.570036865234375,1.947757601737976,5.749952793121338,7.323233604431152
1711550144459995400,12.588995361328125,2.2779672145843506,5.56450891494751,7.371089935302734
1711550144478954200,12.607954345703124,2.7565317153930664,5.326423168182373,7.868797302246094
1711550144497912800,12.626912841796875,3.0317063331604004,5.219942569732666,8.226524353027344
1711550144516871400,12.645871337890625,3.084348440170288,5.44845724105835,7.983652591705322
1711550144535830000,12.664830078125,2.9455647468566895,5.663811206817627,7.5326056480407715
1711550144554788600,12.68378857421875,2.833101987838745,5.693721294403076,7.287341594696045
1711550144573747200,12.702747314453125,3.0065815448760986,5.545366287231445,7.272984504699707
1711550144592706000,12.7217060546875,3.126222848892212,5.240281581878662,7.513463020324707
1711550144611664600,12.74066455078125,3.022135019302368,5.30129861831665,7.385447025299072
1711550144630623200,12.759623291015625,2.8630123138427734,5.355136871337891,7.22034215927124
1711550144649581800,12.778581787109376,2.5399811267852783,5.903093338012695,7.167700290679932
1711550144668540400,12.79754052734375,2.400001049041748,5.582455158233643,6.778866767883301
1711550144687499300,12.816499267578125,2.462214469909668,5.01296329498291,6.831508636474609
1711550144706457900,12.835457763671876,2.8486554622650146,4.783252239227295,7.451249599456787
1711550144725416400,12.85441650390625,3.136990547180176,5.26899528503418,7.869993686676025
1711550144744375000,12.873375,3.184846878051758,5.888736724853516,7.409375190734863
1711550144763333600,12.892333740234376,3.2303106784820557,5.496313571929932,6.6484575271606445
1711550144782292500,12.91129248046875,3.129812002182007,5.507081508636475,7.2059855461120605
1711550144801251000,12.9302509765625,3.366701364517212,5.958128452301025,8.184649467468262
1711550144820209700,12.949209716796876,3.326023578643799,5.710471153259277,8.072187423706055
1711550144839168300,12.968168212890625,3.152543783187866,5.13021183013916,7.056434154510498
1711550144858126800,12.987126953125,3.394218921661377,5.115854740142822,6.708278179168701
1711550144877085700,13.006085693359376,3.693321704864502,5.5692949295043945,7.665407180786133
1711550144896044300,13.025044189453125,3.4683964252471924,6.113661766052246,8.068597793579102
1711550144915003000,13.0440029296875,3.1645078659057617,5.875576019287109,7.338787078857422
1711550144933961500,13.06296142578125,4.508078098297119,5.649454116821289,8.244470596313477
1711550144952920300,13.08192041015625,4.602594375610352,3.8488552570343018,7.014559745788574
1711550144971879000,13.10087890625,4.843072891235352,4.7712883949279785,8.590232849121094
1711550144990837500,13.11983740234375,3.060420274734497,7.237092018127441,8.48734188079834
1711550145009796000,13.138796142578125,4.8538408279418945,4.6372904777526855,6.055037498474121
1711550145028754700,13.157754638671875,3.1274192333221436,6.873383045196533,7.319644451141357
1711550145047713500,13.176713623046876,3.126222848892212,5.614758491516113,7.980063438415527
1711550145066672000,13.195672119140625,3.4552359580993652,5.150550842285156,6.8410797119140625
1711550145085630700,13.214630615234375,2.5363919734954834,4.266402721405029,6.447460651397705
1711550145104589600,13.233589599609376,3.0412776470184326,4.442275047302246,6.809973239898682
1711550145123548200,13.252548095703125,3.658625841140747,5.758327484130859,7.552944660186768
1711550145142506800,13.2715068359375,3.040081262588501,5.665007591247559,5.937789440155029
1711550145161465300,13.29046533203125,1.6965112686157227,7.670193195343018,8.440681457519531
1711550145180424200,13.309424072265625,4.113262176513672,6.1088762283325195,9.243474006652832
1711550145199382800,13.3283828125,3.2315070629119873,7.264609336853027,8.433503150939941
1711550145218341400,13.34734130859375,2.888136863708496,4.393222332000732,8.311469078063965
1711550145237300200,13.36630029296875,2.651247501373291,6.685546398162842,6.166304111480713
1711550145256258800,13.3852587890625,3.1166515350341797,3.9433717727661133,5.511867046356201
1711550145275217400,13.404217529296876,2.1439690589904785,4.106083869934082,7.121040344238281
1711550145294176300,13.42317626953125,3.383451223373413,4.719842433929443,8.602197647094727
1711550145313134800,13.442134765625,3.3894333839416504,4.479363918304443,7.740781307220459
1711550145332093400,13.461093505859376,3.2721848487854004,5.824130535125732,7.733603000640869
1711550145351052000,13.480052001953124,3.3547372817993164,6.356533527374268,7.191628456115723
1711550145370010600,13.4990107421875,3.3846476078033447,6.0610198974609375,7.939385414123535
1711550145388969500,13.517969482421876,3.332005500793457,5.468796253204346,7.904689788818359
1711550145407928000,13.536927978515624,2.803191661834717,5.535795211791992,7.808976650238037
1711550145426886700,13.55588671875,2.641676187515259,5.392225742340088,7.442874908447266
1711550145445845500,13.574845458984376,2.062613010406494,5.496313571929932,7.5912299156188965
1711550145464804000,13.59380419921875,2.234896421432495,7.864011764526367,10.078569412231445
1711550145483762700,13.6127626953125,1.1353943347930908,4.295116424560547,4.724628448486328
1711550145502721500,13.631721435546876,2.575873613357544,5.6099724769592285,7.916653633117676
1711550145521680100,13.65068017578125,2.4406790733337402,10.219745635986328,7.797012805938721
1711550145540638700,13.669638671875,2.0063817501068115,5.458028316497803,8.249256134033203
1711550145559597600,13.68859765625,2.0267207622528076,5.059623718261719,6.098108291625977
1711550145578556200,13.70755615234375,2.2671995162963867,3.9110686779022217,6.937989234924316
1711550145597514800,13.7265146484375,2.2671995162963867,4.363312244415283,9.125029563903809
1711550145616473300,13.745473388671876,3.2829527854919434,4.898108005523682,8.47298526763916
1711550145635432200,13.76443212890625,3.1214370727539062,5.3970112800598145,6.7621169090271
1711550145654390800,13.783390869140625,2.379662036895752,5.598008632659912,6.230910301208496
1711550145673349400,13.802349365234376,2.853440999984741,5.758327484130859,7.5050883293151855
1711550145692308200,13.82130810546875,3.4157543182373047,6.583851337432861,8.952746391296387
1711550145711266800,13.840266845703125,3.198007345199585,6.299105644226074,8.316255569458008
1711550145730225400,13.859225341796876,2.234896421432495,6.370890140533447,7.03489875793457
1711550145749184300,13.878184326171874,2.2648067474365234,6.654439926147461,6.704689025878906
1711550145768142800,13.897142822265625,2.5639095306396484,6.151947021484375,7.153343200683594
1711550145787101400,13.916101318359376,2.555534601211548,5.2283172607421875,7.258627414703369
1711550145806060300,13.935060302734374,2.7314071655273438,5.088337421417236,7.377072334289551
1711550145825019000,13.954018798828125,2.715853691101074,5.258227825164795,7.062416076660156
1711550145843977500,13.9729775390625,2.59621262550354,5.343173027038574,6.949953556060791
1711550145862936000,13.99193603515625,3.0245277881622314,5.4281182289123535,7.280162811279297
1711550145881895000,14.01089501953125,3.4205398559570312,5.6099724769592285,7.434499740600586
1711550145900853500,14.029853515625,3.425325632095337,5.910272121429443,7.325626373291016
1711550145919812000,14.04881201171875,3.3439695835113525,6.285944938659668,7.014559745788574
1711550145938771000,14.06777099609375,3.601198196411133,5.990431308746338,7.4811601638793945
1711550145957729500,14.0867294921875,4.5547380447387695,5.300102233886719,7.5804619789123535
1711550145976688000,14.105688232421874,4.338187217712402,5.200799942016602,7.731209754943848
1711550145995647000,14.12464697265625,3.5856447219848633,5.26181697845459,7.46201753616333
1711550146014605600,14.14360546875,3.0185458660125732,5.047659397125244,7.383054256439209
1711550146033564200,14.162564208984374,2.953939437866211,4.892126083374023,7.907082557678223
1711550146052523000,14.18152294921875,3.7698919773101807,5.008177757263184,8.963513374328613
1711550146071481600,14.200481689453126,4.2245283126831055,4.514060020446777,9.012566566467285
1711550146090440200,14.219440185546874,4.211368083953857,3.9290146827697754,8.305487632751465
1711550146109398800,14.238398681640625,3.775874137878418,3.970889091491699,7.696514129638672
1711550146128357400,14.257357421875,3.0831520557403564,3.4396824836730957,7.101897716522217
1711550146147316200,14.276316162109374,3.218346357345581,2.633301258087158,7.271788120269775
1711550146166274800,14.29527490234375,4.094119548797607,1.29810631275177,8.090133666992188
1711550146185233400,14.3142333984375,3.8021950721740723,0.5838487148284912,8.218149185180664
1711550146204192300,14.333192138671874,3.2374889850616455,1.0755738019943237,7.923832416534424
1711550146223150800,14.35215087890625,2.510071039199829,1.5206388235092163,7.724031448364258
1711550146242109400,14.371109375,2.3784656524658203,1.7515461444854736,8.382058143615723
1711550146261068300,14.390068359375,3.2626137733459473,1.5074782371520996,9.269794464111328
1711550146280027000,14.40902685546875,3.253042459487915,1.4476577043533325,9.302098274230957
1711550146298985500,14.4279853515625,3.7423746585845947,1.9621145725250244,9.21715259552002
1711550146317944000,14.446944091796874,2.7014968395233154,2.8869404792785645,8.987442016601562
1711550146336903000,14.46590283203125,2.159522533416748,3.0616166591644287,8.806783676147461
1711550146355861500,14.484861572265626,2.317448616027832,2.579462766647339,9.32004451751709
1711550146374820000,14.503820068359374,2.5902304649353027,1.7515461444854736,9.5533447265625
1711550146393779000,14.522779052734375,3.3954153060913086,2.234896421432495,10.071390151977539
1711550146412737500,14.541737548828126,3.16331148147583,1.9106688499450684,9.43489933013916
1711550146431696100,14.560696044921874,1.3962119817733765,2.7349963188171387,8.764909744262695
1711550146450654700,14.57965478515625,1.1653046607971191,4.059423446655273,9.056833267211914
1711550146469613600,14.598613525390626,2.5471596717834473,4.600201606750488,10.39083194732666
1711550146488572200,14.617572265625,2.9168508052825928,4.590630054473877,11.330015182495117
1711550146507530800,14.63653076171875,2.768495798110962,5.076373100280762,10.72582721710205
1711550146526489600,14.655489501953125,2.118844509124756,6.10169792175293,9.841679573059082
1711550146545448200,14.6744482421875,2.0985054969787598,5.857629776000977,9.251849174499512
1711550146564406800,14.69340673828125,3.290131092071533,5.101497650146484,9.272188186645508
1711550146583365400,14.712365478515625,3.3954153060913086,5.498706340789795,10.04865837097168
1711550146602324200,14.73132421875,2.6225335597991943,6.14835786819458,10.089336395263672
1711550146621282800,14.75028271484375,2.183450698852539,6.206982135772705,9.964909553527832
1711550146640241400,14.769241455078125,1.475175142288208,6.626922130584717,9.89551830291748
1711550146659200000,14.788199951171874,1.1461620330810547,6.701099872589111,9.806983947753906
1711550146678158800,14.807158935546875,0.9355936646461487,6.498906135559082,9.269794464111328
1711550146697117400,14.826117431640625,0.11246266216039658,6.900900363922119,9.007781028747559
1711550146716076000,14.845075927734374,-0.45104706287384033,6.685546398162842,9.133403778076172
1711550146735035000,14.864034912109375,-0.4175475537776947,5.407779216766357,8.72064208984375
1711550146753993500,14.882993408203125,-0.6376872062683105,4.989035129547119,8.673981666564941
1711550146772952000,14.9019521484375,-1.6354942321777344,5.854040622711182,8.752944946289062
1711550146791910700,14.92091064453125,-2.1092731952667236,6.465406894683838,8.288737297058105
1711550146810869200,14.939869140625,-2.2265214920043945,6.245266914367676,8.23968505859375
1711550146829828000,14.958828125,-2.2636101245880127,5.699703693389893,8.0291166305542
1711550146848786700,14.97778662109375,-2.610569477081299,5.700900077819824,8.170292854309082
1711550146867745300,14.996745361328125,-2.80558443069458,6.03948450088501,8.207381248474121
1711550146886704000,15.0157041015625,-2.5842485427856445,5.966503143310547,8.550751686096191
1711550146905662700,15.034662841796875,-2.1882362365722656,5.581258773803711,8.023134231567383
1711550146924621300,15.053621337890625,-2.557927370071411,5.241477966308594,7.847261905670166
1711550146943580000,15.072579833984374,-2.8103702068328857,5.044070243835449,8.376075744628906
1711550146962538800,15.091538818359375,-1.7718851566314697,5.399404525756836,8.043473243713379
1711550146981497300,15.110497314453125,-2.045863389968872,5.6685967445373535,8.995817184448242
1711550147000456000,15.1294560546875,-1.5756736993789673,5.288137912750244,9.129815101623535
1711550147019414500,15.14841455078125,-0.7549355626106262,4.948357105255127,8.827122688293457
1711550147038373000,15.167373046875,-1.8855443000793457,4.667200565338135,8.927620887756348
1711550147057332000,15.18633203125,-2.5184457302093506,5.242674350738525,8.888139724731445
1711550147076290600,15.20529052734375,-2.5148565769195557,5.456831932067871,7.791030406951904
1711550147095249200,15.224249267578125,-2.4598217010498047,6.168696880340576,6.847062110900879
1711550147114208000,15.2432080078125,-2.2061824798583984,6.14835786819458,6.1603217124938965
1711550147133166600,15.26216650390625,-2.2779672145843506,5.827719688415527,6.308676719665527
1711550147152125200,15.281125244140625,-2.2947168350219727,5.741578102111816,7.076773166656494
1711550147171083800,15.300083740234374,-2.1511476039886475,5.907878875732422,7.904689788818359
1711550147190042400,15.31904248046875,-0.6759724020957947,5.802595138549805,8.879764556884766
1711550147209001200,15.338001220703125,1.1569297313690186,3.8249270915985107,9.279366493225098
1711550147227959800,15.356959716796876,0.9726824164390564,2.293520450592041,10.090533256530762
1711550147246918400,15.37591845703125,0.18544375896453857,1.6869399547576904,10.652846336364746
1711550147265877000,15.394876953125,-0.45224347710609436,1.7826528549194336,9.878767967224121
1711550147284835800,15.4138359375,-2.0578274726867676,0.8590233325958252,8.810373306274414
1711550147303794400,15.43279443359375,-3.0376882553100586,0.08255238085985184,8.749356269836426
1711550147322753000,15.4517529296875,-2.0817556381225586,0.26919254660606384,8.483752250671387
1711550147341711600,15.470711669921876,-1.4344971179962158,1.3758729696273804,9.328418731689453
1711550147360670200,15.489670166015625,-0.9152546525001526,1.5290136337280273,9.996016502380371
1711550147379629000,15.508629150390625,-0.20937198400497437,0.7621139883995056,10.278369903564453
1711550147398587600,15.527587646484376,0.2715853750705719,0.5324030518531799,10.272387504577637
1711550147417546200,15.546546142578125,0.3888336718082428,0.349352091550827,10.405189514160156
1711550147436504800,15.5655048828125,0.22612173855304718,1.4177473783493042,10.074979782104492
1711550147455463400,15.58446337890625,1.098305583000183,2.1296122074127197,10.091729164123535
1711550147474422300,15.60342236328125,1.2538390159606934,1.7670994997024536,9.499505996704102
1711550147493380900,15.622380859375,1.1892328262329102,1.3830515146255493,8.513663291931152
1711550147512339500,15.64133935546875,0.4989035129547119,1.2921242713928223,7.902296543121338
1711550147531298000,15.660298095703125,0.04187439754605293,1.3854442834854126,8.13679313659668
1711550147550256600,15.679256591796875,0.04905286431312561,1.4919248819351196,8.579465866088867
1711550147569215500,15.698215576171876,0.020338991656899452,1.8831514120101929,9.041280746459961
1711550147588174000,15.717174072265625,0.3601198196411133,1.9537396430969238,10.086943626403809
1711550147607132700,15.736132568359375,0.7728816866874695,1.3232308626174927,10.1216402053833
1711550147626091300,15.75509130859375,1.293320655822754,0.794417142868042,10.593026161193848
1711550147645050000,15.774050048828125,1.3088740110397339,0.6460621356964111,10.12881851196289
1711550147664008700,15.7930087890625,0.9930213689804077,1.0683952569961548,9.7998046875
1711550147682967300,15.81196728515625,0.6628118753433228,1.5206388235092163,9.562915802001953
1711550147701926000,15.83092578125,0.3924229145050049,1.812563180923462,9.223134994506836
1711550147720884500,15.849884521484375,0.11964113265275955,1.963310956954956,8.823533058166504
1711550147739843300,15.86884326171875,-0.24406790733337402,1.9070796966552734,8.429914474487305
1711550147758802000,15.887802001953125,-0.34217363595962524,1.6319050788879395,8.595019340515137
1711550147777760500,15.906760498046875,-0.3732803463935852,1.8891334533691406,8.598608016967773
1711550147796719000,15.925718994140626,-0.7716853022575378,2.5603201389312744,8.554341316223145
1711550147815677700,15.944677734375,-1.0360921621322632,3.658625841140747,9.014959335327148
1711550147834636500,15.963636474609375,-0.7716853022575378,4.068994998931885,10.207781791687012
1711550147853595100,15.98259521484375,-0.1495514214038849,3.4241292476654053,10.18026351928711
1711550147872553700,16.0015537109375,0.12083754688501358,2.544766902923584,9.713663101196289
1711550147891512300,16.02051220703125,-0.30987054109573364,1.9860427379608154,9.017352104187012
1711550147910471000,16.039470947265624,-1.058824062347412,1.3603196144104004,8.12123966217041
1711550147929429800,16.0584296875,-1.657029628753662,1.420140266418457,7.1162543296813965
1711550147948388400,16.077388427734373,-2.00518536567688,1.8604196310043335,6.118447303771973
1711550147967347000,16.096346923828126,-2.469393014907837,1.9298114776611328,5.639883041381836
1711550147986305500,16.115305419921874,-2.827120065689087,2.1020946502685547,5.708078384399414
1711550148005264400,16.134264404296875,-2.768495798110962,2.551945447921753,5.816951751708984
1711550148024223000,16.153222900390624,-2.7637102603912354,3.5880374908447266,5.718846321105957
1711550148043181600,16.172181640625,-3.245863914489746,4.923232555389404,5.910272121429443
1711550148062140200,16.19114013671875,-3.7124643325805664,5.863611698150635,6.613761901855469
1711550148081099000,16.21009912109375,-3.8943188190460205,6.908079147338867,7.156932353973389
1711550148100057600,16.2290576171875,-4.543970108032227,9.720842361450195,7.636693477630615
1711550148119016200,16.24801611328125,-5.174479007720947,12.014362335205078,8.395217895507812
1711550148137974800,16.266974853515624,-4.6887359619140625,11.706884384155273,8.547162055969238
1711550148156933600,16.28593359375,-4.253242015838623,10.675578117370605,8.343772888183594
1711550148175892200,16.304892333984377,-4.944767951965332,10.837093353271484,8.992227554321289
1711550148194850800,16.323850830078126,-4.567898273468018,11.638689041137695,10.218548774719238
1711550148213809400,16.342809326171874,-3.8763725757598877,12.137593269348145,11.103893280029297
1711550148232768000,16.36176806640625,-3.6227335929870605,10.953145980834961,10.159924507141113
1711550148251726800,16.380726806640624,-2.7912275791168213,9.168100357055664,8.190631866455078
1711550148270685400,16.399685546875,-1.994417667388916,7.53140926361084,5.656632900238037
1711550148289644000,16.41864404296875,-1.545763373374939,6.118447303771973,3.762713670730591
1711550148308602600,16.4376025390625,-1.01814603805542,5.782256126403809,2.5112674236297607
1711550148327561500,16.4565615234375,-0.41515472531318665,6.454638957977295,1.9680966138839722
1711550148346520000,16.47552001953125,-0.02632104977965355,7.4739813804626465,2.169093608856201
1711550148365478700,16.494478759765624,0.7956135272979736,7.440482139587402,2.1774685382843018
1711550148384437500,16.5134375,1.3591232299804688,7.04207706451416,1.168893814086914
1711550148403396000,16.53239599609375,1.6103696823120117,7.496713161468506,0.4977070987224579
1711550148422354700,16.551354736328125,1.7922241687774658,7.956135272979736,-0.13160525262355804
1711550148441313300,16.570313232421874,1.1234302520751953,8.285148620605469,-1.031306505203247
1711550148460272000,16.589272216796875,0.5024927258491516,8.37009334564209,-2.2408783435821533
1711550148479230700,16.608230712890624,-0.3852444589138031,9.206384658813477,-3.1645078659057617
1711550148498189300,16.627189208984376,-0.9379864931106567,11.858829498291016,-2.8941190242767334
1711550148517148000,16.64614794921875,-0.2584248483181,12.52164077758789,-2.8223342895507812
1711550148536106800,16.665106689453125,0.5407779216766357,11.522637367248535,-2.579462766647339
1711550148555065300,16.6840654296875,0.9906286001205444,10.401599884033203,-2.1643080711364746
1711550148574024000,16.70302392578125,1.1497513055801392,9.432506561279297,-1.6522440910339355
1711550148592982800,16.721982666015624,0.4007977843284607,9.389435768127441,-1.2323036193847656
1711550148611941400,16.74094140625,-0.019142581149935722,9.712467193603516,-1.2538390159606934
1711550148630900000,16.75989990234375,0.5575276613235474,9.44447135925293,-1.3746765851974487
1711550148649858600,16.778858642578125,0.6687939167022705,9.708877563476562,-1.552941918373108
1711550148668817400,16.7978173828125,0.4989035129547119,10.676774978637695,-1.7048860788345337
1711550148687776000,16.81677587890625,0.3517449200153351,10.987841606140137,-1.805384635925293
1711550148706734600,16.835734619140624,0.4055834412574768,10.374082565307617,-2.108076810836792
1711550148725693400,16.854693359375,0.1663011759519577,9.287740707397461,-2.311466693878174
1711550148744652000,16.873652099609377,0.24885354936122894,9.013762474060059,-2.66560435295105
1711550148763610600,16.892610595703125,0.349352091550827,8.98385238647461,-3.2338998317718506
1711550148782569500,16.911569580078126,-0.07776673883199692,9.266205787658691,-3.3164522647857666
1711550148801528000,16.930528076171875,0.17587246000766754,9.087940216064453,-3.6466617584228516
1711550148820486700,16.949486572265624,0.605384111404419,9.131011009216309,-3.7734813690185547
1711550148839445500,16.968445556640624,0.8685946464538574,9.607182502746582,-3.597608804702759
1711550148858404000,16.987404052734377,0.8530412912368774,9.931410789489746,-3.793820381164551
1711550148877362700,17.00636279296875,0.37088751792907715,9.713663101196289,-3.8799619674682617
1711550148896321500,17.025321533203126,0.6448656916618347,9.634700775146484,-3.686143398284912
1711550148915280100,17.044280029296875,0.5180460810661316,9.707681655883789,-3.3343982696533203
1711550148934238700,17.06323876953125,0.35533416271209717,9.525827407836914,-3.074777126312256
1711550148953197600,17.082197509765624,0.29790642857551575,9.639486312866211,-3.198007345199585
1711550148972156200,17.10115625,0.2560320198535919,9.927821159362793,-3.243471145629883
1711550148991115000,17.120114990234374,-0.07657032459974289,10.1276216506958,-3.335594654083252
1711550149010073600,17.139073486328126,-0.2715853750705719,10.098908424377441,-3.5330026149749756
1711550149029032200,17.1580322265625,-0.16390834748744965,10.006784439086914,-3.4791641235351562
1711550149047991000,17.176990966796875,-0.12921242415905,10.189835548400879,-3.0652058124542236
1711550149066949600,17.19594970703125,-0.2021935135126114,10.277173042297363,-2.6524438858032227
1711550149085908200,17.214908203125,-0.14117653667926788,10.229316711425781,-2.557927370071411
1711550149104867000,17.2338671875,0.19980068504810333,10.28195858001709,-2.4562325477600098
1711550149123825700,17.25282568359375,0.364905446767807,10.183853149414062,-2.0985054969787598
1711550149142784300,17.2717841796875,0.02751746028661728,9.467203140258789,-1.6869399547576904
1711550149161743000,17.2907431640625,-0.4785645306110382,9.030512809753418,-1.9214365482330322
1711550149180701700,17.30970166015625,-1.0719845294952393,9.129815101623535,-1.9597218036651611
1711550149199660300,17.328660400390625,-1.231107234954834,9.602396965026855,-1.7982062101364136
1711550149218619100,17.347619140625,-0.9726824164390564,10.052248001098633,-1.3555340766906738
1711550149237577700,17.36657763671875,-0.35413774847984314,10.3621187210083,-0.9583254456520081
1711550149256536600,17.38553662109375,0.017946170642971992,10.083354949951172,-0.24885354936122894
1711550149275495200,17.4044951171875,0.2763710021972656,9.696913719177246,0.8530412912368774
1711550149294453800,17.423453857421876,0.2476571500301361,9.425328254699707,1.8532410860061646
1711550149313412600,17.44241259765625,-0.061016976833343506,9.42772102355957,2.337787628173828
1711550149332371200,17.46137109375,-1.0037890672683716,9.471988677978516,2.221735715866089
1711550149351330000,17.480330078125,-2.1930220127105713,9.383454322814941,1.6773686408996582
1711550149370288600,17.49928857421875,-3.1274192333221436,9.162117958068848,1.1497513055801392
1711550149389247500,17.51824755859375,-3.8871402740478516,8.797212600708008,1.1198409795761108
1711550149408206000,17.5372060546875,-4.291527271270752,8.462217330932617,1.444068431854248
1711550149427164700,17.55616455078125,-4.5714874267578125,8.653642654418945,2.3222343921661377
1711550149446123500,17.57512353515625,-4.810770034790039,9.127422332763672,3.541377544403076
1711550149465082000,17.59408203125,-4.7030930519104,9.533005714416504,4.825126647949219
1711550149484041000,17.613041015625,-4.278367042541504,9.839286804199219,5.763113498687744
1711550149502999600,17.63199951171875,-3.568894863128662,9.905089378356934,6.26440954208374
1711550149521958400,17.65095849609375,-3.0927233695983887,9.492327690124512,6.311069488525391
1711550149540917000,17.6699169921875,-3.126222848892212,9.329615592956543,6.489335060119629
1711550149559875800,17.688875732421874,-3.0484559535980225,9.120243072509766,6.230910301208496
1711550149578834400,17.70783447265625,-2.8630123138427734,8.659625053405762,5.257031440734863
1711550149597793000,17.72679296875,-2.9216363430023193,8.233702659606934,4.325026988983154
1711550149616751900,17.745751953125,-2.99222469329834,7.785048484802246,3.6287155151367188
1711550149635710700,17.764710693359376,-3.0077781677246094,7.746763229370117,3.0999016761779785
1711550149654669300,17.78366943359375,-3.1178479194641113,7.7180495262146,2.9730820655822754
1711550149673628000,17.8026279296875,-2.620140790939331,7.349554538726807,3.4612178802490234
1711550149692586800,17.821586669921874,-1.7012969255447388,6.892525672912598,4.131208419799805
1711550149711545300,17.84054541015625,-1.1425727605819702,6.007181167602539,4.524827480316162
1711550149730504200,17.859504150390624,-1.0289137363433838,5.282155990600586,4.833501815795898
1711550149749462800,17.878462890625,-1.4009976387023926,4.95074987411499,5.447260856628418
1711550149768421600,17.897421630859377,-1.9465612173080444,4.808377265930176,6.468996047973633
1711550149787380200,17.916380126953126,-2.630908489227295,5.169693470001221,7.898707389831543
1711550149806339000,17.935339111328126,-3.8703906536102295,5.660222053527832,9.242277145385742
1711550149825298000,17.9542978515625,-5.033302307128906,5.765506267547607,10.045069694519043
1711550149844256500,17.973256591796876,-5.6793646812438965,5.935396671295166,10.055837631225586
1711550149863215000,17.992215087890624,-5.496313571929932,5.60399055480957,9.418149948120117
1711550149882174000,18.011174072265625,-4.480560302734375,4.649254322052002,8.640482902526855
1711550149901132800,18.0301328125,-3.046063184738159,4.094119548797607,8.270791053771973
1711550149920091400,18.04909130859375,-2.1475582122802734,3.3236305713653564,8.307880401611328
1711550149939050000,18.068050048828123,-2.053041934967041,3.5330026149749756,8.279166221618652
1711550149958008800,18.0870087890625,-2.510071039199829,4.192225456237793,8.630910873413086
1711550149976967700,18.1059677734375,-3.2554352283477783,4.767699241638184,9.08674430847168
1711550149995926300,18.12492626953125,-4.047459602355957,4.754538536071777,9.578469276428223
1711550150014885000,18.143885009765626,-4.260420799255371,3.9397823810577393,9.920642852783203
1711550150033843700,18.16284375,-5.033302307128906,3.260220766067505,7.970492362976074
1711550150052802600,18.181802490234375,-5.8851470947265625,2.2025933265686035,5.735595703125
1711550150071761200,18.20076123046875,-5.394618511199951,1.8113667964935303,5.661418437957764
1711550150090720000,18.219719970703125,-4.83469820022583,1.6175481081008911,6.329015731811523
1711550150109678600,18.2386787109375,-4.311866283416748,1.9465612173080444,7.404589653015137
1711550150128637400,18.257637451171874,-3.5330026149749756,2.4670002460479736,8.733802795410156
1711550150147596000,18.276595947265626,-2.985046148300171,2.496910333633423,9.298508644104004
1711550150166555000,18.295554931640623,-2.715853691101074,2.664407968521118,9.351150512695312
1711550150185513700,18.314513671875,-2.720639228820801,2.9718856811523438,9.269794464111328
1711550150204472300,18.333472412109376,-3.0041887760162354,3.625126361846924,9.010173797607422
1711550150223431200,18.35243115234375,-2.882154941558838,3.803391695022583,8.827122688293457
1711550150242389800,18.3713896484375,-1.9094724655151367,3.548556089401245,8.561519622802734
1711550150261348600,18.3903486328125,-1.3411771059036255,3.297309637069702,8.353343963623047
1711550150280307200,18.40930712890625,-1.153340458869934,3.757927894592285,8.614161491394043
1711550150299266000,18.42826611328125,-1.4727823734283447,4.4614176750183105,9.299705505371094
1711550150318225000,18.447224853515625,-1.3674981594085693,5.2977094650268555,9.608379364013672
1711550150337183500,18.46618359375,-0.8997012972831726,5.406582832336426,7.975277900695801
1711550150356142300,18.485142333984374,-0.7322037220001221,5.5106706619262695,6.2428741455078125
1711550150375101000,18.504100830078126,-0.4654040038585663,5.325226783752441,5.446064472198486
1711550150394059800,18.523059814453124,-0.5096712112426758,4.796412944793701,5.091926574707031
1711550150413018600,18.5420185546875,-0.9607182741165161,5.237888813018799,5.438885688781738
1711550150431977200,18.560977294921877,-1.2574282884597778,6.685546398162842,6.230910301208496
1711550150450935800,18.579935791015625,-1.789831280708313,8.105687141418457,7.044469833374023
1711550150469894700,18.598894775390626,-1.8652052879333496,9.469595909118652,8.185846328735352
1711550150488853500,18.617853515625,-1.588834285736084,10.97468090057373,9.609575271606445
1711550150507812000,18.63681201171875,-1.2945170402526855,11.373085975646973,9.591629981994629
1711550150526771000,18.65577099609375,-1.28255295753479,10.64686393737793,8.214560508728027
1711550150545729800,18.674729736328125,-1.4333007335662842,10.220941543579102,7.527820110321045
1711550150564688400,18.6936884765625,-2.0410776138305664,10.53200912475586,7.722835063934326
1711550150583647200,18.712647216796874,-2.3330020904541016,9.237491607666016,9.364311218261719
1711550150602605800,18.731605712890627,-1.4141582250595093,8.142775535583496,10.133604049682617
1711550150621564700,18.750564697265624,-0.7345965504646301,6.502495765686035,9.851250648498535
1711550150640523300,18.769523193359376,-1.6773686408996582,5.072783946990967,9.397810935974121
1711550150659482000,18.788482177734377,-2.8283164501190186,2.2959132194519043,8.294719696044922
1711550150678440700,18.807440673828125,-2.8773691654205322,0.013160524889826775,6.916453838348389
1711550150697399600,18.826399658203126,-3.4815568923950195,0.7621139883995056,6.876972198486328
1711550150716358400,18.8453583984375,-2.770888566970825,2.344966173171997,7.679764270782471
1711550150735317000,18.86431689453125,-3.48993182182312,2.0374884605407715,7.611568927764893
1711550150754275800,18.88327587890625,-3.8943188190460205,2.9180471897125244,7.6737823486328125
1711550150773234700,18.902234619140625,-3.5461630821228027,4.700700283050537,7.775477409362793
1711550150792193300,18.921193359375,-3.2578279972076416,6.02393102645874,8.537590980529785
1711550150811152100,18.940152099609374,-3.4815568923950195,7.071987152099609,8.858229637145996
1711550150830110700,18.95911083984375,-3.1250264644622803,8.400003433227539,8.894122123718262
1711550150849069600,18.978069580078124,-2.8522446155548096,9.598808288574219,8.368897438049316
1711550150868028400,18.9970283203125,-3.1250264644622803,9.873982429504395,7.750352382659912
1711550150886987000,19.015987060546873,-3.080759048461914,10.557133674621582,7.270591735839844
1711550150905945600,19.034945556640626,-3.418147087097168,11.48794174194336,7.3986077308654785
1711550150924904400,19.053904541015626,-3.3918261528015137,11.614761352539062,7.513463020324707
1711550150943863300,19.07286328125,-3.342773199081421,10.728219985961914,7.183253765106201
1711550150962822000,19.09182177734375,-3.3619158267974854,9.512666702270508,6.1124653816223145
1711550150981780700,19.11078076171875,-3.10109806060791,8.163114547729492,5.9545392990112305
1711550151000739600,19.129739501953125,-2.5196423530578613,6.8865437507629395,6.625725746154785
1711550151019698200,19.1486982421875,-1.6498512029647827,6.256034851074219,7.217949390411377
1711550151038657000,19.167656982421875,-1.2299108505249023,5.493920803070068,7.526623725891113
1711550151057615600,19.18661572265625,-1.5206388235092163,5.029713153839111,7.318448066711426
1711550151076574500,19.205574462890624,-1.176072359085083,5.285745143890381,7.093522548675537
1711550151095533300,19.224533203125,-0.8219345808029175,5.456831932067871,6.930810928344727
1711550151114492000,19.243491943359373,-0.9547362327575684,5.154139995574951,7.086344242095947
1711550151133450500,19.262450439453126,-1.5146567821502686,4.724628448486328,7.389036178588867
1711550151152409300,19.281409423828126,-2.3126630783081055,4.403990268707275,7.750352382659912
1711550151171368200,19.3003681640625,-3.212364435195923,4.0797624588012695,8.37966537475586
1711550151190326800,19.319326904296876,-4.1491546630859375,4.29033088684082,8.781659126281738
1711550151209285600,19.33828564453125,-4.351347923278809,4.694717884063721,8.671588897705078
1711550151228244500,19.357244384765625,-4.299902439117432,4.419543266296387,8.352147102355957
1711550151247203000,19.376203125,-4.386044025421143,3.6430723667144775,8.055437088012695
1711550151266162000,19.395161865234375,-4.482953071594238,2.9455647468566895,7.8664045333862305
1711550151285120500,19.41412060546875,-4.478167533874512,2.9455647468566895,7.719245910644531
1711550151304079400,19.433079345703124,-4.620540618896484,3.404986619949341,7.984848976135254
1711550151323038000,19.452037841796876,-5.164907455444336,3.7902309894561768,8.374878883361816
1711550151341996800,19.470996826171874,-5.120640277862549,3.8321053981781006,8.935996055603027
1711550151360955400,19.489955322265626,-4.938786029815674,3.4719855785369873,8.512466430664062
1711550151379914200,19.508914306640627,-5.167300701141357,3.1764719486236572,7.6630144119262695
1711550151398873000,19.527873046875,-5.438885688781738,2.86061954498291,7.6666035652160645
1711550151417831700,19.546831787109376,-5.4795637130737305,2.919243574142456,7.846065521240234
1711550151436790500,19.56579052734375,-5.740381717681885,3.4205398559570312,8.090133666992188
1711550151455749000,19.5847490234375,-5.309673309326172,3.78544545173645,9.734002113342285
1711550151474708000,19.6037080078125,-3.6263227462768555,3.7292141914367676,11.545369148254395
1711550151493666600,19.62266650390625,-2.827120065689087,3.456432342529297,11.227124214172363
1711550151512625400,19.64162548828125,-3.4480574131011963,3.2135608196258545,10.331011772155762
1711550151531584300,19.660584228515624,-4.497310161590576,3.122633457183838,9.89551830291748
1711550151550542800,19.67954296875,-4.890929698944092,3.25663161277771,8.595019340515137
1711550151569501700,19.698501708984374,-4.796412944793701,2.964707374572754,6.522834300994873
1711550151588460300,19.717460205078126,-4.468596458435059,2.4095723628997803,5.033302307128906
1711550151607419100,19.736419189453127,-4.2281174659729,2.2241287231445312,5.291727066040039
1711550151626377700,19.755377685546875,-4.271188259124756,2.245664119720459,6.8865437507629395
1711550151645336600,19.774336669921876,-4.088137626647949,2.548356056213379,8.22413158416748
1711550151664295400,19.79329541015625,-3.497110366821289,2.819941520690918,9.002995491027832
1711550151683254000,19.81225390625,-2.7397818565368652,2.5950162410736084,9.488738059997559
1711550151702212900,19.831212890625,-2.7146573066711426,1.9860427379608154,9.919445991516113
1711550151721171500,19.85017138671875,-3.3894333839416504,1.9298114776611328,9.944570541381836
1711550151740130300,19.86913037109375,-3.810570001602173,2.0889341831207275,9.255437850952148
1711550151759089000,19.8880888671875,-3.84765887260437,1.836491346359253,7.730013370513916
1711550151778047700,19.9070478515625,-3.4672000408172607,1.6821542978286743,7.679764270782471
1711550151797006300,19.92600634765625,-3.570091485977173,1.8460626602172852,9.42772102355957
1711550151815965200,19.944965087890626,-3.1489546298980713,2.132004976272583,10.49252700805664
1711550151834923800,19.963923828125,-2.6979074478149414,2.1750757694244385,10.311869621276855
1711550151853882600,19.982882568359376,-3.207578659057617,1.3627125024795532,9.731609344482422
1711550151872841500,20.001841552734376,-3.665804386138916,1.0767701864242554,8.947959899902344
1711550151891800000,20.020800048828125,-3.568894863128662,1.3710874319076538,8.081758499145508
1711550151910759000,20.039759033203126,-3.680161237716675,1.9716858863830566,7.502695560455322
1711550151929717500,20.058717529296874,-3.314059257507324,2.056631088256836,7.835297584533691
1711550151948676400,20.07767626953125,-2.9599215984344482,2.066202402114868,8.846264839172363
1711550151967635000,20.096635009765624,-3.0101709365844727,0.9978070259094238,9.876375198364258
1711550151986593800,20.11559375,-3.4683964252471924,0.8614161610603333,9.753145217895508
1711550152005552400,20.134552490234373,-3.900300979614258,1.7754744291305542,8.726624488830566
1711550152024511200,20.15351123046875,-4.180261135101318,1.7084753513336182,7.306483745574951
1711550152043469800,20.1724697265625,-3.5856447219848633,0.9020941257476807,6.809973239898682
1711550152062428700,20.1914287109375,-2.86061954498291,1.3543375730514526,7.428517818450928
1711550152081387300,20.21038720703125,-2.6500511169433594,2.3461625576019287,7.843672752380371
1711550152100346000,20.22934619140625,-2.6608188152313232,2.6536402702331543,8.218149185180664
1711550152119304700,20.2483046875,-2.644068956375122,2.4921247959136963,9.353543281555176
1711550152138263600,20.267263671875,-2.7457640171051025,2.3820550441741943,9.865608215332031
1711550152157222400,20.286222412109375,-3.005385160446167,2.4502503871917725,9.78664493560791
1711550152176181000,20.305180908203123,-3.2865419387817383,2.6775684356689453,9.395418167114258
1711550152195139600,20.3241396484375,-3.641875982284546,2.341377019882202,8.928817749023438
1711550152214098400,20.343098388671876,-3.9122650623321533,1.8161523342132568,8.801998138427734
1711550152233057300,20.362057373046873,-4.309473514556885,1.719243049621582,9.10229778289795
1711550152252015900,20.381015869140626,-4.567898273468018,1.657029628753662,9.4121675491333
1711550152270974500,20.399974365234375,-4.77248477935791,1.576870083808899,9.349954605102539
1711550152289933300,20.418933349609375,-4.794020175933838,1.8711873292922974,9.337990760803223
1711550152308892200,20.43789208984375,-4.917250633239746,2.0315065383911133,9.509077072143555
1711550152327850800,20.456850830078125,-5.223531723022461,1.9968105554580688,9.779465675354004
1711550152346809600,20.4758095703125,-5.259424209594727,1.978864312171936,9.628718376159668
1711550152365768200,20.494768310546874,-4.800002098083496,2.1954147815704346,9.31884765625
1711550152384727000,20.51372705078125,-4.073780536651611,2.416750907897949,8.995817184448242
1711550152403685600,20.532685546875,-3.7663028240203857,2.365305185317993,8.819944381713867
1711550152422644500,20.55164453125,-3.686143398284912,2.2408783435821533,9.044869422912598
1711550152441603000,20.57060302734375,-3.6131622791290283,2.194218397140503,9.448060035705566
1711550152460562000,20.58956201171875,-3.500699520111084,2.4083759784698486,9.579665184020996
1711550152479520500,20.6085205078125,-3.559323787689209,2.4335005283355713,8.877371788024902
1711550152498479400,20.627479248046875,-3.7148571014404297,2.194218397140503,8.658429145812988
1711550152517438000,20.64643798828125,-3.6813576221466064,1.9800606966018677,9.06999397277832
1711550152536396800,20.665396728515624,-3.7196428775787354,1.703689694404602,9.081958770751953
1711550152555355400,20.68435546875,-3.759124279022217,1.561316728591919,8.928817749023438
1711550152574314200,20.703314208984374,-3.4504501819610596,1.5780665874481201,8.926424980163574
1711550152593272800,20.72227294921875,-3.649054527282715,1.7240287065505981,9.243474006652832
1711550152612231700,20.741231689453127,-3.321237802505493,1.903490424156189,9.500701904296875
1711550152631190300,20.760190185546875,-2.882154941558838,1.7467604875564575,9.519845008850098
1711550152650149000,20.779149169921876,-2.5842485427856445,1.397408366203308,9.44447135925293
1711550152669107700,20.798107666015625,-2.59621262550354,1.2011969089508057,9.66939640045166
1711550152688066600,20.817066650390625,-2.4287149906158447,1.1413763761520386,10.374082565307617
1711550152707025200,20.836025146484374,-2.6189444065093994,1.1653046607971191,10.214960098266602
1711550152725984000,20.85498388671875,-2.7637102603912354,1.5912270545959473,9.266205787658691
1711550152744942600,20.873942626953124,-2.438286304473877,1.6582261323928833,8.011170387268066
1711550152763901400,20.8929013671875,-2.0554347038269043,1.3902299404144287,7.307680130004883
1711550152782860000,20.911860107421877,-1.6378871202468872,1.2143574953079224,7.636693477630615
1711550152801819000,20.93081884765625,-1.155733346939087,1.5589239597320557,8.548358917236328
1711550152820777500,20.949777587890626,-1.0528420209884644,2.0506489276885986,9.366703987121582
1711550152839736300,20.968736328125,-1.2143574953079224,1.8939191102981567,9.903892517089844
1711550152858695000,20.98769482421875,-1.923829436302185,1.4835500717163086,9.735198974609375
1711550152877653800,21.00665380859375,-1.8699909448623657,1.4715858697891235,9.720842361450195
1711550152896612400,21.0256123046875,-2.2372891902923584,1.963310956954956,8.889336585998535
1711550152915571200,21.0445712890625,-2.5591237545013428,1.6115660667419434,8.763712882995605
1711550152934529800,21.06352978515625,-2.6835505962371826,1.2023934125900269,9.4660062789917
1711550152953488600,21.082488525390627,-2.1200408935546875,1.97407865524292,10.153943061828613
1711550152972447200,21.101447265625,-1.3316057920455933,3.0664021968841553,10.527223587036133
1711550152991406000,21.120406005859376,-0.7716853022575378,3.0005996227264404,10.40638542175293
1711550153010364700,21.13936474609375,-0.989432156085968,2.6452653408050537,9.814162254333496
1711550153029323500,21.158323486328126,-2.142772674560547,2.640479803085327,8.123632431030273
1711550153048282000,21.1772822265625,-3.1788649559020996,2.785245656967163,6.784848690032959
1711550153067241000,21.196240966796875,-3.049652576446533,2.2444677352905273,5.849255084991455
1711550153086199800,21.21519970703125,-3.755535125732422,2.583052158355713,6.209374904632568
1711550153105158400,21.234158447265624,-3.5365917682647705,2.1918256282806396,7.8819580078125
1711550153124117000,21.253116943359377,-2.9934210777282715,0.42831525206565857,10.876575469970703
1711550153143075800,21.272075927734374,-2.266003131866455,-0.9918249845504761,12.698709487915039
1711550153162034700,21.29103466796875,-2.283949136734009,-0.7908278703689575,12.41396427154541
1711550153180993300,21.3099931640625,-2.282752752304077,-0.9619147181510925,12.750155448913574
1711550153199952100,21.3289521484375,-2.1882362365722656,-0.0011964113218709826,13.058829307556152
1711550153218910700,21.34791064453125,-2.1236300468444824,-0.014356935396790504,11.483156204223633
1711550153237869600,21.36686962890625,-3.5090744495391846,-0.11126625537872314,8.512466430664062
1711550153256828200,21.385828125,-4.82751989364624,-0.6329016089439392,6.491727828979492
1711550153275787000,21.404787109375,-5.505885124206543,-1.098305583000183,5.3455657958984375
1711550153294745600,21.42374560546875,-5.418546676635742,-1.0456634759902954,4.865804672241211
1711550153313704400,21.442704345703124,-3.6442689895629883,-0.43549370765686035,5.819344520568848
1711550153332663000,21.4616630859375,-2.939582586288452,-0.11844471842050552,7.592426300048828
1711550153351622000,21.480621826171873,-2.6285157203674316,0.989432156085968,8.602197647094727
1711550153370580700,21.499580810546874,-2.4646072387695312,2.3700907230377197,8.513663291931152
1711550153389539300,21.518539306640626,-0.08015955984592438,3.7950167655944824,7.409375190734863
1711550153408498200,21.537498291015623,2.36291241645813,2.2468605041503906,6.775277137756348
1711550153427456800,21.556456787109376,0.4163511395454407,1.022931694984436,5.864808082580566
1711550153446415600,21.57541552734375,-1.4608181715011597,2.4083759784698486,4.671986103057861
1711550153465374200,21.594374267578125,-0.33379876613616943,3.497110366821289,3.8225340843200684
1711550153484333000,21.6133330078125,0.4905286431312561,2.251646041870117,4.502095699310303
1711550153503291600,21.632291748046875,-2.6775684356689453,1.8987047672271729,7.542177200317383
1711550153522250500,21.65125048828125,-0.16869398951530457,1.6785650253295898,9.381061553955078
1711550153541209300,21.670209228515624,2.9216363430023193,1.4057832956314087,11.234302520751953
1711550153560168000,21.68916796875,3.6394832134246826,1.5433706045150757,13.448859214782715
1711550153579126800,21.708126708984373,3.895515203475952,1.074377417564392,14.459827423095703
1711550153598085600,21.727085693359374,2.878565549850464,0.8015955686569214,12.120842933654785
1711550153617044200,21.746044189453126,2.169093608856201,-0.31345975399017334,9.404989242553711
1711550153636003000,21.765003173828124,2.172683000564575,-3.1752755641937256,7.503891944885254
1711550153654961700,21.783961669921876,1.5984054803848267,-3.486342668533325,6.3529438972473145
1711550153673920500,21.80292041015625,1.552941918373108,-2.1200408935546875,7.343572616577148
1711550153692879400,21.82187939453125,2.4011974334716797,-1.9166508913040161,10.065408706665039
1711550153711838000,21.840837890625,2.0243279933929443,-2.076970100402832,12.695120811462402
1711550153730796500,21.859796630859375,3.700500249862671,-1.32921302318573,13.923834800720215
1711550153749755400,21.87875537109375,5.575276851654053,0.4737788736820221,14.618949890136719
1711550153768714200,21.89771435546875,4.559523582458496,2.255235433578491,16.007984161376953
1711550153787672800,21.9166728515625,2.2959132194519043,2.3126630783081055,16.778472900390625
1711550153806631700,21.935631591796874,2.0195422172546387,1.8891334533691406,16.057035446166992
1711550153825590500,21.954590576171874,2.7254250049591064,2.9347970485687256,14.295918464660645
1711550153844549000,21.973549072265627,1.0923235416412354,3.789034605026245,11.995220184326172
1711550153863508000,21.992508056640624,-0.9403793215751648,3.135794162750244,11.551351547241211
1711550153882466800,22.011466796875,-1.2430713176727295,2.090130567550659,10.846665382385254
1711550153901425400,22.03042529296875,-0.24646073579788208,1.7467604875564575,10.693524360656738
1711550153920384300,22.04938427734375,1.069591760635376,2.234896421432495,10.884950637817383
1711550153939343000,22.068343017578126,2.1655044555664062,2.093719720840454,11.308480262756348
1711550153958301700,22.0873017578125,2.550748825073242,1.9094724655151367,10.061819076538086
1711550153977260500,22.106260498046876,2.3856441974639893,2.090130567550659,9.426525115966797
1711550153996219400,22.125219482421876,2.0650060176849365,3.981656789779663,9.951749801635742
1711550154015178000,22.144177978515625,2.4909284114837646,4.741377830505371,10.470992088317871
1711550154034136800,22.16313671875,3.6681971549987793,3.3547372817993164,9.279366493225098
1711550154053095400,22.182095458984374,3.6227335929870605,4.262813568115234,8.342576026916504
1711550154072054300,22.20105419921875,3.1920254230499268,5.8683977127075195,8.971888542175293
1711550154091013000,22.22001318359375,3.376272678375244,4.884947299957275,9.688538551330566
1711550154109972000,22.238971923828124,2.9551360607147217,5.024927616119385,8.512466430664062
1711550154128930600,22.2579306640625,1.5026925802230835,5.0464630126953125,7.217949390411377
1711550154147889400,22.276889404296874,1.5493526458740234,3.572484254837036,6.045466423034668
1711550154166848000,22.295847900390626,1.7539390325546265,3.762713670730591,6.263213157653809
1711550154185806800,22.314806884765623,2.1846470832824707,4.872983455657959,6.680760860443115
1711550154204765700,22.333765625,1.7515461444854736,5.617151260375977,7.283751964569092
1711550154223724500,22.352724609375,1.8065811395645142,5.84446907043457,6.200999736785889
1711550154242683100,22.37168310546875,1.8029918670654297,6.08614444732666,5.483152866363525
1711550154261642000,22.39064208984375,1.5756736993789673,7.787441253662109,5.608776092529297
1711550154280600800,22.409600830078126,2.5220351219177246,8.109275817871094,6.26440954208374
1711550154299559700,22.4285595703125,2.8079774379730225,7.506284713745117,7.013363361358643
1711550154318518300,22.447518310546876,3.3966116905212402,7.0169525146484375,8.190631866455078
1711550154337477000,22.46647705078125,2.434697151184082,7.121040344238281,5.979663848876953
1711550154356436000,22.48543603515625,3.363112211227417,6.151947021484375,5.994020938873291
1711550154375394600,22.50439453125,3.445664644241333,6.382854461669922,5.7511491775512695
1711550154394353400,22.523353515625,3.1956145763397217,6.751348972320557,5.74397087097168
1711550154413312300,22.542312255859375,2.038684844970703,7.555337429046631,5.96171760559082
1711550154432271000,22.56127099609375,1.6785650253295898,8.055437088012695,6.398407936096191
1711550154451229700,22.580229736328125,0.6675975322723389,6.9930243492126465,5.933003902435303
1711550154470188500,22.5991884765625,1.9968105554580688,5.916254043579102,7.0683979988098145
1711550154489147400,22.6181474609375,1.2263215780258179,5.089533805847168,6.072983741760254
1711550154508106200,22.637106201171875,0.7178468108177185,5.134997367858887,5.359922885894775
1711550154527064800,22.65606494140625,0.9583254456520081,6.679564476013184,5.912664890289307
1711550154546023700,22.675023681640624,-0.2967100143432617,6.803991317749023,6.083751678466797
1711550154564982500,22.693982421875,0.5120640397071838,6.80159854888916,6.45822811126709
1711550154583941000,22.712941162109374,0.1950150430202484,6.898507595062256,6.446264266967773
1711550154602900200,22.731900146484374,0.4833501875400543,7.188039302825928,6.410371780395508
1711550154621858800,22.75085888671875,1.0683952569961548,7.210771083831787,6.653243541717529
1711550154640817700,22.769817626953124,1.6821542978286743,6.918846607208252,6.599404811859131
1711550154659776500,22.788776611328124,1.1892328262329102,7.010970115661621,5.1876397132873535
1711550154678735000,22.807735107421873,2.111665964126587,6.52044153213501,5.535795211791992
1711550154697694000,22.82669384765625,1.8867406845092773,7.751548767089844,5.307280540466309
1711550154716652800,22.84565283203125,1.5385849475860596,9.783055305480957,4.777270317077637
1711550154735611600,22.864611572265623,1.368694543838501,9.378668785095215,4.514060020446777
1711550154754570500,22.883570556640624,1.5840486288070679,8.496912956237793,4.73300313949585
1711550154773529000,22.902529052734376,1.5230315923690796,8.10688304901123,5.040481090545654
1711550154792488000,22.921488037109373,0.849452018737793,8.96231746673584,5.352744102478027
1711550154811446800,22.94044677734375,-0.30508488416671753,9.766305923461914,4.6372904777526855
1711550154830405600,22.959405517578126,-1.277767300605774,10.01156997680664,2.8929226398468018
1711550154849364500,22.978364501953124,-1.4991034269332886,8.790034294128418,1.7371892929077148
1711550154868323000,22.997322998046876,-0.5982056856155396,7.722835063934326,2.89172625541687
1711550154887282000,23.016281982421877,-0.28235307335853577,6.963113784790039,3.9122650623321533
1711550154906240800,23.03524072265625,0,6.896114826202393,4.25084924697876
1711550154925199600,23.05419970703125,0.7130611538887024,7.076773166656494,5.358726501464844
1711550154944158200,23.073158203125,2.087737798690796,7.898707389831543,6.687939167022705
1711550154963117000,23.092116943359375,2.2791635990142822,8.111668586730957,6.996613502502441
1711550154982076000,23.111075927734376,2.1750757694244385,8.14636516571045,6.612565517425537
1711550155001034800,23.13003466796875,2.417947292327881,7.9250288009643555,6.592226505279541
1711550155019993600,23.14899365234375,2.42512583732605,7.794619560241699,6.535995006561279
1711550155038952200,23.1679521484375,2.6739792823791504,7.812565803527832,6.758527755737305
1711550155057911000,23.1869111328125,2.7553353309631348,7.345965385437012,7.137789726257324
1711550155076870000,23.205869873046876,1.8604196310043335,6.8997039794921875,6.892525672912598
1711550155095828700,23.224828857421876,1.3806586265563965,6.766902446746826,6.3601226806640625
1711550155114787600,23.24378759765625,1.5194423198699951,6.64486837387085,6.348158359527588
1711550155133746400,23.262746337890626,1.5828521251678467,6.601797580718994,6.519245147705078
1711550155152705000,23.281705078125,1.046859860420227,7.070790767669678,6.125626087188721
1711550155171664000,23.300663818359375,0.7537391185760498,7.1988067626953125,5.886343479156494
1711550155190622700,23.319622802734376,1.2658032178878784,6.839883327484131,6.565905570983887
1711550155209581600,23.33858154296875,2.187039852142334,6.757331371307373,7.445267677307129
1711550155228540400,23.35754052734375,1.5948163270950317,6.348158359527588,7.058826923370361
1711550155247499300,23.376499267578126,1.7395820617675781,6.6006011962890625,6.952346324920654
1711550155266457900,23.395457763671875,1.5170495510101318,7.7180495262146,7.101897716522217
1711550155285416700,23.414416748046875,1.4919248819351196,7.984848976135254,7.046862602233887
1711550155304375600,23.43337548828125,1.1413763761520386,7.799405574798584,6.833901405334473
1711550155323334400,23.45233447265625,0.8039883971214294,7.146164894104004,6.929614543914795
1711550155342293000,23.47129296875,0.50129634141922,6.062216281890869,6.519245147705078
1711550155361252000,23.490252197265626,0.9379864931106567,5.087141036987305,6.387639999389648
1711550155380210700,23.509210693359375,1.2801600694656372,5.237888813018799,6.391229152679443
1711550155399169500,23.52816943359375,1.3639088869094849,6.970292568206787,7.459624767303467
1711550155418128400,23.54712841796875,1.542174220085144,7.59362268447876,8.447860717773438
1711550155437087200,23.566087158203125,1.8999011516571045,6.984649181365967,8.342576026916504
1711550155456046000,23.585046142578125,1.8448662757873535,6.284748554229736,8.066205024719238
1711550155475004700,23.604004638671874,1.1330015659332275,6.8279194831848145,8.315058708190918
1711550155493963500,23.622963623046875,0.7082754969596863,7.619943618774414,8.798408508300781
1711550155512922400,23.64192236328125,0.9403793215751648,7.134200572967529,8.71226692199707
1711550155531881200,23.660881103515624,0.6029912829399109,7.410571575164795,7.495516777038574
1711550155550840000,23.679840087890625,-0.2919243574142456,7.491927623748779,6.514459609985352
1711550155569799000,23.698798828125,-0.6245267391204834,7.17368221282959,6.2500529289245605
1711550155588757500,23.717757568359374,-0.22133609652519226,6.881757736206055,6.592226505279541
1711550155607716400,23.73671630859375,0.12681959569454193,6.763313293457031,7.1820573806762695
1711550155626675200,23.75567529296875,0.27038896083831787,6.650850772857666,7.289734363555908
1711550155645634000,23.774634033203125,0.44745782017707825,6.553941249847412,7.054041385650635
1711550155664593000,23.793593017578125,0.6161518096923828,6.33499813079834,7.074379920959473
1711550155683551700,23.8125517578125,1.0803594589233398,6.385247230529785,7.562515735626221
1711550155702510600,23.831510498046875,1.6917256116867065,6.823133945465088,8.070990562438965
1711550155721469200,23.85046923828125,1.7647067308425903,7.133004188537598,8.46341323852539
1711550155740428000,23.869427978515624,1.4739787578582764,5.615954875946045,8.187042236328125
1711550155759387000,23.888386962890625,0.7597211599349976,5.285745143890381,7.448856830596924
1711550155778345700,23.907345703125,0.32183465361595154,5.84446907043457,7.64865779876709
1711550155797304600,23.9263046875,0.6687939167022705,6.484549522399902,7.5565338134765625
1711550155816263400,23.945263427734375,1.3722838163375854,6.248856544494629,8.091329574584961
1711550155835222000,23.964221923828124,1.568495273590088,6.453442573547363,7.8628153800964355
1711550155854180900,23.983180908203124,1.031306505203247,6.562315940856934,7.245467185974121
1711550155873139700,24.0021396484375,0.7980063557624817,6.337390899658203,7.4572319984436035
1711550155892098600,24.0210986328125,0.380458801984787,6.168696880340576,7.477570533752441
1711550155911057400,24.040057373046874,0.7202396392822266,5.649454116821289,7.6390862464904785
1711550155930016300,24.059016357421875,1.4895321130752563,5.112265586853027,7.886743545532227
1711550155948975000,24.07797509765625,1.7096717357635498,5.678168296813965,7.719245910644531
1711550155967933700,24.09693359375,2.0374884605407715,6.510870456695557,8.188239097595215
1711550155986892500,24.115892578125,2.1583259105682373,6.989434719085693,9.006584167480469
1711550156005851400,24.134851318359374,2.0961127281188965,7.013363361358643,9.017352104187012
1711550156024810200,24.153810302734374,1.9310078620910645,6.348158359527588,8.70508861541748
1711550156043768800,24.172768798828123,2.2815563678741455,6.641279220581055,9.047262191772461
1711550156062727700,24.191727783203124,1.690529227256775,7.441678524017334,8.892925262451172
1711550156081686500,24.2106865234375,1.155733346939087,7.629515171051025,7.954938888549805
1711550156100645400,24.229645263671873,1.176072359085083,5.465207099914551,7.735995769500732
1711550156119604200,24.248604248046874,0.41994038224220276,4.828716278076172,7.8077802658081055
1711550156138563000,24.26756298828125,0.009571290574967861,6.110072612762451,8.193024635314941
1711550156157521700,24.286521728515623,0.02751746028661728,6.939185619354248,7.908278942108154
1711550156176480500,24.30548046875,0.9487541913986206,5.571687698364258,7.739584922790527
1711550156195439400,24.324439453125,1.25144624710083,4.955535888671875,6.792026996612549
1711550156214398200,24.343398193359373,1.2035897970199585,6.398407936096191,6.6484575271606445
1711550156233357000,24.362357177734374,1.6809579133987427,6.86381196975708,7.314858913421631
1711550156252316000,24.38131591796875,2.2205393314361572,4.809573650360107,7.554141044616699
1711550156271274800,24.400274658203124,1.978864312171936,4.782055854797363,7.5050883293151855
1711550156290233300,24.4192333984375,1.789831280708313,5.468796253204346,7.080362319946289
1711550156309192200,24.438192138671877,1.848455548286438,5.309673309326172,7.003791809082031
1711550156328151000,24.457151123046874,1.3926228284835815,5.650650501251221,7.366304397583008
1711550156347110000,24.47610986328125,1.430907964706421,4.789234638214111,7.226324558258057
1711550156366068700,24.49506884765625,0.33379876613616943,4.7605204582214355,6.978667259216309
1711550156385027600,24.514027587890624,-0.30149564146995544,5.580062389373779,7.1988067626953125
1711550156403986200,24.532986083984376,-0.3026920557022095,4.814359188079834,7.3304123878479
