time,seconds_elapsed,z,y,x
1707004677096907500,0.123907470703125,0.22449280321598053,0.2565632164478302,0.2666424810886383
1707004677115864300,0.1428642578125,0.20158538222312927,0.14019346237182617,0.2733619809150696
1707004677134820900,0.16182080078125,0.19608759880065918,0.05803215503692627,0.26939135789871216
1707004677153777700,0.180777587890625,0.19242240488529205,-0.007330377586185932,0.25473061203956604
1707004677172734200,0.199734130859375,0.18112140893936157,-0.08613193035125732,0.25045454502105713
1707004677191691000,0.21869091796875,0.16218459606170654,-0.21288637816905975,0.24709481000900269
1707004677210647600,0.2376474609375,0.15027274191379547,-0.4324922561645508,0.2214384824037552
1707004677229604000,0.25660400390625,0.168904110789299,-0.721431314945221,0.1844811588525772
1707004677248561000,0.275560791015625,0.19730933010578156,-0.952643632888794,0.16310089826583862
1707004677267517400,0.294517333984375,0.18295399844646454,-0.9966259002685547,0.1594357043504715
1707004677286474200,0.31347412109375,0.12247838824987411,-0.8341358304023743,0.14538581669330597
1707004677305430800,0.3324306640625,0.0922405794262886,-0.6633991599082947,0.1493564397096634
1707004677324387300,0.35138720703125,0.11117739230394363,-0.4789179861545563,0.1951712965965271
1707004677343344000,0.37034423828125,0.10476330667734146,-0.28496840596199036,0.18814635276794434
1707004677362300700,0.38930078125,0.11087195575237274,-0.07269290834665298,0.15668681263923645
1707004677381257200,0.40825732421875,0.13011419773101807,0.14660754799842834,0.14110976457595825
1707004677400214000,0.427214111328125,0.16615521907806396,0.4584540128707886,0.11911863088607788
1707004677419170600,0.446170654296875,0.13072505593299866,0.6963858604431152,0.0873536616563797
1707004677438127400,0.46512744140625,0.06963858753442764,0.6808087825775146,0.07849612087011337
1707004677457084000,0.484083984375,0.0766635313630104,0.5326740741729736,0.04734202101826668
1707004677476040400,0.50304052734375,0.06750056147575378,0.4318813979625702,-0.0204639695584774
1707004677494997200,0.521997314453125,0.02718348242342472,0.36254823207855225,-0.05528326332569122
1707004677513953800,0.540953857421875,0.01893680728971958,0.33505934476852417,-0.08338304609060287
1707004677532910600,0.55991064453125,0.04367683082818985,0.3280344009399414,-0.11636973917484283
1707004677551867100,0.5788671875,0.005803215317428112,0.19150610268115997,-0.13103049993515015
1707004677570823700,0.59782373046875,-0.03543015569448471,-0.01893680728971958,-0.12705987691879272
1707004677589780500,0.616780517578125,-0.07024945318698883,-0.1740964651107788,-0.14263692498207092
1707004677608737000,0.635737060546875,-0.09346231073141098,-0.1905898153781891,-0.14660754799842834
1707004677627693800,0.65469384765625,-0.12644900381565094,-0.1130099818110466,-0.15149445831775665
1707004677646650400,0.673650390625,-0.15057817101478577,-0.07024945318698883,-0.13927717506885529
1707004677665607000,0.69260693359375,-0.15607595443725586,-0.04214967042207718,-0.14019346237182617
1707004677684563700,0.711563720703125,-0.1646280586719513,-0.00946840364485979,-0.1536324918270111
1707004677703520300,0.730520263671875,-0.1792888194322586,-0.011911863461136818,-0.17348559200763702
1707004677722476800,0.749476806640625,-0.19730933010578156,-0.08949168771505356,-0.20250166952610016
1707004677741433600,0.76843359375,-0.20616686344146729,-0.2202167510986328,-0.21380266547203064
1707004677760390100,0.78739013671875,-0.23823726177215576,-0.42882707715034485,-0.20952661335468292
1707004677779347000,0.806346923828125,-0.2816086709499359,-0.684473991394043,-0.2000582218170166
1707004677798303500,0.825303466796875,-0.26389357447624207,-0.9230166673660278,-0.189673513174057
1707004677817260000,0.844260009765625,-0.24006985127925873,-1.0766491889953613,-0.1750127524137497
1707004677836216800,0.863216796875,-0.2577849328517914,-1.0836740732192993,-0.17195843160152435
1707004677855173400,0.88217333984375,-0.25961753726005554,-0.9789108037948608,-0.1444695144891739
1707004677874130200,0.901130126953125,-0.42424559593200684,-0.8823941946029663,-0.09346231073141098
1707004677893086700,0.920086669921875,-0.4114174246788025,-0.8069523572921753,-0.025350889191031456
1707004677912043300,0.939043212890625,-0.4712821841239929,-0.8219185471534729,-0.012522728182375431
1707004677931000000,0.958,-0.4175260663032532,-0.9257655739784241,-0.017715077847242355
1707004677949956600,0.97695654296875,-0.44929105043411255,-1.092531681060791,-0.04550942778587341
1707004677968913200,0.9959130859375,-0.471587598323822,-1.2828160524368286,-0.05192350596189499
1707004677987870000,1.014869873046875,-0.5491674542427063,-1.3582578897476196,0.010079269297420979
1707004678006826500,1.033826416015625,-0.6041452884674072,-1.4178171157836914,0.03481929376721382
1707004678025783300,1.052783203125,-0.7128791809082031,-1.6994258165359497,0.006414080038666725
1707004678044739800,1.07173974609375,-0.7724385261535645,-2.1942262649536133,-0.0818558782339096
1707004678063696400,1.0906962890625,-0.7449495792388916,-2.480721950531006,-0.1438586562871933
1707004678082653200,1.109653076171875,-0.7480039000511169,-2.2626430988311768,-0.14721840620040894
1707004678101609700,1.128609619140625,-0.8851430416107178,-1.7602068185806274,-0.0824667438864708
1707004678120566300,1.147566162109375,-0.9804379940032959,-1.2941170930862427,-0.04367683082818985
1707004678139523000,1.166523193359375,-0.9330959320068359,-0.8527672290802002,-0.00946840364485979
1707004678158479600,1.185479736328125,-0.8518509268760681,-0.5665770769119263,0.03940077871084213
1707004678177436400,1.2044365234375,-0.8933897614479065,-0.46914416551589966,0.0922405794262886
1707004678196393000,1.22339306640625,-0.9841031432151794,-0.5720748901367188,0.1496618688106537
1707004678215349500,1.242349609375,-0.9495893120765686,-0.6569850444793701,0.14660754799842834
1707004678234306300,1.261306396484375,-0.8304706811904907,-0.5760455131530762,0.1493564397096634
1707004678253262800,1.280262939453125,-0.7776308655738831,-0.32192572951316833,0.15607595443725586
1707004678272219400,1.299219482421875,-0.7706059217453003,-0.06261363625526428,0.1698204129934311
1707004678291176200,1.31817626953125,-0.684473991394043,0.24770566821098328,0.23518294095993042
1707004678310132700,1.3371328125,-0.5607738494873047,0.7052434086799622,0.2571740746498108
1707004678329089300,1.35608935546875,-0.48502662777900696,1.0146464109420776,0.21288637816905975
1707004678348046000,1.375046142578125,-0.4972439408302307,0.9957095980644226,0.1905898153781891
1707004678367002600,1.394002685546875,-0.46059203147888184,0.5897899270057678,0.20616686344146729
1707004678385959400,1.41295947265625,-0.4780016839504242,-0.14172062277793884,0.2211330533027649
1707004678404916000,1.431916015625,-0.5797106623649597,-1.112079381942749,0.2510654330253601
1707004678423872500,1.45087255859375,-0.5684096813201904,-2.050978422164917,0.26908594369888306
1707004678442829300,1.469829345703125,-0.41447174549102783,-2.5683810710906982,0.11636973917484283
1707004678461785900,1.488785888671875,-0.3836230933666229,-2.5998404026031494,0.07086031138896942
1707004678480742400,1.507742431640625,-0.48594292998313904,-2.505767345428467,0.16340632736682892
1707004678499699200,1.52669921875,-0.42852163314819336,-2.377180337905884,0.22907429933547974
1707004678518655700,1.54565576171875,-0.2971857190132141,-2.3063199520111084,0.24862197041511536
1707004678537612500,1.564612548828125,-0.2412915825843811,-2.4287984371185303,0.24709481000900269
1707004678556569000,1.583569091796875,-0.22204934060573578,-2.7259840965270996,0.24709481000900269
1707004678575525600,1.602525634765625,-0.13194678723812103,-2.900080442428589,0.2110537886619568
1707004678594482400,1.621482421875,0.004886918235570192,-2.8622069358825684,0.0513126403093338
1707004678613439000,1.64043896484375,-0.05894844979047775,-2.4914119243621826,-0.004886918235570192
1707004678632395500,1.6593955078125,0.004886918235570192,-2.3906192779541016,0.0054977829568088055
1707004678651352300,1.678352294921875,-0.16676609218120575,-1.5335760116577148,-0.10690133273601532
1707004678670308900,1.697308837890625,-0.28527384996414185,-1.081230640411377,-0.22510367631912231
1707004678689265700,1.716265625,-0.3842339515686035,-0.12767073512077332,-0.2910770773887634
1707004678708222200,1.73522216796875,-0.4153880476951599,0.6811142563819885,-0.27366742491722107
1707004678727178800,1.7541787109375,-0.4355465769767761,1.0177006721496582,-0.24556763470172882
1707004678746135600,1.773135498046875,-0.41844236850738525,0.7440332770347595,-0.21197007596492767
1707004678765092000,1.792092041015625,-0.3808741867542267,0.32528549432754517,-0.2513708472251892
1707004678784049000,1.811048828125,-0.3591884970664978,-0.025045456364750862,-0.3133736252784729
1707004678803005400,1.83000537109375,-0.4410443603992462,-0.12247838824987411,-0.3442223072052002
1707004678821962000,1.8489619140625,-0.6212494969367981,-0.08277218043804169,-0.33139413595199585
1707004678840918800,1.867918701171875,-0.7968730926513672,-0.17073670029640198,-0.3197877109050751
1707004678859875300,1.886875244140625,-0.926376461982727,-0.2971857190132141,-0.3170388340950012
1707004678878832000,1.90583203125,-1.0607666969299316,-0.36774060130119324,-0.35582873225212097
1707004678897788700,1.92478857421875,-1.1801908016204834,-0.41355544328689575,-0.37354379892349243
1707004678916745200,1.9437451171875,-1.2620465755462646,-0.2938259541988373,-0.3814850449562073
1707004678935702000,1.962701904296875,-1.3069452047348022,-0.12156209349632263,-0.3381136655807495
1707004678954658600,1.981658447265625,-1.3310743570327759,0.056199558079242706,-0.2706131041049957
1707004678973615400,2.000615478515625,-1.3380992412567139,0.16737695038318634,-0.21868959069252014
1707004678992572000,2.019572021484375,-1.2922844886779785,0.17837251722812653,-0.1594357043504715
1707004679011528400,2.038528564453125,-1.1853830814361572,0.07147117704153061,-0.09529490768909454
1707004679030485200,2.0574853515625,-1.0558797121047974,-0.1026252806186676,-0.024434590712189674
1707004679049441800,2.07644189453125,-0.9334014058113098,-0.2309068888425827,0.04276053607463837
1707004679068398600,2.095398681640625,-0.7932079434394836,-0.20891575515270233,0.10629047453403473
1707004679087355100,2.114355224609375,-0.674700140953064,-0.09834922850131989,0.1533270627260208
1707004679106312000,2.13331201171875,-0.6417134404182434,0.024740023538470268,0.1951712965965271
1707004679125268500,2.1522685546875,-0.6239983439445496,0.13927717506885529,0.24251331388950348
1707004679144225000,2.17122509765625,-0.583375871181488,0.21258094906806946,0.2684750556945801
1707004679163181800,2.190181884765625,-0.5467239618301392,0.17043127119541168,0.22937972843647003
1707004679182138400,2.209138427734375,-0.5012145638465881,0.06383536756038666,0.17043127119541168
1707004679201095200,2.22809521484375,-0.401949018239975,-0.007024944759905338,0.11453714966773987
1707004679220051700,2.2470517578125,-0.2788597643375397,0.03390299528837204,0.08460476994514465
1707004679239008300,2.26600830078125,-0.24526220560073853,0.2577849328517914,0.11911863088607788
1707004679257965000,2.284965087890625,-0.29993459582328796,0.46914416551589966,0.1127045527100563
1707004679276921600,2.303921630859375,-0.3090975880622864,0.6068941354751587,0.15760311484336853
1707004679295878400,2.32287841796875,-0.3329212963581085,0.6890554428100586,0.2208276242017746
1707004679314835000,2.3418349609375,-0.31612253189086914,0.6750055551528931,0.24862197041511536
1707004679333791500,2.36079150390625,-0.3194822669029236,0.6801979541778564,0.24465134739875793
1707004679352748300,2.379748291015625,-0.34788748621940613,0.7165443897247314,0.2107483446598053
1707004679371704800,2.398704833984375,-0.36651885509490967,0.7379246354103088,0.1533270627260208
1707004679390661600,2.41766162109375,-0.4062250852584839,0.7177661061286926,0.09468404203653336
1707004679409618200,2.4366181640625,-0.4471530318260193,0.6866120100021362,0.017715077847242355
1707004679428574700,2.45557470703125,-0.43310311436653137,0.6539307236671448,-0.09101885557174683
1707004679447531500,2.474531494140625,-0.40927940607070923,0.5986474752426147,-0.1795942485332489
1707004679466488000,2.493488037109375,-0.3851502537727356,0.5482511520385742,-0.24312418699264526
1707004679485444900,2.51244482421875,-0.34055712819099426,0.535728394985199,-0.29046618938446045
1707004679504401400,2.5314013671875,-0.30054548382759094,0.5299251675605774,-0.2993237376213074
1707004679523358200,2.550358154296875,-0.2877173125743866,0.5030471682548523,-0.27397283911705017
1707004679542314800,2.569314697265625,-0.2721402645111084,0.48013970255851746,-0.24434591829776764
1707004679561271600,2.588271484375,-0.25442516803741455,0.4309650957584381,-0.20799945294857025
1707004679580228000,2.60722802734375,-0.24923282861709595,0.3805687427520752,-0.18173226714134216
1707004679599185000,2.626184814453125,-0.25045454502105713,0.30146175622940063,-0.1649334877729416
1707004679618141400,2.645141357421875,-0.2620609998703003,0.2415970265865326,-0.1637117564678192
1707004679637098200,2.66409814453125,-0.2620609998703003,0.23426663875579834,-0.1640172004699707
1707004679656054800,2.6830546875,-0.2360992431640625,0.19822561740875244,-0.18845178186893463
1707004679675011300,2.70201123046875,-0.19364413619041443,0.11026109009981155,-0.2107483446598053
1707004679693968100,2.720968017578125,-0.1539379209280014,-0.011606430634856224,-0.22204934060573578
1707004679712924700,2.739924560546875,-0.1127045527100563,-0.16096286475658417,-0.22999058663845062
1707004679731881500,2.758881591796875,-0.0513126403093338,-0.3430005609989166,-0.24770566821098328
1707004679750838000,2.777838134765625,-0.006414080038666725,-0.4838049113750458,-0.2568686306476593
1707004679769794800,2.796794921875,-0.0027488914784044027,-0.5189296007156372,-0.23762640357017517
1707004679788751400,2.81575146484375,-0.015271619893610477,-0.5794052481651306,-0.2208276242017746
1707004679807708200,2.834708251953125,-0.034208428114652634,-0.6545416116714478,-0.21930044889450073
1707004679826664700,2.853664794921875,-0.08277218043804169,-0.6826413869857788,-0.21777328848838806
1707004679845621500,2.87262158203125,-0.10537417232990265,-0.748920202255249,-0.1737910360097885
1707004679864578000,2.891578125,-0.06902772188186646,-0.7663298845291138,-0.1081230640411377
1707004679883534800,2.910534912109375,-0.05283980444073677,-0.7382301092147827,-0.08613193035125732
1707004679902491400,2.929491455078125,-0.06750056147575378,-0.7492256760597229,-0.07971785217523575
1707004679921448200,2.9484482421875,-0.10354158282279968,-0.7528908252716064,-0.003665188793092966
1707004679940404700,2.96740478515625,-0.13439024984836578,-0.7174606919288635,0.07605266571044922
1707004679959361300,2.986361328125,-0.16676609218120575,-0.648127555847168,0.0977383628487587
1707004679978318000,3.005318115234375,-0.20647229254245758,-0.5900954008102417,0.10567960888147354
1707004679997274600,3.024274658203125,-0.22449280321598053,-0.5018253922462463,0.1288924664258957
1707004680016231400,3.0432314453125,-0.2315177470445633,-0.3543015718460083,0.11178825795650482
1707004680035188000,3.06218798828125,-0.22663083672523499,-0.21502439677715302,0.10231985151767731
1707004680054144500,3.08114453125,-0.18906265497207642,-0.08643736690282822,0.1334739476442337
1707004680073101300,3.100101318359375,-0.14110976457595825,0.06994401663541794,0.1744018942117691
1707004680092057900,3.119057861328125,-0.1383608728647232,0.18570289015769958,0.2006690800189972
1707004680111014700,3.1380146484375,-0.16340632736682892,0.2254091054201126,0.22449280321598053
1707004680129971200,3.15697119140625,-0.15668681263923645,0.23976442217826843,0.24709481000900269
1707004680148928000,3.175927978515625,-0.10567960888147354,0.22999058663845062,0.29413139820098877
1707004680167884500,3.194884521484375,-0.048563748598098755,0.33750277757644653,0.33689191937446594
1707004680186841300,3.21384130859375,-0.003665188793092966,0.4932733178138733,0.33628106117248535
1707004680205798000,3.2327978515625,0.03543015569448471,0.6371319890022278,0.3610210716724396
1707004680224754700,3.251754638671875,0.06780599057674408,0.7916807532310486,0.3949240744113922
1707004680243711200,3.270711181640625,0.06933315098285675,0.9364557266235352,0.3897317349910736
1707004680262668000,3.28966796875,0.06322450190782547,0.9352339506149292,0.3390299379825592
1707004680281624600,3.30862451171875,0.06811141967773438,0.8286380767822266,0.2458730787038803
1707004680300581400,3.327581298828125,0.03543015569448471,0.6185005903244019,0.2202167510986328
1707004680319538000,3.346537841796875,0.038789913058280945,0.39400777220726013,0.1899789422750473
1707004680338494700,3.36549462890625,0.0873536616563797,0.22388194501399994,0.0922405794262886
1707004680357451300,3.384451171875,0.11759147047996521,0.048563748598098755,0.01282816007733345
1707004680376408000,3.403407958984375,0.1285870373249054,-0.06536252796649933,-0.034208428114652634
1707004680395364600,3.422364501953125,0.1279761642217636,-0.13775001466274261,-0.08613193035125732
1707004680414321400,3.4413212890625,0.10415244847536087,-0.20250166952610016,-0.12003492563962936
1707004680433278000,3.46027783203125,0.13775001466274261,-0.2660316228866577,-0.12278381735086441
1707004680452234800,3.47923486328125,0.17104214429855347,-0.3607156574726105,-0.11362084746360779
1707004680471191300,3.49819140625,0.08399390429258347,-0.47433650493621826,-0.13561198115348816
1707004680490147800,3.51714794921875,-0.000305432389723137,-0.4673115611076355,-0.12522727251052856
1707004680509104600,3.536104736328125,-0.007024944759905338,-0.31154105067253113,-0.10903936624526978
1707004680528061200,3.555061279296875,-0.010079269297420979,-0.13713914155960083,-0.12553271651268005
1707004680547018000,3.57401806640625,-0.041844237595796585,-0.05406153202056885,-0.14233149588108063
1707004680565974500,3.592974609375,-0.024740023538470268,-0.04978547990322113,-0.1282816082239151
1707004680584931300,3.611931396484375,0.0027488914784044027,-0.07452550530433655,-0.09132428467273712
1707004680603887900,3.630887939453125,0.027488915249705315,-0.13530655205249786,-0.07391463965177536
1707004680622844700,3.6498447265625,0.06719512492418289,-0.17256930470466614,-0.06536252796649933
1707004680641801200,3.66880126953125,0.09437860548496246,-0.20219624042510986,-0.05406153202056885
1707004680660758000,3.687758056640625,0.07238747924566269,-0.3329212963581085,-0.08826996386051178
1707004680679714600,3.706714599609375,0.035124726593494415,-0.47494736313819885,-0.10048725455999374
1707004680698671400,3.72567138671875,0.006719512399286032,-0.5128209590911865,-0.07269290834665298
1707004680717628000,3.7446279296875,-0.0009162971982732415,-0.5088503360748291,-0.06017018109560013
1707004680736584700,3.763584716796875,-0.000305432389723137,-0.4535670876502991,-0.07055488228797913
1707004680755541200,3.782541259765625,-0.03176496922969818,-0.42363473773002625,-0.09804379940032959
1707004680774497800,3.801497802734375,-0.10201441496610641,-0.3597993552684784,-0.11698060482740402
1707004680793454600,3.82045458984375,-0.14630211889743805,-0.23945899307727814,-0.1127045527100563
1707004680812411100,3.8394111328125,-0.10384701192378998,0.015577051788568497,-0.13958260416984558
1707004680831368000,3.858367919921875,-0.027488915249705315,0.21319180727005005,-0.13744457066059113
1707004680850324500,3.877324462890625,0.021380268037319183,0.2834412455558777,-0.11911863088607788
1707004680869281300,3.89628125,0.04245510324835777,0.20952661335468292,-0.08368847519159317
1707004680888237800,3.91523779296875,0.08521563559770584,0.07544180005788803,-0.03848448023200035
1707004680907194600,3.934194580078125,0.12675444781780243,0.11056652665138245,0.012522728182375431
1707004680926151200,3.953151123046875,0.15821397304534912,0.3023780584335327,0.05436696484684944
1707004680945108000,3.97210791015625,0.2510654330253601,0.5595521330833435,0.07757982611656189
1707004680964064500,3.991064453125,0.3659079968929291,0.776714563369751,0.0974329337477684
1707004680983021300,4.010021240234375,0.4263836145401001,0.8817833065986633,0.11942406743764877
1707004681001977900,4.028977783203125,0.5036579966545105,0.878118097782135,0.1539379209280014
1707004681020934700,4.0479345703125,0.6224712133407593,0.8552106618881226,0.19120067358016968
1707004681039891200,4.06689111328125,0.7229584455490112,0.8225294351577759,0.1795942485332489
1707004681058847700,4.08584765625,0.7333431839942932,0.794124186038971,0.21746785938739777
1707004681077804500,4.104804443359375,0.7018836140632629,0.721431314945221,0.2461785078048706
1707004681096761000,4.123760986328125,0.7492256760597229,0.6533198952674866,0.2608392536640167
1707004681115718000,4.1427177734375,0.8335250020027161,0.5937605500221252,0.2663370370864868
1707004681134674400,4.16167431640625,0.8851430416107178,0.5375609993934631,0.25961753726005554
1707004681153631200,4.18063134765625,0.8381064534187317,0.40927940607070923,0.21166464686393738
1707004681172587800,4.199587890625,0.7507528066635132,0.21502439677715302,0.1902843713760376
1707004681191544600,4.218544677734375,0.7336485981941223,0.1695149689912796,0.205861434340477
1707004681210501000,4.237501220703125,0.7333431839942932,0.27519458532333374,0.20647229254245758
1707004681229458000,4.2564580078125,0.7095194458961487,0.406530499458313,0.21288637816905975
1707004681248414500,4.27541455078125,0.6823359727859497,0.5513054728507996,0.21471896767616272
1707004681267371300,4.294371337890625,0.703410804271698,0.6362156867980957,0.2510654330253601
1707004681286327800,4.313327880859375,0.7052434086799622,0.5876519083976746,0.20372340083122253
1707004681305284600,4.33228466796875,0.6322450637817383,0.4156934916973114,0.17104214429855347
1707004681324241200,4.3512412109375,0.5568032264709473,0.17531819641590118,0.12247838824987411
1707004681343198000,4.370197998046875,0.48930269479751587,-0.0616973415017128,0.04825831577181816
1707004681362154500,4.389154541015625,0.4062250852584839,-0.20830489695072174,-0.03023780696094036
1707004681381111300,4.408111328125,0.33505934476852417,-0.24342961609363556,-0.0922405794262886
1707004681400067800,4.42706787109375,0.2922987937927246,-0.17195843160152435,-0.15088360011577606
1707004681419024600,4.446024658203125,0.28038692474365234,-0.02412915788590908,-0.2202167510986328
1707004681437981200,4.464981201171875,0.2987128794193268,0.1496618688106537,-0.23854269087314606
1707004681456938000,4.48393798828125,0.2935205399990082,0.2974911332130432,-0.24312418699264526
1707004681475894500,4.50289453125,0.268169641494751,0.3017672002315521,-0.2513708472251892
1707004681494851000,4.52185107421875,0.25045454502105713,0.13439024984836578,-0.25870123505592346
1707004681513808000,4.540807861328125,0.24831652641296387,-0.1233946830034256,-0.26450446248054504
1707004681532764400,4.559764404296875,0.22937972843647003,-0.4068359434604645,-0.281914085149765
1707004681551721200,4.57872119140625,0.19853104650974274,-0.6640099883079529,-0.2938259541988373
1707004681570677800,4.597677734375,0.17837251722812653,-0.8280271887779236,-0.3430005609989166
1707004681589634600,4.616634521484375,0.0977383628487587,-0.9972367286682129,-0.38850998878479004
1707004681608591000,4.635591064453125,0.0054977829568088055,-1.204319953918457,-0.30024003982543945
1707004681627548000,4.6545478515625,-0.0720820426940918,-1.322827696800232,-0.164322629570961
1707004681646504400,4.67350439453125,-0.09498947113752365,-1.3469568490982056,-0.14508038759231567
1707004681665461000,4.6924609375,-0.16584978997707367,-1.3891065120697021,-0.14508038759231567
1707004681684417800,4.711417724609375,-0.2666424810886383,-1.4825688600540161,-0.0873536616563797
1707004681703374300,4.730374267578125,-0.34208428859710693,-1.4935643672943115,-0.033597562462091446
1707004681722331100,4.7493310546875,-0.39858928322792053,-1.3994911909103394,-0.026572618633508682
1707004681741287700,4.76828759765625,-0.4410443603992462,-1.1902700662612915,-0.025961752980947495
1707004681760244500,4.787244384765625,-0.46395179629325867,-0.8778126835823059,-0.05864302068948746
1707004681779201000,4.806200927734375,-0.499381959438324,-0.5122101306915283,-0.14110976457595825
1707004681798157800,4.82515771484375,-0.5467239618301392,-0.21807873249053955,-0.17592905461788177
1707004681817114400,4.8441142578125,-0.5671879649162292,0.04886918142437935,-0.17684535682201385
1707004681836071200,4.8630712890625,-0.5464185476303101,0.24862197041511536,-0.19394956529140472
1707004681855027700,4.88202783203125,-0.5201513767242432,0.3497200906276703,-0.18264856934547424
1707004681873984500,4.900984619140625,-0.4938841760158539,0.38331764936447144,-0.14141519367694855
1707004681892941000,4.919941162109375,-0.48441576957702637,0.3952295184135437,-0.08124501258134842
1707004681911897900,4.93889794921875,-0.45387253165245056,0.40225446224212646,-0.01649334840476513
1707004681930854400,4.9578544921875,-0.3943132162094116,0.38881543278694153,0.02107483521103859
1707004681949811200,4.976811279296875,-0.3381136655807495,0.34605491161346436,0.035124726593494415
1707004681968767700,4.995767822265625,-0.3090975880622864,0.2910770773887634,0.02779434807598591
1707004681987724500,5.014724609375,-0.29565855860710144,0.18723005056381226,0.017104214057326317
1707004682006681000,5.03368115234375,-0.25931209325790405,0.09712749719619751,0.008246674202382565
1707004682025637600,5.0526376953125,-0.18356487154960632,0.04825831577181816,0.011606430634856224
1707004682044594400,5.071594482421875,-0.12583814561367035,0.026878049597144127,0.010690134018659592
1707004682063551000,5.090551025390625,-0.0821613147854805,-0.010690134018659592,0.001832594396546483
1707004682082507800,5.1095078125,-0.03695731982588768,-0.03543015569448471,0.011911863461136818
1707004682101464300,5.12846435546875,-0.013439024798572063,-0.006414080038666725,0.04001164436340332
1707004682120420900,5.1474208984375,0.015271619893610477,0.010995565913617611,0.0668896958231926
1707004682139377700,5.166377685546875,0.03940077871084213,0.02932151034474373,0.08918625861406326
1707004682158334200,5.185334228515625,0.05070177838206291,0.007024944759905338,0.07238747924566269
1707004682177291000,5.204291015625,0.05711585655808449,-0.059864748269319534,0.08582650125026703
1707004682196247600,5.22324755859375,0.049480047076940536,-0.10842850059270859,0.08979712426662445
1707004682215204400,5.242204345703125,0.006414080038666725,-0.07055488228797913,0.04520399495959282
1707004682234161000,5.261160888671875,-0.06841685622930527,0.003665188793092966,0.006414080038666725
1707004682253117700,5.28011767578125,-0.15302163362503052,0.11392628401517868,-0.02779434807598591
1707004682272074200,5.29907421875,-0.2608392536640167,0.20708316564559937,-0.04306596517562866
1707004682291031000,5.318031005859375,-0.37140578031539917,0.3588830530643463,-0.03817904740571976
1707004682309987600,5.336987548828125,-0.4657844007015228,0.5442805290222168,-0.04245510324835777
1707004682328944400,5.3559443359375,-0.5497782826423645,0.720820426940918,-0.04459312930703163
1707004682347901000,5.37490087890625,-0.6136136651039124,0.8029817342758179,-0.0461202897131443
1707004682366857700,5.393857666015625,-0.6291907429695129,0.8524618148803711,-0.008857538923621178
1707004682385814300,5.412814208984375,-0.6181951761245728,0.7867938280105591,-0.001832594396546483
1707004682404771000,5.43177099609375,-0.647516667842865,0.6047561168670654,-0.020769402384757996
1707004682423727600,5.4507275390625,-0.6484329700469971,0.4404335021972656,-0.0409279391169548
1707004682442684200,5.46968408203125,-0.5403099060058594,0.35216355323791504,-0.021380268037319183
1707004682461641000,5.488640869140625,-0.40897396206855774,0.3347539007663727,0.010995565913617611
1707004682480597500,5.507597412109375,-0.3231474757194519,0.3448331654071808,0.01588248461484909
1707004682499554300,5.52655419921875,-0.31093016266822815,0.3133736252784729,-0.017104214057326317
1707004682518510800,5.5455107421875,-0.35246896743774414,0.23426663875579834,-0.001832594396546483
1707004682537467600,5.564467529296875,-0.35185810923576355,0.14660754799842834,0.08460476994514465
1707004682556424200,5.583424072265625,-0.318871408700943,-0.001832594396546483,0.0720820426940918
1707004682575381000,5.602381103515625,-0.37690356373786926,-0.21991132199764252,0.02412915788590908
1707004682594337500,5.621337646484375,-0.416304349899292,-0.36254823207855225,-0.03848448023200035
1707004682613294300,5.64029443359375,-0.40897396206855774,-0.4062250852584839,-0.015271619893610477
1707004682632251000,5.6592509765625,-0.4276053309440613,-0.28954991698265076,-0.026572618633508682
1707004682651207400,5.67820751953125,-0.4581485986709595,-0.06291907280683517,-0.0360410213470459
1707004682670164200,5.697164306640625,-0.42394015192985535,0.1847866028547287,0.03940077871084213
1707004682689120800,5.716120849609375,-0.33231043815612793,0.31581708788871765,0.04428769648075104
1707004682708077600,5.73507763671875,-0.3026835024356842,0.2868010103702545,0.06291907280683517
1707004682727034000,5.7540341796875,-0.2919933497905731,0.15210533142089844,0.07635809481143951
1707004682745990700,5.77299072265625,-0.24037529528141022,0.025961752980947495,0.08796452730894089
1707004682764947500,5.791947509765625,-0.1954767256975174,-0.1389717310667038,0.07055488228797913
1707004682783904000,5.810904052734375,-0.21685700118541718,-0.3552178740501404,0.07880155742168427
1707004682802860800,5.82986083984375,-0.19853104650974274,-0.4462367296218872,0.12156209349632263
1707004682821817300,5.8488173828125,-0.15271618962287903,-0.4318813979625702,0.13225223124027252
1707004682840774100,5.867774169921875,-0.15699224174022675,-0.27855435013771057,0.0922405794262886
1707004682859730700,5.886730712890625,-0.15790854394435883,-0.13011419773101807,0.10751219838857651
1707004682878687500,5.9056875,-0.13072505593299866,-0.05864302068948746,0.10659590363502502
1707004682897644000,5.92464404296875,-0.05833758786320686,-0.14477495849132538,0.10048725455999374
1707004682916600600,5.9436005859375,0.0054977829568088055,-0.33658650517463684,0.032681263983249664
1707004682935557400,5.962557373046875,0.07024945318698883,-0.5699368119239807,-0.025350889191031456
1707004682954514000,5.981513916015625,0.08918625861406326,-0.6743947267532349,-0.04001164436340332
1707004682973470700,6.000470703125,0.07086031138896942,-0.6527090072631836,-0.04459312930703163
1707004682992427300,6.01942724609375,0.0766635313630104,-0.46456265449523926,-0.06536252796649933
1707004683011384000,6.038384033203125,0.10476330667734146,-0.20219624042510986,-0.11514800786972046
1707004683030340600,6.057340576171875,0.08032871782779694,0.059864748269319534,-0.14752385020256042
1707004683049297400,6.07629736328125,0.05222893878817558,0.25961753726005554,-0.16615521907806396
1707004683068254000,6.09525390625,0.05803215503692627,0.4001164436340332,-0.19272783398628235
1707004683087210800,6.114210693359375,0.06872228533029556,0.42302384972572327,-0.22204934060573578
1707004683106167300,6.133167236328125,0.09193515032529831,0.3481929302215576,-0.23854269087314606
1707004683125124000,6.1521240234375,0.1380554437637329,0.1905898153781891,-0.23396120965480804
1707004683144080600,6.17108056640625,0.18661919236183167,0.007635809946805239,-0.23548837006092072
1707004683163037400,6.190037353515625,0.20402882993221283,-0.09346231073141098,-0.23304490745067596
1707004683181994000,6.208993896484375,0.23365578055381775,-0.13988803327083588,-0.205861434340477
1707004683200950800,6.22795068359375,0.27427828311920166,-0.1185077652335167,-0.16768237948417664
1707004683219907300,6.2469072265625,0.3039052188396454,-0.0818558782339096,-0.16829325258731842
1707004683238864100,6.265864013671875,0.29535311460494995,-0.13652828335762024,-0.15729768574237823
1707004683257820700,6.284820556640625,0.30024003982543945,-0.23426663875579834,-0.11514800786972046
1707004683276777200,6.303777099609375,0.3182605504989624,-0.31123560667037964,-0.08582650125026703
1707004683295734000,6.322734130859375,0.33628106117248535,-0.34086254239082336,-0.09529490768909454
1707004683314690600,6.341690673828125,0.32589635252952576,-0.42913252115249634,-0.0977383628487587
1707004683333647400,6.3606474609375,0.2965748608112335,-0.5103775262832642,-0.03848448023200035
1707004683352604000,6.37960400390625,0.2519817352294922,-0.554665207862854,0.014966187067329884
1707004683371560700,6.398560791015625,0.2306014597415924,-0.5525271892547607,0.046425722539424896
1707004683390517200,6.417517333984375,0.2101374864578247,-0.5067123174667358,0.07880155742168427
1707004683409474000,6.43647412109375,0.17531819641590118,-0.4828886091709137,0.13652828335762024
1707004683428430600,6.4554306640625,0.12400554865598679,-0.3136790692806244,0.1637117564678192
1707004683447387400,6.474387451171875,0.08307760953903198,-0.08979712426662445,0.16035200655460358
1707004683466344000,6.493343994140625,0.05833758786320686,0.07788526266813278,0.1493564397096634
1707004683485300700,6.51230078125,0.020769402384757996,0.21166464686393738,0.15271618962287903
1707004683504257500,6.531257568359375,0.05558869615197182,0.28435754776000977,0.1585194170475006
1707004683523214000,6.550214111328125,0.11972949653863907,0.38240134716033936,0.13561198115348816
1707004683542171000,6.5691708984375,0.1737910360097885,0.41325002908706665,0.12156209349632263
1707004683561127400,6.58812744140625,0.21716243028640747,0.40775224566459656,0.11239911615848541
1707004683580084200,6.607084228515625,0.1957821547985077,0.3329212963581085,0.12614357471466064
1707004683599040800,6.626040771484375,0.15027274191379547,0.11911863088607788,0.1484401375055313
1707004683617997600,6.64499755859375,0.17592905461788177,-0.11117739230394363,0.14599667489528656
1707004683636954000,6.6639541015625,0.22785256803035736,-0.24953825771808624,0.13164135813713074
1707004683655910700,6.68291064453125,0.23457208275794983,-0.2779434621334076,0.11667517572641373
1707004683674867500,6.701867431640625,0.22815799713134766,-0.17287473380565643,0.11362084746360779
1707004683693824300,6.72082421875,0.23243404924869537,0.009162971749901772,0.0925460159778595
1707004683712780800,6.73978076171875,0.24006985127925873,0.16859868168830872,0.03940077871084213
1707004683731737600,6.758737548828125,0.24373504519462585,0.205861434340477,-0.023823726922273636
1707004683750694100,6.777694091796875,0.2367101013660431,0.16035200655460358,-0.08491020649671555
1707004683769651000,6.79665087890625,0.2214384824037552,0.08368847519159317,-0.14508038759231567
1707004683788607500,6.815607421875,0.20250166952610016,0.010995565913617611,-0.15607595443725586
1707004683807564300,6.834564208984375,0.16523891687393188,0.012217295356094837,-0.12675444781780243
1707004683826521000,6.85352099609375,0.14477495849132538,0.07483093440532684,-0.10079269111156464
1707004683845477600,6.8724775390625,0.14813470840454102,0.0977383628487587,-0.07360920310020447
1707004683864434400,6.891434326171875,0.12156209349632263,0.03543015569448471,-0.06017018109560013
1707004683883391000,6.910390869140625,0.09315688163042068,-0.08888082206249237,-0.06627883017063141
1707004683902347800,6.92934765625,0.1178968995809555,-0.19181154668331146,-0.0616973415017128
1707004683921304300,6.94830419921875,0.17043127119541168,-0.2861901521682739,-0.10537417232990265
1707004683940261000,6.96726123046875,0.18723005056381226,-0.36621344089508057,-0.16523891687393188
1707004683959217700,6.9862177734375,0.1640172004699707,-0.41905322670936584,-0.16218459606170654
1707004683978174500,7.005174560546875,0.08552107214927673,-0.448069304227829,-0.13530655205249786
1707004683997131000,7.024131103515625,0.019242240116000175,-0.43890634179115295,-0.12492185086011887
1707004684016087800,7.043087890625,0.0027488914784044027,-0.42455101013183594,-0.13561198115348816
1707004684035044400,7.06204443359375,-0.003970621153712273,-0.4358520209789276,-0.16798780858516693
1707004684054001200,7.081001220703125,0.01649334840476513,-0.46028661727905273,-0.22907429933547974
1707004684072958000,7.0999580078125,0.03329212963581085,-0.5439751148223877,-0.29993459582328796
1707004684091914500,7.11891455078125,0.04214967042207718,-0.5290089249610901,-0.31459537148475647
1707004684110871300,7.137871337890625,0.0665842592716217,-0.5109884142875671,-0.30512696504592896
1707004684129827800,7.156827880859375,0.04001164436340332,-0.6029235124588013,-0.25961753726005554
1707004684148784600,7.17578466796875,-0.0009162971982732415,-0.7296779751777649,-0.19639302790164948
1707004684167741200,7.1947412109375,-0.011911863461136818,-0.8087849617004395,-0.12583814561367035
1707004684186698000,7.213697998046875,-0.033597562462091446,-0.758083164691925,-0.04306596517562866
1707004684205654500,7.232654541015625,-0.05894844979047775,-0.6093376278877258,0.022907428443431854
1707004684224611300,7.251611328125,-0.06444623321294785,-0.4318813979625702,0.06505709886550903
1707004684243567900,7.27056787109375,-0.07910698652267456,-0.3066541254520416,0.05558869615197182
1707004684262524700,7.289524658203125,-0.08063415437936783,-0.21135921776294708,0.04886918142437935
1707004684281481500,7.3084814453125,-0.033597562462091446,-0.09987638890743256,0.04428769648075104
1707004684300438000,7.32743798828125,0.024740023538470268,0.026878049597144127,0.024740023538470268
1707004684319394800,7.346394775390625,0.06475166976451874,0.13775001466274261,0.034208428114652634
1707004684338351400,7.365351318359375,0.08491020649671555,0.17073670029640198,0.06627883017063141
1707004684357308200,7.38430810546875,0.10018182545900345,0.13225223124027252,0.07574722915887833
1707004684376265000,7.403264892578125,0.08857539296150208,0.007635809946805239,0.09315688163042068
1707004684395221500,7.422221435546875,0.08063415437936783,-0.07330377399921417,0.12553271651268005
1707004684414178000,7.441177978515625,0.0818558782339096,-0.022907428443431854,0.143553227186203
1707004684433134800,7.460134765625,0.09804379940032959,0.08582650125026703,0.1545487940311432
1707004684452091400,7.47909130859375,0.09193515032529831,0.23457208275794983,0.1847866028547287
1707004684471048200,7.498048095703125,0.07544180005788803,0.37690356373786926,0.20830489695072174
1707004684490005000,7.5170048828125,0.05070177838206291,0.46608981490135193,0.20738859474658966
1707004684508961500,7.53596142578125,0.05039634555578232,0.5482511520385742,0.1594357043504715
1707004684527918300,7.55491845703125,0.05803215503692627,0.5821541547775269,0.09040798991918564
1707004684546875000,7.573875,0.09193515032529831,0.5699368119239807,0.006719512399286032
1707004684565831700,7.592831787109375,0.12675444781780243,0.5018253922462463,-0.07299833744764328
1707004684584788500,7.61178857421875,0.17195843160152435,0.4367683231830597,-0.1279761642217636
1707004684603745000,7.6307451171875,0.21777328848838806,0.4105011224746704,-0.15729768574237823
1707004684622701800,7.649701904296875,0.23365578055381775,0.39889469742774963,-0.1542433500289917
1707004684641658400,7.668658447265625,0.24923282861709595,0.2816086709499359,-0.13225223124027252
1707004684660615200,7.687615234375,0.27458372712135315,0.06444623321294785,-0.11026109009981155
1707004684679571700,7.70657177734375,0.2868010103702545,-0.23762640357017517,-0.09468404203653336
1707004684698528500,7.725528564453125,0.3075704276561737,-0.5051851868629456,-0.0616973415017128
1707004684717485000,7.744485107421875,0.3585776388645172,-0.664926290512085,-0.027488915249705315
1707004684736441900,7.76344189453125,0.3756818473339081,-0.7345649003982544,0.03909534588456154
1707004684755398700,7.782398681640625,0.35796675086021423,-0.731510579586029,0.10231985151767731
1707004684774355200,7.801355224609375,0.32070401310920715,-0.7235693335533142,0.1588248461484909
1707004684793312000,7.82031201171875,0.2672533392906189,-0.7266236543655396,0.16340632736682892
1707004684812268500,7.8392685546875,0.20311254262924194,-0.7443387508392334,0.11698060482740402
1707004684831225300,7.858225341796875,0.11392628401517868,-0.7687733173370361,0.053756099194288254
1707004684850182100,7.87718212890625,0.024740023538470268,-0.7345649003982544,-0.010384701192378998
1707004684869138700,7.896138671875,-0.04276053607463837,-0.5451968312263489,-0.09040798991918564
1707004684888095500,7.915095458984375,-0.09315688163042068,-0.34177884459495544,-0.17653992772102356
1707004684907052000,7.934052001953125,-0.13011419773101807,-0.16829325258731842,-0.22663083672523499
1707004684926008600,7.953008544921875,-0.16646064817905426,-0.0204639695584774,-0.22663083672523499
1707004684944965400,7.97196533203125,-0.18417572975158691,0.035124726593494415,-0.17776164412498474
1707004684963922200,7.990922119140625,-0.1802051067352295,0.029016077518463135,-0.11667517572641373
1707004684982878700,8.009878662109376,-0.1805105358362198,0.022907428443431854,-0.08277218043804169
1707004685001835500,8.02883544921875,-0.20708316564559937,0.017715077847242355,-0.03237583488225937
1707004685020792000,8.0477919921875,-0.2367101013660431,0.014049889519810677,-0.003970621153712273
1707004685039748900,8.066748779296875,-0.2562577724456787,-0.0204639695584774,0.011911863461136818
1707004685058705700,8.08570556640625,-0.25961753726005554,-0.0204639695584774,0.018631376326084137
1707004685077662200,8.104662109375,-0.29077163338661194,0.0824667438864708,0.004886918235570192
1707004685096619000,8.123618896484375,-0.29901832342147827,0.19394956529140472,0.004276053514331579
1707004685115575600,8.142575439453125,-0.2782489061355591,0.314289927482605,0.012522728182375431
1707004685134532400,8.161532470703126,-0.2513708472251892,0.39217519760131836,0.010384701192378998
1707004685153489000,8.180489013671876,-0.2263254076242447,0.4196641147136688,0.02932151034474373
1707004685172445700,8.19944580078125,-0.205861434340477,0.44470956921577454,0.06780599057674408
1707004685191402200,8.21840234375,-0.18753549456596375,0.47464191913604736,0.08888082206249237
1707004685210359000,8.237359130859375,-0.17256930470466614,0.4871646761894226,0.07391463965177536
1707004685229315600,8.256315673828125,-0.18112140893936157,0.46944957971572876,0.06994401663541794
1707004685248272400,8.2752724609375,-0.1954767256975174,0.4526508152484894,0.05589412897825241
1707004685267229200,8.294229248046875,-0.2309068888425827,0.46608981490135193,0.04550942778587341
1707004685286185700,8.313185791015625,-0.2608392536640167,0.5146535634994507,0.04001164436340332
1707004685305142500,8.332142578125,-0.29962918162345886,0.5794052481651306,0.05192350596189499
1707004685324099000,8.35109912109375,-0.3555232882499695,0.6734784245491028,0.04459312930703163
1707004685343056000,8.370055908203126,-0.42852163314819336,0.7648026943206787,0.001221729558892548
1707004685362012700,8.3890126953125,-0.48594292998313904,0.8570432662963867,-0.047036588191986084
1707004685380969200,8.40796923828125,-0.4889972507953644,1.01708984375,-0.09529490768909454
1707004685399925800,8.42692578125,-0.4269944727420807,1.2470804452896118,-0.13744457066059113
1707004685418882600,8.445882568359375,-0.36163195967674255,1.4474440813064575,-0.16249002516269684
1707004685437839000,8.464839111328125,-0.3039052188396454,1.4587451219558716,-0.15760311484336853
1707004685456796000,8.4837958984375,-0.25350889563560486,1.2153154611587524,-0.13530655205249786
1707004685475752700,8.502752685546875,-0.22724169492721558,0.8090903759002686,-0.12461641430854797
1707004685494709200,8.521709228515626,-0.2458730787038803,0.3090975880622864,-0.14080433547496796
1707004685513666000,8.540666015625,-0.29565855860710144,-0.046425722539424896,-0.12278381735086441
1707004685532622600,8.55962255859375,-0.3274235129356384,-0.17623448371887207,-0.10659590363502502
1707004685551579400,8.578579345703124,-0.3494146466255188,-0.08307760953903198,-0.09407317638397217
1707004685570536200,8.5975361328125,-0.3536907136440277,0.17653992772102356,-0.10842850059270859
1707004685589492700,8.61649267578125,-0.328645259141922,0.47525280714035034,-0.11239911615848541
1707004685608449500,8.635449462890625,-0.3442223072052002,0.6362156867980957,-0.10751219838857651
1707004685627406000,8.654406005859375,-0.3949240744113922,0.6212494969367981,-0.021380268037319183
1707004685646363000,8.67336279296875,-0.39675667881965637,0.5064069032669067,0.05528326332569122
1707004685665319400,8.6923193359375,-0.3032943606376648,0.41294458508491516,0.07024945318698883
1707004685684276200,8.711276123046876,-0.2360992431640625,0.3491092324256897,0.026878049597144127
1707004685703232800,8.730232666015626,-0.2257145345211029,0.27458372712135315,0.013133592903614044
1707004685722189600,8.749189453125,-0.20127993822097778,0.23823726177215576,0.0925460159778595
1707004685741146000,8.76814599609375,-0.17318016290664673,0.2257145345211029,0.15790854394435883
1707004685760103000,8.78710302734375,-0.16584978997707367,0.17226386070251465,0.1646280586719513
1707004685779059500,8.8060595703125,-0.1637117564678192,0.07880155742168427,0.13988803327083588
1707004685798016300,8.825016357421875,-0.10690133273601532,-0.07238747924566269,0.164322629570961
1707004685816973000,8.84397314453125,-0.021991131827235222,-0.14996729791164398,0.19303326308727264
1707004685835929600,8.8629296875,0.044898562133312225,-0.08063415437936783,0.20738859474658966
1707004685854886400,8.881886474609376,0.014660755172371864,0.02871064469218254,0.2107483446598053
1707004685873843000,8.900843017578126,0.007024944759905338,0.09346231073141098,0.22204934060573578
1707004685892799700,8.9197998046875,0.0030543238390237093,0.04459312930703163,0.23182319104671478
1707004685911756300,8.93875634765625,-0.04550942778587341,-0.0616973415017128,0.23457208275794983
1707004685930713000,8.957713134765624,-0.09132428467273712,-0.09162971377372742,0.24465134739875793
1707004685949669600,8.976669677734375,-0.07330377399921417,-0.014966187067329884,0.23854269087314606
1707004685968626400,8.99562646484375,-0.09498947113752365,0.08552107214927673,0.15546508133411407
1707004685987583000,9.0145830078125,-0.1487455666065216,0.20341797173023224,0.10048725455999374
1707004686006539800,9.033539794921875,-0.16187916696071625,0.33078327775001526,0.13652828335762024
1707004686025496300,9.052496337890625,-0.14630211889743805,0.47494736313819885,0.14508038759231567
1707004686044453000,9.071453125,-0.12705987691879272,0.6548470258712769,0.0922405794262886
1707004686063410000,9.090409912109376,-0.14599667489528656,0.7168498039245605,0.0616973415017128
1707004686082366500,9.109366455078124,-0.11667517572641373,0.7947350740432739,0.0256563201546669
1707004686101323300,9.1283232421875,-0.04367683082818985,0.795651376247406,0.009162971749901772
1707004686120279800,9.14727978515625,0.025350889191031456,0.6771436333656311,-0.015577051788568497
1707004686139236600,9.166236572265625,0.03237583488225937,0.46517354249954224,-0.025961752980947495
1707004686158193200,9.185193115234375,0.04245510324835777,0.2049451321363449,0.010384701192378998
1707004686177150000,9.20414990234375,0.07147117704153061,0.10934479534626007,0.023823726922273636
1707004686196106500,9.2231064453125,0.044898562133312225,0.19761475920677185,0.029626941308379173
1707004686215063300,9.242063232421875,0.029016077518463135,0.35796675086021423,0.0009162971982732415
1707004686234019800,9.261019775390626,-0.00946840364485979,0.43921178579330444,-0.01802051067352295
1707004686252976600,9.2799765625,-0.018325943499803543,0.3695732057094574,0.0030543238390237093
1707004686271933200,9.29893310546875,0.0409279391169548,0.26939135789871216,0.032070402055978775
1707004686290890000,9.317889892578124,0.031154103577136993,0.16004657745361328,-0.007330377586185932
1707004686309846500,9.336846435546875,-0.05497783049941063,0.008246674202382565,-0.021685699000954628
1707004686328803300,9.35580322265625,-0.11606431007385254,-0.11423171311616898,0
1707004686347760000,9.374760009765625,-0.10231985151767731,-0.1279761642217636,0.028099779039621353
1707004686366716700,9.393716552734375,-0.0818558782339096,-0.019242240116000175,0.012522728182375431
1707004686385673500,9.412673583984375,-0.07849612087011337,0.07819069176912308,-0.025350889191031456
1707004686404630000,9.431630126953126,-0.10842850059270859,0.1078176349401474,-0.06505709886550903
1707004686423586800,9.4505869140625,-0.1282816082239151,0.11026109009981155,-0.07452550530433655
1707004686442543400,9.46954345703125,-0.11881320178508759,0.20250166952610016,-0.10751219838857651
1707004686461500200,9.488500244140624,-0.11972949653863907,0.2883281707763672,-0.13011419773101807
1707004686480456700,9.507456787109374,-0.09621120244264603,0.31551164388656616,-0.13255766034126282
1707004686499413500,9.52641357421875,-0.05253437161445618,0.2981020212173462,-0.1337793916463852
1707004686518370000,9.5453701171875,-0.017104214057326317,0.205861434340477,-0.13011419773101807
1707004686537326800,9.564326904296875,-0.000610864779446274,0.1230892539024353,-0.1383608728647232
1707004686556283400,9.583283447265625,0.007941242307424545,0.004276053514331579,-0.11606431007385254
1707004686575240200,9.602240234375,0.03390299528837204,-0.08949168771505356,-0.06352993845939636
1707004686594196700,9.62119677734375,0.054672397673130035,-0.11667517572641373,-0.021380268037319183
1707004686613153500,9.640153564453126,0.07605266571044922,-0.07788526266813278,0.035124726593494415
1707004686632110000,9.659110107421874,0.07024945318698883,0.032070402055978775,0.0717766135931015
1707004686651067000,9.67806689453125,0.02871064469218254,0.06047561392188072,0.0668896958231926
1707004686670023400,9.6970234375,0.03817904740571976,0.09071341902017593,0.06444623321294785
1707004686688980200,9.715980224609375,0.05528326332569122,0.2889390289783478,0.04367683082818985
1707004686707936800,9.734936767578125,0.02871064469218254,0.49480047821998596,0.025350889191031456
1707004686726893600,9.7538935546875,0.06414080411195755,0.6750055551528931,-0.01802051067352295
1707004686745850400,9.772850341796875,0.18295399844646454,0.6759218573570251,-0.03817904740571976
1707004686764807000,9.791806884765625,0.2809978127479553,0.47525280714035034,-0.04673115536570549
1707004686783763700,9.810763671875,0.2513708472251892,0.36621344089508057,-0.0360410213470459
1707004686802720300,9.82972021484375,0.13225223124027252,0.2412915825843811,0.032070402055978775
1707004686821676800,9.8486767578125,-0.018325943499803543,0.168904110789299,0.08032871782779694
1707004686840633600,9.867633544921874,-0.02107483521103859,0.11026109009981155,0.053145237267017365
1707004686859590100,9.886590087890625,0.003665188793092966,0,-0.01588248461484909
1707004686878547000,9.905546875,-0.008552107028663158,-0.2770271897315979,-0.014049889519810677
1707004686897503500,9.92450341796875,-0.02871064469218254,-0.4166097939014435,0.0256563201546669
1707004686916460300,9.943460205078125,-0.006719512399286032,-0.481361448764801,0.060781046748161316
1707004686935416800,9.962416748046875,0.025350889191031456,-0.364991694688797,0.09376774728298187
1707004686954373600,9.98137353515625,-0.03237583488225937,-0.37201663851737976,-0.024740023538470268
1707004686973330400,10.000330322265626,-0.013133592903614044,-0.3344484567642212,-0.03329212963581085
1707004686992287000,10.019286865234376,0.02718348242342472,-0.1334739476442337,0.013439024798572063
1707004687011243800,10.038243896484374,0.011300998739898205,0.1948658674955368,-0.05589412897825241
1707004687030200300,10.057200439453124,0,0.41874781250953674,-0.11331541836261749
1707004687049157000,10.0761572265625,0.018325943499803543,0.40866854786872864,-0.11209368705749512
1707004687068113700,10.09511376953125,0.040317077189683914,0.2715294063091278,-0.08307760953903198
1707004687087070500,10.114070556640625,0.06780599057674408,0.11606431007385254,-0.07941242307424545
1707004687106027000,10.133027099609375,0.10598503798246384,-0.07941242307424545,-0.08582650125026703
1707004687124983800,10.15198388671875,0.12064579129219055,-0.2864955961704254,-0.0668896958231926
1707004687143940400,10.1709404296875,0.14049890637397766,-0.4612029194831848,-0.01893680728971958
1707004687162897200,10.189897216796876,0.17592905461788177,-0.30085089802742004,-0.032070402055978775
1707004687181853700,10.208853759765624,0.16584978997707367,-0.022907428443431854,-0.06750056147575378
1707004687200810200,10.227810302734374,0.11239911615848541,0.09529490768909454,-0.03940077871084213
1707004687219767000,10.24676708984375,0.09560033679008484,0.3017672002315521,-0.056199558079242706
1707004687238723600,10.2657236328125,0.0054977829568088055,0.5522217750549316,-0.06933315098285675
1707004687257680400,10.284680419921875,-0.11942406743764877,0.508544921875,-0.09834922850131989
1707004687276637000,10.303636962890625,-0.09682206809520721,0.10659590363502502,-0.0873536616563797
1707004687295593700,10.32259375,0.02412915788590908,-0.22388194501399994,-0.04306596517562866
1707004687314550300,10.34155029296875,0.13011419773101807,-0.20830489695072174,-0.04917461425065994
1707004687333507000,10.360507080078126,0.1533270627260208,-0.14660754799842834,-0.047036588191986084
1707004687352464000,10.3794638671875,0.16523891687393188,0.001221729558892548,-0.017104214057326317
1707004687371420400,10.39842041015625,0.13622283935546875,0.3292561173439026,0.015271619893610477
1707004687390377200,10.417377197265624,0.010690134018659592,0.6209440231323242,0.00946840364485979
1707004687409333800,10.436333740234375,-0.0054977829568088055,0.4862483739852905,-0.008857538923621178
1707004687428290600,10.45529052734375,0.1331685185432434,0.11026109009981155,-0.01740964688360691
1707004687447247000,10.4742470703125,0.19089524447917938,-0.15668681263923645,-0.03329212963581085
1707004687466204000,10.493203857421875,0.13194678723812103,-0.3689623177051544,-0.0513126403093338
1707004687485160400,10.512160400390625,0.0360410213470459,-0.5094612240791321,-0.047036588191986084
1707004687504117200,10.5311171875,0.023518294095993042,-0.4508182108402252,-0.05436696484684944
1707004687523073800,10.55007373046875,0.021685699000954628,-0.12400554865598679,-0.041844237595796585
1707004687542030600,10.569030517578126,-0.03481929376721382,0.3087921440601349,-0.02718348242342472
1707004687560987100,10.587987060546874,-0.10598503798246384,0.5732966065406799,0
1707004687579943700,10.606943603515624,-0.20769402384757996,0.6499601006507874,0.03695731982588768
1707004687598900500,10.625900390625,-0.28405213356018066,0.684473991394043,-0.037262752652168274
1707004687617857000,10.64485693359375,-0.2974911332130432,0.56382817029953,-0.11514800786972046
1707004687636813800,10.663813720703125,-0.2214384824037552,0.32559093832969666,-0.16829325258731842
1707004687655770400,10.682770263671875,-0.11362084746360779,0.12125665694475174,-0.14660754799842834
1707004687674727200,10.70172705078125,-0.05406153202056885,-0.03176496922969818,-0.1185077652335167
1707004687693683700,10.72068359375,-0.051618073135614395,-0.05283980444073677,-0.10231985151767731
1707004687712640500,10.739640625,-0.03787361457943916,-0.048563748598098755,-0.13591741025447845
1707004687731597000,10.75859716796875,0.024740023538470268,-0.02107483521103859,-0.15057817101478577
1707004687750553900,10.777553955078124,0.05070177838206291,0.04581485688686371,-0.1444695144891739
1707004687769510400,10.796510498046874,0.07269290834665298,0.056199558079242706,-0.11362084746360779
1707004687788467200,10.81546728515625,0.1185077652335167,0.0461202897131443,-0.035735588520765305
1707004687807423700,10.834423828125,0.08032871782779694,0.04306596517562866,0.04214967042207718
1707004687826380500,10.853380615234375,-0.013439024798572063,0.010079269297420979,0.02412915788590908
1707004687845337000,10.872337158203125,-0.018631376326084137,-0.027488915249705315,0.04550942778587341
1707004687864294000,10.8912939453125,-0.009162971749901772,-0.05406153202056885,0.11026109009981155
1707004687883250400,10.91025048828125,-0.05253437161445618,0.01588248461484909,0.09926552325487137
1707004687902207200,10.929207275390626,-0.06719512492418289,-0.059864748269319534,0.029932374134659767
1707004687921163800,10.948163818359374,-0.03237583488225937,-0.20677772164344788,-0.005192350596189499
1707004687940120600,10.96712060546875,0.011606430634856224,-0.3744601011276245,-0.01893680728971958
1707004687959077000,10.9860771484375,0.044898562133312225,-0.3686569035053253,-0.04917461425065994
1707004687978034000,11.005033935546875,0.07880155742168427,-0.22754712402820587,-0.0873536616563797
1707004687996990500,11.023990478515625,0.08277218043804169,-0.011911863461136818,-0.07605266571044922
1707004688015947000,11.042947021484375,0.032681263983249664,0.23365578055381775,-0.09712749719619751
1707004688034903800,11.06190380859375,-0.012217295356094837,0.4407389461994171,-0.1178968995809555
1707004688053860600,11.080860595703125,-0.06750056147575378,0.5018253922462463,-0.09498947113752365
1707004688072817200,11.099817138671876,-0.09957095980644226,0.4062250852584839,-0.05558869615197182
1707004688091774000,11.11877392578125,-0.11423171311616898,0.13591741025447845,-0.04306596517562866
1707004688110730500,11.13773046875,-0.06750056147575378,-0.19883649051189423,-0.04214967042207718
1707004688129687300,11.156687255859374,0.008552107028663158,-0.5222893953323364,-0.01802051067352295
1707004688148643800,11.175643798828125,0.046425722539424896,-0.6646208763122559,0.008857538923621178
1707004688167600600,11.1946005859375,0.08552107214927673,-0.7376192212104797,0.008246674202382565
1707004688186557200,11.21355712890625,0.11239911615848541,-0.722347617149353,0.025961752980947495
1707004688205514000,11.232513916015625,0.0925460159778595,-0.5155698657035828,0.10903936624526978
1707004688224470500,11.251470458984375,0.027488915249705315,-0.27458372712135315,0.1328630894422531
1707004688243427300,11.27042724609375,0.0009162971982732415,-0.12644900381565094,0.07788526266813278
1707004688262383900,11.2893837890625,0.05192350596189499,-0.07452550530433655,0.01588248461484909
1707004688281340700,11.308340576171876,0.08277218043804169,-0.07055488228797913,0.041844237595796585
1707004688300297200,11.327297119140624,0.010995565913617611,0.0409279391169548,0.06475166976451874
1707004688319254000,11.34625390625,-0.04459312930703163,0.18845178186893463,0.023518294095993042
1707004688338210600,11.36521044921875,-0.0818558782339096,0.3533852696418762,0.004276053514331579
1707004688357167400,11.38416748046875,-0.09896009415388107,0.4269944727420807,-0.008857538923621178
1707004688376124000,11.4031240234375,-0.09101885557174683,0.31642794609069824,-0.02718348242342472
1707004688395080700,11.422080810546875,-0.04734202101826668,0.1026252806186676,-0.032070402055978775
1707004688414037500,11.44103759765625,-0.027488915249705315,-0.021991131827235222,-0.05283980444073677
1707004688432994000,11.459994140625,-0.046425722539424896,-0.12095122784376144,-0.029016077518463135
1707004688451950800,11.478950927734376,-0.017715077847242355,-0.20708316564559937,0.03237583488225937
1707004688470907400,11.497907470703124,0.015271619893610477,-0.1637117564678192,-0.006719512399286032
1707004688489864200,11.5168642578125,0.0565049909055233,0.022907428443431854,-0.16829325258731842
1707004688508820700,11.53582080078125,0.2360992431640625,0.16218459606170654,-0.20250166952610016
1707004688527777500,11.554777587890625,0.43982264399528503,0.41874781250953674,-0.18203771114349365
1707004688546734300,11.573734375,0.5283980369567871,0.7925970554351807,-0.16249002516269684
1707004688565691000,11.59269091796875,0.3072649836540222,1.1728603839874268,-0.09865466505289078
1707004688584647400,11.6116474609375,0.007024944759905338,1.0769546031951904,-0.06200277432799339
1707004688603604200,11.630604248046875,-0.129197895526886,0.25961753726005554,0.06291907280683517
1707004688622561000,11.64956103515625,-0.07299833744764328,-0.5702422857284546,0.11117739230394363
1707004688641517600,11.668517578125,0.06536252796649933,-1.4535527229309082,0.1127045527100563
1707004688660474400,11.687474365234374,0.19883649051189423,-1.9846997261047363,0.08552107214927673
1707004688679431200,11.70643115234375,0.3228420317173004,-1.9034546613693237,0.13103049993515015
1707004688698387700,11.7253876953125,0.3136790692806244,-1.1432334184646606,0.10659590363502502
1707004688717344500,11.744344482421875,0.10323614627122879,-0.2837466895580292,0.06017018109560013
1707004688736301000,11.763301025390625,0.048563748598098755,0.2254091054201126,0.03237583488225937
1707004688755257900,11.7822578125,0.11453714966773987,0.4569268524646759,-0.016798781231045723
1707004688774214700,11.801214599609375,0.06902772188186646,0.3659079968929291,-0.044898562133312225
1707004688793171200,11.820171142578126,-0.013744457624852657,0.09376774728298187,-0.05222893878817558
1707004688812128000,11.8391279296875,-0.019242240116000175,-0.19211697578430176,-0.06750056147575378
1707004688831084500,11.85808447265625,0.028099779039621353,-0.4471530318260193,-0.05711585655808449
1707004688850041300,11.877041259765624,-0.003665188793092966,-0.619722306728363,-0.04978547990322113
1707004688868998100,11.895998046875,0.0565049909055233,-0.6420188546180725,-0.06261363625526428
1707004688887954700,11.91495458984375,0.02779434807598591,-0.49541133642196655,-0.07238747924566269
1707004688906911500,11.933911376953125,-0.06383536756038666,-0.09376774728298187,-0.000305432389723137
1707004688925868300,11.952868408203125,-0.09834922850131989,0.39309149980545044,-0.010995565913617611
1707004688944824800,11.971824951171875,-0.0873536616563797,0.42913252115249634,0.001221729558892548
1707004688963781600,11.99078173828125,-0.15118902921676636,0.09590577334165573,0.004581485874950886
1707004688982738200,12.00973828125,-0.1389717310667038,-0.26878049969673157,-0.03298669680953026
1707004689001695000,12.028695068359376,-0.0256563201546669,-0.5100721120834351,-0.06108647957444191
1707004689020651800,12.04765185546875,0.05497783049941063,-0.44470956921577454,-0.08979712426662445
1707004689039608300,12.0666083984375,0.004581485874950886,-0.06963858753442764,-0.1536324918270111
1707004689058565000,12.085565185546875,-0.05222893878817558,0.32009315490722656,-0.18723005056381226
1707004689077522000,12.10452197265625,-0.04825831577181816,0.6230821013450623,-0.19639302790164948
1707004689096478700,12.123478759765625,-0.09712749719619751,0.9257655739784241,-0.12186752259731293
1707004689115435300,12.142435302734375,-0.14752385020256042,1.0192278623580933,-0.10048725455999374
1707004689134392000,12.16139208984375,-0.08552107214927673,0.8432988524436951,-0.10018182545900345
1707004689153348600,12.1803486328125,0.005192350596189499,0.3759872615337372,-0.0766635313630104
1707004689172305400,12.199305419921876,0.13164135813713074,-0.03940077871084213,-0.025045456364750862
1707004689191262200,12.21826220703125,0.14569124579429626,-0.4263836145401001,0.016187917441129684
1707004689210219000,12.237218994140624,0.09162971377372742,-0.6893609166145325,-0.005803215317428112
1707004689229175600,12.256175537109375,0.06933315098285675,-0.7562506198883057,0.006414080038666725
1707004689248132400,12.27513232421875,0.06383536756038666,-0.5189296007156372,0.04153880476951599
1707004689267089000,12.2940888671875,0.0308486707508564,-0.24831652641296387,-0.01435532234609127
1707004689286045700,12.313045654296875,-0.018325943499803543,-0.21197007596492767,-0.03909534588456154
1707004689305002500,12.33200244140625,-0.07055488228797913,-0.2733619809150696,-0.006719512399286032
1707004689323959300,12.350959228515626,-0.08796452730894089,-0.26511532068252563,0.015271619893610477
1707004689342915800,12.369915771484376,-0.08582650125026703,-0.08368847519159317,0.00946840364485979
1707004689361872600,12.38887255859375,-0.1230892539024353,0.09040798991918564,-0.010690134018659592
1707004689380829400,12.407829345703124,-0.12492185086011887,0.11972949653863907,-0.049480047076940536
1707004689399786000,12.426785888671875,-0.09193515032529831,0.04153880476951599,-0.07574722915887833
1707004689418742800,12.44574267578125,-0.030543239787220955,0.03298669680953026,-0.04428769648075104
1707004689437699600,12.464699462890625,-0.09865466505289078,0.17837251722812653,-0.035735588520765305
1707004689456656400,12.483656494140625,-0.2006690800189972,0.1640172004699707,0.007941242307424545
1707004689475613000,12.502613037109375,-0.19394956529140472,0.018325943499803543,0.013133592903614044
1707004689494569700,12.52156982421875,-0.09651663154363632,-0.19944734871387482,0.04367683082818985
1707004689513526500,12.540526611328126,-0.021991131827235222,-0.3338375985622406,0.06108647957444191
1707004689532483000,12.559483154296874,0.01954767294228077,-0.3741546869277954,0.06505709886550903
1707004689551440000,12.57843994140625,0.043371398001909256,-0.3072649836540222,0.08155044913291931
1707004689570396700,12.597396728515625,0.04764745384454727,-0.14630211889743805,0.08002328872680664
1707004689589353500,12.616353515625,0.10384701192378998,0.04764745384454727,0.024434590712189674
1707004689608310000,12.63531005859375,0.10323614627122879,0.29077163338661194,0.04886918142437935
1707004689627266800,12.654266845703125,0.004276053514331579,0.38331764936447144,0.03634645417332649
1707004689646223600,12.6732236328125,-0.002443459117785096,0.2730565667152405,-0.012217295356094837
1707004689665180200,12.69218017578125,0.0308486707508564,0.057726722210645676,0.014966187067329884
1707004689684137000,12.711136962890626,0.03481929376721382,-0.057726722210645676,-0.007635809946805239
1707004689703093800,12.73009375,0.013439024798572063,-0.1282816082239151,-0.04276053607463837
1707004689722050600,12.749050537109374,-0.03237583488225937,-0.08674279600381851,-0.016187917441129684
1707004689741007400,12.76800732421875,-0.13500112295150757,0.09315688163042068,0.007941242307424545
1707004689759964000,12.7869638671875,-0.17226386070251465,0.1744018942117691,-0.013133592903614044
1707004689778920700,12.805920654296875,-0.12583814561367035,-0.036651886999607086,-0.009162971749901772
1707004689797877500,12.82487744140625,-0.03451386094093323,-0.28069236874580383,-0.02871064469218254
1707004689816834000,12.843833984375,0.02871064469218254,-0.3543015718460083,-0.01893680728971958
1707004689835790800,12.862790771484375,-0.02107483521103859,-0.1750127524137497,-0.017715077847242355
1707004689854747600,12.88174755859375,-0.10323614627122879,0.1178968995809555,-0.05345066636800766
1707004689873704400,12.900704345703126,-0.16829325258731842,0.33017241954803467,-0.06322450190782547
1707004689892661000,12.919660888671874,-0.13072505593299866,0.33658650517463684,-0.14141519367694855
1707004689911617800,12.93861767578125,0.10048725455999374,0.22663083672523499,-0.11453714966773987
1707004689930574600,12.95757470703125,0.1698204129934311,0.3454440236091614,-0.07941242307424545
1707004689949531400,12.976531494140625,0.12522727251052856,0.5436696410179138,-0.0412333719432354
1707004689968488000,12.995488037109375,-0.01954767294228077,0.6591231226921082,0.014660755172371864
1707004689987444700,13.01444482421875,-0.13927717506885529,0.5097666382789612,0.02779434807598591
1707004690006401500,13.033401611328125,-0.14569124579429626,0.11239911615848541,0.06352993845939636
1707004690025358000,13.052358154296876,-0.12064579129219055,-0.33169957995414734,0.06536252796649933
1707004690044315000,13.07131494140625,-0.08460476994514465,-0.6979129910469055,0.050090912729501724
1707004690063271700,13.090271728515624,0.004276053514331579,-0.7385355234146118,0.054672397673130035
1707004690082228500,13.109228515625,0.0204639695584774,-0.4269944727420807,0.057726722210645676
1707004690101185300,13.128185302734375,-0.06750056147575378,-0.04306596517562866,0.06352993845939636
1707004690120141800,13.147141845703125,-0.09101885557174683,0.12675444781780243,0.07147117704153061
1707004690139098600,13.1660986328125,-0.06017018109560013,0.18203771114349365,0.06933315098285675
1707004690158055400,13.185055419921875,-0.03145953640341759,0.1902843713760376,0.06047561392188072
1707004690177012000,13.204011962890625,-0.03023780696094036,0.18356487154960632,0.04917461425065994
1707004690195968800,13.22296875,-0.05283980444073677,0.16340632736682892,0.04276053607463837
1707004690214925600,13.241925537109376,-0.025350889191031456,0.07086031138896942,0.0256563201546669
1707004690233882000,13.260882080078124,0.006414080038666725,0.023823726922273636,0.01740964688360691
1707004690252839000,13.2798388671875,-0.006414080038666725,0.011300998739898205,0.014660755172371864
1707004690271795700,13.298795654296875,-0.030543239787220955,0.0009162971982732415,0.023212861269712448
1707004690290752500,13.31775244140625,-0.02871064469218254,0.01740964688360691,0.029626941308379173
1707004690309709300,13.336709228515625,-0.016187917441129684,0.0360410213470459,0.039706211537122726
1707004690328665900,13.355665771484375,-0.01282816007733345,0.06505709886550903,0.018631376326084137
1707004690347622700,13.37462255859375,-0.03634645417332649,0.08643736690282822,0.005803215317428112
1707004690366579500,13.393579345703126,-0.10445787757635117,0.07971785217523575,-0.019242240116000175
1707004690385536000,13.412535888671876,-0.05406153202056885,0.1438586562871933,-0.01649334840476513
1707004690404492800,13.431492919921874,-0.08002328872680664,0.13500112295150757,-0.016798781231045723
1707004690423449600,13.45044970703125,-0.050090912729501724,0.2098320573568344,-0.040317077189683914
1707004690442406400,13.469406494140625,-0.050090912729501724,0.18387030065059662,0.008552107028663158
1707004690461363000,13.488363037109375,-0.1795942485332489,0.04062250629067421,0.029626941308379173
1707004690480319700,13.50731982421875,-0.1893680840730667,-0.3384190797805786,0.02932151034474373
1707004690499276500,13.526276611328125,-0.13011419773101807,-0.5974257588386536,0.04917461425065994
1707004690518233300,13.5452333984375,-0.09590577334165573,-0.7082977294921875,0.06597339361906052
1707004690537190000,13.56418994140625,-0.05711585655808449,-0.6914989352226257,0.049480047076940536
1707004690556146700,13.583146728515626,-0.022296564653515816,-0.5482511520385742,0.029626941308379173
1707004690575103500,13.602103515625,0.005192350596189499,-0.2889390289783478,0.025045456364750862
1707004690594060000,13.62106005859375,0.0027488914784044027,0.03145953640341759,0.015577051788568497
1707004690613016800,13.640016845703125,0.02260199747979641,0.3136790692806244,0.017104214057326317
1707004690631973600,13.6589736328125,0.07757982611656189,0.3750709891319275,-0.033597562462091446
1707004690650930400,13.677930419921875,0.18631376326084137,0.30085089802742004,-0.05803215503692627
1707004690669887000,13.696886962890625,0.25992295145988464,0.29443681240081787,-0.07299833744764328
1707004690688843800,13.71584375,0.18784092366695404,0.4923570156097412,-0.10323614627122879
1707004690707800600,13.734800537109376,0.05558869615197182,0.6160571575164795,-0.14080433547496796
1707004690726757000,13.753757080078126,-0.08979712426662445,0.6530144214630127,-0.09957095980644226
1707004690745714000,13.7727138671875,-0.26480987668037415,0.4563159942626953,-0.007941242307424545
1707004690764670700,13.791670654296874,-0.2834412455558777,0.09651663154363632,-0.015271619893610477
1707004690783627500,13.81062744140625,-0.1438586562871933,-0.32070401310920715,-0.032681263983249664
1707004690802584000,13.829583984375,0.007024944759905338,-0.7996219992637634,0.005192350596189499
1707004690821540900,13.848540771484375,0.07238747924566269,-0.9636391997337341,0.021380268037319183
1707004690840497700,13.86749755859375,0.006719512399286032,-0.7345649003982544,0.01282816007733345
1707004690859454200,13.8864541015625,-0.09498947113752365,-0.2816086709499359,0.013744457624852657
1707004690878411000,13.905410888671875,-0.18845178186893463,0.061391908675432205,-0.007941242307424545
1707004690897367800,13.924367919921876,-0.2577849328517914,0.16554436087608337,0.006414080038666725
1707004690916324600,13.94332470703125,-0.26542073488235474,-0.03634645417332649,0.029016077518463135
1707004690935281200,13.96228125,-0.23365578055381775,-0.4868592321872711,0.07299833744764328
1707004690954238000,13.981238037109375,-0.18356487154960632,-0.8069523572921753,0.11606431007385254
1707004690973194800,14.00019482421875,-0.11087195575237274,-0.9853248596191406,0.11362084746360779
1707004690992151300,14.0191513671875,-0.049480047076940536,-1.0299180746078491,0.05711585655808449
1707004691011108000,14.038108154296875,0.09712749719619751,-0.758694052696228,0.09162971377372742
1707004691030065000,14.05706494140625,0.009773836471140385,-0.05283980444073677,0.13469567894935608
1707004691049021700,14.076021728515625,-0.17226386070251465,0.5024362802505493,0.10079269111156464
1707004691067978200,14.094978271484376,-0.08979712426662445,0.5360338687896729,0.050090912729501724
1707004691086935000,14.11393505859375,0.02412915788590908,0.30512696504592896,0.029626941308379173
1707004691105891800,14.132891845703124,0.07422006875276566,0.129197895526886,0.01893680728971958
1707004691124848400,14.151848388671874,0.12614357471466064,-0.08765909820795059,0.007024944759905338
1707004691143805200,14.17080517578125,0.23915356397628784,-0.21746785938739777,-0.02107483521103859
1707004691162762000,14.189761962890625,0.33169957995414734,-0.07483093440532684,-0.06230820715427399
1707004691181718800,14.20871875,0.32650721073150635,0.33628106117248535,-0.10751219838857651
1707004691200675300,14.22767529296875,0.33047783374786377,0.7116574645042419,-0.03543015569448471
1707004691219632000,14.246632080078125,0.24892739951610565,0.9792162179946899,-0.0769689604640007
1707004691238589000,14.2655888671875,0.1496618688106537,0.9135482907295227,-0.12400554865598679
1707004691257545500,14.28454541015625,0.10384701192378998,0.6517927050590515,-0.06811141967773438
1707004691276502300,14.303502197265624,0.015577051788568497,0.40927940607070923,-0.04214967042207718
1707004691295459000,14.322458984375,-0.035735588520765305,0.20433427393436432,-0.05406153202056885
1707004691314415600,14.34141552734375,-0.03695731982588768,0.0015271619195118546,-0.035124726593494415
1707004691333372400,14.360372314453125,-0.05070177838206291,-0.21410810947418213,-0.01802051067352295
1707004691352329200,14.3793291015625,-0.007024944759905338,-0.31673339009284973,-0.01893680728971958
1707004691371285800,14.39828564453125,0.027488915249705315,-0.23915356397628784,0.012522728182375431
1707004691390242600,14.41724267578125,-0.005803215317428112,-0.09285144507884979,0.019853105768561363
1707004691409199400,14.436199462890626,-0.04825831577181816,-0.06933315098285675,0.04367683082818985
1707004691428156000,14.455156005859376,-0.019242240116000175,-0.0824667438864708,0.06352993845939636
1707004691447112700,14.47411279296875,0.06536252796649933,-0.1441640853881836,0.05955931544303894
1707004691466069500,14.493069580078124,0.19394956529140472,-0.18264856934547424,0.0461202897131443
1707004691485026300,14.5120263671875,0.26939135789871216,-0.24862197041511536,0.04581485688686371
1707004691503982800,14.53098291015625,0.28954991698265076,-0.3686569035053253,0.033597562462091446
1707004691522939600,14.549939697265625,0.24556763470172882,-0.38301220536231995,0.04276053607463837
1707004691541896200,14.568896240234375,0.1539379209280014,-0.22785256803035736,0.059864748269319534
1707004691560853000,14.58785302734375,0.10598503798246384,-0.1740964651107788,0.06291907280683517
1707004691579809800,14.606809814453126,0.13011419773101807,-0.15729768574237823,0.06994401663541794
1707004691598766600,14.6257666015625,0.11209368705749512,-0.016187917441129684,0.043982263654470444
1707004691617723100,14.64472314453125,0.09896009415388107,-0.018631376326084137,0.03298669680953026
1707004691636680000,14.663679931640624,0.04153880476951599,-0.05070177838206291,-0.016187917441129684
1707004691655636700,14.68263671875,-0.06414080411195755,-0.09010255336761475,-0.06017018109560013
1707004691674593300,14.70159326171875,-0.12767073512077332,-0.16157373785972595,-0.06994401663541794
1707004691693550000,14.720550048828125,-0.02626718580722809,-0.051618073135614395,-0.09101885557174683
1707004691712506600,14.739506591796875,-0.006108647678047419,0.0360410213470459,-0.029932374134659767
1707004691731463400,14.75846337890625,-0.06780599057674408,-0.0054977829568088055,-0.05589412897825241
1707004691750420200,14.777420166015625,-0.1026252806186676,-0.016187917441129684,-0.044898562133312225
1707004691769377000,14.796376953125,-0.1438586562871933,-0.05925388261675835,-0.034208428114652634
1707004691788333600,14.81533349609375,-0.1130099818110466,0.017104214057326317,-0.0461202897131443
1707004691807290400,14.834290283203124,-0.04214967042207718,0.08552107214927673,-0.041844237595796585
1707004691826247000,14.853246826171874,0.09957095980644226,0.16523891687393188,-0.05711585655808449
1707004691845203700,14.87220361328125,0.1081230640411377,0.2522871494293213,-0.029626941308379173
1707004691864160500,14.891160400390625,0.0308486707508564,0.2935205399990082,-0.016187917441129684
1707004691883117000,14.910116943359375,-0.04734202101826668,0.18081597983837128,0.004886918235570192
1707004691902073900,14.929073974609375,-0.049480047076940536,-0.057726722210645676,-0.000305432389723137
1707004691921030700,14.94803076171875,-0.001832594396546483,-0.282524973154068,-0.001832594396546483
1707004691939987500,14.966987548828126,0.03940077871084213,-0.35094180703163147,-0.011911863461136818
1707004691958944000,14.985944091796876,0.06108647957444191,-0.20922118425369263,-0.020158538594841957
1707004691977900800,15.00490087890625,0.03695731982588768,0.07116574794054031,-0.047036588191986084
1707004691996857300,15.023857421875,0.010384701192378998,0.287106454372406,-0.06291907280683517
1707004692015814100,15.042814208984375,-0.012522728182375431,0.31184646487236023,-0.04459312930703163
1707004692034771000,15.06177099609375,-0.06291907280683517,0.15057817101478577,-0.04459312930703163
1707004692053727500,15.0807275390625,-0.05497783049941063,-0.07513637095689774,-0.04245510324835777
1707004692072684300,15.099684326171875,-0.0015271619195118546,-0.18875721096992493,-0.02932151034474373
1707004692091641000,15.11864111328125,-0.004276053514331579,-0.13041962683200836,-0.009162971749901772
1707004692110597600,15.13759765625,-0.04153880476951599,0.05955931544303894,0.003665188793092966
1707004692129554400,15.156554443359376,-0.04214967042207718,0.1695149689912796,-0.0009162971982732415
1707004692148511000,15.175510986328124,0.001832594396546483,0.06872228533029556,-0.0009162971982732415
1707004692167467800,15.1944677734375,0.025045456364750862,-0.012522728182375431,-0.032070402055978775
1707004692186424600,15.213424560546875,0.0409279391169548,-0.003665188793092966,-0.0409279391169548
1707004692205381400,15.23238134765625,0.06902772188186646,0.07360920310020447,-0.008552107028663158
1707004692224338000,15.251337890625,0.025961752980947495,0.17715078592300415,-0.026572618633508682
1707004692243294700,15.270294677734375,-0.0009162971982732415,0.13072505593299866,-0.04367683082818985
1707004692262251500,15.28925146484375,-0.029016077518463135,0.005803215317428112,-0.043982263654470444
1707004692281208000,15.3082080078125,-0.07116574794054031,-0.07238747924566269,-0.04917461425065994
1707004692300164900,15.327164794921876,-0.09498947113752365,-0.13164135813713074,-0.03848448023200035
1707004692319121700,15.34612158203125,-0.08277218043804169,-0.04276053607463837,-0.0204639695584774
1707004692338078200,15.365078125,-0.10415244847536087,0.16584978997707367,-0.017104214057326317
1707004692357035000,15.384034912109374,-0.09957095980644226,0.26480987668037415,-0.007024944759905338
1707004692375991800,15.40299169921875,-0.05345066636800766,0.2156352698802948,0.006108647678047419
1707004692394948600,15.421948486328125,-0.04276053607463837,0.06414080411195755,0.002443459117785096
1707004692413905200,15.4409052734375,-0.026572618633508682,-0.10445787757635117,-0.007024944759905338
1707004692432862000,15.459862060546875,-0.013744457624852657,-0.14660754799842834,-0.0054977829568088055
1707004692451818500,15.478818603515625,-0.001832594396546483,-0.04001164436340332,-0.010690134018659592
1707004692470775300,15.497775390625,-0.010384701192378998,0.035735588520765305,-0.0054977829568088055
1707004692489732000,15.516732177734376,-0.028099779039621353,0.08063415437936783,0.000305432389723137
1707004692508689000,15.53568896484375,-0.006719512399286032,0.056199558079242706,0.001832594396546483
1707004692527645400,15.5546455078125,0.0030543238390237093,-0.007635809946805239,0.003359756199643016
1707004692546602200,15.573602294921875,-0.0054977829568088055,0.016798781231045723,-0.030543239787220955
1707004692565559000,15.59255908203125,-0.001221729558892548,0.016187917441129684,-0.015271619893610477
1707004692584515600,15.611515625,-0.013133592903614044,0.03481929376721382,-0.00946840364485979
1707004692603472400,15.630472412109375,-0.01588248461484909,0.025045456364750862,-0.007024944759905338
1707004692622429200,15.64942919921875,0.0030543238390237093,-0.0665842592716217,0.005803215317428112
1707004692641386000,15.668385986328126,0.017715077847242355,-0.0769689604640007,0
1707004692660342500,15.687342529296876,0.005192350596189499,-0.029626941308379173,-0.012217295356094837
1707004692679299300,15.70629931640625,-0.015271619893610477,-0.013744457624852657,-0.020158538594841957
1707004692698256100,15.725256103515624,-0.013133592903614044,-0.004886918235570192,-0.023823726922273636
1707004692717213000,15.744212890625,-0.010384701192378998,0.06383536756038666,-0.038789913058280945
1707004692736169500,15.76316943359375,-0.026878049597144127,0.07055488228797913,-0.031154103577136993
1707004692755126300,15.782126220703125,0.007024944759905338,-0.01893680728971958,-0.013744457624852657
1707004692774083000,15.8010830078125,0.03756818547844887,-0.038789913058280945,-0.007635809946805239
1707004692793039600,15.82003955078125,0.02412915788590908,-0.06200277432799339,0.003359756199643016
1707004692811996400,15.838996337890626,0.021685699000954628,-0.10934479534626007,-0.002443459117785096
1707004692830953200,15.857953125,0.05283980444073677,-0.11698060482740402,-0.01893680728971958
1707004692849910000,15.876909912109374,0.048563748598098755,-0.07513637095689774,-0.014966187067329884
1707004692868866800,15.89586669921875,0.019853105768561363,-0.02779434807598591,-0.017104214057326317
1707004692887823400,15.9148232421875,0.016798781231045723,0.04276053607463837,-0.030543239787220955
1707004692906780200,15.9337802734375,0.014049889519810677,0.09896009415388107,-0.035124726593494415
1707004692925737000,15.952737060546875,0.001832594396546483,0.09376774728298187,-0.05100720748305321
1707004692944693800,15.97169384765625,0.005803215317428112,-0.001832594396546483,-0.049480047076940536
1707004692963650600,15.990650634765625,0.00946840364485979,-0.07086031138896942,-0.04550942778587341
1707004692982607000,16.009607177734374,0.013439024798572063,-0.08857539296150208,-0.025961752980947495
1707004693001564000,16.02856396484375,0.017104214057326317,-0.026572618633508682,-0.016187917441129684
1707004693020520700,16.047520751953126,0.024740023538470268,0.029016077518463135,-0.010690134018659592
1707004693039477500,16.0664775390625,0.03543015569448471,0.037262752652168274,-0.004581485874950886
1707004693058434300,16.085434326171875,0.017104214057326317,0.015271619893610477,-0.0054977829568088055
1707004693077391000,16.10439111328125,0.007330377586185932,-0.009162971749901772,-0.005803215317428112
1707004693096347600,16.12334765625,0.020769402384757996,-0.019853105768561363,-0.010079269297420979
1707004693115304400,16.142304443359375,0.022907428443431854,-0.01740964688360691,-0.019242240116000175
1707004693134261200,16.16126123046875,0.010995565913617611,0.002443459117785096,-0.02260199747979641
1707004693153218000,16.180218017578124,0.003359756199643016,0.022296564653515816,-0.022907428443431854
1707004693172174800,16.1991748046875,0.011606430634856224,0.00946840364485979,-0.026572618633508682
1707004693191131400,16.21813134765625,0.011911863461136818,-0.017104214057326317,-0.028405211865901947
1707004693210088200,16.237088134765624,0.005192350596189499,-0.048563748598098755,-0.019853105768561363
1707004693229045000,16.256044921875,0.007024944759905338,-0.04306596517562866,-0.00946840364485979
1707004693248001800,16.275001708984377,0.02626718580722809,-0.026572618633508682,-0.019242240116000175
1707004693266958600,16.29395849609375,0.036651886999607086,-0.03481929376721382,-0.01802051067352295
1707004693285915100,16.3129150390625,0.010690134018659592,-0.06322450190782547,-0.011911863461136818
1707004693304872000,16.331871826171874,0.011911863461136818,-0.05436696484684944,-0.023212861269712448
1707004693323828700,16.350828857421874,0.01588248461484909,-0.05436696484684944,-0.022907428443431854
1707004693342785500,16.36978564453125,0.0204639695584774,-0.03237583488225937,-0.03298669680953026
1707004693361742300,16.388742431640626,0.006719512399286032,-0.040317077189683914,-0.024740023538470268
1707004693380699100,16.40769921875,0.00946840364485979,-0.05528326332569122,-0.021685699000954628
1707004693399656000,16.426656005859375,0.006719512399286032,0.000305432389723137,-0.03634645417332649
1707004693418612700,16.44561279296875,-0.0009162971982732415,0.006414080038666725,-0.0409279391169548
1707004693437569500,16.464569580078123,-0.013133592903614044,-0.04367683082818985,-0.03817904740571976
1707004693456526000,16.483526123046875,-0.017104214057326317,-0.14569124579429626,-0.02260199747979641
1707004693475483000,16.50248291015625,-0.0027488914784044027,-0.1533270627260208,-0.015271619893610477
1707004693494439700,16.521439697265624,0.01954767294228077,-0.06444623321294785,-0.01435532234609127
1707004693513396500,16.540396484375,0.023823726922273636,0.02260199747979641,-0.01802051067352295
1707004693532353300,16.559353271484376,0.013744457624852657,0.04886918142437935,-0.016798781231045723
1707004693551310000,16.57831005859375,-0.0021380267571657896,0.040317077189683914,-0.015271619893610477
1707004693570267000,16.597266845703125,-0.006414080038666725,-0.012522728182375431,-0.007330377586185932
1707004693589223700,16.6162236328125,0.010384701192378998,-0.02871064469218254,-0.010690134018659592
1707004693608180500,16.635180419921873,0.02107483521103859,-0.018325943499803543,-0.011911863461136818
1707004693627137300,16.65413720703125,0.003970621153712273,0.007330377586185932,-0.006108647678047419
1707004693646094000,16.673093994140626,0.004886918235570192,0.056810423731803894,-0.020158538594841957
1707004693665051000,16.69205078125,0.0027488914784044027,0.05283980444073677,-0.02260199747979641
1707004693684007400,16.71100732421875,-0.007024944759905338,0.04306596517562866,-0.035124726593494415
1707004693702964200,16.729964111328126,0.006108647678047419,0.008246674202382565,-0.029016077518463135
1707004693721921000,16.748921142578126,0.010384701192378998,0.0054977829568088055,-0.022296564653515816
1707004693740878000,16.767878173828127,-0.001832594396546483,0.01435532234609127,-0.024434590712189674
1707004693759834600,16.786834716796875,-0.0015271619195118546,-0.004886918235570192,-0.019242240116000175
1707004693778791400,16.80579150390625,0.005192350596189499,-0.029932374134659767,-0.01435532234609127
1707004693797748200,16.824748291015624,0.024434590712189674,-0.028099779039621353,-0.01588248461484909
1707004693816705000,16.843705078125,0.017104214057326317,-0.021380268037319183,-0.012217295356094837
1707004693835661800,16.862661865234376,0.0021380267571657896,-0.0204639695584774,-0.009162971749901772
1707004693854618600,16.88161865234375,0.007941242307424545,0.0054977829568088055,-0.006414080038666725
1707004693873575400,16.900575439453124,0.008857538923621178,-0.0009162971982732415,-0.010690134018659592
1707004693892532200,16.9195322265625,0.01954767294228077,-0.0009162971982732415,-0.014966187067329884
1707004693911489000,16.938489013671877,0.017715077847242355,-0.0030543238390237093,-0.010995565913617611
1707004693930445800,16.95744580078125,0.003359756199643016,0.013133592903614044,-0.017104214057326317
1707004693949402600,16.976402587890625,-0.0027488914784044027,0.008246674202382565,-0.019242240116000175
1707004693968359400,16.995359375,0.001832594396546483,0.02412915788590908,-0.02260199747979641
1707004693987316200,17.014316162109374,0.014966187067329884,0.02107483521103859,-0.021685699000954628
1707004694006273000,17.03327294921875,0.016187917441129684,-0.008552107028663158,-0.007635809946805239
1707004694025229800,17.052229736328126,0.010690134018659592,-0.034208428114652634,-0.008246674202382565
1707004694044186600,17.0711865234375,0.018325943499803543,-0.03787361457943916,-0.006108647678047419
1707004694063143400,17.090143310546875,0.0256563201546669,-0.028099779039621353,-0.010079269297420979
1707004694082100200,17.109100341796875,0.007635809946805239,-0.027488915249705315,-0.009773836471140385
1707004694101057000,17.12805712890625,0.004886918235570192,-0.02260199747979641,-0.003970621153712273
1707004694120013800,17.147013916015624,0.02718348242342472,-0.014049889519810677,-0.007330377586185932
1707004694138970600,17.165970703125,0.03543015569448471,-0.004581485874950886,-0.010690134018659592
1707004694157927400,17.184927490234376,0.016798781231045723,-0.024434590712189674,-0.01282816007733345
1707004694176884200,17.20388427734375,-0.003665188793092966,-0.03756818547844887,-0.011300998739898205
1707004694195841000,17.222841064453124,0.010079269297420979,-0.00946840364485979,-0.010690134018659592
1707004694214797800,17.2417978515625,0.03145953640341759,0.013439024798572063,-0.022296564653515816
1707004694233754600,17.260754638671877,0.024434590712189674,-0.0015271619195118546,-0.013744457624852657
1707004694252711400,17.27971142578125,0.0009162971982732415,-0.035124726593494415,-0.0027488914784044027
1707004694271668200,17.298668212890625,-0.003359756199643016,0.013133592903614044,-0.011606430634856224
1707004694290625000,17.317625,0.019853105768561363,0.02412915788590908,-0.013744457624852657
1707004694309581800,17.336581787109374,0.016187917441129684,-0.03023780696094036,-0.004581485874950886
1707004694328538600,17.35553857421875,0.011606430634856224,-0.038789913058280945,-0.006108647678047419
1707004694347495400,17.374495361328126,0.02626718580722809,-0.04306596517562866,-0.006108647678047419
1707004694366452200,17.3934521484375,0.029626941308379173,-0.040317077189683914,-0.008246674202382565
1707004694385409000,17.412408935546875,0.017104214057326317,-0.01435532234609127,-0.008246674202382565
1707004694404365800,17.43136572265625,0.007635809946805239,-0.009162971749901772,-0.013439024798572063
1707004694423323000,17.450322998046875,0.012522728182375431,-0.05222893878817558,-0.013744457624852657
1707004694442279400,17.469279541015624,0.018631376326084137,-0.06017018109560013,-0.021991131827235222
1707004694461236200,17.488236328125,0.017715077847242355,-0.06994401663541794,-0.024434590712189674
1707004694480193300,17.507193359375,0.014049889519810677,-0.061391908675432205,-0.013744457624852657
1707004694499149800,17.52614990234375,0.014049889519810677,-0.010384701192378998,-0.00946840364485979
1707004694518106600,17.545106689453124,0.019853105768561363,0.01893680728971958,-0.016798781231045723
1707004694537063700,17.564063720703125,0.022296564653515816,0.0030543238390237093,-0.010995565913617611
1707004694556020500,17.5830205078125,0.0015271619195118546,-0.025045456364750862,0.000610864779446274
1707004694574977300,17.601977294921873,0.004886918235570192,-0.05558869615197182,-0.008857538923621178
1707004694593934000,17.62093408203125,0.01893680728971958,-0.07819069176912308,0.004276053514331579
1707004694612891000,17.639890869140626,0.027488915249705315,-0.05345066636800766,0.009162971749901772
1707004694631847700,17.65884765625,0.034208428114652634,0.0409279391169548,-0.008246674202382565
1707004694650804500,17.677804443359374,0.02932151034474373,0.0616973415017128,-0.014660755172371864
1707004694669761300,17.69676123046875,0.010079269297420979,-0.03817904740571976,-0.004886918235570192
1707004694688718000,17.715718017578126,0.004276053514331579,-0.11942406743764877,-0.008552107028663158
1707004694707675000,17.7346748046875,0.03817904740571976,-0.10018182545900345,-0.010079269297420979
1707004694726631700,17.753631591796875,0.04062250629067421,-0.04978547990322113,-0.00946840364485979
1707004694745588500,17.77258837890625,0.01282816007733345,-0.001221729558892548,-0.004581485874950886
1707004694764545300,17.791545166015624,0.004276053514331579,0.049480047076940536,0
1707004694783502000,17.810502197265624,0.003665188793092966,0.06505709886550903,-0.006414080038666725
1707004694802459000,17.829458984375,0.007024944759905338,0.03634645417332649,-0.015577051788568497
1707004694821415700,17.848415771484376,0.0054977829568088055,-0.025961752980947495,-0.024434590712189674
1707004694840372500,17.86737255859375,-0.001832594396546483,-0.0769689604640007,-0.023518294095993042
1707004694859329300,17.886329345703125,-0.0021380267571657896,-0.06780599057674408,-0.024434590712189674
1707004694878286000,17.9052861328125,0.018325943499803543,0.004886918235570192,-0.02260199747979641
1707004694897243000,17.924242919921873,0.019853105768561363,0.07819069176912308,-0.013439024798572063
1707004694916199700,17.94319970703125,0.01282816007733345,0.0308486707508564,-0.004581485874950886
1707004694935156500,17.962156494140626,0.019853105768561363,-0.04581485688686371,0.0021380267571657896
1707004694954113300,17.98111328125,0.03451386094093323,-0.12034036219120026,0.016187917441129684
1707004694973070000,18.000070068359374,0.04306596517562866,-0.0769689604640007,0.010079269297420979
1707004694992027000,18.01902685546875,0.033597562462091446,-0.025045456364750862,0.005803215317428112
1707004695010983700,18.037983642578126,0.014660755172371864,0.022907428443431854,-0.0009162971982732415
1707004695029940500,18.0569404296875,-0.002443459117785096,0.033597562462091446,-0.010384701192378998
1707004695048897300,18.075897216796875,-0.021380268037319183,0.03451386094093323,-0.024740023538470268
1707004695067854300,18.094854248046875,-0.022296564653515816,0.030543239787220955,-0.03145953640341759
1707004695086811000,18.113810791015624,-0.016798781231045723,0.0021380267571657896,-0.021380268037319183
1707004695105767700,18.132767578125,-0.003970621153712273,0.04153880476951599,-0.018325943499803543
1707004695124724700,18.151724853515624,0.010995565913617611,0.1340848207473755,-0.022907428443431854
1707004695143681300,18.170681396484376,-0.004276053514331579,0.1692095398902893,-0.021991131827235222
1707004695162638000,18.18963818359375,-0.018631376326084137,0.1130099818110466,-0.01893680728971958
1707004695181595100,18.20859521484375,-0.007635809946805239,-0.01802051067352295,-0.014049889519810677
1707004695200552000,18.227552001953125,0.024434590712189674,-0.13225223124027252,-0.016187917441129684
1707004695219508500,18.246508544921873,0.035124726593494415,-0.16157373785972595,-0.010384701192378998
1707004695238465500,18.265465576171874,0.023212861269712448,-0.08277218043804169,-0.009162971749901772
1707004695257422300,18.28442236328125,0.010690134018659592,0.039706211537122726,-0.01282816007733345
1707004695276379100,18.303379150390626,-0.000305432389723137,0.05070177838206291,-0.01282816007733345
1707004695295336000,18.3223359375,0.013133592903614044,-0.023518294095993042,-0.0027488914784044027
1707004695314292700,18.341292724609374,0.025350889191031456,-0.039706211537122726,0.001832594396546483
1707004695333249500,18.36024951171875,0.021380268037319183,0.02260199747979641,-0.005192350596189499
1707004695352206000,18.3792060546875,0.008246674202382565,0.10354158282279968,-0.011300998739898205
1707004695371163100,18.3981630859375,-0.006414080038666725,0.13744457066059113,-0.017104214057326317
1707004695390120000,18.417119873046875,-0.018325943499803543,0.06108647957444191,-0.018631376326084137
1707004695409076700,18.43607666015625,-0.002443459117785096,-0.026572618633508682,-0.016798781231045723
1707004695428033500,18.455033447265624,0.02718348242342472,-0.026572618633508682,-0.015577051788568497
1707004695446990300,18.473990234375,0.013744457624852657,-0.00946840364485979,-0.019242240116000175
1707004695465947100,18.492947021484376,-0.012522728182375431,0.015577051788568497,-0.014049889519810677
1707004695484903700,18.511903564453124,-0.007635809946805239,0.04428769648075104,-0.01588248461484909
1707004695503860700,18.53086083984375,0.0030543238390237093,0.05070177838206291,-0.02260199747979641
1707004695522817500,18.549817626953125,0.004276053514331579,0.004886918235570192,-0.016187917441129684
1707004695541774300,18.5687744140625,0.000305432389723137,-0.002443459117785096,-0.010690134018659592
1707004695560731000,18.58773095703125,-0.014049889519810677,0.010384701192378998,-0.013439024798572063
1707004695579688000,18.60668798828125,-0.01740964688360691,0.01802051067352295,-0.023823726922273636
1707004695598644700,18.625644775390626,-0.010690134018659592,-0.023823726922273636,-0.018325943499803543
1707004695617601300,18.644601318359374,-0.007941242307424545,-0.054672397673130035,-0.016187917441129684
1707004695636558000,18.66355810546875,-0.01802051067352295,-0.008857538923621178,-0.011300998739898205
1707004695655515100,18.68251513671875,-0.02718348242342472,0.05497783049941063,-0.01435532234609127
1707004695674472000,18.701471923828127,-0.03787361457943916,0.04886918142437935,-0.0015271619195118546
1707004695693428500,18.720428466796875,-0.03481929376721382,0.02626718580722809,-0.008246674202382565
1707004695712385300,18.73938525390625,-0.038789913058280945,-0.0027488914784044027,-0.014049889519810677
1707004695731342300,18.75834228515625,-0.05406153202056885,-0.03298669680953026,0.005192350596189499
1707004695750299100,18.777299072265624,-0.04550942778587341,-0.05711585655808449,0.01282816007733345
1707004695769255700,18.796255615234376,-0.035124726593494415,-0.06475166976451874,0.017715077847242355
1707004695788212500,18.81521240234375,-0.060781046748161316,-0.07513637095689774,0.033597562462091446
1707004695807169300,18.834169189453124,-0.08429934084415436,-0.11942406743764877,0.05345066636800766
1707004695826126000,18.8531259765625,-0.09468404203653336,-0.19944734871387482,0.06291907280683517
1707004695845083000,18.872082763671877,-0.11911863088607788,-0.26939135789871216,0.06719512492418289
1707004695864039700,18.891039794921873,-0.11056652665138245,-0.2782489061355591,0.06994401663541794
1707004695882996500,18.90999658203125,-0.11056652665138245,-0.2868010103702545,0.07819069176912308
1707004695901953300,18.928953369140626,-0.08674279600381851,-0.2467893660068512,0.09498947113752365
1707004695920910000,18.94791015625,-0.08399390429258347,-0.13072505593299866,0.10018182545900345
1707004695939867000,18.966866943359374,-0.05742128938436508,0.011606430634856224,0.10567960888147354
1707004695958823700,18.98582373046875,-0.016798781231045723,0.13775001466274261,0.11392628401517868
1707004695977780500,19.004780517578126,0.004581485874950886,0.19853104650974274,0.10567960888147354
1707004695996737300,19.0237373046875,0.016798781231045723,0.1902843713760376,0.0772743970155716
1707004696015694000,19.042694091796875,0.02779434807598591,0.13011419773101807,0.053145237267017365
1707004696034651000,19.06165087890625,0.03023780696094036,0.14080433547496796,0.05894844979047775
1707004696053607700,19.080607666015624,0.05406153202056885,0.2669478952884674,0.05803215503692627
1707004696072564500,19.099564453125,0.07452550530433655,0.46395179629325867,0.0256563201546669
1707004696091521300,19.118521240234376,0.12278381735086441,0.6875283122062683,0.08063415437936783
1707004696110478000,19.13747802734375,0.13225223124027252,0.8988875150680542,0.08429934084415436
1707004696129434600,19.1564345703125,0.2055560052394867,0.4883863925933838,0.03756818547844887
1707004696148391700,19.1753916015625,0.31184646487236023,-0.44868019223213196,0.11178825795650482
1707004696167348500,19.194348388671877,0.21471896767616272,-1.3041963577270508,0.3836230933666229
1707004696186305300,19.21330517578125,0.10934479534626007,-1.6927063465118408,0.4883863925933838
1707004696205261800,19.23226171875,-0.02718348242342472,-0.6667588949203491,0.46883872151374817
1707004696224218600,19.251218505859374,-0.14660754799842834,0.8014546036720276,0.22785256803035736
1707004696243175400,19.270175537109374,-0.1536324918270111,1.48776113986969,-0.07880155742168427
1707004696262132200,19.28913232421875,-0.20189081132411957,0.9196569323539734,-0.21716243028640747
1707004696281089000,19.308089111328126,-0.27000224590301514,-0.13988803327083588,-0.10231985151767731
1707004696300045800,19.3270458984375,-0.3836230933666229,-0.8093958497047424,-0.07788526266813278
1707004696319002600,19.346002685546875,0.08155044913291931,-1.3304635286331177,0.09132428467273712
1707004696337959400,19.36495947265625,0.22724169492721558,-1.0238093137741089,0.05070177838206291
1707004696356916200,19.383916259765623,-0.05742128938436508,0.10629047453403473,0.009162971749901772
1707004696375873000,19.402873046875,-0.5149590373039246,0.38850998878479004,-0.04886918142437935
1707004696394829800,19.421829833984376,-0.3094030022621155,-0.16279546916484833,-0.024434590712189674
1707004696413786600,19.44078662109375,-0.025350889191031456,-0.9236275553703308,-0.020158538594841957
1707004696432743200,19.4597431640625,-0.3402516841888428,-0.5164861679077148,-0.023823726922273636
1707004696451700000,19.478699951171876,-0.4663952589035034,0.15638138353824615,-0.047952886670827866
1707004696470656800,19.49765673828125,-0.1279761642217636,-0.4822777509689331,-0.006108647678047419
1707004696489613600,19.516613525390625,0.35705047845840454,-1.1032217741012573,0.23548837006092072
1707004696508570400,19.5355703125,-0.06261363625526428,-0.29077163338661194,0.08002328872680664
1707004696527527200,19.554527099609373,-0.21807873249053955,0.5396990180015564,-0.18417572975158691
1707004696546484000,19.57348388671875,0.05803215503692627,0.7312051653862,-0.2922987937927246
1707004696565440800,19.592440673828126,-0.07452550530433655,-0.00946840364485979,-0.29016077518463135
1707004696584397600,19.6113974609375,-0.12217295914888382,-0.41263917088508606,-0.10720676928758621
1707004696603354000,19.63035400390625,0.1847866028547287,-0.6939423680305481,0.09315688163042068
1707004696622311000,19.649310791015626,0.13011419773101807,-0.20891575515270233,-0.04306596517562866
1707004696641267700,19.668267822265626,0.08277218043804169,0.3292561173439026,-0.2516762912273407
1707004696660224500,19.687224609375,0.18875721096992493,0.08918625861406326,-0.3857611119747162
1707004696679181300,19.706181396484375,0.08124501258134842,-0.18906265497207642,-0.21258094906806946
1707004696698138000,19.72513818359375,-0.033597562462091446,-0.33689191937446594,-0.18234314024448395
1707004696717095000,19.744094970703124,0.18753549456596375,-0.30573782324790955,-0.15515965223312378
1707004696736051700,19.7630517578125,0.47525280714035034,-0.5626064538955688,-0.13500112295150757
1707004696755008500,19.782008544921876,0.3439168632030487,-0.6359102129936218,-0.1844811588525772
1707004696773965000,19.800965087890624,0.09987638890743256,-0.0873536616563797,-0.2528980076313019
1707004696792921900,19.819921875,0.3903425931930542,0.041844237595796585,-0.2660316228866577
1707004696811878700,19.838878662109376,0.6499601006507874,-0.3753764033317566,-0.22327107191085815
1707004696830835500,19.85783544921875,0.5094612240791321,-0.5601630210876465,-0.12095122784376144
1707004696849792300,19.876792236328125,0.5018253922462463,-0.435241162776947,-0.19211697578430176
1707004696868749000,19.8957490234375,0.7709113359451294,-0.13041962683200836,-0.18631376326084137
1707004696887705900,19.914705810546874,0.8289434909820557,-0.01893680728971958,-0.1853974610567093
1707004696906662700,19.93366259765625,0.7391464114189148,-0.0668896958231926,-0.1288924664258957
1707004696925619200,19.952619140625,0.8552106618881226,-0.5476402640342712,-0.04734202101826668
1707004696944576000,19.971575927734374,1.1438442468643188,-0.7794634699821472,0.05192350596189499
1707004696963532800,19.99053271484375,1.3576469421386719,-0.8072578310966492,0.08399390429258347
1707004696982489600,20.009489501953126,1.2360849380493164,-0.8567378520965576,0.10506874322891235
1707004697001446400,20.0284462890625,1.1343759298324585,-0.8029817342758179,0.18142683804035187
1707004697020403200,20.0474033203125,1.3506220579147339,-0.4572322964668274,0.19700388610363007
1707004697039360000,20.066360107421875,1.505781650543213,-0.18906265497207642,0.3185659945011139
1707004697058316800,20.08531689453125,1.322827696800232,-0.33567020297050476,0.4404335021972656
1707004697077273600,20.104273681640624,1.1548398733139038,-0.7290670871734619,0.4428769648075104
1707004697096230100,20.123230224609376,1.2986985445022583,-1.0118975639343262,0.23304490745067596
1707004697115187000,20.14218701171875,1.278540015220642,-1.2431098222732544,0.004581485874950886
1707004697134143700,20.161143798828125,1.0955859422683716,-1.4049890041351318,0.028405211865901947
1707004697153100500,20.1801005859375,0.9181297421455383,-1.1808016300201416,0.2101374864578247
1707004697172057300,20.199057373046877,0.8894191384315491,-0.5821541547775269,0.27550002932548523
1707004697191014000,20.218013916015625,1.0974185466766357,-0.1444695144891739,0.24312418699264526
1707004697209970700,20.236970703125,1.0961968898773193,-0.08368847519159317,0.2257145345211029
1707004697228927500,20.255927490234374,0.6276635527610779,-0.5904008150100708,0.34574946761131287
1707004697247884300,20.27488427734375,0.4630354940891266,-0.7241802215576172,0.2519817352294922
1707004697266841000,20.293841064453126,0.6157516837120056,-0.27030766010284424,0.15546508133411407
1707004697285798000,20.3127978515625,0.3992001414299011,0.10415244847536087,0.24770566821098328
1707004697304754400,20.33175439453125,0.23762640357017517,0.2721402645111084,0.27580544352531433
1707004697323711200,20.350711181640627,0.34116798639297485,0.10659590363502502,0.17653992772102356
1707004697342668000,20.36966796875,0.2761108875274658,0.05589412897825241,0.08002328872680664
1707004697361624800,20.388624755859375,-0.03634645417332649,0.026878049597144127,0.05345066636800766
1707004697380581600,20.40758154296875,-0.10445787757635117,0.035124726593494415,0.001221729558892548
1707004697399538400,20.426538330078124,0.010995565913617611,-0.000305432389723137,0.026878049597144127
1707004697418495200,20.4454951171875,0.17592905461788177,0.11209368705749512,0.03145953640341759
1707004697437451800,20.46445166015625,0.10323614627122879,0.1747073233127594,0.050090912729501724
1707004697456408600,20.48340869140625,-0.016187917441129684,0.05253437161445618,0.05345066636800766
1707004697475365400,20.502365478515625,0.023518294095993042,-0.21288637816905975,0.006108647678047419
1707004697494322200,20.521322265625,0.0668896958231926,-0.18753549456596375,-0.01740964688360691
1707004697513279000,20.540279052734373,0.08032871782779694,0.08277218043804169,0.01740964688360691
1707004697532235500,20.559235595703125,0.06719512492418289,0.11514800786972046,0.05711585655808449
1707004697551192300,20.5781923828125,0.06047561392188072,-0.056810423731803894,0.07055488228797913
1707004697570149000,20.597149169921874,0.03481929376721382,-0.08979712426662445,0.024740023538470268
1707004697589106000,20.61610595703125,0.03176496922969818,0.11575887352228165,0.011911863461136818
1707004697608062700,20.635062744140626,0.03756818547844887,0.11881320178508759,0.04062250629067421
1707004697627019300,20.654019287109374,0.006414080038666725,-0.049480047076940536,0.07452550530433655
1707004697645976000,20.67297607421875,0.0015271619195118546,0.15118902921676636,0.07757982611656189
1707004697664932900,20.691932861328127,0.01954767294228077,0.2568686306476593,0.049480047076940536
1707004697683889700,20.7108896484375,-0.01954767294228077,0.08826996386051178,0.04245510324835777
1707004697702846500,20.729846435546875,-0.027488915249705315,0.03817904740571976,0.014049889519810677
1707004697721803000,20.748802978515624,-0.0766635313630104,0.14630211889743805,0.020158538594841957
1707004697740759800,20.767759765625,-0.07757982611656189,0.07544180005788803,0.022296564653515816
1707004697759716600,20.786716552734376,-0.0009162971982732415,0.06872228533029556,0.010690134018659592
1707004697778673400,20.80567333984375,-0.04550942778587341,0.14110976457595825,-0.007024944759905338
1707004697797630200,20.824630126953124,-0.12247838824987411,0.031154103577136993,0.025961752980947495
1707004697816586800,20.843586669921876,-0.08093958348035812,-0.0256563201546669,0.01802051067352295
1707004697835543600,20.86254345703125,-0.09437860548496246,0.02412915788590908,-0.038789913058280945
1707004697854500400,20.881500244140625,-0.1692095398902893,0.12644900381565094,-0.07024945318698883
1707004697873457200,20.90045703125,-0.20189081132411957,0.1328630894422531,-0.04001164436340332
1707004697892413700,20.91941357421875,-0.20647229254245758,0.05894844979047775,-0.039706211537122726
1707004697911370500,20.93837060546875,-0.2528980076313019,0.04734202101826668,-0.07391463965177536
1707004697930327300,20.957327392578126,-0.33231043815612793,0.11881320178508759,-0.11026109009981155
1707004697949284000,20.9762841796875,-0.37171122431755066,0.13683371245861053,-0.11056652665138245
1707004697968241000,20.995240966796874,-0.39339691400527954,0.13652828335762024,-0.12583814561367035
1707004697987197400,21.014197509765626,-0.43860089778900146,0.12461641430854797,-0.13775001466274261
1707004698006154200,21.033154296875,-0.5131264328956604,0.016187917441129684,-0.15821397304534912
1707004698025111000,21.052111083984375,-0.5702422857284546,-0.09590577334165573,-0.18142683804035187
1707004698044067800,21.07106787109375,-0.6814196705818176,-0.06811141967773438,-0.2006690800189972
1707004698063024600,21.090024658203124,-0.8078686594963074,0.06597339361906052,-0.17226386070251465
1707004698081981200,21.108981201171876,-0.878118097782135,0.3222311735153198,-0.19272783398628235
1707004698100938000,21.12793798828125,-0.870482325553894,0.5540543794631958,-0.2458730787038803
1707004698119894800,21.146894775390624,-1.0748165845870972,0.4526508152484894,-0.23335035145282745
1707004698138851600,21.1658515625,-1.2357794046401978,0.1380554437637329,-0.26542073488235474
1707004698157808400,21.184808349609376,-1.1334595680236816,0.029626941308379173,-0.411722868680954
1707004698176765000,21.203764892578125,-1.072983980178833,0.2721402645111084,-0.49541133642196655
1707004698195721700,21.2227216796875,-1.1331541538238525,0.5042688846588135,-0.45020735263824463
1707004698214678500,21.241678466796873,-0.9804379940032959,0.46456265449523926,-0.46517354249954224
1707004698233635300,21.26063525390625,-0.7473930716514587,0.08765909820795059,-0.41233372688293457
1707004698252592000,21.279592041015626,-0.6728675365447998,0.01588248461484909,-0.32039856910705566
1707004698271549000,21.298548828125,-0.5568032264709473,0.29138249158859253,-0.2776380479335785
1707004698290505500,21.31750537109375,-0.6298015713691711,0.8408553600311279,-0.20677772164344788
1707004698309462300,21.336462158203126,-0.7006618976593018,1.4181225299835205,-0.16768237948417664
1707004698328419000,21.355419189453126,-0.5885682106018066,1.4202606678009033,-0.12767073512077332
1707004698347375900,21.3743759765625,-0.685390293598175,0.7137954831123352,-0.0873536616563797
1707004698366332700,21.393332763671875,-0.6957749724388123,0.06322450190782547,0.0720820426940918
1707004698385289200,21.412289306640623,-0.22266021370887756,0.15210533142089844,0.09468404203653336
1707004698404246000,21.43124609375,-0.2935205399990082,0.5937605500221252,0.025350889191031456
1707004698423202800,21.450202880859376,-0.8487966060638428,0.44318240880966187,0.10903936624526978
1707004698442159600,21.46915966796875,-0.3338375985622406,0.3295615613460541,0.09896009415388107
1707004698461116400,21.488116455078124,0.016798781231045723,0.6493492722511292,0.10903936624526978
1707004698480073200,21.5070732421875,-0.5699368119239807,0.3133736252784729,0.019242240116000175
1707004698499030000,21.526030029296876,-0.35735589265823364,-0.26022839546203613,0.044898562133312225
1707004698517986600,21.544986572265625,0.056199558079242706,-0.41874781250953674,0.008246674202382565
1707004698536943400,21.563943359375,-0.32131487131118774,-0.04581485688686371,-0.07971785217523575
1707004698555900200,21.582900146484373,-0.2971857190132141,0.34697118401527405,-0.10170898586511612
1707004698574857000,21.60185693359375,0.2874118685722351,0.5668824911117554,0.016187917441129684
1707004698593813800,21.620813720703126,-0.012522728182375431,0.5006036758422852,0.013133592903614044
1707004698612770600,21.6397705078125,-0.18753549456596375,0.00946840364485979,0.04550942778587341
1707004698631727400,21.658727294921874,0.07391463965177536,-0.23243404924869537,0.09162971377372742
1707004698650684000,21.677683837890626,0.22235478460788727,0.10720676928758621,0.029626941308379173
1707004698669640700,21.696640625,-0.21135921776294708,0.35705047845840454,-0.06597339361906052
1707004698688597500,21.715597412109375,-0.27030766010284424,0.2306014597415924,-0.13011419773101807
1707004698707554300,21.73455419921875,0.021991131827235222,0.014049889519810677,-0.04673115536570549
1707004698726511000,21.753510986328124,0.24923282861709595,0.15118902921676636,0.0054977829568088055
1707004698745468000,21.772468017578124,-0.004886918235570192,0.1484401375055313,-0.030543239787220955
1707004698764424700,21.7914248046875,0.0668896958231926,-0.06200277432799339,-0.10323614627122879
1707004698783381500,21.810381591796876,0.2101374864578247,-0.06383536756038666,-0.05742128938436508
1707004698802338000,21.829338134765624,0.1902843713760376,0.1737910360097885,0.015577051788568497
1707004698821294800,21.848294921875,-0.07147117704153061,0.09621120244264603,-0.012522728182375431
1707004698840251600,21.867251708984377,0.00946840364485979,0.12278381735086441,-0.02718348242342472
1707004698859208400,21.88620849609375,0.06230820715427399,0.33231043815612793,-0.09407317638397217
1707004698878165200,21.905165283203125,-0.2208276242017746,0.2525925934314728,-0.02626718580722809
1707004698897122000,21.9241220703125,0.014660755172371864,0.04734202101826668,0.009773836471140385
1707004698916078800,21.943078857421874,0.26969680190086365,-0.014049889519810677,0.011606430634856224
1707004698935035600,21.96203564453125,-0.10048725455999374,-0.1951712965965271,0.06627883017063141
1707004698953992400,21.980992431640626,-0.23365578055381775,0.10598503798246384,0.10048725455999374
1707004698972949000,21.999948974609374,0.05222893878817558,0.2834412455558777,0.0015271619195118546
1707004698991905800,22.01890576171875,-0.006414080038666725,0.13133592903614044,0.006414080038666725
1707004699010862600,22.037862548828127,-0.1026252806186676,-0.021380268037319183,0.08155044913291931
1707004699029819400,22.0568193359375,0.0256563201546669,0.021991131827235222,0.15515965223312378
1707004699048776200,22.075776123046875,-0.08307760953903198,-0.018631376326084137,0.06933315098285675
1707004699067733000,22.09473291015625,-0.14630211889743805,0.10690133273601532,0.05253437161445618
1707004699086689800,22.113689697265624,0.056199558079242706,0.364991694688797,0.05803215503692627
1707004699105646600,22.132646484375,0.023823726922273636,0.35124725103378296,0.06383536756038666
1707004699124603400,22.151603271484376,-0.04764745384454727,0.017715077847242355,0.051618073135614395
1707004699143560200,22.170560302734376,0.03145953640341759,0.1380554437637329,0.08857539296150208
1707004699162517000,22.18951708984375,0.06933315098285675,0.3173442482948303,0.06994401663541794
1707004699181473800,22.208473876953125,0.01954767294228077,0.17592905461788177,0.06902772188186646
1707004699200430600,22.2274306640625,-0.05039634555578232,0.189673513174057,0.008246674202382565
1707004699219387400,22.246387451171874,0.057726722210645676,0.1597411334514618,-0.1795942485332489
1707004699238344200,22.26534423828125,-0.01893680728971958,0.21380266547203064,-0.13530655205249786
1707004699257301000,22.284301025390626,-0.10231985151767731,0.42974337935447693,-0.003359756199643016
1707004699276257500,22.303257568359374,0.11117739230394363,0.2788597643375397,-0.026878049597144127
1707004699295214300,22.32221435546875,0.1178968995809555,-0.2367101013660431,-0.0412333719432354
1707004699314171100,22.341171142578126,-0.11148282140493393,-0.2965748608112335,-0.008552107028663158
1707004699333128200,22.360128173828127,-0.07422006875276566,0.15302163362503052,0.06017018109560013
1707004699352084700,22.379084716796875,0.18356487154960632,0.42821621894836426,-0.0009162971982732415
1707004699371041500,22.39804150390625,0.04306596517562866,0.29046618938446045,-0.051618073135614395
1707004699389998300,22.416998291015624,-0.1588248461484909,0.05803215503692627,-0.09621120244264603
1707004699408955100,22.435955078125,-0.029932374134659767,-0.17134757339954376,-0.03145953640341759
1707004699427912000,22.454911865234376,0.23487751185894012,-0.30024003982543945,-0.0256563201546669
1707004699446868700,22.47386865234375,0.12980876863002777,-0.1230892539024353,-0.03237583488225937
1707004699465825500,22.492825439453124,0.02932151034474373,0.13958260416984558,-0.02718348242342472
1707004699484782300,22.5117822265625,-0.020158538594841957,0.18814635276794434,-0.061391908675432205
1707004699503739100,22.5307392578125,0.046425722539424896,0.1285870373249054,-0.04734202101826668
1707004699522696000,22.549696044921873,0.09865466505289078,0.17134757339954376,-0.033597562462091446
1707004699541652700,22.56865283203125,0.1340848207473755,0.10567960888147354,-0.008857538923621178
1707004699560609500,22.587609619140625,0.07422006875276566,0.05253437161445618,0.001832594396546483
1707004699579566300,22.60656640625,0.05039634555578232,-0.281914085149765,-0.1328630894422531
1707004699598523100,22.625523193359374,0.05253437161445618,-0.6044507026672363,-0.11087195575237274
1707004699617480000,22.64447998046875,0.007024944759905338,-0.30146175622940063,-0.033597562462091446
1707004699636436700,22.663436767578126,-0.10873392969369888,0.24037529528141022,-0.050090912729501724
1707004699655393500,22.6823935546875,-0.526870846748352,0.36254823207855225,-0.07147117704153061
1707004699674350300,22.701350341796875,-0.7550288438796997,-0.0204639695584774,-0.2617555558681488
1707004699693307100,22.72030712890625,-0.10231985151767731,-1.2315033674240112,-0.09865466505289078
1707004699712264000,22.739263916015624,0.6142245531082153,-1.6710206270217896,-0.1078176349401474
1707004699731220700,22.758220703125,0.5219839811325073,-1.0235038995742798,-0.014049889519810677
1707004699750177500,22.777177490234376,-0.1386663019657135,0.48991355299949646,0.07452550530433655
1707004699769134300,22.79613427734375,-0.40255987644195557,1.6817107200622559,0.025961752980947495
1707004699788091100,22.815091064453124,-0.07880155742168427,1.5418226718902588,0.06719512492418289
1707004699807048000,22.8340478515625,0.3894262909889221,0.7195987105369568,-0.025045456364750862
1707004699826004700,22.853004638671877,0.1792888194322586,-0.6304124593734741,0.024434590712189674
1707004699844961500,22.87196142578125,-0.04550942778587341,-1.4013237953186035,0.032070402055978775
1707004699863918300,22.89091845703125,0.07422006875276566,-1.1575887203216553,-0.01649334840476513
1707004699882875100,22.909875244140625,0.07849612087011337,-0.210442915558815,-0.04764745384454727
1707004699901832000,22.92883203125,-0.05253437161445618,0.6246092319488525,-0.09834922850131989
1707004699920788700,22.947788818359374,0.04001164436340332,0.7406735420227051,-0.12034036219120026
1707004699939745500,22.96674560546875,0.07086031138896942,0.3069595396518707,-0.09101885557174683
1707004699958702300,22.985702392578126,0.02626718580722809,-0.037262752652168274,-0.12095122784376144
1707004699977659000,23.004658935546875,-0.04886918142437935,-0.1798996776342392,-0.10537417232990265
1707004699996616000,23.023615966796875,-0.06933315098285675,-0.009162971749901772,-0.10751219838857651
1707004700015572700,23.04257275390625,-0.08093958348035812,0.2107483446598053,-0.09834922850131989
1707004700034529500,23.061529541015624,-0.07238747924566269,0.4272999167442322,-0.09498947113752365
1707004700053486000,23.080486083984376,-0.08124501258134842,0.3903425931930542,-0.10201441496610641
