time,seconds_elapsed,z,y,x
1707004677079058000,0.106057861328125,5.416153907775879,7.598408222198486,3.67657208442688
1707004677098014500,0.125014404296875,5.181657314300537,7.637889862060547,3.5018959045410156
1707004677116971300,0.14397119140625,5.272584915161133,7.670193195343018,3.504288673400879
1707004677135927800,0.162927734375,5.241477966308594,7.525427341461182,3.620340585708618
1707004677154884600,0.181884521484375,5.126622676849365,7.389036178588867,3.7184464931488037
1707004677173841200,0.200841064453125,4.838287353515625,7.369893550872803,3.6670007705688477
1707004677192798000,0.2197978515625,4.5308098793029785,7.463213920593262,3.5461630821228027
1707004677211754500,0.23875439453125,4.195814609527588,7.366304397583008,3.383451223373413
1707004677230711300,0.257711181640625,4.1659040451049805,7.263412952423096,3.3678979873657227
1707004677249667800,0.276667724609375,4.374079704284668,7.448856830596924,3.913461446762085
1707004677268624400,0.295624267578125,4.444668292999268,7.739584922790527,4.632504463195801
1707004677287581200,0.314581298828125,4.680361270904541,7.854440212249756,5.036891460418701
1707004677306537700,0.333537841796875,4.931607246398926,7.545766353607178,5.041677474975586
1707004677325494500,0.35249462890625,4.89691162109375,7.7838521003723145,5.106283664703369
1707004677344451000,0.371451171875,4.856233596801758,7.724031448364258,5.033302307128906
1707004677363408000,0.390407958984375,5.1840500831604,7.869993686676025,5.200799942016602
1707004677382364400,0.409364501953125,5.2115678787231445,7.7802629470825195,5.290530681610107
1707004677401321000,0.428321044921875,5.264209747314453,7.777870178222656,5.158925533294678
1707004677420277800,0.44727783203125,4.838287353515625,7.9381890296936035,4.88853645324707
1707004677439234300,0.466234375,4.325026988983154,7.6630144119262695,4.152743816375732
1707004677458191000,0.485191162109375,4.157529354095459,7.701299667358398,3.812962770462036
1707004677477147600,0.504147705078125,4.273581027984619,7.885547161102295,4.058227062225342
1707004677496104200,0.523104248046875,4.260420799255371,7.703692436218262,4.082155227661133
1707004677515061000,0.54206103515625,4.169493675231934,7.458428382873535,3.8763725757598877
1707004677534017500,0.561017578125,4.1491546630859375,7.767102241516113,3.9840497970581055
1707004677552974300,0.579974365234375,4.275974273681641,8.023134231567383,3.7974095344543457
1707004677571931000,0.598930908203125,4.619344234466553,7.710870742797852,3.67657208442688
1707004677590887400,0.617887451171875,5.004588603973389,7.613961696624756,4.076173305511475
1707004677609844200,0.63684423828125,5.355136871337891,7.664210796356201,4.374079704284668
1707004677628800800,0.65580078125,5.568098068237305,7.828119277954102,4.175475597381592
1707004677647757300,0.67475732421875,5.624329566955566,7.781459331512451,3.957728624343872
1707004677666714000,0.693714111328125,5.662614822387695,7.689335346221924,3.783052682876587
1707004677685670700,0.712670654296875,5.67338228225708,7.629515171051025,3.7459638118743896
1707004677704627500,0.73162744140625,5.467599868774414,7.312466144561768,3.4612178802490234
1707004677723584000,0.750583984375,5.210371494293213,6.965506553649902,3.2578279972076416
1707004677742540500,0.76954052734375,4.995017051696777,6.960721015930176,3.229114055633545
1707004677761497300,0.788497314453125,4.73300313949585,6.893722057342529,3.1513473987579346
1707004677780454000,0.807453857421875,4.683950424194336,6.86261510848999,2.964707374572754
1707004677799410400,0.826410400390625,4.828716278076172,6.845865726470947,3.0424740314483643
1707004677818367200,0.8453671875,5.0907301902771,7.080362319946289,3.298506021499634
1707004677837323800,0.86432373046875,5.509474277496338,7.183253765106201,3.5222349166870117
1707004677856280300,0.8832802734375,5.61954402923584,7.278966426849365,3.631108283996582
1707004677875237000,0.902237060546875,5.213960647583008,7.668996810913086,3.3882367610931396
1707004677894193700,0.921193603515625,4.681557655334473,8.051848411560059,3.1860432624816895
1707004677913150500,0.940150390625,4.555934429168701,6.959524631500244,2.528017044067383
1707004677932107000,0.95910693359375,4.467400074005127,7.110272407531738,2.3605196475982666
1707004677951063600,0.9780634765625,4.267599105834961,7.630711555480957,2.2372891902923584
1707004677970020400,0.997020263671875,4.40757942199707,7.4464640617370605,2.9419753551483154
1707004677988977000,1.015976806640625,4.155136585235596,7.421339511871338,2.720639228820801
1707004678007933400,1.034933349609375,3.7567315101623535,7.680960655212402,2.1415762901306152
1707004678026890200,1.05389013671875,3.603590965270996,7.939385414123535,1.7443677186965942
1707004678045846800,1.0728466796875,3.889533281326294,7.944170951843262,2.5328028202056885
1707004678064803300,1.09180322265625,4.485345840454102,7.94297456741333,4.2556352615356445
1707004678083760000,1.110760009765625,4.741377830505371,8.166703224182129,5.800201892852783
1707004678102716700,1.129716552734375,4.392025947570801,8.240880966186523,6.337390899658203
1707004678121673200,1.148673095703125,4.019941806793213,8.236095428466797,6.154339790344238
1707004678140630000,1.167630126953125,4.116851329803467,7.800601959228516,5.935396671295166
1707004678159586600,1.186586669921875,3.924229145050049,7.514659404754639,5.4628143310546875
1707004678178543400,1.20554345703125,3.52103853225708,7.603193759918213,5.018945693969727
1707004678197500000,1.2245,3.2518460750579834,7.616354465484619,4.790431022644043
1707004678216456400,1.24345654296875,3.548556089401245,7.566105365753174,5.039284706115723
1707004678235413200,1.262413330078125,3.6287155151367188,7.83410120010376,5.429314613342285
1707004678254369800,1.281369873046875,3.511467218399048,8.164310455322266,5.511867046356201
1707004678273326300,1.300326416015625,3.276970624923706,8.260024070739746,5.38624382019043
1707004678292283100,1.319283203125,3.4851462841033936,8.39282512664795,5.368297576904297
1707004678311239700,1.33823974609375,3.2135608196258545,8.434700012207031,4.649254322052002
1707004678330196200,1.3571962890625,3.029313564300537,8.514859199523926,3.3714871406555176
1707004678349153000,1.376153076171875,2.999403238296509,8.15234661102295,1.8831514120101929
1707004678368109600,1.395109619140625,2.2301106452941895,8.042277336120605,0.6089733839035034
1707004678387066400,1.41406640625,1.5637096166610718,8.562715530395508,0.24646073579788208
1707004678406023000,1.43302294921875,0.916451096534729,9.31166934967041,0.4737788736820221
1707004678424979500,1.4519794921875,0.6580262184143066,10.279565811157227,1.3663017749786377
1707004678443936300,1.470936279296875,1.1270195245742798,10.613365173339844,2.6189444065093994
1707004678462892800,1.489892822265625,1.887937068939209,9.489934921264648,3.049652576446533
1707004678481849300,1.508849365234375,1.9202401638031006,8.890532493591309,2.5878376960754395
1707004678500806100,1.52780615234375,1.643869161605835,8.928817749023438,2.2600209712982178
1707004678519762700,1.5467626953125,1.3268201351165771,8.809176445007324,2.4981069564819336
1707004678538719500,1.565719482421875,0.9810572862625122,8.671588897705078,2.3820550441741943
1707004678557676000,1.584676025390625,1.0719845294952393,9.43609619140625,2.68953275680542
1707004678576632600,1.603632568359375,1.5792629718780518,10.106086730957031,3.631108283996582
1707004678595589400,1.62258935546875,2.9036903381347656,10.125228881835938,4.66361141204834
1707004678614546000,1.6415458984375,3.135794162750244,9.317651748657227,3.710071563720703
1707004678633502500,1.66050244140625,3.586841106414795,9.281759262084961,3.053241729736328
1707004678652459300,1.679459228515625,2.89172625541687,9.698110580444336,4.235296249389648
1707004678671415800,1.698415771484375,3.4911282062530518,9.718449592590332,4.682754039764404
1707004678690372600,1.71737255859375,3.5126636028289795,9.789037704467773,5.289334297180176
1707004678709329200,1.7363291015625,3.10109806060791,9.364311218261719,5.006981372833252
1707004678728285700,1.75528564453125,2.5196423530578613,9.315258979797363,3.5126636028289795
1707004678747242500,1.774242431640625,2.328216314315796,9.54496955871582,1.963310956954956
1707004678766199000,1.793198974609375,2.2241287231445312,9.91825008392334,1.6366907358169556
1707004678785155800,1.81215576171875,2.441875457763672,9.905089378356934,2.218146562576294
1707004678804112400,1.8311123046875,2.5950162410736084,9.253045082092285,2.111665964126587
1707004678823069000,1.85006884765625,2.4358935356140137,9.091529846191406,1.892722725868225
1707004678842025700,1.869025634765625,2.2360928058624268,9.343972206115723,2.11405873298645
1707004678860982300,1.887982177734375,2.2540390491485596,9.540184020996094,2.616551637649536
1707004678879939000,1.90693896484375,2.313859462738037,9.565308570861816,3.2159535884857178
1707004678898895600,1.9258955078125,2.644068956375122,9.263813018798828,3.414557933807373
1707004678917852200,1.94485205078125,2.7146573066711426,8.717052459716797,3.3583266735076904
1707004678936809000,1.96380908203125,2.583052158355713,8.271987915039062,3.0484559535980225
1707004678955765500,1.982765625,2.4430718421936035,8.417949676513672,2.6249263286590576
1707004678974722300,2.001722412109375,2.4263222217559814,8.714659690856934,2.251646041870117
1707004678993678800,2.020678955078125,2.4227328300476074,8.872586250305176,1.7850457429885864
1707004679012635400,2.039635498046875,2.33180570602417,9.038887977600098,1.412961721420288
1707004679031592200,2.05859228515625,2.3150558471679688,9.104690551757812,1.1341979503631592
1707004679050548700,2.077548828125,2.420340061187744,9.145368576049805,1.031306505203247
1707004679069505500,2.096505615234375,2.6117658615112305,9.403793334960938,0.8506484627723694
1707004679088462000,2.115462158203125,2.7529425621032715,9.734002113342285,0.9702895879745483
1707004679107419000,2.1344189453125,2.778067111968994,9.80817985534668,0.7932206988334656
1707004679126375400,2.15337548828125,2.775674343109131,9.644271850585938,0.3122633695602417
1707004679145332000,2.17233203125,2.5567309856414795,9.678967475891113,-0.09810572862625122
1707004679164288800,2.191288818359375,2.3497519493103027,9.571290969848633,-0.3242274820804596
1707004679183245300,2.210245361328125,2.4011974334716797,9.245866775512695,-0.5730810165405273
1707004679202202000,2.2292021484375,2.386840581893921,9.306883811950684,-0.42352959513664246
1707004679221158700,2.24815869140625,2.5986053943634033,9.494720458984375,0.10049854964017868
1707004679240115500,2.267115478515625,2.197807550430298,9.842875480651855,0.9176474809646606
1707004679259072000,2.286072021484375,1.7371892929077148,9.789037704467773,0.7680960893630981
1707004679278028500,2.305028564453125,1.3495519161224365,9.402596473693848,0.12921242415905
1707004679296985300,2.3239853515625,1.1832507848739624,9.20279598236084,-0.41994038224220276
1707004679315942000,2.34294189453125,1.2598211765289307,9.238688468933105,-0.8243274092674255
1707004679334898700,2.361898681640625,1.357926845550537,8.975478172302246,-1.0875378847122192
1707004679353855200,2.380855224609375,1.3196417093276978,8.842676162719727,-1.5098711252212524
1707004679372812000,2.39981201171875,1.293320655822754,9.10827922821045,-1.7910277843475342
1707004679391768600,2.4187685546875,1.28255295753479,9.424132347106934,-1.820937991142273
1707004679410725400,2.437725341796875,1.0157532691955566,9.500701904296875,-1.9573289155960083
1707004679429682000,2.456681884765625,0.6640082597732544,9.528220176696777,-2.1164517402648926
1707004679448638500,2.475638427734375,0.33020952343940735,9.595218658447266,-2.273181438446045
1707004679467595300,2.49459521484375,-0.07058826833963394,9.681360244750977,-2.4681966304779053
1707004679486551800,2.5135517578125,-0.21655045449733734,9.803394317626953,-2.664407968521118
1707004679505508600,2.532508544921875,-0.4654040038585663,10.070194244384766,-2.7840490341186523
1707004679524465200,2.551465087890625,-0.5575276613235474,10.280762672424316,-2.8809585571289062
1707004679543421700,2.570421630859375,-0.486939400434494,10.339386940002441,-3.032902717590332
1707004679562378500,2.58937841796875,-0.3158525824546814,10.29153060913086,-3.128615617752075
1707004679581335000,2.6083349609375,-0.16031911969184875,10.292726516723633,-3.2482566833496094
1707004679600291800,2.627291748046875,-0.02871387079358101,10.243673324584961,-3.315255880355835
1707004679619248400,2.646248291015625,0.2967100143432617,9.963713645935059,-3.2303106784820557
1707004679638205200,2.665205078125,0.4582255482673645,9.760323524475098,-3.342773199081421
1707004679657161700,2.68416162109375,0.23808585107326508,9.56650447845459,-3.678964853286743
1707004679676118300,2.7031181640625,0.04666004329919815,9.397810935974121,-3.8811583518981934
1707004679695075000,2.722074951171875,0.02632104977965355,9.282955169677734,-4.11206579208374
1707004679714031600,2.741031494140625,-0.06699903309345245,9.34277629852295,-4.281956195831299
1707004679732988400,2.759988525390625,-0.1902294009923935,9.54496955871582,-4.143172264099121
1707004679751945000,2.778945068359375,0.26201409101486206,9.69212818145752,-3.8249270915985107
1707004679770901800,2.79790185546875,0.7070791125297546,9.670592308044434,-3.5473594665527344
1707004679789858300,2.8168583984375,0.973878800868988,9.616754531860352,-3.071187973022461
1707004679808815000,2.835815185546875,1.31365966796875,9.312865257263184,-2.4849462509155273
1707004679827771600,2.854771728515625,1.695314884185791,8.831908226013184,-2.0745773315429688
1707004679846728400,2.873728515625,2.1068804264068604,8.328219413757324,-1.9872392416000366
1707004679865685000,2.89268505859375,2.3880369663238525,7.968099594116211,-1.9657038450241089
1707004679884641800,2.911641845703125,2.638087034225464,7.956135272979736,-1.852044701576233
1707004679903598300,2.930598388671875,3.2027931213378906,7.779066562652588,-1.6259230375289917
1707004679922555100,2.94955517578125,3.7698919773101807,7.893921852111816,-1.2693923711776733
1707004679941511700,2.96851171875,3.7495529651641846,8.551948547363281,-1.062413215637207
1707004679960468500,2.987468505859375,3.647858142852783,9.105886459350586,-0.9248259663581848
1707004679979425000,3.006425048828125,3.8572301864624023,9.110671997070312,-0.8745766878128052
1707004679998381600,3.025381591796875,3.895515203475952,9.113064765930176,-0.776470959186554
1707004680017338400,3.04433837890625,3.686143398284912,9.073583602905273,-0.7848458290100098
1707004680036295000,3.063294921875,3.5270206928253174,8.839086532592773,-1.0145567655563354
1707004680055251700,3.082251708984375,3.500699520111084,8.835497856140137,-1.1353943347930908
1707004680074208300,3.101208251953125,3.4504501819610596,9.079565048217773,-1.1186445951461792
1707004680093165000,3.1201650390625,3.298506021499634,9.186046600341797,-1.215553879737854
1707004680112121600,3.13912158203125,3.184846878051758,8.889336585998535,-1.332802176475525
1707004680131078400,3.158078369140625,3.1860432624816895,8.462217330932617,-1.423729419708252
1707004680150035000,3.177034912109375,3.1549365520477295,8.23848819732666,-1.482353687286377
1707004680168991500,3.195991455078125,3.0233314037323,8.397610664367676,-1.5708880424499512
1707004680187948300,3.2149482421875,3.001796007156372,8.536395072937012,-1.7012969255447388
1707004680206904800,3.23390478515625,2.8965117931365967,8.754141807556152,-2.0207388401031494
1707004680225861600,3.252861572265625,2.5387847423553467,9.43609619140625,-2.609373092651367
1707004680244818200,3.271818115234375,2.2169501781463623,10.213763236999512,-2.750549554824829
1707004680263775000,3.29077490234375,1.5134602785110474,10.846665382385254,-3.7052857875823975
1707004680282731500,3.3097314453125,1.4033905267715454,10.546365737915039,-4.266402721405029
1707004680301688300,3.328688232421875,1.2813565731048584,9.78664493560791,-4.347758769989014
1707004680320644900,3.347644775390625,0.7848458290100098,9.29611587524414,-4.417150497436523
1707004680339601700,3.3666015625,0.3326023519039154,9.074779510498047,-4.342973232269287
1707004680358558200,3.38555810546875,0.21415762603282928,9.030512809753418,-4.097708702087402
1707004680377515000,3.404514892578125,-0.003589233849197626,9.286544799804688,-3.7196428775787354
1707004680396471600,3.423471435546875,-0.1495514214038849,9.627521514892578,-3.1932218074798584
1707004680415428400,3.442428466796875,-0.09571290761232376,9.598808288574219,-2.9204399585723877
1707004680434385000,3.461385009765625,-0.29312077164649963,9.900303840637207,-2.9419753551483154
1707004680453341700,3.480341796875,-0.6281159520149231,10.545169830322266,-2.720639228820801
1707004680472298200,3.49929833984375,-0.4713860750198364,10.382457733154297,-2.2636101245880127
1707004680491255000,3.518255126953125,0.1256231814622879,9.76989459991455,-2.1678972244262695
1707004680510211600,3.537211669921875,0.15314064919948578,9.52941608428955,-2.273181438446045
1707004680529168400,3.55616845703125,0.02392822690308094,9.519845008850098,-2.26959228515625
1707004680548125000,3.575125,-0.09930214285850525,9.256634712219238,-2.5112674236297607
1707004680567081700,3.594081787109375,-0.10289137065410614,9.053244590759277,-2.926422119140625
1707004680586038300,3.613038330078125,-0.25363919138908386,9.174081802368164,-3.102294445037842
1707004680604995000,3.6319951171875,-0.2763710021972656,9.20279598236084,-3.253042459487915
1707004680623951600,3.65095166015625,-0.18903298676013947,9.06999397277832,-3.497110366821289
1707004680642908200,3.669908203125,-0.25722843408584595,9.068798065185547,-3.5676984786987305
1707004680661865000,3.688864990234375,-0.22492532432079315,9.272188186645508,-3.5222349166870117
1707004680680821500,3.707821533203125,0.37088751792907715,9.121439933776855,-3.3678979873657227
1707004680699778300,3.7267783203125,0.7262216806411743,8.973084449768066,-2.933600664138794
1707004680718734800,3.74573486328125,1.0061819553375244,9.232706069946289,-2.555534601211548
1707004680737691600,3.764691650390625,0.9882357716560364,9.627521514892578,-2.3162522315979004
1707004680756648200,3.783648193359375,1.2083754539489746,9.686145782470703,-2.142772674560547
1707004680775604700,3.802604736328125,1.7742780447006226,9.540184020996094,-1.597209095954895
1707004680794561500,3.8215615234375,2.0781664848327637,9.162117958068848,-1.495514154434204
1707004680813518000,3.84051806640625,2.1643080711364746,9.034101486206055,-1.6713865995407104
1707004680832475000,3.859474853515625,1.9896320104599,9.06401252746582,-2.0685951709747314
1707004680851431400,3.878431396484375,1.726421594619751,9.34875774383545,-2.341377019882202
1707004680870388200,3.89738818359375,1.9142581224441528,9.355937004089355,-2.368894338607788
1707004680889344800,3.9163447265625,2.3533411026000977,9.349954605102539,-1.9154545068740845
1707004680908301600,3.935301513671875,2.9048867225646973,9.30329418182373,-1.3351950645446777
1707004680927258000,3.954258056640625,3.3308091163635254,8.685946464538574,-0.9786644577980042
1707004680946215000,3.97321484375,3.3894333839416504,8.38684368133545,-0.9308080077171326
1707004680965171500,3.99217138671875,3.1992039680480957,8.507680892944336,-1.038485050201416
1707004680984128300,4.011128173828125,3.046063184738159,8.723034858703613,-1.4033905267715454
1707004681003084800,4.030084716796875,2.8247270584106445,8.952746391296387,-1.5397813320159912
1707004681022041600,4.04904150390625,2.562713146209717,9.608379364013672,-1.5134602785110474
1707004681040998100,4.067998046875,2.4921247959136963,10.116853713989258,-1.4177473783493042
1707004681059955000,4.086954833984375,2.5088746547698975,10.053443908691406,-1.6103696823120117
1707004681078911500,4.105911376953125,2.5232315063476562,9.748359680175781,-1.9369899034500122
1707004681097868300,4.124868408203125,2.4681966304779053,9.200403213500977,-2.001596212387085
1707004681116824800,4.143824951171875,2.2576282024383545,8.818747520446777,-1.9381862878799438
1707004681135781600,4.16278173828125,1.9645073413848877,9.050851821899414,-1.817348837852478
1707004681154738200,4.18173828125,1.8699909448623657,9.280562400817871,-1.5314065217971802
1707004681173694700,4.20069482421875,2.073380708694458,8.96112060546875,-1.3986048698425293
1707004681192651500,4.219651611328125,1.9896320104599,8.920442581176758,-1.0205388069152832
1707004681211608000,4.238608154296875,1.7383856773376465,9.431310653686523,-0.6029912829399109
1707004681230564900,4.25756494140625,1.2179467678070068,10.01874828338623,-0.550349235534668
1707004681249521400,4.276521484375,0.9643075466156006,10.003194808959961,-0.8889335989952087
1707004681268478200,4.295478271484375,0.4630111753940582,10.028319358825684,-1.1509476900100708
1707004681287434800,4.314434814453125,0.11964113265275955,10.529616355895996,-1.1306086778640747
1707004681306391600,4.3333916015625,-0.038285162299871445,10.85025405883789,-1.1174482107162476
1707004681325348000,4.35234814453125,-0.20578274130821228,10.905289649963379,-1.1198409795761108
1707004681344305000,4.371304931640625,-0.16869398951530457,10.833504676818848,-0.8398807644844055
1707004681363261400,4.390261474609375,-0.07776673883199692,10.85862922668457,-0.4833501875400543
1707004681382218200,4.40921826171875,-0.37926238775253296,10.894521713256836,-0.15672987699508667
1707004681401174800,4.4281748046875,-0.5120640397071838,10.705488204956055,-0.06819544732570648
1707004681420131600,4.447131591796875,-0.4366901218891144,10.264012336730957,-0.10289137065410614
1707004681439088000,4.466088134765625,-0.31106695532798767,9.980463027954102,-0.1136590763926506
1707004681458045000,4.485044921875,-0.46779683232307434,9.938589096069336,-0.3409772217273712
1707004681477001500,4.50400146484375,-0.6149554252624512,9.896714210510254,-0.6352944374084473
1707004681495958300,4.522958251953125,-0.7130611538887024,9.852447509765625,-0.8925228714942932
1707004681514914800,4.541914794921875,-0.7345965504646301,9.854840278625488,-0.9547362327575684
1707004681533871600,4.56087158203125,-0.7537391185760498,9.844072341918945,-0.865005373954773
1707004681552828200,4.579828125,-0.519242525100708,9.856036186218262,-0.672383189201355
1707004681571785000,4.598784912109375,-0.34576287865638733,10.090533256530762,-0.42352959513664246
1707004681590741500,4.617741455078125,-0.1746760457754135,10.067801475524902,-0.22971096634864807
1707004681609698000,4.636697998046875,0.04187439754605293,9.885947227478027,-0.09212367236614227
1707004681628654800,4.65565478515625,0.16271193325519562,9.789037704467773,0.04187439754605293
1707004681647611400,4.674611328125,0.39481574296951294,9.88833999633789,0.2835494875907898
1707004681666568200,4.693568115234375,0.8267202377319336,9.66819953918457,0.4893322288990021
1707004681685524700,4.712524658203125,1.215553879737854,9.42054271697998,0.7154539823532104
1707004681704481300,4.731481201171875,1.534995675086975,9.175278663635254,1.2885349988937378
1707004681723438000,4.75043798828125,1.8376877307891846,9.001798629760742,1.887937068939209
1707004681742394600,4.76939453125,2.1200408935546875,8.94556713104248,2.3617160320281982
1707004681761351400,4.788351318359375,1.95852530002594,8.967103004455566,2.5914268493652344
1707004681780308000,4.807307861328125,1.8987047672271729,9.008976936340332,2.5974090099334717
1707004681799264800,4.8262646484375,1.825723648071289,8.891729354858398,2.3856441974639893
1707004681818221300,4.84522119140625,1.6654045581817627,8.916853904724121,1.9836499691009521
1707004681837178000,4.86417822265625,1.4165509939193726,9.119047164916992,1.6175481081008911
1707004681856134700,4.883134765625,1.32921302318573,9.357132911682129,1.144965648651123
1707004681875091500,4.902091552734375,1.332802176475525,9.492327690124512,0.6747759580612183
1707004681894048000,4.921048095703125,1.4931213855743408,9.419346809387207,0.2835494875907898
1707004681913004800,4.9400048828125,1.6115660667419434,9.31166934967041,-0.03349951654672623
1707004681931961300,4.95896142578125,1.4727823734283447,9.388239860534668,-0.3397808074951172
1707004681950918100,4.977918212890625,1.3926228284835815,9.580862045288086,-0.6197410821914673
1707004681969874700,4.996874755859375,1.2945170402526855,9.762716293334961,-0.8243274092674255
1707004681988831500,5.01583154296875,1.2586246728897095,9.717252731323242,-0.9523434042930603
1707004682007788000,5.0347880859375,1.3088740110397339,9.58325481414795,-1.0707881450653076
1707004682026744800,5.053744873046875,1.32921302318573,9.686145782470703,-0.9978070259094238
1707004682045701400,5.072701416015625,1.1629117727279663,9.797411918640137,-0.8733802437782288
1707004682064658200,5.091658203125,1.0265209674835205,9.748359680175781,-0.8614161610603333
1707004682083614700,5.11061474609375,1.0839486122131348,9.66102123260498,-0.714257538318634
1707004682102571300,5.1295712890625,1.109073281288147,9.633503913879395,-0.5611169338226318
1707004682121528000,5.148528076171875,1.0815558433532715,9.728020668029785,-0.4211367964744568
1707004682140484600,5.167484619140625,1.093519926071167,9.77109146118164,-0.39601215720176697
1707004682159441400,5.18644140625,1.3028919696807861,9.56650447845459,-0.3696911036968231
1707004682178398000,5.20539794921875,1.521835207939148,9.491130828857422,-0.2189432680606842
1707004682197354800,5.224354736328125,1.4165509939193726,9.517452239990234,0.06580262631177902
1707004682216311300,5.243311279296875,1.3615161180496216,9.385847091674805,0.4127618968486786
1707004682235267800,5.262267822265625,1.4297115802764893,9.05444049835205,0.6209374666213989
1707004682254224600,5.281224609375,1.384247899055481,8.819944381713867,0.8135597109794617
1707004682273181200,5.30018115234375,1.3722838163375854,8.519644737243652,0.9966106414794922
1707004682292138000,5.319137939453125,1.2562319040298462,8.105687141418457,0.9451649188995361
1707004682311094500,5.338094482421875,1.210768222808838,7.75753116607666,0.7417750358581543
1707004682330051300,5.35705126953125,1.0097711086273193,7.496713161468506,0.41515472531318665
1707004682349008000,5.3760078125,0.8398807644844055,7.357929706573486,-0.05503492057323456
1707004682367964700,5.394964599609375,0.8171489238739014,7.048058986663818,-0.7393822073936462
1707004682386921200,5.413921142578125,0.6317051649093628,6.868597507476807,-1.1521440744400024
1707004682405878000,5.4328779296875,0.6891329288482666,6.5252275466918945,-1.6713865995407104
1707004682424834600,5.45183447265625,0.8123632669448853,5.816951751708984,-2.3497519493103027
1707004682443791000,5.470791015625,0.9367900490760803,5.505885124206543,-2.778067111968994
1707004682462748000,5.489747802734375,0.5718846321105957,6.532405853271484,-2.919243574142456
1707004682481704400,5.508704345703125,0.18305093050003052,8.298309326171875,-3.081955671310425
1707004682500661200,5.5276611328125,0.29790642857551575,9.403793334960938,-3.2757742404937744
1707004682519617800,5.54661767578125,1.031306505203247,9.114261627197266,-3.4408788681030273
1707004682538574600,5.56557470703125,1.0683952569961548,8.863015174865723,-3.737588882446289
1707004682557531100,5.58453125,0.778863787651062,9.455238342285156,-3.1178479194641113
1707004682576488000,5.603488037109375,0.7286145091056824,9.522237777709961,-2.9587252140045166
1707004682595444500,5.622444580078125,1.0456634759902954,9.343972206115723,-2.9790642261505127
1707004682614401300,5.6414013671875,1.231107234954834,9.329615592956543,-2.809173822402954
1707004682633357800,5.66035791015625,1.353141188621521,9.713663101196289,-2.348555326461792
1707004682652314600,5.679314697265625,1.5517455339431763,9.626325607299805,-2.451446771621704
1707004682671271200,5.698271240234375,1.0863415002822876,9.997213363647461,-3.016152858734131
1707004682690227700,5.717227783203125,0.7513462901115417,10.667202949523926,-3.31884503364563
1707004682709184500,5.7361845703125,0.8614161610603333,10.52363395690918,-3.8117663860321045
1707004682728141000,5.75514111328125,1.0241280794143677,10.271191596984863,-4.278367042541504
1707004682747097900,5.774097900390625,0.8554341197013855,10.285548210144043,-4.528416633605957
1707004682766054400,5.793054443359375,0.537188708782196,10.53200912475586,-4.40757942199707
1707004682785011200,5.81201123046875,0.8865407705307007,10.699506759643555,-4.2831525802612305
1707004682803967700,5.8309677734375,1.171286702156067,10.96869945526123,-4.109673023223877
1707004682822924500,5.849924560546875,1.210768222808838,11.292926788330078,-3.476771354675293
1707004682841881000,5.868881103515625,1.4141582250595093,11.170892715454102,-3.1860432624816895
1707004682860837600,5.887837646484375,1.1377872228622437,10.912467956542969,-3.355933666229248
1707004682879794400,5.90679443359375,0.6305087804794312,10.936395645141602,-3.730410575866699
1707004682898751000,5.9257509765625,0.30628129839897156,11.788240432739258,-4.206582069396973
1707004682917707800,5.944707763671875,0.2787638306617737,12.728620529174805,-4.369294166564941
1707004682936664300,5.963664306640625,0.7226324677467346,13.01934814453125,-4.168296813964844
1707004682955620900,5.982620849609375,1.2047861814498901,13.239487648010254,-3.7663028240203857
1707004682974577700,6.00157763671875,1.5254244804382324,13.416556358337402,-3.2757742404937744
1707004682993534200,6.0205341796875,1.542174220085144,13.51585865020752,-3.060420274734497
1707004683012491000,6.039490966796875,1.3674981594085693,13.552947044372559,-2.943171739578247
1707004683031447600,6.058447509765625,1.3806586265563965,13.123435974121094,-3.073580741882324
1707004683050404400,6.077404296875,1.1617153882980347,12.43549919128418,-3.38105845451355
1707004683069361000,6.09636083984375,0.9678967595100403,11.972488403320312,-3.597608804702759
1707004683088317700,6.115317626953125,0.794417142868042,11.544173240661621,-3.840480327606201
1707004683107274200,6.134274169921875,0.6149554252624512,11.060822486877441,-4.177868366241455
1707004683126231000,6.15323095703125,0.2189432680606842,10.786844253540039,-4.25084924697876
1707004683145187600,6.1721875,0.2967100143432617,10.545169830322266,-4.077369689941406
1707004683164144400,6.191144287109375,0.5659025311470032,10.137192726135254,-3.7914273738861084
1707004683183101000,6.210100830078125,0.8231309652328491,9.719645500183105,-3.483949661254883
1707004683202057700,6.2290576171875,0.9284151792526245,9.53659439086914,-3.3655049800872803
1707004683221014300,6.24801416015625,0.8781659007072449,9.594022750854492,-3.308077335357666
1707004683239971000,6.26697119140625,1.058824062347412,9.18006420135498,-3.315255880355835
1707004683258927600,6.285927734375,1.5314065217971802,8.34855842590332,-3.242274761199951
1707004683277884400,6.304884521484375,1.9609181880950928,7.412964344024658,-2.8725836277008057
1707004683296841000,6.323841064453125,2.128415822982788,6.7178497314453125,-2.517249345779419
1707004683315797800,6.3427978515625,2.4047868251800537,6.019145488739014,-2.0781664848327637
1707004683334754300,6.36175439453125,2.620140790939331,5.5106706619262695,-1.557727575302124
1707004683353711000,6.380711181640625,2.6775684356689453,5.358726501464844,-1.1485549211502075
1707004683372667600,6.399667724609375,2.6392834186553955,5.851647853851318,-1.0707881450653076
1707004683391624400,6.41862451171875,2.609373092651367,6.7310099601745605,-0.9248259663581848
1707004683410581000,6.4375810546875,2.6141586303710938,7.774280548095703,-0.6125625967979431
1707004683429537500,6.45653759765625,2.8342983722686768,8.760123252868652,-0.39122650027275085
1707004683448494300,6.475494384765625,2.9288148880004883,9.21834945678711,-0.48454657196998596
1707004683467451000,6.494450927734375,3.2027931213378906,9.213563919067383,-0.6089733839035034
1707004683486407700,6.51340771484375,3.4205398559570312,8.848658561706543,-0.9320043921470642
1707004683505364500,6.532364501953125,3.1405797004699707,9.059226989746094,-1.420140266418457
1707004683524321000,6.551321044921875,2.7672994136810303,9.31047248840332,-1.8245272636413574
1707004683543277800,6.57027783203125,2.334198474884033,9.378668785095215,-2.256431818008423
1707004683562234400,6.589234375,2.1092731952667236,9.53061294555664,-2.3605196475982666
1707004683581191200,6.608191162109375,1.8544375896453857,9.531808853149414,-2.148754835128784
1707004683600147700,6.627147705078125,1.550549030303955,9.235098838806152,-2.1571295261383057
1707004683619104500,6.6461044921875,1.2574282884597778,8.82233715057373,-2.0745773315429688
1707004683638061000,6.66506103515625,1.2191431522369385,8.550751686096191,-1.6917256116867065
1707004683657017900,6.684017822265625,1.144965648651123,8.599804878234863,-1.1437692642211914
1707004683675974400,6.702974365234375,1.0396814346313477,8.841479301452637,-0.8003991842269897
1707004683694931200,6.72193115234375,0.6340979933738708,9.056833267211914,-0.7226324677467346
1707004683713887700,6.7408876953125,0.19980068504810333,9.113064765930176,-0.9822536706924438
1707004683732844500,6.759844482421875,-0.24646073579788208,9.032905578613281,-1.2849457263946533
1707004683751801000,6.778801025390625,-0.503689169883728,9.147761344909668,-1.506281852722168
1707004683770758000,6.7977578125,-0.6149554252624512,9.32722282409668,-1.628315806388855
1707004683789714400,6.81671435546875,-0.45942193269729614,9.511469841003418,-1.552941918373108
1707004683808671200,6.835671142578125,-0.2476571500301361,9.696913719177246,-1.412961721420288
1707004683827628000,6.8546279296875,-0.19381862878799438,9.967302322387695,-1.5744773149490356
1707004683846584600,6.87358447265625,-0.27038896083831787,10.189835548400879,-1.7599210739135742
1707004683865541400,6.892541259765625,-0.23210379481315613,9.952945709228516,-1.9022940397262573
1707004683884498000,6.911497802734375,0.04307080805301666,9.43609619140625,-2.14516544342041
1707004683903454700,6.930454833984375,0.014356935396790504,9.040083885192871,-2.39401912689209
1707004683922411300,6.949411376953125,-0.37926238775253296,9.230313301086426,-2.3497519493103027
1707004683941368000,6.9683681640625,-0.2907279431819916,9.455238342285156,-2.379662036895752
1707004683960324900,6.987324951171875,0.037088751792907715,9.745966911315918,-2.11405873298645
1707004683979281400,7.006281494140625,0.40797626972198486,9.88833999633789,-1.9070796966552734
1707004683998238000,7.025238037109375,0.6795616149902344,9.875179290771484,-1.8029918670654297
1707004684017194800,7.04419482421875,0.8638089895248413,9.80817985534668,-1.812563180923462
1707004684036151300,7.0631513671875,0.9667003750801086,9.78544807434082,-1.8963119983673096
1707004684055108000,7.082108154296875,0.9643075466156006,9.845269203186035,-1.8616160154342651
1707004684074065000,7.10106494140625,0.9822536706924438,9.885947227478027,-1.7312071323394775
1707004684093021400,7.120021484375,1.179661512374878,9.631111145019531,-1.7383856773376465
1707004684111978200,7.138978271484375,1.2705888748168945,9.394221305847168,-1.6139588356018066
1707004684130934800,7.157934814453125,1.490728497505188,9.22433090209961,-1.3555340766906738
1707004684149891600,7.1768916015625,2.012363910675049,9.089137077331543,-1.153340458869934
1707004684168848400,7.195848388671875,2.638087034225464,8.915657043457031,-0.6101697683334351
1707004684187805000,7.214804931640625,3.2303106784820557,8.857032775878906,-0.1459621787071228
1707004684206761700,7.23376171875,3.601198196411133,8.85344409942627,0.06580262631177902
1707004684225718300,7.25271826171875,3.6681971549987793,8.993423461914062,0.18065811693668365
1707004684244675000,7.271675048828125,3.8009986877441406,9.023334503173828,0.14835500717163086
1707004684263631600,7.290631591796875,3.9936211109161377,8.950352668762207,0.07058826833963394
1707004684282588400,7.30958837890625,3.844069480895996,9.153742790222168,0.10289137065410614
1707004684301545000,7.328544921875,3.6574294567108154,9.34157943725586,-0.02153540402650833
1707004684320501800,7.347501708984375,3.4552359580993652,9.376275062561035,-0.08374879509210587
1707004684339458300,7.366458251953125,3.022135019302368,9.456435203552246,-0.2584248483181
1707004684358415000,7.3854150390625,2.654836654663086,9.274580955505371,-0.34217363595962524
1707004684377372000,7.404371826171875,2.6021945476531982,8.986245155334473,-0.12921242415905
1707004684396328400,7.423328369140625,2.7517459392547607,8.763712882995605,0.19740787148475647
1707004684415285200,7.44228515625,2.715853691101074,8.797212600708008,0.4450650215148926
1707004684434241800,7.46124169921875,2.620140790939331,9.09392261505127,0.5455635786056519
1707004684453198600,7.480198486328125,2.551945447921753,9.54496955871582,0.4749752879142761
1707004684472155100,7.499155029296875,2.4227328300476074,10.030712127685547,0.3732803463935852
1707004684491112000,7.51811181640625,2.297109842300415,10.335797309875488,0.10887342691421509
1707004684510068500,7.537068359375,2.063809633255005,10.161121368408203,-0.21415762603282928
1707004684529025300,7.556025390625,1.6342978477478027,9.93978500366211,-0.6161518096923828
1707004684547981800,7.57498193359375,1.085145115852356,9.906285285949707,-1.210768222808838
1707004684566938600,7.593938720703125,0.6939185857772827,9.726823806762695,-1.5050854682922363
1707004684585895400,7.6128955078125,0.4163511395454407,9.503094673156738,-1.7371892929077148
1707004684604852000,7.63185205078125,0.2871387302875519,9.336793899536133,-2.0279171466827393
1707004684623808800,7.650808837890625,0.02751746028661728,8.992227554321289,-2.313859462738037
1707004684642765300,7.669765380859375,-0.23210379481315613,8.653642654418945,-2.7361927032470703
1707004684661722000,7.68872216796875,-0.5730810165405273,8.601000785827637,-2.885744094848633
1707004684680679000,7.707678955078125,-0.6041877269744873,8.782855987548828,-2.730210542678833
1707004684699635500,7.726635498046875,-0.5407779216766357,9.002995491027832,-2.5052852630615234
1707004684718592300,7.74559228515625,-0.34695929288864136,9.58205795288086,-2.152343988418579
1707004684737548800,7.764548828125,0.12442677468061447,10.240084648132324,-1.6115660667419434
1707004684756505600,7.783505615234375,0.6675975322723389,10.63250732421875,-1.1904292106628418
1707004684775462100,7.802462158203125,1.0552347898483276,10.916056632995605,-0.8147560954093933
1707004684794419000,7.8214189453125,1.301695466041565,11.016555786132812,-0.6101697683334351
1707004684813375500,7.84037548828125,1.490728497505188,10.72702407836914,-0.25363919138908386
1707004684832332300,7.859332275390625,1.781456470489502,10.472187995910645,0.19621145725250244
1707004684851289000,7.8782890625,1.950150489807129,10.100104331970215,0.5694918036460876
1707004684870245600,7.89724560546875,2.001596212387085,9.66221809387207,0.8973084688186646
1707004684889202400,7.916202392578125,1.828116536140442,9.477970123291016,1.0995019674301147
1707004684908159000,7.935158935546875,1.6845471858978271,9.133403778076172,0.833898663520813
1707004684927115800,7.95411572265625,1.466800332069397,8.995817184448242,0.7465606927871704
1707004684946072300,7.973072265625,1.4464613199234009,9.07717227935791,0.5491527915000916
1707004684965029000,7.992029052734375,1.5589239597320557,9.1657075881958,0.3445664644241333
1707004684983985700,8.010985595703126,1.9166508913040161,9.317651748657227,0.38285163044929504
1707004685002942500,8.0299423828125,2.276770830154419,9.396614074707031,0.4666004180908203
1707004685021899000,8.04889892578125,2.541177749633789,9.460023880004883,0.50129634141922
1707004685040855800,8.067855712890625,2.840280532836914,9.395418167114258,0.6891329288482666
1707004685059812600,8.0868125,3.0173492431640625,9.328418731689453,0.7549355626106262
1707004685078769200,8.10576904296875,3.1202406883239746,9.160921096801758,0.7896314859390259
1707004685097726000,8.124725830078125,3.119044303894043,9.120243072509766,0.7501499056816101
1707004685116682500,8.1436826171875,2.854637384414673,9.05444049835205,0.623330295085907
1707004685135639300,8.162639404296876,2.5603201389312744,9.080761909484863,0.4043870270252228
1707004685154596000,8.18159619140625,2.386840581893921,9.138189315795898,0.15912270545959473
1707004685173552600,8.200552734375,2.3856441974639893,9.168100357055664,0.04187439754605293
1707004685192509400,8.219509521484374,2.214557409286499,9.314062118530273,-0.04307080805301666
1707004685211466000,8.238466064453124,2.0757737159729004,9.393025398254395,-0.09092725813388824
1707004685230422500,8.257422607421875,1.932204246520996,9.31166934967041,-0.1495514214038849
1707004685249379300,8.27637939453125,1.8065811395645142,9.274580955505371,-0.02751746028661728
1707004685268336000,8.295336181640625,1.6187444925308228,9.104690551757812,0.040677983313798904
1707004685287292700,8.314292724609375,1.466800332069397,8.918049812316895,0.07896314561367035
1707004685306249500,8.33324951171875,1.3651052713394165,8.688339233398438,0.137587308883667
1707004685325206000,8.3522060546875,1.089930772781372,8.512466430664062,0.16151553392410278
1707004685344162800,8.371162841796876,0.900897741317749,8.500502586364746,0.10648060590028763
1707004685363119600,8.39011962890625,0.8757730722427368,8.46461009979248,-0.02871387079358101
1707004685382076200,8.409076171875,0.7513462901115417,8.286344528198242,-0.3074777126312256
1707004685401033000,8.428032958984375,0.7848458290100098,8.067401885986328,-0.8410771489143372
1707004685419989500,8.446989501953125,0.6879364848136902,7.920242786407471,-1.482353687286377
1707004685438946300,8.4659462890625,0.5491527915000916,7.825726509094238,-2.2959132194519043
1707004685457902800,8.48490283203125,0.21774685382843018,7.735995769500732,-3.0975089073181152
1707004685476859600,8.503859619140625,-0.05024927482008934,7.622336387634277,-3.487539052963257
1707004685495816200,8.522816162109375,0.13878370821475983,7.546962738037109,-3.373879909515381
1707004685514773000,8.54177294921875,0.7848458290100098,7.240681171417236,-2.8558337688446045
1707004685533729500,8.5607294921875,1.1868400573730469,7.031309127807617,-2.172683000564575
1707004685552686300,8.579686279296874,1.3663017749786377,7.371089935302734,-1.6618152856826782
1707004685571643100,8.59864306640625,1.2741780281066895,8.055437088012695,-1.612762451171875
1707004685590599700,8.617599609375,1.0145567655563354,8.662017822265625,-1.8807586431503296
1707004685609556500,8.636556396484375,1.0600204467773438,8.670392990112305,-2.30069899559021
1707004685628513000,8.655512939453125,1.077966570854187,8.516056060791016,-2.719442844390869
1707004685647469800,8.6744697265625,0.9308080077171326,8.738588333129883,-3.1130621433258057
1707004685666426600,8.693426513671875,0.7585247755050659,9.328418731689453,-3.3846476078033447
1707004685685383200,8.712383056640626,0.8386843204498291,9.748359680175781,-3.404986619949341
1707004685704340000,8.731340087890626,0.6855437159538269,9.573683738708496,-3.6442689895629883
1707004685723296500,8.750296630859374,0.9379864931106567,9.302098274230957,-3.5928232669830322
1707004685742253000,8.769253173828124,1.01814603805542,9.089137077331543,-3.321237802505493
1707004685761209900,8.7882099609375,1.0719845294952393,9.080761909484863,-3.245863914489746
1707004685780166400,8.80716650390625,1.038485050201416,8.935996055603027,-3.483949661254883
1707004685799123200,8.826123291015625,1.0121639966964722,8.914461135864258,-3.672982692718506
1707004685818080000,8.845080078125,0.8590233325958252,9.286544799804688,-3.52103853225708
1707004685837036500,8.86403662109375,0.9056833982467651,9.6466646194458,-3.0556344985961914
1707004685855993300,8.882993408203125,0.9655039310455322,9.872786521911621,-3.0412776470184326
1707004685874950000,8.901949951171876,0.9475577473640442,10.046265602111816,-3.3583266735076904
1707004685893906700,8.92090673828125,0.7537391185760498,10.411170959472656,-3.3678979873657227
1707004685912863500,8.939863525390624,1.0205388069152832,10.536794662475586,-3.1824541091918945
1707004685931820000,8.958820068359374,1.3567304611206055,10.409975051879883,-3.1992039680480957
1707004685950776800,8.97777685546875,1.3603196144104004,10.642078399658203,-3.043670415878296
1707004685969733400,8.9967333984375,1.5146567821502686,10.706685066223145,-2.733799934387207
1707004685988690200,9.015690185546875,1.7431713342666626,10.220941543579102,-2.6452653408050537
1707004686007646700,9.034646728515625,1.5314065217971802,9.701699256896973,-2.355733871459961
1707004686026603300,9.053603271484375,0.9523434042930603,9.659825325012207,-2.403590440750122
1707004686045560000,9.07256005859375,0.9260223507881165,9.107083320617676,-2.531606435775757
1707004686064516900,9.091516845703126,0.7752745151519775,8.711071014404297,-2.8486554622650146
1707004686083473400,9.110473388671876,0.5611169338226318,8.891729354858398,-3.4504501819610596
1707004686102430200,9.12943017578125,-0.1339980661869049,9.322437286376953,-3.662214994430542
1707004686121386800,9.14838671875,-0.062213387340307236,9.347561836242676,-3.9110686779022217
1707004686140343600,9.167343505859375,0.21415762603282928,9.083154678344727,-3.8668015003204346
1707004686159300000,9.186300048828125,0.28594231605529785,9.364311218261719,-3.985246181488037
1707004686178257000,9.2052568359375,0.32542386651039124,10.079765319824219,-3.500699520111084
1707004686197213700,9.224213623046875,0.6460621356964111,10.126425743103027,-3.3714871406555176
1707004686216170200,9.243170166015625,0.5359922647476196,10.043872833251953,-3.2410783767700195
1707004686235127000,9.262126953125,0.6400800347328186,10.051051139831543,-3.7543387413024902
1707004686254083600,9.28108349609375,0.5958128571510315,10.155138969421387,-4.11206579208374
1707004686273040400,9.300040283203124,0.3433700501918793,10.427921295166016,-3.87876558303833
1707004686291997000,9.318996826171874,0.05623133108019829,10.61695384979248,-3.6263227462768555
1707004686310953500,9.337953369140624,0.13160525262355804,10.189835548400879,-3.6849467754364014
1707004686329910300,9.35691015625,0.30149564146995544,10.04148006439209,-3.8081772327423096
1707004686348867000,9.3758671875,0.550349235534668,9.91825008392334,-3.5808591842651367
1707004686367823600,9.39482373046875,0.6628118753433228,9.789037704467773,-3.3918261528015137
1707004686386780400,9.413780517578125,0.7501499056816101,9.780662536621094,-3.280559778213501
1707004686405737000,9.432737060546875,0.7836494445800781,9.723235130310059,-3.0448668003082275
1707004686424693800,9.45169384765625,0.6305087804794312,9.651450157165527,-3.0652058124542236
1707004686443650300,9.470650390625,0.38285163044929504,9.760323524475098,-3.1345977783203125
1707004686462607000,9.489607177734374,0.4295116662979126,9.506684303283691,-3.1824541091918945
1707004686481563600,9.508563720703124,0.2871387302875519,9.31047248840332,-3.335594654083252
1707004686500520400,9.5275205078125,-0.008374879136681557,9.369096755981445,-3.335594654083252
1707004686519477000,9.54647705078125,-0.15553347766399384,9.414560317993164,-3.4480574131011963
1707004686538433800,9.565433837890625,-0.18065811693668365,9.232706069946289,-3.710071563720703
1707004686557390600,9.584390625,-0.18065811693668365,9.09392261505127,-3.814159393310547
1707004686576347100,9.60334716796875,-0.22492532432079315,9.33320426940918,-3.6945180892944336
1707004686595303700,9.6223037109375,-0.038285162299871445,9.525827407836914,-3.3332018852233887
1707004686614260500,9.641260498046876,0.0933200865983963,9.45164966583252,-3.166900873184204
1707004686633217000,9.660217041015626,0.2392822653055191,9.43489933013916,-3.146561861038208
1707004686652173800,9.679173828125,0.5491527915000916,9.396614074707031,-3.0340991020202637
1707004686671130400,9.69813037109375,0.8733802437782288,9.33559799194336,-2.7900311946868896
1707004686690087200,9.717087158203125,0.7322037220001221,9.531808853149414,-2.4370899200439453
1707004686709043700,9.736043701171875,0.4426721930503845,9.757930755615234,-2.699103832244873
1707004686728000500,9.75500048828125,0.0729810893535614,9.860821723937988,-3.104687452316284
1707004686746957300,9.773957275390625,0.2069791555404663,10.065408706665039,-3.4959139823913574
1707004686765913900,9.792913818359375,0.4570291340351105,10.108479499816895,-3.9397823810577393
1707004686784870700,9.81187060546875,0.1663011759519577,10.04985523223877,-3.9433717727661133
1707004686803827200,9.8308271484375,-0.7968099117279053,10.098908424377441,-4.034298896789551
1707004686822784000,9.849783935546874,-1.140179991722107,9.751948356628418,-4.411168575286865
1707004686841740500,9.868740478515624,-0.503689169883728,9.10110092163086,-4.064209461212158
1707004686860697300,9.887697265625,0.1136590763926506,8.933603286743164,-3.390629768371582
1707004686879654000,9.90665380859375,-0.06340979784727097,8.96112060546875,-3.631108283996582
1707004686898610700,9.925610595703125,-0.21176479756832123,9.572486877441406,-3.2721848487854004
1707004686917567200,9.944567138671875,-0.20578274130821228,9.69930648803711,-3.3990044593811035
1707004686936523800,9.963523681640625,0.009571290574967861,9.555737495422363,-2.420340061187744
1707004686955480600,9.98248046875,0.641276478767395,9.091529846191406,-2.012363910675049
1707004686974437400,10.001437255859376,1.1832507848739624,8.46580696105957,-2.4502503871917725
1707004686993394000,10.020393798828126,0.7202396392822266,9.345169067382812,-1.8400806188583374
1707004687012350700,10.039350830078124,0.4259224236011505,9.595218658447266,-2.2097716331481934
1707004687031307300,10.058307373046874,0.36251261830329895,9.10827922821045,-2.83669114112854
1707004687050264000,10.07726416015625,0.09212367236614227,8.775676727294922,-3.3475589752197266
1707004687069220600,10.096220703125,-0.3278166949748993,8.806783676147461,-3.638286828994751
1707004687088177400,10.115177490234375,-0.4007977843284607,8.792427062988281,-3.8668015003204346
1707004687107134000,10.134134033203125,-0.43549370765686035,8.737391471862793,-3.689732551574707
1707004687126090800,10.1530908203125,-0.39122650027275085,8.685946464538574,-3.3056845664978027
1707004687145047300,10.17204736328125,-0.44745782017707825,9.074779510498047,-2.7553353309631348
1707004687164004000,10.191004150390626,0.27038896083831787,9.524630546569824,-2.3018953800201416
1707004687182960600,10.209960693359376,0.9056833982467651,9.125029563903809,-2.111665964126587
1707004687201917400,10.22891748046875,0.9068797826766968,8.801998138427734,-2.400001049041748
1707004687220874000,10.2478740234375,1.007378339767456,9.442078590393066,-2.5710878372192383
1707004687239830800,10.266830810546875,0.6903293132781982,9.838089942932129,-3.2004003524780273
1707004687258787300,10.285787353515625,-0.02871387079358101,9.285347938537598,-4.0905303955078125
1707004687277744000,10.304744140625,-0.48813581466674805,8.536395072937012,-3.768695592880249
1707004687296700700,10.32370068359375,-0.4953143000602722,8.752944946289062,-2.5674986839294434
1707004687315657200,10.3426572265625,0.12442677468061447,9.105886459350586,-2.00518536567688
1707004687334614000,10.361614013671876,0.898504912853241,9.014959335327148,-2.2325034141540527
1707004687353570800,10.38057080078125,0.8255237936973572,9.349954605102539,-1.8903298377990723
1707004687372527400,10.39952734375,0.5587241053581238,10.315458297729492,-1.8999011516571045
1707004687391484200,10.418484130859374,0.008374879136681557,9.797411918640137,-3.2243285179138184
1707004687410440700,10.437440673828124,-0.2955136001110077,8.522037506103516,-4.266402721405029
1707004687429397500,10.4563974609375,-0.26560330390930176,8.476573944091797,-3.889533281326294
1707004687448354000,10.47535400390625,-0.4091726839542389,9.486345291137695,-3.5090744495391846
1707004687467310800,10.494310791015625,0,9.747162818908691,-3.3678979873657227
1707004687486267400,10.513267333984375,0.5264210104942322,9.519845008850098,-2.7637102603912354
1707004687505224200,10.53222412109375,0.916451096534729,9.309276580810547,-1.9932212829589844
1707004687524180700,10.5511806640625,0.833898663520813,9.090332984924316,-1.4033905267715454
1707004687543137500,10.570137451171876,0.37088751792907715,9.152546882629395,-1.6474584341049194
1707004687562094000,10.589093994140624,0.31106695532798767,9.486345291137695,-2.2025933265686035
1707004687581051000,10.60805078125,0.11006984114646912,9.8871431350708,-2.633301258087158
1707004687600007400,10.62700732421875,0.3565305769443512,9.729216575622559,-3.1932218074798584
1707004687618964200,10.645964111328125,0.10169496387243271,9.482755661010742,-3.761517286300659
1707004687637920800,10.664920654296875,-0.05623133108019829,9.128618240356445,-3.812962770462036
1707004687656877600,10.683877685546875,-0.4486542344093323,9.034101486206055,-3.410968780517578
1707004687675834000,10.702834228515625,-0.33858439326286316,9.409774780273438,-3.28773832321167
1707004687694790700,10.721790771484375,-0.25244277715682983,9.279366493225098,-3.2446675300598145
1707004687713747500,10.74074755859375,0.137587308883667,9.276973724365234,-3.1178479194641113
1707004687732704000,10.7597041015625,0.45583271980285645,9.33320426940918,-2.7625136375427246
1707004687751660800,10.778660888671874,0.40797626972198486,9.314062118530273,-2.451446771621704
1707004687770617300,10.797617431640624,-0.08853443711996078,9.250652313232422,-2.6596224308013916
1707004687789574100,10.81657421875,-0.17108681797981262,9.247062683105469,-2.7349963188171387
1707004687808530700,10.83553076171875,-0.275174617767334,9.619147300720215,-2.89172625541687
1707004687827487500,10.854487548828125,0.2679961323738098,9.370293617248535,-3.658625841140747
1707004687846444000,10.873444091796875,0.727418065071106,9.221938133239746,-3.6993038654327393
1707004687865400800,10.89240087890625,0.17587246000766754,9.565308570861816,-3.359523057937622
1707004687884357400,10.911357421875,-0.21415762603282928,9.761520385742188,-3.304488182067871
1707004687903314200,10.930314208984376,-0.09451649338006973,9.43609619140625,-3.7292141914367676
1707004687922270700,10.949270751953126,0.1423729509115219,9.104690551757812,-3.733999729156494
1707004687941227500,10.9682275390625,0.22372891008853912,8.95513916015625,-3.1166515350341797
1707004687960184000,10.98718408203125,0.5252245664596558,8.82951545715332,-2.616551637649536
1707004687979140900,11.006140869140625,1.0552347898483276,9.322437286376953,-2.1990039348602295
1707004687998097400,11.025097412109375,0.8841479420661926,9.460023880004883,-2.0961127281188965
1707004688017054200,11.04405419921875,0.6975077986717224,9.323633193969727,-2.42512583732605
1707004688036010800,11.0630107421875,0.6329016089439392,9.355937004089355,-3.073580741882324
1707004688054967600,11.081967529296875,0.18424734473228455,9.107083320617676,-3.682554006576538
1707004688073924000,11.100924072265625,-0.16390834748744965,8.924032211303711,-4.1347975730896
1707004688092881000,11.119880859375,-0.2835494875907898,9.378668785095215,-4.587040901184082
1707004688111837400,11.13883740234375,-0.19142581522464752,9.643074989318848,-4.581058979034424
1707004688130794200,11.157794189453124,-0.24287149310112,9.755537986755371,-4.192225456237793
1707004688149750800,11.176750732421874,-0.1339980661869049,9.780662536621094,-3.696911096572876
1707004688168707600,11.19570751953125,0.15314064919948578,9.80817985534668,-2.8558337688446045
1707004688187664100,11.2146640625,0.2955136001110077,9.540184020996094,-2.2504496574401855
1707004688206621000,11.233620849609375,0.6759724020957947,9.364311218261719,-1.8137595653533936
1707004688225577500,11.252577392578125,0.623330295085907,9.625128746032715,-1.970489501953125
1707004688244534300,11.2715341796875,0.9176474809646606,9.56889820098877,-2.2947168350219727
1707004688263490800,11.29049072265625,0.9774680733680725,9.757930755615234,-2.4335005283355713
1707004688282447600,11.309447509765626,0.9224331378936768,9.397810935974121,-2.3150558471679688
1707004688301404400,11.328404296875,0.7034898400306702,9.493523597717285,-2.021935224533081
1707004688320361000,11.34736083984375,0.8841479420661926,9.688538551330566,-2.2396819591522217
1707004688339317800,11.36631787109375,0.6891329288482666,9.364311218261719,-2.675175666809082
1707004688358274300,11.3852744140625,0.1746760457754135,9.140582084655762,-3.122633457183838
1707004688377231000,11.404231201171875,0.01196411345154047,9.227920532226562,-3.322434186935425
1707004688396187600,11.423187744140625,0.11246266216039658,9.292527198791504,-3.22552490234375
1707004688415144400,11.44214453125,0.3613162338733673,8.902496337890625,-3.0233314037323
1707004688434101000,11.46110107421875,0.2715853750705719,8.592626571655273,-2.8151557445526123
1707004688453057800,11.480057861328126,0.059820566326379776,8.73619556427002,-2.737389087677002
1707004688472014300,11.499014404296876,0.2955136001110077,9.31884765625,-2.249253273010254
1707004688490971100,11.51797119140625,1.456032633781433,9.219545364379883,-1.3040883541107178
1707004688509927700,11.536927734375,1.3232308626174927,8.053044319152832,-0.47976094484329224
1707004688528884500,11.555884521484375,0.9391828775405884,7.954938888549805,-0.5659025311470032
1707004688547841300,11.57484130859375,0.4989035129547119,9.249456405639648,-0.8446664214134216
1707004688566797800,11.5937978515625,0.1495514214038849,9.872786521911621,-3.0520453453063965
1707004688585754600,11.612754638671875,-0.9272187948226929,9.409774780273438,-6.211767673492432
1707004688604711400,11.63171142578125,-1.8855443000793457,9.345169067382812,-7.272984504699707
1707004688623668000,11.65066796875,-1.5720844268798828,9.701699256896973,-6.305087566375732
1707004688642624500,11.66962451171875,-0.9595218896865845,9.152546882629395,-5.42572546005249
1707004688661581300,11.688581298828124,-0.30508488416671753,9.181260108947754,-3.0891339778900146
1707004688680538000,11.7075380859375,0.8135597109794617,10.480563163757324,-0.31824541091918945
1707004688699494700,11.72649462890625,1.9298114776611328,11.169695854187012,0.778863787651062
1707004688718451500,11.745451416015625,2.4705893993377686,9.768698692321777,-0.2560320198535919
1707004688737408000,11.764407958984375,2.0063817501068115,8.920442581176758,-1.397408366203308
1707004688756364800,11.78336474609375,1.0061819553375244,9.461220741271973,-1.9561325311660767
1707004688775321600,11.802321533203125,0.039481572806835175,9.615557670593262,-2.919243574142456
1707004688794278100,11.821278076171875,0.18305093050003052,9.06999397277832,-3.772284984588623
1707004688813235000,11.84023486328125,0.4546363055706024,8.970691680908203,-3.900300979614258
1707004688832191500,11.85919140625,0.06699903309345245,9.349954605102539,-3.4061830043792725
1707004688851148300,11.878148193359374,0.4905286431312561,9.452845573425293,-2.358126640319824
1707004688870105000,11.89710498046875,0.9499505758285522,9.418149948120117,-2.0853450298309326
1707004688889061600,11.9160615234375,1.1676974296569824,9.5533447265625,-0.5790630578994751
1707004688908018400,11.935018310546875,1.1904292106628418,9.812965393066406,-0.7848458290100098
1707004688926975200,11.953975341796875,0.4091726839542389,10.04267692565918,-2.7314071655273438
1707004688945931800,11.972931884765625,0.7429714202880859,9.863214492797852,-3.9493536949157715
1707004688964888600,11.991888671875,0.36610186100006104,9.260223388671875,-3.504288673400879
1707004688983845400,12.010845458984376,0.17228323221206665,8.702695846557617,-3.0520453453063965
1707004689002802000,12.029802001953126,0.5491527915000916,9.232706069946289,-2.173879384994507
1707004689021758700,12.0487587890625,1.2538390159606934,10.149157524108887,-1.4009976387023926
1707004689040715300,12.06771533203125,1.7048860788345337,9.872786521911621,-0.5659025311470032
1707004689059672000,12.086672119140625,1.8664016723632812,9.038887977600098,-0.8877372145652771
1707004689078628900,12.10562890625,1.5708880424499512,8.757730484008789,-1.1270195245742798
1707004689097585700,12.124585693359375,0.6245267391204834,9.198010444641113,-1.8711873292922974
1707004689116542200,12.143542236328125,-0.18424734473228455,9.324830055236816,-3.071187973022461
1707004689135499000,12.1624990234375,-0.1423729509115219,9.232706069946289,-4.113262176513672
1707004689154455600,12.18145556640625,0.35413774847984314,9.122636795043945,-4.506881237030029
1707004689173412400,12.200412353515626,0.28115665912628174,9.042476654052734,-4.67078971862793
1707004689192369200,12.219369140625,0.16510476171970367,9.06281566619873,-4.371686935424805
1707004689211326000,12.238325927734374,0.4905286431312561,8.848658561706543,-3.115455150604248
1707004689230282500,12.257282470703124,0.7345965504646301,8.797212600708008,-2.307877540588379
1707004689249239300,12.2762392578125,0.7932206988334656,9.425328254699707,-2.196611166000366
1707004689268196000,12.295196044921875,1.0061819553375244,9.274580955505371,-2.3234307765960693
1707004689287152600,12.314152587890625,1.2502498626708984,8.870193481445312,-2.2947168350219727
1707004689306109400,12.333109375,1.23589289188385,9.174081802368164,-2.0925233364105225
1707004689325066200,12.352066162109375,0.9571290612220764,9.474381446838379,-2.187039852142334
1707004689344022800,12.371022705078126,1.0839486122131348,9.817750930786133,-2.366501569747925
1707004689362979600,12.3899794921875,1.1581261157989502,9.875179290771484,-2.6117658615112305
1707004689381936400,12.408936279296874,1.2993026971817017,9.826126098632812,-3.0580272674560547
1707004689400893200,12.42789306640625,1.0995019674301147,9.804591178894043,-2.740978240966797
1707004689419849700,12.446849609375,0.8099704384803772,9.724431037902832,-1.8891334533691406
1707004689438806500,12.465806640625,0.5958128571510315,9.456435203552246,-2.2815563678741455
1707004689457763300,12.484763427734375,0.24646073579788208,8.636893272399902,-3.208775281906128
1707004689476719900,12.503719970703125,0.5659025311470032,8.542376518249512,-3.372683525085449
1707004689495676700,12.5226767578125,0.6376872062683105,9.068798065185547,-2.585444927215576
1707004689514633500,12.541633544921876,0.4941178858280182,9.232706069946289,-2.4011974334716797
1707004689533590300,12.56059033203125,0.8805587291717529,9.31166934967041,-2.3509483337402344
1707004689552546800,12.579546875,0.9571290612220764,9.416953086853027,-2.1571295261383057
1707004689571503600,12.598503662109374,1.0301101207733154,9.183652877807617,-1.7886348962783813
1707004689590460400,12.61746044921875,1.3507484197616577,9.480362892150879,-1.672582983970642
1707004689609417000,12.6364169921875,1.0133603811264038,10.118050575256348,-2.179861545562744
1707004689628373800,12.655373779296875,0.7884350419044495,10.013962745666504,-2.950350284576416
1707004689647330600,12.67433056640625,0.989432156085968,9.363115310668945,-3.5258240699768066
1707004689666287400,12.693287353515625,0.4139583110809326,9.105886459350586,-3.669393539428711
1707004689685244000,12.712243896484376,0.1495514214038849,9.438488960266113,-3.1489546298980713
1707004689704200700,12.73120068359375,0.50129634141922,9.359525680541992,-2.700300455093384
1707004689723157500,12.750157470703124,0.6065805554389954,9.261420249938965,-2.2719850540161133
1707004689742114300,12.7691142578125,0.5240281820297241,9.30449104309082,-2.30069899559021
1707004689761070800,12.78807080078125,0.4342973232269287,8.994620323181152,-2.9312076568603516
1707004689780027600,12.807027587890625,0.3696911036968231,8.928817749023438,-3.4504501819610596
1707004689798984400,12.825984375,0.6400800347328186,9.305686950683594,-3.0269205570220947
1707004689817941000,12.84494091796875,0.8183453679084778,9.4061861038208,-2.111665964126587
1707004689836897800,12.863897705078125,1.089930772781372,9.400203704833984,-1.9262222051620483
1707004689855854600,12.8828544921875,1.456032633781433,9.365508079528809,-2.3030917644500732
1707004689874811400,12.901811279296876,0.9786644577980042,9.127422332763672,-2.726621389389038
1707004689893768200,12.920768310546874,0.9690931439399719,8.754141807556152,-2.528017044067383
1707004689912724700,12.939724853515624,0.3577269911766052,8.591429710388184,-1.6809579133987427
1707004689931681500,12.958681640625,0.534795880317688,8.517251968383789,-1.444068431854248
1707004689950638300,12.977638427734375,0.9583254456520081,8.763712882995605,-2.5663022994995117
1707004689969595000,12.996594970703125,0.4366901218891144,9.20159912109375,-3.9421753883361816
1707004689988551700,13.0155517578125,0.06340979784727097,9.755537986755371,-4.832305431365967
1707004690007508500,13.034508544921875,0.01196411345154047,9.748359680175781,-5.237888813018799
1707004690026465300,13.05346533203125,0.2356930375099182,9.999606132507324,-4.878965377807617
1707004690045421800,13.072421875,0.9200403094291687,9.594022750854492,-3.7292141914367676
1707004690064378600,13.091378662109374,1.1150553226470947,9.65384292602539,-2.2600209712982178
1707004690083335400,13.11033544921875,1.4608181715011597,10.124032974243164,-1.6187444925308228
1707004690102292200,13.129292236328125,1.3208380937576294,9.832108497619629,-1.9058831930160522
1707004690121248800,13.148248779296875,0.973878800868988,9.213563919067383,-2.115255117416382
1707004690140205600,13.16720556640625,0.7561319470405579,9.007781028747559,-2.283949136734009
1707004690159162400,13.186162353515625,0.5228317379951477,9.203991889953613,-2.7804598808288574
1707004690178119000,13.205118896484375,0.39960137009620667,9.345169067382812,-3.1621150970458984
1707004690197075700,13.22407568359375,0.4055834412574768,9.487542152404785,-3.146561861038208
1707004690216032500,13.243032470703126,0.4737788736820221,9.284152030944824,-3.1381869316101074
1707004690234989300,13.2619892578125,0.4893322288990021,9.231510162353516,-3.0795626640319824
1707004690253946000,13.280946044921874,0.2847459018230438,9.507881164550781,-3.0281169414520264
1707004690272902700,13.299902587890625,0.49651068449020386,9.493523597717285,-2.7349963188171387
1707004690291859500,13.318859375,0.7010970115661621,9.499505996704102,-2.5782663822174072
1707004690310816300,13.337816162109375,0.6376872062683105,9.608379364013672,-2.3605196475982666
1707004690329772800,13.356772705078125,0.3840480446815491,9.588040351867676,-2.465803623199463
1707004690348729600,13.3757294921875,0.7250252366065979,9.33440113067627,-2.717050075531006
1707004690367686400,13.394686279296875,0.7549355626106262,9.337990760803223,-2.6608188152313232
1707004690386643000,13.413642822265626,0.5491527915000916,9.426525115966797,-2.733799934387207
1707004690405599700,13.432599853515624,0.2667997181415558,8.967103004455566,-2.871387243270874
1707004690424556500,13.451556640625,0.32183465361595154,8.886942863464355,-3.153740167617798
1707004690443513300,13.470513427734375,-0.04187439754605293,9.226723670959473,-3.9110686779022217
1707004690462470100,13.48947021484375,-0.5168496966362,9.531808853149414,-4.638486862182617
1707004690481426700,13.5084267578125,0.06939185410737991,9.065208435058594,-4.386044025421143
1707004690500383500,13.527383544921875,0.1986042857170105,8.769695281982422,-3.4396824836730957
1707004690519340300,13.54634033203125,0.3732803463935852,9.038887977600098,-3.269792079925537
1707004690538296800,13.565296875,0.6340979933738708,9.28893756866455,-2.685943365097046
1707004690557253600,13.584253662109376,0.9343972206115723,9.292527198791504,-2.063809633255005
1707004690576210400,13.60321044921875,0.9320043921470642,9.182456970214844,-1.8029918670654297
1707004690595167200,13.622167236328124,1.0456634759902954,9.131011009216309,-1.797009825706482
1707004690614123800,13.641123779296874,0.8662018179893494,8.780462265014648,-2.321038007736206
1707004690633080600,13.66008056640625,0.9044869542121887,8.616554260253906,-3.0448668003082275
1707004690652037400,13.679037353515625,0.8243274092674255,8.579465866088867,-2.726621389389038
1707004690670994000,13.697993896484375,0.7501499056816101,8.9850492477417,-2.128415822982788
1707004690689950700,13.71695068359375,0.7776673436164856,9.397810935974121,-2.5112674236297607
1707004690708907500,13.735907470703125,1.0791629552841187,8.920442581176758,-3.3547372817993164
1707004690727864300,13.7548642578125,0.45224347710609436,8.73619556427002,-4.192225456237793
1707004690746820900,13.77382080078125,-0.24167509377002716,9.517452239990234,-5.236692428588867
1707004690765777700,13.792777587890624,-0.07657032459974289,9.480362892150879,-5.216353416442871
1707004690784734500,13.811734375,0.34695929288864136,9.31047248840332,-5.06082010269165
1707004690803691000,13.83069091796875,0.32542386651039124,9.811769485473633,-4.2795634269714355
1707004690822647800,13.849647705078125,0.45224347710609436,10.40758228302002,-2.4681966304779053
1707004690841604600,13.8686044921875,1.2251251935958862,10.043872833251953,-1.8975083827972412
1707004690860561400,13.8875615234375,1.3830515146255493,9.652647018432617,-2.2121646404266357
1707004690879518000,13.90651806640625,1.1497513055801392,9.267401695251465,-2.9036903381347656
1707004690898474800,13.925474853515626,0.47258245944976807,8.70628547668457,-3.8153557777404785
1707004690917431600,13.944431640625,0.1339980661869049,8.653642654418945,-4.682754039764404
1707004690936388000,13.96338818359375,0.03469592705368996,8.37846851348877,-4.432703971862793
1707004690955345000,13.982344970703124,-0.30508488416671753,8.299505233764648,-3.9290146827697754
1707004690974301700,14.0013017578125,0.11605189740657806,8.83669376373291,-3.135794162750244
1707004690993258500,14.020258544921875,1.2394821643829346,8.937192916870117,-2.3844478130340576
1707004691012215000,14.039215087890625,1.828116536140442,9.766305923461914,-0.8841479420661926
1707004691031171800,14.058171875,1.4799607992172241,10.05703353881836,-1.160519003868103
1707004691050128600,14.077128662109375,0.9379864931106567,9.263813018798828,-2.9694929122924805
1707004691069085200,14.096085205078126,0.6125625967979431,9.328418731689453,-4.012763500213623
1707004691088042000,14.1150419921875,0.26440688967704773,9.638289451599121,-3.7196428775787354
1707004691106998800,14.133998779296874,0.33499518036842346,9.507881164550781,-3.7052857875823975
1707004691125955600,14.15295556640625,0.4713860750198364,9.078369140625,-3.761517286300659
1707004691144912100,14.171912109375,0.698704183101654,8.912068367004395,-2.7565317153930664
1707004691163869000,14.190868896484375,1.0707881450653076,8.904889106750488,-1.7276179790496826
1707004691182825700,14.20982568359375,1.32921302318573,8.3629150390625,-1.2586246728897095
1707004691201782300,14.2287822265625,0.7130611538887024,8.425128936767578,-1.6115660667419434
1707004691220739000,14.247739013671875,0.4666004180908203,9.148957252502441,-2.6057839393615723
1707004691239696000,14.26669580078125,0.5659025311470032,8.629714965820312,-3.5066816806793213
1707004691258652700,14.285652587890626,-0.0323031060397625,8.799605369567871,-4.163511276245117
1707004691277609200,14.304609130859374,-0.059820566326379776,9.53061294555664,-4.43031120300293
1707004691296566000,14.32356591796875,0.3577269911766052,9.138189315795898,-4.536791801452637
1707004691315522600,14.3425224609375,0.38763725757598877,9.122636795043945,-4.5714874267578125
1707004691334479400,14.361479248046875,0.21176479756832123,9.5533447265625,-4.11206579208374
1707004691353436200,14.380436279296875,0.3206382393836975,9.738788604736328,-3.2446675300598145
1707004691372393000,14.39939306640625,0.623330295085907,9.626325607299805,-2.620140790939331
1707004691391349500,14.418349609375,0.6675975322723389,9.585647583007812,-2.7732813358306885
1707004691410306300,14.437306396484376,0.6281159520149231,9.337990760803223,-3.056830883026123
1707004691429262800,14.456262939453126,0.5048855543136597,9.293723106384277,-2.812762975692749
1707004691448219600,14.4752197265625,0.5359922647476196,9.123832702636719,-2.6943182945251465
1707004691467176400,14.494176513671874,0.5324030518531799,8.81515884399414,-3.0269205570220947
1707004691486133200,14.51313330078125,0.26201409101486206,9.244669914245605,-3.7842490673065186
1707004691505089800,14.53208984375,-0.3397808074951172,9.893125534057617,-3.7328033447265625
1707004691524046600,14.551046630859375,0.21296121180057526,9.943374633789062,-2.7529425621032715
1707004691543003400,14.57000341796875,0.776470959186554,9.276973724365234,-2.6943182945251465
1707004691561960000,14.5889599609375,0.8195417523384094,8.963513374328613,-3.102294445037842
1707004691580916700,14.607916748046875,0.8554341197013855,9.308079719543457,-2.3617160320281982
1707004691599873500,14.62687353515625,0.8147560954093933,9.608379364013672,-2.3150558471679688
1707004691618830000,14.645830078125,0.4989035129547119,9.400203704833984,-2.8797619342803955
1707004691637787000,14.664786865234374,0.5479564070701599,9.445667266845703,-2.9862427711486816
1707004691656743700,14.68374365234375,1.0336993932724,9.257830619812012,-3.2267212867736816
1707004691675700200,14.7027001953125,0.9284151792526245,9.081958770751953,-2.3748764991760254
1707004691694657000,14.721656982421875,0.4426721930503845,9.44327449798584,-2.6560330390930176
1707004691713613800,14.74061376953125,0.4462614357471466,9.735198974609375,-2.251646041870117
1707004691732570400,14.7595703125,0.2309073805809021,9.402596473693848,-2.864208698272705
1707004691751527200,14.778527099609375,0.46420758962631226,9.065208435058594,-2.6907291412353516
1707004691770484000,14.79748388671875,0.7597211599349976,9.21117115020752,-2.486142635345459
1707004691789440500,14.8164404296875,0.8147560954093933,9.276973724365234,-2.376072883605957
1707004691808397300,14.835397216796874,0.9188438653945923,9.367900848388672,-2.2648067474365234
1707004691827354000,14.85435400390625,0.885344386100769,9.367900848388672,-2.3461625576019287
1707004691846310700,14.873310546875,0.4366901218891144,9.45045280456543,-2.9012975692749023
1707004691865267500,14.892267333984375,0.27756741642951965,9.239884376525879,-3.3966116905212402
1707004691884224000,14.91122412109375,0.1579262912273407,9.000602722167969,-3.889533281326294
1707004691903180800,14.930180908203125,0.1543370634317398,8.907281875610352,-3.731606960296631
1707004691922137600,14.9491376953125,0.27038896083831787,9.18843936920166,-2.9587252140045166
1707004691941094400,14.968094482421876,0.6675975322723389,9.56052303314209,-2.3617160320281982
1707004691960051000,14.987051025390626,1.0336993932724,9.720842361450195,-1.856830358505249
1707004691979007700,15.0060078125,1.179661512374878,9.239884376525879,-1.9178473949432373
1707004691997964500,15.024964599609374,0.8745766878128052,8.873783111572266,-2.6261229515075684
1707004692016921000,15.043921142578125,0.37088751792907715,9.390632629394531,-3.425325632095337
1707004692035878000,15.0628779296875,0.2476571500301361,9.590433120727539,-3.4301111698150635
1707004692054834400,15.08183447265625,0.5670989751815796,9.150154113769531,-3.06999135017395
1707004692073791200,15.100791259765625,0.7872386574745178,9.169296264648438,-2.638087034225464
1707004692092748000,15.119748046875,0.7884350419044495,9.41336441040039,-2.1894326210021973
1707004692111704600,15.13870458984375,0.6352944374084473,9.339186668395996,-2.365305185317993
1707004692130661400,15.157661376953126,0.5587241053581238,9.302098274230957,-2.864208698272705
1707004692149618200,15.1766181640625,0.46899324655532837,9.254241943359375,-2.9790642261505127
1707004692168574700,15.19557470703125,0.41515472531318665,9.259027481079102,-2.9036903381347656
1707004692187531500,15.214531494140624,0.6496513485908508,9.382257461547852,-2.8594231605529785
1707004692206488300,15.23348828125,0.7202396392822266,9.376275062561035,-2.6847469806671143
1707004692225444900,15.25244482421875,0.7740781307220459,9.184849739074707,-3.1178479194641113
1707004692244401700,15.271401611328125,0.534795880317688,9.232706069946289,-3.528217077255249
1707004692263358500,15.2903583984375,0.4821537733078003,9.639486312866211,-3.2159535884857178
1707004692282315300,15.309315185546875,0.8638089895248413,9.422935485839844,-2.7900311946868896
1707004692301271800,15.328271728515626,1.0564311742782593,9.019744873046875,-2.4837498664855957
1707004692320228600,15.347228515625,1.0552347898483276,9.383454322814941,-2.201396942138672
1707004692339185200,15.36618505859375,0.8410771489143372,9.409774780273438,-2.2468605041503906
1707004692358142000,15.385141845703124,0.4534398913383484,8.995817184448242,-2.974278450012207
1707004692377098800,15.4040986328125,0.21774685382843018,9.358329772949219,-3.456432342529297
1707004692396055600,15.4230556640625,0.30149564146995544,9.262616157531738,-3.5988051891326904
1707004692415012000,15.44201220703125,0.5754738450050354,9.10110092163086,-3.4432718753814697
1707004692433969000,15.460968994140625,0.5730810165405273,9.33440113067627,-2.9551360607147217
1707004692452925700,15.47992578125,0.6652047038078308,9.42054271697998,-2.609373092651367
1707004692471882200,15.49888232421875,0.7992027401924133,9.355937004089355,-2.68953275680542
1707004692490839000,15.517839111328126,0.7393822073936462,9.237491607666016,-2.9168508052825928
1707004692509795800,15.5367958984375,0.50129634141922,9.34157943725586,-3.074777126312256
1707004692528752400,15.55575244140625,0.45104706287384033,9.31884765625,-2.9587252140045166
1707004692547709200,15.574709228515625,0.6951149702072144,9.056833267211914,-2.9455647468566895
1707004692566666000,15.593666015625,0.5168496966362,9.314062118530273,-3.056830883026123
1707004692585622500,15.61262255859375,0.44745782017707825,9.379864692687988,-3.119044303894043
1707004692604579300,15.631579345703125,0.5180460810661316,9.168100357055664,-3.2781670093536377
1707004692623536000,15.6505361328125,0.5060819983482361,9.138189315795898,-3.2027931213378906
1707004692642493000,15.669492919921876,0.5216353535652161,9.371489524841309,-3.014956474304199
1707004692661449700,15.68844970703125,0.5910272002220154,9.367900848388672,-2.8833513259887695
1707004692680406300,15.70740625,0.7310073375701904,9.158528327941895,-2.7984061241149902
1707004692699363000,15.726363037109374,0.6329016089439392,9.158528327941895,-2.6763720512390137
1707004692718319900,15.74531982421875,0.6209374666213989,9.383454322814941,-2.599801778793335
1707004692737276400,15.7642763671875,0.5730810165405273,9.299705505371094,-3.0269205570220947
1707004692756233200,15.783233154296875,0.5108676552772522,9.182456970214844,-3.3020951747894287
1707004692775190000,15.80218994140625,0.5252245664596558,9.291330337524414,-3.218346357345581
1707004692794146800,15.821146728515625,0.5455635786056519,9.19442081451416,-3.2817561626434326
1707004692813103400,15.840103271484375,0.5862415432929993,9.060422897338867,-3.1130621433258057
1707004692832060200,15.85906005859375,0.7345965504646301,9.349954605102539,-2.774477958679199
1707004692851017000,15.878016845703126,0.747757077217102,9.573683738708496,-2.6189444065093994
1707004692869973800,15.896973876953124,0.8015955686569214,9.22433090209961,-2.6225335597991943
1707004692888930600,15.9159306640625,0.7776673436164856,9.104690551757812,-2.8139593601226807
1707004692907887000,15.93488720703125,0.6101697683334351,9.389435768127441,-3.0412776470184326
1707004692926844000,15.953843994140625,0.6113662123680115,9.282955169677734,-3.190829038619995
1707004692945800700,15.97280078125,0.5802595019340515,9.314062118530273,-3.1788649559020996
1707004692964757500,15.991757568359375,0.623330295085907,9.291330337524414,-2.89890456199646
1707004692983714000,16.010714111328124,0.6999006271362305,9.263813018798828,-2.7696921825408936
1707004693002670800,16.0296708984375,0.7573283910751343,9.330811500549316,-2.647658348083496
1707004693021627600,16.048627685546876,0.8841479420661926,9.141778945922852,-2.7804598808288574
1707004693040584400,16.06758447265625,0.6652047038078308,9.213563919067383,-2.871387243270874
1707004693059541200,16.086541259765625,0.5790630578994751,9.377471923828125,-2.968296527862549
1707004693078498000,16.105498046875,0.6484549641609192,9.29611587524414,-2.9754750728607178
1707004693097454600,16.12445458984375,0.7357929348945618,9.237491607666016,-2.8977081775665283
1707004693116411400,16.143411376953125,0.7848458290100098,9.349954605102539,-2.9551360607147217
1707004693135368200,16.1623681640625,0.7130611538887024,9.298508644104004,-2.9288148880004883
1707004693154325000,16.181324951171874,0.6293123364448547,9.190832138061523,-2.933600664138794
1707004693173281800,16.20028173828125,0.6448656916618347,9.280562400817871,-2.999403238296509
1707004693192238600,16.219238525390626,0.6317051649093628,9.329615592956543,-2.994617462158203
1707004693211195100,16.238195068359374,0.7082754969596863,9.29611587524414,-2.9072794914245605
1707004693230152000,16.25715185546875,0.7489534616470337,9.141778945922852,-2.8247270584106445
1707004693249108700,16.276108642578127,0.7334001660346985,9.22433090209961,-2.895315408706665
1707004693268065500,16.2950654296875,0.6640082597732544,9.449256896972656,-2.9515466690063477
1707004693287022300,16.314022216796875,0.6939185857772827,9.30329418182373,-2.9359934329986572
1707004693305979000,16.332978759765624,0.7992027401924133,9.168100357055664,-2.8666014671325684
1707004693324935700,16.351935791015624,0.760917603969574,9.336793899536133,-2.7972097396850586
1707004693343892500,16.370892578125,0.7310073375701904,9.397810935974121,-2.8043880462646484
1707004693362849300,16.389849365234376,0.7657032608985901,9.205188751220703,-2.8701908588409424
1707004693381806000,16.40880615234375,0.6879364848136902,9.261420249938965,-2.819941520690918
1707004693400763000,16.427762939453125,0.6879364848136902,9.401400566101074,-2.8929226398468018
1707004693419719700,16.4467197265625,0.8063812255859375,9.243474006652832,-3.0424740314483643
1707004693438676500,16.465676513671873,0.8075776696205139,9.292527198791504,-3.104687452316284
1707004693457633300,16.48463330078125,0.6484549641609192,9.315258979797363,-2.9276185035705566
1707004693476589800,16.50358984375,0.8255237936973572,9.153742790222168,-2.6392834186553955
1707004693495546600,16.522546630859374,0.9427721500396729,9.28893756866455,-2.5363919734954834
1707004693514503400,16.54150341796875,0.9535398483276367,9.473184585571289,-2.6452653408050537
1707004693533460200,16.560460205078126,0.8350951075553894,9.378668785095215,-2.801995277404785
1707004693552417000,16.5794169921875,0.7166503667831421,9.175278663635254,-2.9455647468566895
1707004693571373800,16.598373779296875,0.6460621356964111,9.103493690490723,-2.909672260284424
1707004693590330600,16.61733056640625,0.760917603969574,9.379864692687988,-2.768495798110962
1707004693609287400,16.636287353515623,0.9415757060050964,9.456435203552246,-2.764906644821167
1707004693628244200,16.655244140625,0.9475577473640442,9.255437850952148,-2.774477958679199
1707004693647201000,16.674200927734375,0.8817551732063293,9.233902931213379,-2.843869686126709
1707004693666157800,16.69315771484375,0.6927221417427063,9.385847091674805,-2.8869404792785645
1707004693685114600,16.712114501953124,0.7896314859390259,9.233902931213379,-2.878565549850464
1707004693704071400,16.731071533203124,0.8709874153137207,9.17288589477539,-2.851048231124878
1707004693723028000,16.750028076171876,0.7836494445800781,9.32602596282959,-2.819941520690918
1707004693741985000,16.768985107421877,0.6843472719192505,9.284152030944824,-2.9252257347106934
1707004693760941800,16.78794189453125,0.7597211599349976,9.292527198791504,-2.9515466690063477
1707004693779898400,16.8068984375,0.8039883971214294,9.299705505371094,-2.864208698272705
1707004693798855200,16.825855224609374,0.7250252366065979,9.308079719543457,-2.8666014671325684
1707004693817812000,16.84481201171875,0.745364248752594,9.275776863098145,-2.7936203479766846
1707004693836769000,16.86376904296875,0.7130611538887024,9.34277629852295,-2.7601208686828613
1707004693855725600,16.8827255859375,0.776470959186554,9.42054271697998,-2.746960401535034
1707004693874682400,16.901682373046874,0.8745766878128052,9.237491607666016,-2.8797619342803955
1707004693893639200,16.92063916015625,0.9128618240356445,9.270991325378418,-2.83669114112854
1707004693912596000,16.939595947265627,0.6975077986717224,9.363115310668945,-2.827120065689087
1707004693931552800,16.958552734375,0.714257538318634,9.29611587524414,-2.882154941558838
1707004693950509600,16.977509521484375,0.7657032608985901,9.282955169677734,-2.7385854721069336
1707004693969466400,16.99646630859375,0.8530412912368774,9.215956687927246,-2.8390841484069824
1707004693988423200,17.015423095703124,0.7621139883995056,9.254241943359375,-2.8929226398468018
1707004694007380000,17.0343798828125,0.6628118753433228,9.399007797241211,-2.9288148880004883
1707004694026336800,17.053336669921876,0.7238288521766663,9.293723106384277,-2.8701908588409424
1707004694045293600,17.07229345703125,0.7597211599349976,9.219545364379883,-2.854637384414673
1707004694064250400,17.09125048828125,0.8015955686569214,9.367900848388672,-2.8139593601226807
1707004694083207200,17.110207275390625,0.7094719409942627,9.357132911682129,-2.7828526496887207
1707004694102164000,17.1291640625,0.7238288521766663,9.31047248840332,-2.830709218978882
1707004694121120800,17.148120849609374,0.8530412912368774,9.287740707397461,-2.746960401535034
1707004694140077600,17.16707763671875,0.8219345808029175,9.272188186645508,-2.840280532836914
1707004694159034400,17.186034423828126,0.7668996453285217,9.302098274230957,-2.9036903381347656
1707004694177991200,17.2049912109375,0.7824530005455017,9.31047248840332,-2.768495798110962
1707004694196948000,17.223947998046874,0.8434699773788452,9.233902931213379,-2.667997360229492
1707004694215904800,17.24290478515625,0.8566305041313171,9.360722541809082,-2.757728099822998
1707004694234861600,17.261861572265627,0.8183453679084778,9.375079154968262,-2.9240293502807617
1707004694253818400,17.280818359375,0.6915257573127747,9.28893756866455,-2.8450660705566406
1707004694272775200,17.299775146484375,0.7668996453285217,9.278169631958008,-2.80558443069458
1707004694291732000,17.31873193359375,0.7752745151519775,9.375079154968262,-2.888136863708496
1707004694310689000,17.33768896484375,0.7812566161155701,9.363115310668945,-2.888136863708496
1707004694329645600,17.3566455078125,0.8877372145652771,9.18006420135498,-2.7876384258270264
1707004694348602400,17.375602294921876,0.8303094506263733,9.232706069946289,-2.7385854721069336
1707004694367559400,17.394559326171876,0.8147560954093933,9.299705505371094,-2.740978240966797
1707004694386516000,17.413515869140625,0.8410771489143372,9.262616157531738,-2.785245656967163
1707004694405472800,17.43247265625,0.8937192559242249,9.30449104309082,-2.906083106994629
1707004694424429800,17.451429931640625,0.8662018179893494,9.259027481079102,-2.8725836277008057
1707004694443386600,17.47038671875,0.8231309652328491,9.339186668395996,-2.7290141582489014
1707004694462343200,17.48934326171875,0.8554341197013855,9.381061553955078,-2.702693223953247
1707004694481300200,17.50830029296875,0.8374879360198975,9.29731273651123,-2.5986053943634033
1707004694500257000,17.527257080078126,0.8506484627723694,9.404989242553711,-2.633301258087158
1707004694519213600,17.546213623046874,0.8865407705307007,9.34277629852295,-2.7625136375427246
1707004694538170600,17.565170654296875,0.7968099117279053,9.281759262084961,-2.803191661834717
1707004694557127400,17.58412744140625,0.6735795736312866,9.294919967651367,-2.750549554824829
1707004694576084200,17.603084228515623,0.8733802437782288,9.255437850952148,-2.695514678955078
1707004694595041000,17.622041015625,0.9379864931106567,9.360722541809082,-2.5806591510772705
1707004694613997800,17.640997802734375,0.8973084688186646,9.426525115966797,-2.579462766647339
1707004694632954600,17.65995458984375,0.9320043921470642,9.292527198791504,-2.640479803085327
1707004694651911400,17.678911376953124,0.7525427341461182,9.279366493225098,-2.9515466690063477
1707004694670868200,17.6978681640625,0.5515456199645996,9.32602596282959,-3.0927233695983887
1707004694689825000,17.716824951171876,0.6293123364448547,9.299705505371094,-2.8737800121307373
1707004694708781800,17.73578173828125,0.9044869542121887,9.393025398254395,-2.5531418323516846
1707004694727738600,17.754738525390625,0.9834501147270203,9.495916366577148,-2.4083759784698486
1707004694746695400,17.7736953125,0.9595218896865845,9.33559799194336,-2.4670002460479736
1707004694765652200,17.79265234375,0.8123632669448853,9.33440113067627,-2.56510591506958
1707004694784609000,17.811609130859374,0.7668996453285217,9.373882293701172,-2.678765058517456
1707004694803565800,17.83056591796875,0.7561319470405579,9.284152030944824,-2.8594231605529785
1707004694822522600,17.849522705078126,0.7884350419044495,9.248259544372559,-2.8211379051208496
1707004694841479400,17.8684794921875,0.867398202419281,9.379864692687988,-2.6632115840911865
1707004694860436200,17.887436279296875,0.8171489238739014,9.312865257263184,-2.541177749633789
1707004694879393000,17.90639306640625,0.6915257573127747,9.372686386108398,-2.606980323791504
1707004694898349800,17.925349853515623,0.6185446381568909,9.4061861038208,-2.7493531703948975
1707004694917306600,17.944306640625,0.7022934556007385,9.33440113067627,-2.968296527862549
1707004694936263400,17.963263427734375,0.747757077217102,9.343972206115723,-2.878565549850464
1707004694955220500,17.982220458984376,0.7286145091056824,9.373882293701172,-2.586641311645508
1707004694974177000,18.001177001953124,0.898504912853241,9.44327449798584,-2.4059832096099854
1707004694993133800,18.0201337890625,0.9798609018325806,9.381061553955078,-2.4538395404815674
1707004695012091000,18.0390908203125,0.8937192559242249,9.279366493225098,-2.551945447921753
1707004695031047400,18.05804736328125,0.8159525394439697,9.358329772949219,-2.550748825073242
1707004695050004200,18.077004150390625,0.885344386100769,9.364311218261719,-2.5148565769195557
1707004695068961300,18.095961181640625,0.9678967595100403,9.34157943725586,-2.528017044067383
1707004695087918000,18.11491796875,0.9415757060050964,9.365508079528809,-2.449054002761841
1707004695106874600,18.13387451171875,0.9415757060050964,9.360722541809082,-2.4466612339019775
1707004695125831700,18.152831787109374,0.8398807644844055,9.363115310668945,-2.5914268493652344
1707004695144788500,18.17178857421875,0.5814558863639832,9.391828536987305,-2.9479575157165527
1707004695163745300,18.190745361328126,0.537188708782196,9.231510162353516,-3.1800613403320312
1707004695182702000,18.2097021484375,0.6113662123680115,9.166903495788574,-3.081955671310425
1707004695201659000,18.228658935546875,0.6831508874893188,9.287740707397461,-2.851048231124878
1707004695220615700,18.24761572265625,0.7549355626106262,9.376275062561035,-2.4741785526275635
1707004695239572500,18.266572509765624,0.9427721500396729,9.408578872680664,-2.33180570602417
1707004695258529300,18.285529296875,0.9415757060050964,9.4121675491333,-2.4849462509155273
1707004695277486000,18.304486083984376,0.7525427341461182,9.377471923828125,-2.691925525665283
1707004695296443000,18.32344287109375,0.641276478767395,9.302098274230957,-2.581855535507202
1707004695315399700,18.342399658203124,0.8434699773788452,9.455238342285156,-2.445464849472046
1707004695334356500,18.3613564453125,1.0803594589233398,9.409774780273438,-2.526820659637451
1707004695353313300,18.380313232421877,0.9822536706924438,9.306883811950684,-2.585444927215576
1707004695372270000,18.39927001953125,0.7345965504646301,9.372686386108398,-2.847458839416504
1707004695391227000,18.418226806640625,0.6376872062683105,9.361918449401855,-2.861815929412842
1707004695410183700,18.43718359375,0.8099704384803772,9.257830619812012,-2.7421748638153076
1707004695429140500,18.456140380859374,0.9774680733680725,9.382257461547852,-2.586641311645508
1707004695448097300,18.47509716796875,0.9260223507881165,9.324830055236816,-2.562713146209717
1707004695467054000,18.49405419921875,0.8039883971214294,9.268598556518555,-2.5902304649353027
1707004695486011000,18.513010986328126,0.7513462901115417,9.378668785095215,-2.6560330390930176
1707004695504967700,18.5319677734375,0.8482556343078613,9.419346809387207,-2.5986053943634033
1707004695523924500,18.550924560546875,0.8578268885612488,9.249456405639648,-2.6285157203674316
1707004695542881300,18.56988134765625,0.7872386574745178,9.29611587524414,-2.744567632675171
1707004695561838000,18.588838134765624,0.7980063557624817,9.433703422546387,-2.709871530532837
1707004695580795000,18.607794921875,0.8135597109794617,9.370293617248535,-2.7086751461029053
1707004695599751700,18.626751708984376,0.8171489238739014,9.418149948120117,-2.775674343109131
1707004695618708500,18.64570849609375,0.8733802437782288,9.381061553955078,-2.585444927215576
1707004695637665300,18.664665283203124,0.8757730722427368,9.316454887390137,-2.506481647491455
1707004695656622000,18.6836220703125,0.8602197170257568,9.33559799194336,-2.612962245941162
1707004695675579000,18.702578857421877,0.794417142868042,9.266205787658691,-2.6727828979492188
1707004695694535700,18.72153564453125,0.8039883971214294,9.2255277633667,-2.7050859928131104
1707004695713492200,18.7404921875,0.867398202419281,9.308079719543457,-2.669193744659424
1707004695732449300,18.75944921875,0.6915257573127747,9.475577354431152,-2.6117658615112305
1707004695751406000,18.778406005859374,0.5862415432929993,9.485149383544922,-2.4849462509155273
1707004695770363000,18.79736279296875,0.7429714202880859,9.314062118530273,-2.438286304473877
1707004695789319400,18.8163193359375,0.7896314859390259,9.390632629394531,-2.4634108543395996
1707004695808276200,18.835276123046874,0.7070791125297546,9.505488395690918,-2.8414769172668457
1707004695827233300,18.8542333984375,0.5718846321105957,9.610772132873535,-3.0352954864501953
1707004695846189800,18.87318994140625,0.6867401003837585,9.45045280456543,-2.985046148300171
1707004695865146600,18.892146728515623,0.8925228714942932,9.586843490600586,-2.7696921825408936
1707004695884103400,18.911103515625,1.1497513055801392,9.817750930786133,-2.3306093215942383
1707004695903060200,18.930060302734375,1.155733346939087,9.818947792053223,-1.8687944412231445
1707004695922017000,18.94901708984375,1.1222338676452637,9.546165466308594,-1.903490424156189
1707004695940973800,18.967973876953124,0.865005373954773,9.471988677978516,-2.4263222217559814
1707004695959930600,18.9869306640625,0.7226324677467346,9.787840843200684,-2.746960401535034
1707004695978887400,19.005887451171876,0.6245267391204834,10.061819076538086,-2.785245656967163
1707004695997844200,19.02484423828125,0.5970092415809631,9.859625816345215,-2.6979074478149414
1707004696016801000,19.043801025390625,0.6161518096923828,9.440881729125977,-2.455035924911499
1707004696035757800,19.0627578125,0.364905446767807,9.038887977600098,-1.9298114776611328
1707004696054714600,19.081714599609374,0.1256231814622879,8.730213165283203,-2.014756679534912
1707004696073671400,19.10067138671875,0.09571290761232376,9.115457534790039,-2.9048867225646973
1707004696092628200,19.119628173828126,-0.33020952343940735,9.561718940734863,-4.168296813964844
1707004696111585000,19.1385849609375,-1.0169496536254883,10.928021430969238,-5.690132141113281
1707004696130541800,19.157541748046874,-2.3365912437438965,10.652846336364746,-7.64028263092041
1707004696149498600,19.17649853515625,-1.7407784461975098,9.189635276794434,-6.756134510040283
1707004696168455400,19.195455322265627,0.010767702013254166,9.013762474060059,-4.240081787109375
1707004696187412200,19.214412109375,3.016152858734131,8.982656478881836,1.475175142288208
1707004696206369000,19.233369140625,3.817748546600342,9.146564483642578,3.019742250442505
1707004696225325600,19.25232568359375,4.152743816375732,9.500701904296875,-0.2679961323738098
1707004696244282400,19.271282470703124,0.7621139883995056,9.936196327209473,-3.675375461578369
1707004696263239200,19.2902392578125,0.3924229145050049,10.837093353271484,-7.274180889129639
1707004696282196000,19.309196044921876,-2.2911276817321777,12.546765327453613,-7.53858757019043
1707004696301152800,19.32815283203125,-0.625723123550415,9.004191398620605,-4.686343193054199
1707004696320109600,19.347109619140625,-0.1782652884721756,10.176674842834473,0.8219345808029175
1707004696339066400,19.36606640625,0.16510476171970367,12.775279998779297,0.656829833984375
1707004696358023200,19.385023193359373,2.1894326210021973,12.160325050354004,-2.196611166000366
1707004696376980000,19.40397998046875,1.2562319040298462,9.243474006652832,-5.142175674438477
1707004696395936800,19.422936767578125,-1.648654818534851,8.486145973205566,-5.444868087768555
1707004696414893600,19.4418935546875,0.39840495586395264,12.788440704345703,-1.7874385118484497
1707004696433850400,19.460850341796874,0.18424734473228455,12.31825065612793,-2.293520450592041
1707004696452807000,19.479806884765626,-0.4666004180908203,8.648857116699219,-5.745167255401611
1707004696471763700,19.498763671875,-0.49292147159576416,8.420342445373535,-2.754138946533203
1707004696490720500,19.517720458984375,-1.6701902151107788,13.737195014953613,-2.0195422172546387
1707004696509677300,19.53667724609375,2.551945447921753,13.239487648010254,-2.3234307765960693
1707004696528634000,19.555634033203123,4.516452789306641,8.14397144317627,-4.001996040344238
1707004696547591000,19.5745908203125,0.24287149310112,11.966506004333496,-4.429114818572998
1707004696566547700,19.593547607421876,-3.1334011554718018,11.874382019042969,-4.147958278656006
1707004696585504500,19.61250439453125,-1.1521440744400024,8.437092781066895,-4.983053207397461
1707004696604461300,19.63146142578125,-0.0526420995593071,11.80738353729248,-3.8572301864624023
1707004696623417900,19.65041796875,2.475374937057495,12.128021240234375,-2.0482561588287354
1707004696642374700,19.669374755859376,1.95852530002594,9.954142570495605,-4.07258415222168
1707004696661331500,19.68833154296875,2.342573404312134,10.37647533416748,-4.457828521728516
1707004696680288300,19.707288330078125,-0.7310073375701904,11.544173240661621,-3.8321053981781006
1707004696699245000,19.7262451171875,-1.1318050622940063,9.384650230407715,-4.2281174659729
1707004696718201900,19.745201904296874,0.39960137009620667,8.396414756774902,-5.071587562561035
1707004696737158700,19.76415869140625,1.4775680303573608,11.252248764038086,-3.3990044593811035
1707004696756115500,19.783115478515626,2.012363910675049,12.041879653930664,-1.222732424736023
1707004696775072300,19.802072265625,2.4574289321899414,8.193024635314941,-2.963510751724243
1707004696794028800,19.82102880859375,0.9678967595100403,7.302894592285156,-4.8538408279418945
1707004696812985600,19.839985595703126,0.29312077164649963,9.707681655883789,-3.9194436073303223
1707004696831942400,19.8589423828125,0.8685946464538574,9.76989459991455,-1.9166508913040161
1707004696850899200,19.877899169921875,2.720639228820801,8.093722343444824,-3.1549365520477295
1707004696869856000,19.89685595703125,2.42512583732605,7.28255558013916,-4.382454872131348
1707004696888812800,19.915812744140624,1.4584254026412964,7.369893550872803,-3.762713670730591
1707004696907769600,19.93476953125,0.5479564070701599,7.076773166656494,-3.882354736328125
1707004696926726400,19.953726318359376,0.8506484627723694,6.959524631500244,-4.991427898406982
1707004696945683000,19.972682861328124,0.6245267391204834,6.270391941070557,-3.9565322399139404
1707004696964639700,19.9916396484375,0.8805587291717529,6.075376510620117,-1.2681959867477417
1707004696983596500,20.010596435546876,1.7682958841323853,6.419943332672119,0.1950150430202484
1707004697002553300,20.02955322265625,1.200000524520874,6.973881721496582,0.16271193325519562
1707004697021510100,20.04851025390625,-0.020338991656899452,6.262016773223877,-0.37806597352027893
1707004697040467000,20.067467041015625,-0.28594231605529785,5.630311489105225,0.3290131092071533
1707004697059423700,20.086423828125,0.4211367964744568,4.322634220123291,-0.22372891008853912
1707004697078380500,20.105380615234374,1.4775680303573608,4.364508628845215,-0.7704889178276062
1707004697097337300,20.12433740234375,1.0348957777023315,7.746763229370117,-0.4139583110809326
1707004697116294000,20.1432939453125,0.31345975399017334,7.488338470458984,0.05383851006627083
1707004697135250700,20.162250732421874,-0.031106693670153618,4.564309120178223,1.6007983684539795
1707004697154207500,20.18120751953125,-0.04785645380616188,6.245266914367676,4.974678039550781
1707004697173164300,20.200164306640627,0.41156548261642456,8.273183822631836,4.5786662101745605
1707004697192121000,20.21912109375,0.9343972206115723,8.519644737243652,3.19441819190979
1707004697211077600,20.23807763671875,-0.11724831163883209,8.023134231567383,1.1078768968582153
1707004697230034400,20.257034423828124,-0.09810572862625122,9.416953086853027,1.934597134590149
1707004697248991200,20.2759912109375,0.8458628058433533,8.957531929016113,4.285545349121094
1707004697267948000,20.294947998046876,0.4833501875400543,9.469595909118652,5.203192710876465
1707004697286904800,20.31390478515625,-0.37926238775253296,11.678171157836914,5.108676433563232
1707004697305861600,20.332861572265625,-0.20937198400497437,9.732806205749512,3.3535408973693848
1707004697324818200,20.351818115234376,0.49651068449020386,8.408378601074219,3.0305099487304688
1707004697343775000,20.37077490234375,0.7058826684951782,10.462616920471191,2.4287149906158447
1707004697362731800,20.389731689453125,0.41156548261642456,11.23908805847168,2.001596212387085
1707004697381688600,20.4086884765625,0.5778666734695435,9.81655502319336,2.8893332481384277
1707004697400645400,20.427645263671874,0.33020952343940735,8.849854469299316,3.212364435195923
1707004697419602200,20.446602294921874,-0.03349951654672623,9.148957252502441,2.7637102603912354
1707004697438558700,20.465558837890626,0.16510476171970367,10.255638122558594,1.7431713342666626
1707004697457515500,20.484515625,0.4091726839542389,9.698110580444336,0.9631111025810242
1707004697476472300,20.503472412109375,0.3397808074951172,9.09272575378418,1.6737794876098633
1707004697495429000,20.52242919921875,0.24167509377002716,9.396614074707031,3.2781670093536377
1707004697514386000,20.541385986328127,0.007178467698395252,9.414560317993164,3.049652576446533
1707004697533342500,20.560342529296875,0.039481572806835175,8.980263710021973,1.9968105554580688
1707004697552299300,20.57929931640625,0.5084748268127441,9.133403778076172,2.2396819591522217
1707004697571256000,20.598256103515624,0.9188438653945923,9.981659889221191,3.0903303623199463
1707004697590212900,20.617212890625,0.43908295035362244,9.200403213500977,3.4683964252471924
1707004697609169700,20.636169677734376,0.010767702013254166,8.776873588562012,2.2911276817321777
1707004697628126200,20.655126220703124,0.363709032535553,9.863214492797852,2.8414769172668457
1707004697647083000,20.6740830078125,0.9427721500396729,9.4121675491333,3.5258240699768066
1707004697666039800,20.693039794921877,0.259621262550354,9.401400566101074,2.6847469806671143
1707004697684996600,20.71199658203125,0.04307080805301666,9.324830055236816,2.187039852142334
1707004697703953400,20.730953369140625,0.4426721930503845,10.017552375793457,2.7840490341186523
1707004697722910000,20.749909912109374,0.41994038224220276,9.206384658813477,2.7349963188171387
1707004697741866800,20.76886669921875,0.22492532432079315,9.419346809387207,2.768495798110962
1707004697760823600,20.787823486328126,0.4378865361213684,10.016355514526367,2.806781053543091
1707004697779780400,20.8067802734375,0.1866401731967926,9.675378799438477,2.287538528442383
1707004697798737200,20.825737060546874,-0.0023928226437419653,8.940781593322754,2.496910333633423
1707004697817693700,20.844693603515626,0.4582255482673645,9.455238342285156,2.8175487518310547
1707004697836650500,20.863650390625,0.6604190468788147,9.978070259094238,3.1968109607696533
1707004697855607300,20.882607177734375,0.18544375896453857,9.66819953918457,3.0664021968841553
1707004697874564000,20.901564208984375,-0.12801600992679596,9.352347373962402,2.724228620529175
1707004697893521000,20.92052099609375,0.23808585107326508,9.455238342285156,2.775674343109131
1707004697912477400,20.9394775390625,0.6592226624488831,9.929018020629883,3.308077335357666
1707004697931434200,20.958434326171876,0.3577269911766052,9.999606132507324,3.0424740314483643
1707004697950391000,20.97739111328125,0.27038896083831787,9.625128746032715,2.7732813358306885
1707004697969347800,20.996347900390624,0.3433700501918793,9.748359680175781,2.506481647491455
1707004697988304600,21.0153046875,0.1746760457754135,10.235299110412598,2.204986095428467
1707004698007261200,21.03426123046875,-0.02153540402650833,9.864411354064941,1.8771693706512451
1707004698026218000,21.053218017578125,-0.06939185410737991,10.017552375793457,2.5914268493652344
1707004698045174800,21.0721748046875,0.5324030518531799,9.950552940368652,3.298506021499634
1707004698064131600,21.091131591796874,1.0683952569961548,10.268798828125,4.232903480529785
1707004698083088400,21.11008837890625,1.074377417564392,8.933603286743164,3.586841106414795
1707004698102045000,21.129044921875,0.42352959513664246,7.802994728088379,1.7910277843475342
1707004698121001700,21.148001708984374,0.33020952343940735,7.637889862060547,0.25722843408584595
1707004698139958500,21.16695849609375,0.5072783827781677,6.954739093780518,0
1707004698158915300,21.185915283203126,1.3794622421264648,6.296712875366211,0.3577269911766052
1707004698177872100,21.2048720703125,1.2275179624557495,6.447460651397705,-0.19980068504810333
1707004698196828700,21.22382861328125,0.6197410821914673,5.889933109283447,-1.301695466041565
1707004698215785500,21.242785400390623,0.2069791555404663,6.221338748931885,-2.366501569747925
1707004698234742300,21.2617421875,-0.059820566326379776,7.16650390625,-1.2335001230239868
1707004698253699000,21.280698974609376,0.13040883839130402,7.611568927764893,0.5204389095306396
1707004698272656000,21.29965576171875,2.455035924911499,7.964509963989258,0.8626125454902649
1707004698291612700,21.31861279296875,3.541377544403076,8.000402450561523,1.423729419708252
1707004698310569200,21.3375693359375,2.4059832096099854,9.314062118530273,-1.1748759746551514
1707004698329526000,21.356526123046876,0.19621145725250244,10.984251976013184,-3.6705899238586426
1707004698348482800,21.37548291015625,1.4273186922073364,8.58903694152832,-3.1238300800323486
1707004698367439600,21.394439697265625,1.9669002294540405,6.799205780029297,-1.5864413976669312
1707004698386396400,21.413396484375,1.3040883541107178,11.60399341583252,-3.0592236518859863
1707004698405353000,21.43235302734375,-0.35413774847984314,14.68355655670166,-2.283949136734009
1707004698424309800,21.451309814453126,1.714457392692566,5.438885688781738,-1.3040883541107178
1707004698443266600,21.4702666015625,3.1800613403320312,5.79063081741333,-2.8354947566986084
1707004698462223400,21.489223388671874,-0.605384111404419,13.737195014953613,-3.992424488067627
1707004698481180200,21.50818017578125,0.11964113265275955,10.005587577819824,-4.5547380447387695
1707004698500137000,21.527136962890626,0.4618147611618042,5.111069202423096,-3.4372897148132324
1707004698519093500,21.546093505859375,0.6795616149902344,10.521241188049316,-1.867598056793213
1707004698538050300,21.56505029296875,1.832902193069458,10.03549861907959,0.672383189201355
1707004698557007000,21.584007080078123,1.8891334533691406,6.928418159484863,-3.102294445037842
1707004698575964000,21.6029638671875,0.1902294009923935,10.864611625671387,-2.940778970718384
1707004698594920700,21.621920654296876,-1.4177473783493042,10.749755859375,-2.6799614429473877
1707004698613877500,21.64087744140625,0.9391828775405884,6.768098831176758,-2.2540390491485596
1707004698632834300,21.659834228515624,2.187039852142334,8.079365730285645,-0.9020941257476807
1707004698651791000,21.678791015625,1.5361921787261963,12.214162826538086,-1.6235301494598389
1707004698670747600,21.69774755859375,1.444068431854248,10.423135757446289,-2.3772692680358887
1707004698689704400,21.716704345703125,0.6783652305603027,8.489734649658203,-3.3571300506591797
1707004698708661200,21.7356611328125,0.11605189740657806,8.389236450195312,-2.1068804264068604
1707004698727618000,21.7546181640625,0.4247260093688965,10.50209903717041,-1.8197416067123413
1707004698746574800,21.773574951171874,1.1018948554992676,9.757930755615234,-2.5878376960754395
1707004698765531600,21.79253173828125,1.3435698747634888,10.192228317260742,-3.4779677391052246
1707004698784488400,21.811488525390626,0.25244277715682983,9.7938232421875,-1.444068431854248
1707004698803445200,21.8304453125,0.38285163044929504,9.072386741638184,-0.26560330390930176
1707004698822402000,21.849402099609375,2.286342144012451,8.590232849121094,-1.1545369625091553
1707004698841358600,21.868358642578126,2.4131617546081543,10.559526443481445,-2.0039889812469482
1707004698860315400,21.8873154296875,1.25144624710083,12.350554466247559,-2.282752752304077
1707004698879272200,21.906272216796875,0.5994020700454712,8.896514892578125,-1.5170495510101318
1707004698898229000,21.92522900390625,0.19980068504810333,7.499105930328369,-1.7766708135604858
1707004698917185800,21.944185791015624,0.33738797903060913,10.821540832519531,-2.713460922241211
1707004698936142600,21.963142578125,1.6307085752487183,10.408778190612793,-0.6795616149902344
1707004698955099400,21.982099365234376,2.2815563678741455,8.514859199523926,-1.5158531665802002
1707004698974056200,22.00105615234375,1.2837493419647217,10.85862922668457,-2.7517459392547607
1707004698993012700,22.0200126953125,-0.2907279431819916,10.074979782104492,-1.679761528968811
1707004699011969500,22.038969482421876,0.8781659007072449,7.606783390045166,-1.5194423198699951
1707004699030926300,22.05792626953125,0.5826523303985596,10.153943061828613,-1.8711873292922974
1707004699049883100,22.076883056640625,1.2921242713928223,10.782058715820312,-1.812563180923462
1707004699068840000,22.09583984375,2.400001049041748,8.998209953308105,-1.3399807214736938
1707004699087796700,22.114796630859374,0.9678967595100403,10.310672760009766,-1.9465612173080444
1707004699106753500,22.13375341796875,-0.3852444589138031,9.929018020629883,-2.5351955890655518
1707004699125710300,22.15271044921875,0.9535398483276367,9.292527198791504,-1.3435698747634888
1707004699144667100,22.171667236328126,0.8961120843887329,10.790433883666992,-1.1282159090042114
1707004699163624000,22.1906240234375,0.7956135272979736,10.821540832519531,-2.376072883605957
1707004699182580700,22.209580810546875,1.0636097192764282,9.452845573425293,-2.638087034225464
1707004699201537500,22.22853759765625,1.7479569911956787,9.884750366210938,-2.3401806354522705
1707004699220494300,22.247494384765623,2.3030917644500732,11.619546890258789,-1.4165509939193726
1707004699239451100,22.266451171875,1.3938192129135132,10.443474769592285,-1.2729816436767578
1707004699258408000,22.285407958984376,-0.4666004180908203,9.031708717346191,-3.6227335929870605
1707004699277364700,22.30436474609375,0.4426721930503845,10.272387504577637,-3.0664021968841553
1707004699296321300,22.3233212890625,1.679761528968811,11.668600082397461,-1.058824062347412
1707004699315278000,22.342278076171876,-0.37926238775253296,10.41356372833252,-0.7573283910751343
1707004699334235100,22.361235107421876,0.062213387340307236,7.491927623748779,-1.9154545068740845
1707004699353192000,22.38019189453125,2.1655044555664062,9.57487964630127,-2.561516523361206
1707004699372148500,22.3991484375,2.166700839996338,11.818151473999023,-2.688336133956909
1707004699391105300,22.418105224609373,-0.10887342691421509,9.390632629394531,-3.0245277881622314
1707004699410062000,22.43706201171875,-0.2883351147174835,7.933403491973877,-2.5423741340637207
1707004699429019100,22.45601904296875,1.1724830865859985,9.146564483642578,-1.2574282884597778
1707004699447975700,22.4749755859375,2.221735715866089,9.485149383544922,-1.2765709161758423
1707004699466932500,22.493932373046874,0.8327022790908813,8.918049812316895,-1.8604196310043335
1707004699485889300,22.51288916015625,1.2047861814498901,8.578269004821777,-1.4775680303573608
1707004699504846000,22.53184619140625,0.97148597240448,9.019744873046875,-1.4380863904953003
1707004699523803000,22.550802978515627,1.1042876243591309,8.286344528198242,-1.9621145725250244
1707004699542759700,22.569759765625,0.28115665912628174,8.756534576416016,-2.7110681533813477
1707004699561716500,22.588716552734375,0.20099709928035736,9.976874351501465,-3.2853455543518066
1707004699580673300,22.60767333984375,1.1808580160140991,8.635697364807129,-2.3150558471679688
1707004699599630000,22.626630126953124,2.0673987865448,7.232306480407715,0.058624155819416046
1707004699618587000,22.6455869140625,1.1126625537872314,9.938589096069336,-0.19142581522464752
1707004699637543700,22.664543701171876,1.698904037475586,15.621542930603027,-3.5605201721191406
1707004699656500500,22.68350048828125,1.94297194480896,22.168304443359375,-7.131807804107666
1707004699675457300,22.702457275390625,0.5443671345710754,13.170095443725586,-7.869993686676025
1707004699694414000,22.7214140625,-1.5409778356552124,2.8342983722686768,-1.5553346872329712
1707004699713371000,22.740370849609373,0.4666004180908203,3.372683525085449,4.709074974060059
1707004699732327700,22.75932763671875,3.2614171504974365,12.363714218139648,4.631308078765869
1707004699751284500,22.778284423828126,1.475175142288208,15.190834999084473,-0.1459621787071228
1707004699770241300,22.7972412109375,0.5670989751815796,9.840482711791992,-4.526023864746094
1707004699789198000,22.816197998046874,-0.9726824164390564,6.043073654174805,-5.485546112060547
1707004699808155000,22.83515478515625,0.1698904037475586,9.469595909118652,-4.256831645965576
1707004699827111700,22.854111572265627,0.061016976833343506,10.963912963867188,-3.6538400650024414
1707004699846068500,22.873068359375,1.0145567655563354,9.497113227844238,-2.7672994136810303
1707004699865025300,22.892025390625,2.2432711124420166,9.718449592590332,-0.42711883783340454
1707004699883982000,22.910982177734375,2.583052158355713,10.645668029785156,0.8291130661964417
1707004699902939000,22.92993896484375,1.8951154947280884,9.388239860534668,-0.6017948985099792
1707004699921895700,22.948895751953124,0.9702895879745483,8.761320114135742,-1.7048860788345337
1707004699940852500,22.9678525390625,0.4701896607875824,8.900103569030762,-2.249253273010254
1707004699959809300,22.986809326171876,1.0372886657714844,9.978070259094238,-2.0961127281188965
1707004699978766000,23.00576611328125,1.5314065217971802,9.80100154876709,-1.7431713342666626
1707004699997723000,23.024722900390625,1.7527425289154053,9.548559188842773,-1.397408366203308
1707004700016679700,23.0436796875,1.7515461444854736,9.4121675491333,-1.4021940231323242
1707004700035636500,23.062636474609373,1.373480200767517,9.330811500549316,-1.8735800981521606
1707004700054593300,23.08159326171875,1.0564311742782593,9.603593826293945,-2.2983062267303467
1707004700073549800,23.1005498046875,0.9918249845504761,9.440881729125977,-2.5734808444976807
1707004700092507000,23.1195068359375,1.2035897970199585,9.2255277633667,-2.179861545562744
1707004700111463700,23.138463623046874,1.389033555984497,9.138189315795898,-1.6857435703277588
1707004700130420500,23.15742041015625,1.124626636505127,9.141778945922852,-1.384247899055481
1707004700149377000,23.176376953125,0.9702895879745483,9.232706069946289,-1.4141582250595093
1707004700168334000,23.195333984375,0.8901300430297852,9.308079719543457,-1.8819550275802612
1707004700187291000,23.214290771484375,1.0301101207733154,8.919246673583984,-2.6572296619415283
1707004700206247400,23.233247314453124,1.0600204467773438,8.751749038696289,-2.7146573066711426
1707004700225204200,23.252204345703124,0.9451649188995361,8.914461135864258,-2.242074728012085
1707004700244161300,23.271161376953124,0.9906286001205444,9.061619758605957,-2.080559253692627
1707004700263118000,23.2901181640625,1.1820544004440308,9.324830055236816,-2.1894326210021973
1707004700282074600,23.30907470703125,1.3244273662567139,9.866804122924805,-2.4047868251800537
1707004700301031400,23.328031494140625,1.4991034269332886,10.3621187210083,-2.348555326461792
1707004700319988500,23.346988525390625,1.7012969255447388,10.40758228302002,-2.342573404312134
1707004700338945300,23.3659453125,1.490728497505188,10.001998901367188,-2.541177749633789
1707004700357901800,23.38490185546875,0.9511470198631287,9.393025398254395,-3.0723843574523926
1707004700376858600,23.403858642578125,0.30628129839897156,9.462417602539062,-3.566502094268799
1707004700395815700,23.422815673828126,-0.42352959513664246,9.875179290771484,-3.9326040744781494
1707004700414772200,23.441772216796874,-0.4007977843284607,10.575079917907715,-3.436093330383301
1707004700433729000,23.46072900390625,-0.28953152894973755,11.996416091918945,-3.62153697013855
1707004700452685800,23.479685791015626,-0.09690931439399719,16.28435516357422,-6.744170665740967
1707004700471642600,23.498642578125,-0.5216353535652161,13.925031661987305,-3.9326040744781494
1707004700490599400,23.517599365234375,-2.2911276817321777,6.681957244873047,5.106283664703369
1707004700509556200,23.53655615234375,4.823930263519287,9.58205795288086,3.0412776470184326
1707004700528513000,23.555512939453124,5.553741455078125,7.3052873611450195,-1.0959128141403198
1707004700547469800,23.5744697265625,2.8283164501190186,8.624929428100586,-4.874179840087891
1707004700566426600,23.593426513671876,0.8817551732063293,13.414163589477539,-5.90668249130249
1707004700585383400,23.612383544921876,3.7328033447265625,8.772088050842285,-4.078566074371338
1707004700604340200,23.63134033203125,0.9846464991569519,13.189238548278809,-4.060619831085205
1707004700623297000,23.650297119140625,-2.7900311946868896,13.829318046569824,-6.09332275390625
1707004700642253800,23.66925390625,-1.093519926071167,7.518248558044434,-4.040280818939209
1707004700661210600,23.688210693359373,0.32662028074264526,9.367900848388672,-0.47976094484329224
1707004700680167400,23.70716748046875,2.1068804264068604,14.166706085205078,2.262413740158081
1707004700699124200,23.726124267578125,-0.5216353535652161,12.465409278869629,-1.2957134246826172
1707004700718081000,23.7450810546875,2.3234307765960693,7.240681171417236,-3.52103853225708
1707004700737037800,23.764037841796874,-0.9846464991569519,7.926225185394287,-5.37906551361084
1707004700755994600,23.78299462890625,-2.7589244842529297,12.254840850830078,-3.4504501819610596
1707004700774951400,23.801951416015626,1.7994025945663452,9.987641334533691,-2.9012975692749023
1707004700793908200,23.820908203125,3.775874137878418,11.48674488067627,-1.5086746215820312
1707004700812865000,23.839864990234375,2.3234307765960693,10.98305606842041,-2.2205393314361572
1707004700831821800,23.85882177734375,-0.5072783827781677,9.45763111114502,-5.481956481933594
1707004700850778400,23.8777783203125,-1.5302101373672485,8.868997573852539,-6.125626087188721
1707004700869735200,23.896735107421875,-0.13040883839130402,9.383454322814941,-3.3655049800872803
1707004700888692200,23.915692138671876,2.372483730316162,13.334004402160645,-1.098305583000183
1707004700907649000,23.93464892578125,-1.534995675086975,13.168899536132812,-1.160519003868103
1707004700926605600,23.95360546875,0.08853443711996078,7.307680130004883,-4.113262176513672
1707004700945562400,23.972562255859376,1.7994025945663452,8.956335067749023,-3.559323787689209
1707004700964519200,23.991519287109377,1.4763715267181396,12.447463035583496,-2.087737798690796
1707004700983476000,24.01047607421875,2.097309112548828,9.832108497619629,-2.851048231124878
1707004701002432800,24.029432861328125,-0.3936193287372589,8.717052459716797,-6.256034851074219
1707004701021389600,24.0483896484375,-2.0338993072509766,10.8430757522583,-6.471388816833496
1707004701040346400,24.067346435546874,-1.1820544004440308,9.797411918640137,-2.526820659637451
1707004701059303200,24.08630322265625,1.3148560523986816,7.696514129638672,-1.5433706045150757
1707004701078260000,24.105260009765626,2.8175487518310547,8.941978454589844,-1.8735800981521606
1707004701097216800,24.124216796875,2.0338993072509766,12.032308578491211,-0.4247260093688965
1707004701116173600,24.143173583984375,1.482353687286377,9.22433090209961,-0.916451096534729
1707004701135130400,24.16213037109375,0.4773681163787842,5.79063081741333,-3.841676712036133
1707004701154087200,24.181087158203123,-0.24406790733337402,8.70508861541748,-5.430510997772217
1707004701173044000,24.2000439453125,-0.13639089465141296,11.742776870727539,-4.230510234832764
1707004701192000800,24.219000732421875,2.0446670055389404,7.100701332092285,-1.4775680303573608
1707004701210957600,24.23795751953125,3.0448668003082275,5.383851051330566,-2.03629207611084
1707004701229914000,24.2569140625,1.5445669889450073,9.439684867858887,-1.2430713176727295
1707004701248871000,24.275870849609376,-0.4582255482673645,10.749755859375,0.9535398483276367
