time,seconds_elapsed,z,y,x
1711551993621361200,0.055361083984375,0.019394956529140472,-0.15531237423419952,0.0308486707508564
1711551993640320300,0.0743203125,0.0062613640911877155,-0.12812888622283936,0.040317077189683914
1711551993659279000,0.093279052734375,0.011148282326757908,-0.06123919412493706,0.04825831577181816
1711551993678238000,0.112238037109375,0.039248060435056686,0.007483093533664942,0.0412333719432354
1711551993697196800,0.13119677734375,0.04780016839504242,0.0539088174700737,0.026572618633508682
1711551993716155600,0.15015576171875,0.02611446939408779,0.07864884287118912,0.01282816007733345
1711551993735114500,0.169114501953125,0.009926552884280682,0.0694858655333519,-0.0021380267571657896
1711551993754073300,0.1880732421875,0.016646064817905426,0.03649916872382164,-0.006719512399286032
1711551993773032200,0.2070322265625,0.03802633285522461,-0.018173227086663246,0.007330377586185932
1711551993791991300,0.2259912109375,0.052687086164951324,-0.06856957077980042,0.022907428443431854
1711551993810950100,0.2449501953125,0.04780016839504242,-0.08659008145332336,0.014660755172371864
1711551993829909000,0.263908935546875,0.04260781779885292,-0.07803797721862793,-0.003970621153712273
1711551993848867800,0.282867919921875,0.04810560122132301,-0.05757400393486023,-0.008857538923621178
1711551993867826700,0.30182666015625,0.055741410702466965,-0.021227551624178886,-0.0021380267571657896
1711551993886785500,0.32078564453125,0.0591011680662632,0.017562363296747208,-0.007941242307424545
1711551993905744600,0.33974462890625,0.052687086164951324,0.02611446939408779,-0.015271619893610477
1711551993924703500,0.358703369140625,0.04841103404760361,-0.008093958720564842,-0.003359756199643016
1711551993943662300,0.377662353515625,0.04657844081521034,-0.0025961752980947495,0.01282816007733345
1711551993962621200,0.39662109375,0.04810560122132301,-0.0019853105768561363,0.012217295356094837
1711551993981580300,0.415580322265625,0.05329795181751251,-0.05451968312263489,0.009162971749901772
1711551994000539100,0.4345390625,0.036804601550102234,-0.10888664424419403,0.010690134018659592
1711551994019498000,0.453498046875,0.014813470654189587,-0.11927134543657303,0.015271619893610477
1711551994038456800,0.472456787109375,0.020922118797898293,-0.09422589093446732,0.023212861269712448
1711551994057415700,0.491415771484375,0.050549060106277466,-0.058795735239982605,0.03481929376721382
1711551994076374800,0.510374755859375,0.05329795181751251,0.008704823441803455,0.04367683082818985
1711551994095333600,0.529333740234375,0.03802633285522461,0.07651081681251526,0.025045456364750862
1711551994114292500,0.54829248046875,0.034666575491428375,0.0896444097161293,-0.003970621153712273
1711551994133251300,0.567251220703125,0.03711003437638283,0.06673697382211685,-0.023823726922273636
1711551994152210200,0.586210205078125,0.034666575491428375,0.010537417605519295,-0.03390299528837204
1711551994171169300,0.605169189453125,0.07376192510128021,-0.06123919412493706,-0.054672397673130035
1711551994190128000,0.624128173828125,0.11835505068302155,-0.03527744114398956,-0.0717766135931015
1711551994209087000,0.6430869140625,0.11927134543657303,0.0487164668738842,-0.056810423731803894
1711551994228046000,0.662046142578125,0.1256854236125946,0.12415826320648193,-0.05864302068948746
1711551994247005000,0.6810048828125,0.1363755613565445,0.21151192486286163,-0.10445787757635117
1711551994265963800,0.6999638671875,0.11346813291311264,0.2961167097091675,-0.18600831925868988
1711551994284923000,0.7189228515625,0.11591159552335739,0.3727802336215973,-0.29626941680908203
1711551994303881700,0.7378818359375,0.1363755613565445,0.4240928590297699,-0.3857611119747162
1711551994322840800,0.7568408203125,0.15836669504642487,0.48334676027297974,-0.40744680166244507
1711551994341799700,0.775799560546875,0.26618432998657227,0.5447386503219604,-0.3344484567642212
1711551994360758500,0.794758544921875,0.4222602844238281,0.5474875569343567,-0.24404047429561615
1711551994379717400,0.81371728515625,0.5312996506690979,0.5001455545425415,-0.22266021370887756
1711551994398676500,0.832676513671875,0.5105302333831787,0.3770562708377838,-0.20127993822097778
1711551994417635300,0.85163525390625,0.388662725687027,0.2133445292711258,-0.10384701192378998
1711551994436594400,0.870594482421875,0.2948949635028839,0.027336198836565018,-0.016798781231045723
1711551994455553300,0.88955322265625,0.187382772564888,-0.009315688163042068,0.006414080038666725
1711551994474512100,0.90851220703125,0.09758564829826355,0.07040216773748398,0.05711585655808449
1711551994493471200,0.92747119140625,0.03130681812763214,0.15042544901371002,0.19669845700263977
1711551994512430000,0.94643017578125,-0.008093958720564842,0.18341214954853058,0.3845393657684326
1711551994531389000,0.965388916015625,-0.010537417605519295,0.05604684352874756,0.5586358308792114
1711551994550348000,0.98434814453125,-0.009315688163042068,-0.10338886082172394,0.7009673118591309
1711551994569307000,1.003306884765625,0.028863361105322838,-0.18066325783729553,0.8576541543006897
1711551994588266000,1.022265869140625,0.08659008145332336,-0.1461493968963623,0.9657772183418274
1711551994607225000,1.04122509765625,0.16416990756988525,-0.04810560122132301,0.9868520498275757
1711551994626184000,1.060183837890625,0.29214608669281006,0.10705405473709106,0.9856303334236145
1711551994645142800,1.079142822265625,0.4292852282524109,0.3733910918235779,1.035415768623352
1711551994664102000,1.098101806640625,0.5108356475830078,0.7240274548530579,1.148425817489624
1711551994683060700,1.117060791015625,0.588110089302063,0.939662754535675,1.2608249187469482
1711551994702019800,1.136019775390625,0.6971494555473328,0.8752164840698242,1.3402373790740967
1711551994720979000,1.15497900390625,0.8009964227676392,0.5291616320610046,1.3900227546691895
1711551994739937800,1.173937744140625,0.8666644096374512,0.0899498388171196,1.4135410785675049
1711551994758896600,1.192896728515625,0.8672752976417542,-0.18371757864952087,1.4172062873840332
1711551994777855700,1.211855712890625,0.8275690674781799,-0.18463388085365295,1.3918553590774536
1711551994796814800,1.23081494140625,0.7945823669433594,0.03405570983886719,1.3628393411636353
1711551994815773700,1.249773681640625,0.7903063297271729,0.347123920917511,1.3335177898406982
1711551994834732800,1.26873291015625,0.7603739500045776,0.6247619390487671,1.2443315982818604
1711551994853691600,1.287691650390625,0.6962331533432007,0.8144354820251465,1.0784817934036255
1711551994872650800,1.306650634765625,0.6073523163795471,0.8797979950904846,0.8799507021903992
1711551994891609900,1.32560986328125,0.5523744821548462,0.8697187304496765,0.8005383014678955
1711551994910568700,1.344568603515625,0.5694786906242371,0.7796161770820618,0.8741474747657776
1711551994929527800,1.36352783203125,0.6305651664733887,0.49312058091163635,0.9566142559051514
1711551994948486700,1.382486572265625,0.7011200785636902,0.1461493968963623,0.9541707634925842
1711551994967445800,1.40144580078125,0.7313578724861145,-0.10186170041561127,0.8072578310966492
1711551994986404900,1.42040478515625,0.6104066371917725,0.07773254066705704,0.7195987105369568
1711551995005363700,1.43936376953125,0.24510949850082397,0.4225656986236572,0.6508764028549194
1711551995024322800,1.45832275390625,-0.0902552679181099,0.5193877816200256,0.5787943601608276
1711551995043282000,1.477281982421875,-0.08048143237829208,-0.02825249545276165,0.5659661889076233
1711551995062241000,1.496240966796875,0.10858121514320374,-0.7512109875679016,0.4001164436340332
1711551995081199900,1.515199951171875,0.19562944769859314,-0.88285231590271,0.19211697578430176
1711551995100159000,1.534158935546875,0.16997312009334564,-0.304974228143692,0.16096286475658417
1711551995119118000,1.5531181640625,0.17088942229747772,0.27717989683151245,0.1853974610567093
1711551995138077200,1.5720771484375,0.2237292230129242,0.3975202441215515,0.15179990231990814
1711551995157036000,1.5910361328125,0.25274530053138733,0.24816381931304932,0.12278381735086441
1711551995175995100,1.6099951171875,0.18493930995464325,-0.049632761627435684,-0.03848448023200035
1711551995194954200,1.628954345703125,0.039248060435056686,-0.28817546367645264,-0.3237583339214325
1711551995213913000,1.6479130859375,-0.1565341055393219,-0.32971426844596863,-0.40805765986442566
1711551995232872200,1.6668720703125,-0.27809619903564453,-0.41492989659309387,-0.24342961609363556
1711551995251831300,1.685831298828125,-0.18982623517513275,-0.5810851454734802,-0.12370011955499649
1711551995270790400,1.704790283203125,0.06246092543005943,-0.74540776014328,-0.13530655205249786
1711551995289749200,1.723749267578125,0.30253079533576965,-0.8437569737434387,-0.04245510324835777
1711551995308708400,1.742708251953125,0.21395538747310638,-0.7252492308616638,-0.025961752980947495
1711551995327667500,1.76166748046875,0.03283398225903511,-0.4140135943889618,-0.23457208275794983
1711551995346626600,1.78062646484375,-0.0591011680662632,0.012980876490473747,-0.37751442193984985
1711551995365585700,1.799585693359375,-0.10644318908452988,0.25060728192329407,-0.33078327775001526
1711551995384544800,1.818544677734375,-0.06887500733137131,0.17027856409549713,-0.23304490745067596
1711551995403503900,1.83750390625,0.033139415085315704,-0.15347976982593536,-0.16249002516269684
1711551995422463000,1.856462890625,0.08170316368341446,-0.53221595287323,-0.06108647957444191
1711551995441422000,1.875422119140625,0.02611446939408779,-0.7334958910942078,0.02932151034474373
1711551995460381000,1.894380859375,-0.08048143237829208,-0.716697096824646,0.041844237595796585
1711551995479340000,1.913340087890625,-0.17058399319648743,-0.5346593856811523,0.022296564653515816
1711551995498299100,1.932299072265625,-0.1715002804994583,-0.25243985652923584,-0.003359756199643016
1711551995517258200,1.95125830078125,-0.12965604662895203,-0.024892739951610565,0.000305432389723137
1711551995536217300,1.97021728515625,-0.09972367435693741,0.09605848789215088,0.0256563201546669
1711551995555176400,1.989176513671875,-0.11407899856567383,0.14798198640346527,0.029626941308379173
1711551995574135600,2.008135498046875,-0.14492766559123993,0.14706569910049438,0.003970621153712273
1711551995593094700,2.0270947265625,-0.15347976982593536,0.09728021919727325,-0.037262752652168274
1711551995612053800,2.0460537109375,-0.12721258401870728,0.04321868345141411,-0.0665842592716217
1711551995631012900,2.065012939453125,-0.07651081681251526,-0.004123337101191282,-0.09468404203653336
1711551995649972000,2.083971923828125,-0.005345067009329796,-0.0013744457392022014,-0.15790854394435883
1711551995668930800,2.102930908203125,0.0102319847792387,0.16997312009334564,-0.3292561173439026
1711551995687890200,2.12189013671875,-0.0798705667257309,0.6128500699996948,-0.6902772188186646
1711551995706849000,2.14084912109375,-0.13973531126976013,1.1122320890426636,-0.9676098227500916
1711551995725808400,2.159808349609375,-0.10583232343196869,1.404225468635559,-0.9227112531661987
1711551995744767500,2.178767578125,-0.06826414167881012,1.6412409543991089,-0.9657772183418274
1711551995763726300,2.197726318359375,-0.0902552679181099,1.670562505722046,-1.2076796293258667
1711551995782685700,2.216685791015625,-0.2029598206281662,1.345582365989685,-1.2815942764282227
1711551995801644500,2.23564453125,-0.26160284876823425,0.7377719283103943,-1.2440260648727417
1711551995820604000,2.25460400390625,-0.18127411603927612,0.06307178735733032,-1.2968659400939941
1711551995839563000,2.27356298828125,-0.14278964698314667,-0.5841394662857056,-1.397353172302246
1711551995858522000,2.292522216796875,-0.24113887548446655,-0.9149227142333984,-1.4837905168533325
1711551995877481200,2.311481201171875,-0.32360562682151794,-0.8504765033721924,-1.4972295761108398
1711551995896440300,2.3304404296875,-0.25060728192329407,-0.5838339924812317,-1.4804308414459229
1711551995915399400,2.3493994140625,-0.06215549260377884,-0.35964664816856384,-1.4471386671066284
1711551995934358500,2.368358642578125,0.06582067906856537,-0.1724165827035904,-1.4028509855270386
1711551995953317600,2.387317626953125,0.008093958720564842,0.11652245372533798,-1.423925757408142
1711551995972276700,2.40627685546875,-0.17638720571994781,0.39599308371543884,-1.4651591777801514
1711551995991235800,2.42523583984375,-0.36361727118492126,0.44638943672180176,-1.4184280633926392
1711551996010195000,2.44419482421875,-0.43661558628082275,0.27840161323547363,-1.296255111694336
1711551996029154000,2.463154052734375,-0.3565923273563385,-0.011453714221715927,-1.1224640607833862
1711551996048113400,2.482113525390625,-0.19043709337711334,-0.30833399295806885,-0.9737184643745422
1711551996067072300,2.501072265625,-0.08384118974208832,-0.4482220411300659,-0.9001092314720154
1711551996086031600,2.520031494140625,-0.05451968312263489,-0.4793761372566223,-0.8280271887779236
1711551996104990700,2.53899072265625,-0.08720094710588455,-0.407599538564682,-0.7425061464309692
1711551996123949800,2.55794970703125,-0.1406516134738922,-0.3013090491294861,-0.667064368724823
1711551996142909000,2.576908935546875,-0.1519526094198227,-0.1922696828842163,-0.6068941354751587
1711551996161868000,2.595867919921875,-0.12476912885904312,-0.025503603741526604,-0.5604684352874756
1711551996180827400,2.614827392578125,-0.1107192412018776,0.1617264449596405,-0.5125155448913574
1711551996199786200,2.6337861328125,-0.1156061589717865,0.2582430839538574,-0.4471530318260193
1711551996218745600,2.65274560546875,-0.1357647031545639,0.2393062710762024,-0.379347026348114
1711551996237704700,2.67170458984375,-0.1715002804994583,0.1617264449596405,-0.34605491161346436
1711551996256663800,2.690663818359375,-0.22006404399871826,0.10461059212684631,-0.37262752652168274
1711551996275623000,2.709622802734375,-0.24816381931304932,0.16386447846889496,-0.42424559593200684
1711551996294582000,2.72858203125,-0.15439607203006744,0.13271036744117737,-0.37293294072151184
1711551996313541000,2.747541015625,0.009010255336761475,0.05238165333867073,-0.15485422313213348
1711551996332500500,2.76650048828125,0.07376192510128021,0.08689551800489426,0.07116574794054031
1711551996351459600,2.78545947265625,-0.03527744114398956,0.09147699922323227,0.20891575515270233
1711551996370418700,2.804418701171875,-0.12476912885904312,0.018173227086663246,0.23518294095993042
1711551996389377800,2.823377685546875,-0.036193739622831345,-0.04810560122132301,0.21930044889450073
1711551996408337200,2.842337158203125,0.14217877388000488,-0.07315105944871902,0.22204934060573578
1711551996427296300,2.861296142578125,0.2435823380947113,-0.052076224237680435,0.2205221801996231
1711551996446255400,2.88025537109375,0.17944152653217316,0.017867794260382652,0.17745621502399445
1711551996465214500,2.89921435546875,0.013286309316754341,0.10888664424419403,0.08491020649671555
1711551996484173800,2.918173828125,-0.14340050518512726,0.15928299725055695,-0.000305432389723137
1711551996503133000,2.9371328125,-0.2380845546722412,0.12293653935194016,-0.040317077189683914
1711551996522092000,2.956092041015625,-0.2631300091743469,0.026419902220368385,-0.05345066636800766
1711551996541051100,2.975051025390625,-0.2393062710762024,-0.07254019379615784,-0.07788526266813278
1711551996560010500,2.994010498046875,-0.19135339558124542,-0.14278964698314667,-0.10018182545900345
1711551996578969600,3.012969482421875,-0.15225805342197418,-0.16905683279037476,-0.10018182545900345
1711551996597928700,3.0319287109375,-0.1366809904575348,-0.14004075527191162,-0.11698060482740402
1711551996616887800,3.0508876953125,-0.141262486577034,-0.064598947763443,-0.1591302752494812
1711551996635847200,3.06984716796875,-0.1311832070350647,0.04474584385752678,-0.17653992772102356
1711551996654806300,3.08880615234375,-0.0896444097161293,0.145843967795372,-0.13133592903614044
1711551996673765400,3.107765380859375,-0.04535670951008797,0.233503058552742,-0.04734202101826668
1711551996692724500,3.126724365234375,-0.016646064817905426,0.27779075503349304,0.004276053514331579
1711551996711683800,3.145683837890625,0.007483093533664942,0.19990549981594086,0.03695731982588768
1711551996730643000,3.164642822265625,0.016340631991624832,0.05146535858511925,0.06047561392188072
1711551996749602000,3.18360205078125,0.024892739951610565,-0.19379685819149017,0.05253437161445618
1711551996768561200,3.20256103515625,-0.03436114266514778,-0.4897608458995819,0.01588248461484909
1711551996787520500,3.2215205078125,-0.14767655730247498,-0.6449204683303833,0.003665188793092966
1711551996806479600,3.240479736328125,-0.24755294620990753,-0.5905535221099854,-0.003665188793092966
1711551996825438700,3.259438720703125,-0.26648977398872375,-0.44211336970329285,0.003359756199643016
1711551996844398000,3.278398193359375,-0.2637408673763275,-0.29856017231941223,0.015271619893610477
1711551996863357200,3.297357177734375,-0.34193155169487,-0.06215549260377884,0.020769402384757996
1711551996882316500,3.316316650390625,-0.4027126133441925,0.1721111536026001,0.06505709886550903
1711551996901275600,3.335275634765625,-0.41157013177871704,0.1870773434638977,0.10323614627122879
1711551996920234800,3.35423486328125,-0.434783011674881,0.06001746281981468,0.07360920310020447
1711551996939193900,3.37319384765625,-0.4607447683811188,-0.12843431532382965,0.04245510324835777
1711551996958153200,3.3921533203125,-0.41492989659309387,-0.3309359848499298,0.03176496922969818
1711551996977112300,3.4111123046875,-0.33429574966430664,-0.5031998753547668,-0.024740023538470268
1711551996996071400,3.430071533203125,-0.2286161482334137,-0.6549997329711914,-0.07024945318698883
1711551997015030800,3.44903076171875,-0.09056070446968079,-0.7487674951553345,-0.05955931544303894
1711551997033990000,3.467989990234375,0.08261945843696594,-0.7762564420700073,-0.035124726593494415
1711551997052949200,3.48694921875,0.25152358412742615,-0.7463240623474121,-0.06352993845939636
1711551997071908400,3.505908447265625,0.3773617148399353,-0.6223185062408447,-0.16096286475658417
1711551997090867500,3.524867431640625,0.4402807950973511,-0.41584619879722595,-0.2516762912273407
1711551997109826800,3.543826904296875,0.46135562658309937,-0.18310672044754028,-0.2861901521682739
1711551997128786000,3.562785888671875,0.4247037470340729,0.07651081681251526,-0.3020726442337036
1711551997147745000,3.5817451171875,0.3477347791194916,0.3358229100704193,-0.3066541254520416
1711551997166704400,3.600704345703125,0.295811265707016,0.48243045806884766,-0.2788597643375397
1711551997185663500,3.61966357421875,0.2704603672027588,0.4754055142402649,-0.2574795186519623
1711551997204622600,3.63862255859375,0.18890993297100067,0.3715584874153137,-0.2770271897315979
1711551997223582000,3.65758203125,0.056657709181308746,0.22128576040267944,-0.29535311460494995
1711551997242541000,3.676541015625,-0.052687086164951324,0.029474224895238876,-0.2608392536640167
1711551997261500400,3.69550048828125,-0.12354740500450134,-0.1614210158586502,-0.21471896767616272
1711551997280459500,3.71445947265625,-0.16966769099235535,-0.30802857875823975,-0.18723005056381226
1711551997299418600,3.733418701171875,-0.18555018305778503,-0.3452913165092468,-0.1545487940311432
1711551997318378000,3.7523779296875,-0.1721111536026001,-0.32910341024398804,-0.11728604137897491
1711551997337337000,3.771337158203125,-0.17424917221069336,-0.24144430458545685,-0.11148282140493393
1711551997356296400,3.79029638671875,-0.16814053058624268,-0.11713331937789917,-0.11881320178508759
1711551997375255600,3.809255615234375,-0.14920371770858765,-0.016340631991624832,-0.12980876863002777
1711551997394214700,3.828214599609375,-0.1513417512178421,0.06307178735733032,-0.14752385020256042
1711551997413174000,3.847174072265625,-0.1571449637413025,0.13881902396678925,-0.16310089826583862
1711551997432133000,3.866133056640625,-0.10399972647428513,0.11346813291311264,-0.1649334877729416
1711551997451092500,3.885092529296875,0.005345067009329796,0.0639880821108818,-0.14660754799842834
1711551997470051600,3.904051513671875,0.12354740500450134,0.0792597085237503,-0.12186752259731293
1711551997489010700,3.9230107421875,0.14706569910049438,0.13698641955852509,-0.13744457066059113
1711551997507970000,3.941969970703125,0.10369429737329483,0.19349141418933868,-0.16096286475658417
1711551997526929200,3.96092919921875,0.08170316368341446,0.21578797698020935,-0.14263692498207092
1711551997545888500,3.979888427734375,0.0847574844956398,0.19624030590057373,-0.0922405794262886
1711551997564847600,3.99884765625,0.060322895646095276,0.21731515228748322,-0.059864748269319534
1711551997583807000,4.017806884765625,0.008093958720564842,0.25793763995170593,-0.029626941308379173
1711551997602766000,4.03676611328125,-0.03955349326133728,0.2383899837732315,0.016798781231045723
1711551997621725400,4.055725341796875,-0.07864884287118912,0.1513417512178421,0.038789913058280945
1711551997640684500,4.0746845703125,-0.10399972647428513,0.01908952370285988,0.007941242307424545
1711551997659644000,4.093643798828125,-0.13484840095043182,-0.058795735239982605,-0.07483093440532684
1711551997678603000,4.11260302734375,-0.208152174949646,0.030390523374080658,-0.1337793916463852
1711551997697562400,4.131562255859375,-0.24602578580379486,0.18127411603927612,-0.10934479534626007
1711551997716521500,4.150521484375,-0.16539163887500763,0.20418155193328857,-0.02260199747979641
1711551997735480800,4.169480712890625,-0.02000582218170166,0.002290742937475443,0.04581485688686371
1711551997754440000,4.18843994140625,0.11896591633558273,-0.24724751710891724,0.04153880476951599
1711551997773399000,4.20739892578125,0.21059563755989075,-0.360868364572525,-0.0027488914784044027
1711551997792358400,4.2263583984375,0.23777911067008972,-0.24174973368644714,-0.036651886999607086
1711551997811317500,4.2453173828125,0.19471314549446106,-0.0038179049734026194,-0.04886918142437935
1711551997830276900,4.26427685546875,0.10277800261974335,0.2029598206281662,-0.051618073135614395
1711551997849236000,4.283236083984375,0.013897174037992954,0.31810784339904785,-0.06811141967773438
1711551997868195300,4.3021953125,-0.02825249545276165,0.3370446562767029,-0.10109812021255493
1711551997887154700,4.32115478515625,-0.01908952370285988,0.27259841561317444,-0.11942406743764877
1711551997906113800,4.34011376953125,0.0001527161948615685,0.1614210158586502,-0.10995566099882126
1711551997925073000,4.359072998046875,-0.002290742937475443,0.04627300798892975,-0.08032871782779694
1711551997944032300,4.3780322265625,-0.014813470654189587,-0.04321868345141411,-0.029932374134659767
1711551997962991400,4.396991455078125,-0.02153298258781433,-0.0902552679181099,0.021380268037319183
1711551997981950700,4.41595068359375,-0.02000582218170166,-0.10888664424419403,0.054672397673130035
1711551998000909800,4.434909912109375,-0.019394956529140472,-0.141262486577034,0.07941242307424545
1711551998019869200,4.453869140625,-0.023365577682852745,-0.14462223649024963,0.0974329337477684
1711551998038828300,4.472828369140625,-0.04566214233636856,-0.08720094710588455,0.08643736690282822
1711551998057787600,4.49178759765625,-0.06856957077980042,-0.019700389355421066,0.05436696484684944
1711551998076746800,4.510746826171875,-0.08353576064109802,0.02916879393160343,0.02779434807598591
1711551998095706000,4.5297060546875,-0.10369429737329483,0.07131846249103546,0.022296564653515816
1711551998114665200,4.548665283203125,-0.10644318908452988,0.10644318908452988,0.026572618633508682
1711551998133624600,4.56762451171875,-0.07162389904260635,0.10094540566205978,0.02932151034474373
1711551998152583700,4.586583740234375,-0.02367101050913334,0.058795735239982605,0.023518294095993042
1711551998171543000,4.60554296875,-0.0025961752980947495,-0.0019853105768561363,0.010995565913617611
1711551998190502400,4.62450244140625,-0.011148282326757908,-0.05329795181751251,-0.000305432389723137
1711551998209461500,4.64346142578125,-0.014202605932950974,-0.07681624591350555,-0.0054977829568088055
1711551998228420600,4.662420654296875,-0.005039634648710489,-0.06704241037368774,-0.01893680728971958
1711551998247380000,4.6813798828125,0.016340631991624832,-0.0334448479115963,-0.032070402055978775
1711551998266339000,4.700339111328125,0.04718930274248123,0.02214384824037552,-0.03695731982588768
1711551998285298400,4.71929833984375,0.06154462695121765,0.0487164668738842,-0.033597562462091446
1711551998304257800,4.7382578125,0.05543597787618637,0.0383317656815052,-0.01954767294228077
1711551998323217000,4.757216796875,0.06582067906856537,0.014813470654189587,-0.013744457624852657
1711551998342176000,4.776176025390625,0.10705405473709106,-0.010842849500477314,-0.044898562133312225
1711551998361135400,4.79513525390625,0.19868376851081848,-0.046883873641490936,-0.12950333952903748
1711551998380094500,4.814094482421875,0.29672756791114807,-0.09636391699314117,-0.21960589289665222
1711551998399053800,4.8330537109375,0.34345871210098267,-0.040775224566459656,-0.27000224590301514
1711551998418013200,4.85201318359375,0.3513999581336975,0.06276635825634003,-0.26908594369888306
1711551998436972300,4.87097216796875,0.28725916147232056,0.25549420714378357,-0.25534147024154663
1711551998455931600,4.889931640625,0.23564109206199646,0.48304131627082825,-0.22968515753746033
1711551998474890800,4.908890869140625,0.3272708058357239,0.5264127254486084,-0.17348559200763702
1711551998493850000,4.92785009765625,0.5908589363098145,0.3174969553947449,-0.1536324918270111
1711551998512809200,4.946809326171875,1.11345374584198,-0.2029598206281662,-0.10873392969369888
1711551998531768600,4.9657685546875,1.5416699647903442,-0.6311760544776917,0.21807873249053955
1711551998550727700,4.984727783203125,1.4900518655776978,-0.939357340335846,0.7330377101898193
1711551998569687000,5.00368701171875,1.3822343349456787,-1.3064870834350586,1.0079269409179688
1711551998588646100,5.022646240234375,1.5239548683166504,-1.4479022026062012,1.0259474515914917
1711551998607605500,5.04160546875,1.7148501873016357,-1.169347882270813,1.0454950332641602
1711551998626564900,5.06056494140625,1.7466151714324951,-0.6443096399307251,1.0045671463012695
1711551998645524000,5.07952392578125,1.6656755208969116,0.04260781779885292,0.8665117025375366
1711551998664483300,5.0984833984375,1.5453351736068726,0.763428270816803,0.6792816519737244
1711551998683442400,5.1174423828125,1.4943280220031738,1.2731949090957642,0.40927940607070923
1711551998702401800,5.13640185546875,1.486386775970459,1.550527572631836,0.19303326308727264
1711551998721361000,5.15536083984375,1.4628684520721436,1.5535818338394165,0.05283980444073677
1711551998740320300,5.1743203125,1.4463751316070557,1.3523019552230835,-0.1389717310667038
1711551998759279400,5.193279296875,1.4463751316070557,1.1311688423156738,-0.2202167510986328
1711551998778238700,5.21223876953125,1.384372353553772,1.0499238967895508,-0.10354158282279968
1711551998797197800,5.23119775390625,1.2606722116470337,1.0942115783691406,0.040317077189683914
1711551998816157200,5.2501572265625,1.1641556024551392,1.2212713956832886,0.09162971377372742
1711551998835116500,5.269116455078125,0.9763146042823792,1.3727658987045288,0.09071341902017593
1711551998854075600,5.28807568359375,0.698371171951294,1.2652536630630493,0.15302163362503052
1711551998873034800,5.30703466796875,0.485484778881073,0.8159626126289368,0.16859868168830872
1711551998891994000,5.325994140625,0.40118545293807983,0.17944152653217316,0.010079269297420979
1711551998910953500,5.344953369140625,0.3721693754196167,-0.39141160249710083,-0.08857539296150208
1711551998929912600,5.36391259765625,0.2338084876537323,-0.9384410381317139,-0.049480047076940536
1711551998948872000,5.382871826171875,0.1357647031545639,-1.226463794708252,-0.12003492563962936
1711551998967831000,5.4018310546875,0.05940660089254379,-1.0691660642623901,-0.3704894781112671
1711551998986790400,5.420790283203125,-0.11743875592947006,-0.5297724604606628,-0.535728394985199
1711551999005749800,5.439749755859375,-0.3623955249786377,0.06062832847237587,-0.4456258714199066
1711551999024708900,5.458708984375,-0.49281516671180725,0.5175551772117615,-0.25381430983543396
1711551999043668200,5.477668212890625,-0.3355174660682678,0.5792525410652161,-0.002443459117785096
1711551999062627300,5.49662744140625,-0.04841103404760361,0.1663079410791397,0.35124725103378296
1711551999081586700,5.515586669921875,0.1253799945116043,-0.46166107058525085,0.5858193039894104
1711551999100545800,5.5345458984375,0.10308343172073364,-0.8917098641395569,0.5714640021324158
1711551999119505200,5.553505126953125,-0.016340631991624832,-1.0499238967895508,0.4358520209789276
1711551999138464300,5.57246435546875,-0.11499529331922531,-0.9436333775520325,0.3039052188396454
1711551999157423600,5.591423583984375,-0.12140937149524689,-0.6354520916938782,0.20127993822097778
1711551999176383000,5.610383056640625,-0.09636391699314117,-0.3568977415561676,0.12583814561367035
1711551999195342000,5.629342041015625,-0.052687086164951324,-0.2383899837732315,0.07483093440532684
1711551999214301400,5.648301513671875,-0.030085090547800064,-0.19990549981594086,0.07330377399921417
1711551999233260500,5.667260498046875,-0.02672533318400383,-0.22128576040267944,0.07544180005788803
1711551999252220000,5.686219970703125,-0.014202605932950974,-0.27626359462738037,0.12156209349632263
1711551999271179300,5.70517919921875,-0.0001527161948615685,-0.300392746925354,0.1597411334514618
1711551999290138400,5.724138427734375,0.004428769461810589,-0.2438877671957016,0.15699224174022675
1711551999309097500,5.743097412109375,-0.016340631991624832,-0.13698641955852509,0.1130099818110466
1711551999328056800,5.762056884765625,-0.039248060435056686,-0.030390523374080658,0.08429934084415436
1711551999347016200,5.78101611328125,-0.057268574833869934,0.044440411031246185,0.06994401663541794
1711551999365975300,5.799975341796875,-0.05971203371882439,0.056657709181308746,0.0409279391169548
1711551999384934700,5.8189345703125,-0.04627300798892975,0.0019853105768561363,0.007941242307424545
1711551999403894000,5.83789404296875,-0.02000582218170166,-0.07681624591350555,-0.0015271619195118546
1711551999422853000,5.85685302734375,-0.005039634648710489,-0.15378521382808685,0.03023780696094036
1711551999441812500,5.8758125,-0.0025961752980947495,-0.21181736886501312,0.07574722915887833
1711551999460771600,5.894771484375,-0.00045814859913662076,-0.19990549981594086,0.11178825795650482
1711551999479731000,5.91373095703125,-0.0019853105768561363,-0.13515383005142212,0.12217295914888382
1711551999498690300,5.932690185546875,-0.002290742937475443,-0.07040216773748398,0.11331541836261749
1711551999517649400,5.9516494140625,-0.012980876490473747,-0.021227551624178886,0.0769689604640007
1711551999536608800,5.97060888671875,-0.033139415085315704,-0.009010255336761475,0.024434590712189674
1711551999555568000,5.989568115234375,-0.06368265300989151,-0.024892739951610565,-0.017715077847242355
1711551999574527200,6.00852734375,-0.07009673118591309,-0.03283398225903511,-0.04001164436340332
1711551999593486300,6.027486328125,-0.03191768378019333,-0.024892739951610565,-0.0308486707508564
1711551999612445700,6.04644580078125,0.004734201822429895,-0.008704823441803455,-0.007024944759905338
1711551999631405000,6.065405029296875,0.0102319847792387,0.0032070400193333626,0.018325943499803543
1711551999650364200,6.0843642578125,0.0010690133785828948,0.012675444595515728,0.03634645417332649
1711551999669323500,6.103323486328125,-0.01908952370285988,0.01359174121171236,0.03176496922969818
1711551999688283000,6.122282958984375,-0.033139415085315704,0.004123337101191282,0.006414080038666725
1711551999707242000,6.141241943359375,-0.03405570983886719,-0.007788525894284248,-0.01588248461484909
1711551999726201300,6.160201416015625,-0.02916879393160343,-0.008093958720564842,-0.020769402384757996
1711551999745160700,6.17916064453125,-0.017562363296747208,-0.002901607658714056,-0.009162971749901772
1711551999764119800,6.198119873046875,-0.009010255336761475,0.005039634648710489,0.001832594396546483
1711551999783079200,6.2170791015625,-0.0062613640911877155,0.013897174037992954,-0.001221729558892548
1711551999802038500,6.23603857421875,-0.005039634648710489,0.0102319847792387,0.004581485874950886
1711551999820997600,6.25499755859375,-0.014202605932950974,0.008399390615522861,0.011911863461136818
1711551999839957000,6.27395703125,-0.026419902220368385,0.001679878099821508,0.008857538923621178
1711551999858916400,6.292916259765625,-0.022449281066656113,-0.01359174121171236,0.010079269297420979
1711551999877875500,6.31187548828125,-0.0038179049734026194,-0.02764163166284561,0.01649334840476513
1711551999896834800,6.330834716796875,0.009010255336761475,-0.03252854943275452,0.019242240116000175
1711551999915794000,6.3497939453125,0.0013744457392022014,-0.03558287397027016,-0.0030543238390237093
1711551999934753300,6.368753173828125,-0.006566796451807022,-0.01206457894295454,-0.013439024798572063
1711551999953712600,6.387712646484375,0.004734201822429895,0.0001527161948615685,-0.005192350596189499
1711551999972672000,6.406672119140625,0.02153298258781433,0.005345067009329796,0.0009162971982732415
1711551999991631000,6.425631103515625,0.008093958720564842,0.012675444595515728,-0.00946840364485979
1711552000010590500,6.444590576171875,-0.025809036567807198,0.02306014485657215,-0.021685699000954628
1711552000029549800,6.4635498046875,-0.0062613640911877155,0.02916879393160343,-0.009162971749901772
1711552000048509000,6.482509033203125,0.040775224566459656,0.03711003437638283,-0.000610864779446274
1711552000067468300,6.50146826171875,0.04230238497257233,0.021838415414094925,-0.007330377586185932
1711552000086427600,6.520427734375,-0.005955931730568409,-0.011759147047996521,-0.013744457624852657
1711552000105387000,6.539386962890625,-0.036193739622831345,-0.0154243353754282,-0.009162971749901772
1711552000124346000,6.55834619140625,-0.021838415414094925,-0.014813470654189587,-0.003665188793092966
1711552000143305500,6.577305419921875,0.0010690133785828948,-0.03130681812763214,0.003359756199643016
1711552000162264800,6.596264892578125,0.0019853105768561363,-0.04566214233636856,0.010690134018659592
1711552000181224000,6.615223876953125,-0.007788525894284248,-0.027947064489126205,0.01802051067352295
1711552000200183300,6.634183349609375,-0.012370011769235134,-0.02000582218170166,0.008857538923621178
1711552000219142700,6.653142578125,-0.022449281066656113,-0.016340631991624832,-0.010384701192378998
1711552000238102000,6.67210205078125,-0.0896444097161293,0.005345067009329796,-0.032070402055978775
1711552000257061000,6.69106103515625,-0.18585561215877533,0.02367101050913334,-0.05100720748305321
1711552000276020500,6.7100205078125,-0.25549420714378357,0.12232567369937897,-0.1078176349401474
1711552000294979800,6.728979736328125,-0.33765551447868347,0.14278964698314667,-0.18723005056381226
1711552000313939200,6.747939208984375,-0.45738500356674194,0.19135339558124542,-0.27519458532333374
1711552000332898300,6.766898193359375,-0.5181660652160645,0.4851793646812439,-0.318871408700943
1711552000351858000,6.78585791015625,-0.397825688123703,0.8975130915641785,-0.16859868168830872
1711552000370817000,6.804817138671875,-0.0792597085237503,1.0932952165603638,-0.032070402055978775
1711552000389776400,6.8237763671875,0.16019928455352783,0.838259220123291,0.006414080038666725
1711552000408735700,6.84273583984375,0.17516547441482544,0.3584249019622803,0.13133592903614044
1711552000427695000,6.861695068359375,0.13240493834018707,0.01847865991294384,0.20250166952610016
1711552000446654500,6.880654541015625,0.18341214954853058,-0.1516471803188324,0.17745621502399445
1711552000465613600,6.899613525390625,0.187382772564888,-0.125074565410614,0.13439024984836578
1711552000484573000,6.918572998046875,0.14248420298099518,0.09880737960338593,0.07757982611656189
1711552000503532300,6.9375322265625,0.13423752784729004,0.29825472831726074,0.023518294095993042
1711552000522491600,6.95649169921875,0.13515383005142212,0.3770562708377838,-0.09193515032529831
1711552000541451000,6.975450927734375,0.03405570983886719,0.46196648478507996,-0.2730565667152405
1711552000560410000,6.99441015625,-0.10063996911048889,0.4607447683811188,-0.4224129915237427
1711552000579369500,7.013369384765625,-0.01359174121171236,0.3782780170440674,-0.5717694163322449
1711552000598328800,7.032328857421875,0.3174969553947449,0.49403688311576843,-0.5335903763771057
1711552000617288200,7.0512880859375,0.443945974111557,0.7188351154327393,-0.16768237948417664
1711552000636247600,7.07024755859375,0.30283620953559875,0.7035635113716125,0.3042106628417969
1711552000655206700,7.08920654296875,0.26190826296806335,0.4027126133441925,0.5919279456138611
1711552000674166000,7.108166015625,0.3678933084011078,0.023365577682852745,0.7150171995162964
1711552000693125400,7.12712548828125,0.41523534059524536,-0.27626359462738037,0.7718276381492615
1711552000712084700,7.146084716796875,0.3868301212787628,-0.378888875246048,0.7822123765945435
1711552000731044000,7.165044189453125,0.3303251266479492,-0.3110828995704651,0.7819069027900696
1711552000750003500,7.18400341796875,0.20540328323841095,-0.1357647031545639,0.7791580557823181
1711552000768962800,7.202962890625,0.03222311660647392,0.060322895646095276,0.7443387508392334
1711552000787922200,7.221922119140625,-0.12660172581672668,0.16661337018013,0.694247841835022
1711552000806881500,7.240881591796875,-0.2490801066160202,0.1516471803188324,0.581848680973053
1711552000825840600,7.259840576171875,-0.3575085997581482,0.2136499583721161,0.5897899270057678
1711552000844800000,7.278800048828125,-0.605519711971283,0.21548254787921906,0.767551600933075
1711552000863759400,7.29775927734375,-0.7151699662208557,-0.4967857897281647,0.7785471677780151
1711552000882718700,7.31671875,-0.2860374450683594,-1.6278018951416016,0.5711585879325867
1711552000901678000,7.335677978515625,0.2838993966579437,-2.508668899536133,0.15790854394435883
1711552000920637400,7.354637451171875,0.43600472807884216,-2.578307628631592,0.14080433547496796
1711552000939596800,7.3735966796875,0.1672242283821106,-1.8327471017837524,0.4196641147136688
1711552000958556200,7.39255615234375,0.015729768201708794,-0.5285507440567017,0.5198459029197693
1711552000977515500,7.411515625,0.17027856409549713,0.41126471757888794,0.2568686306476593
1711552000996475000,7.430474853515625,0.18860450387001038,0.8657481074333191,-0.18723005056381226
1711552001015434200,7.449434326171875,0.009315688163042068,1.1339176893234253,-0.4514290690422058
1711552001034393600,7.4683935546875,-0.15470150113105774,1.1647664308547974,-0.4987711012363434
1711552001053352700,7.487352783203125,-0.19349141418933868,0.8617774844169617,-0.4355465769767761
1711552001072312000,7.50631201171875,-0.1415679156780243,0.29306238889694214,-0.33169957995414734
1711552001091271400,7.525271484375,-0.044440411031246185,-0.30314165353775024,-0.18112140893936157
1711552001110231000,7.54423095703125,0.04260781779885292,-0.7735075354576111,0.05436696484684944
1711552001129190100,7.563190185546875,0.0847574844956398,-0.994640588760376,0.25900667905807495
1711552001148149500,7.5821494140625,0.05971203371882439,-0.8782708644866943,0.324063777923584
1711552001167108900,7.60110888671875,-0.017562363296747208,-0.523969292640686,0.2776380479335785
1711552001186068200,7.620068115234375,-0.1049160286784172,-0.13423752784729004,0.1853974610567093
1711552001205027600,7.639027587890625,-0.17088942229747772,0.16019928455352783,0.11331541836261749
1711552001223987000,7.657987060546875,-0.2029598206281662,0.2811505198478699,0.06994401663541794
1711552001242946300,7.6769462890625,-0.19685117900371552,0.21914774179458618,0.053756099194288254
1711552001261905700,7.69590576171875,-0.17363831400871277,0.02977965772151947,0.06872228533029556
1711552001280865000,7.714864990234375,-0.15592323243618011,-0.18005239963531494,0.10842850059270859
1711552001299824400,7.733824462890625,-0.13484840095043182,-0.34193155169487,0.16126830875873566
1711552001318783700,7.75278369140625,-0.08659008145332336,-0.28848087787628174,0.13500112295150757
1711552001337743000,7.7717431640625,-0.08689551800489426,-0.04535670951008797,0.01740964688360691
1711552001356702500,7.790702392578125,-0.06154462695121765,0.36392268538475037,-0.09590577334165573
1711552001375662000,7.809662109375,0.09117157012224197,0.7435751557350159,-0.22999058663845062
1711552001394621200,7.82862109375,0.4033234715461731,0.8416189551353455,-0.3995055556297302
1711552001413580500,7.84758056640625,0.6742420196533203,0.8397863507270813,-0.619722306728363
1711552001432540000,7.866539794921875,0.7478511929512024,1.0172425508499146,-0.6514872908592224
1711552001451499300,7.885499267578125,0.6947059631347656,1.1583523750305176,-0.4175260663032532
1711552001470458600,7.904458740234375,0.6354520916938782,1.1898118257522583,-0.29535311460494995
1711552001489418000,7.92341796875,0.6553052067756653,1.0752747058868408,-0.3607156574726105
1711552001508377600,7.942377685546875,0.716086208820343,1.0053306818008423,-0.3243691921234131
1711552001527337000,7.9613369140625,0.6479747891426086,0.9314160943031311,-0.1594357043504715
1711552001546296300,7.98029638671875,0.540768027305603,0.9234748482704163,0.0204639695584774
1711552001565255700,7.999255615234375,0.4555523991584778,0.9925025701522827,0.1737910360097885
1711552001584215000,8.018215087890624,0.3572031855583191,0.8703296184539795,0.25870123505592346
1711552001603174400,8.03717431640625,0.31902414560317993,0.6168206930160522,0.45539969205856323
1711552001622133800,8.0561337890625,0.20540328323841095,0.3119991719722748,0.7202095985412598
1711552001641093000,8.075093017578125,0.06673697382211685,-0.05329795181751251,0.8998038172721863
1711552001660052500,8.094052490234375,0.018173227086663246,-0.42562004923820496,1.015562653541565
1711552001679011800,8.11301171875,-0.03955349326133728,-0.910952091217041,1.0607666969299316
1711552001697971200,8.13197119140625,-0.1207985132932663,-1.510210394859314,0.9950987100601196
1711552001716930600,8.1509306640625,-0.09330959618091583,-2.0438008308410645,0.8998038172721863
1711552001735890200,8.16989013671875,0.003512472379952669,-2.0777037143707275,0.7525854110717773
1711552001754849500,8.188849609375,0.0639880821108818,-1.4601194858551025,0.46059203147888184
1711552001773809000,8.207808837890624,0.13820815086364746,-0.6818777918815613,0.0054977829568088055
1711552001792768300,8.226768310546875,0.3917170464992523,0.2444986253976822,-0.4251618981361389
1711552001811727600,8.2457275390625,0.4195113778114319,1.281441569328308,-0.481361448764801
1711552001830687000,8.26468701171875,0.17516547441482544,1.9396483898162842,-0.3029889166355133
1711552001849646300,8.283646240234376,0.04627300798892975,1.921017050743103,-0.12156209349632263
1711552001868605700,8.302605712890625,0.11133010685443878,1.1635446548461914,-0.012522728182375431
1711552001887565300,8.3215654296875,0.1715002804994583,0.24236060678958893,-0.003970621153712273
1711552001906524700,8.340524658203124,0.11835505068302155,-0.5025889873504639,0.014660755172371864
1711552001925484000,8.359484130859375,-0.031001387163996696,-0.8752164840698242,-0.009773836471140385
1711552001944443400,8.378443359375,-0.20418155193328857,-0.6684387922286987,-0.11148282140493393
1711552001963402800,8.39740283203125,-0.3315468728542328,-0.1049160286784172,-0.26450446248054504
1711552001982362000,8.416362060546875,-0.3923279047012329,0.31444263458251953,-0.30054548382759094
1711552002001321500,8.435321533203124,-0.3883572816848755,0.5047270059585571,-0.24465134739875793
1711552002020280800,8.45428076171875,-0.3370446562767029,0.4173733592033386,-0.12431098520755768
1711552002039240200,8.473240234375,-0.27840161323547363,0.19501857459545135,0.0565049909055233
1711552002058199600,8.492199462890625,-0.22006404399871826,0.007177661173045635,0.19761475920677185
1711552002077159200,8.5111591796875,-0.14492766559123993,-0.19532401859760284,0.3094030022621155
1711552002096118500,8.530118408203125,-0.01359174121171236,-0.3730856776237488,0.2626718580722809
1711552002115078000,8.549077880859375,0.15989385545253754,-0.43172869086265564,0.0977383628487587
1711552002134037200,8.568037353515624,0.12843431532382965,-0.2887863218784332,0.043371398001909256
1711552002152996600,8.58699658203125,-0.10735948383808136,-0.008704823441803455,0.06750056147575378
1711552002171956000,8.6059560546875,-0.2909243404865265,0.2286161482334137,0.021380268037319183
1711552002190915600,8.62491552734375,-0.2952004075050354,0.31719154119491577,-0.035124726593494415
1711552002209875000,8.643875,-0.1815795600414276,0.2994764447212219,-0.10048725455999374
1711552002228834300,8.662834228515624,-0.04993819445371628,0.228921577334404,-0.13439024984836578
1711552002247793700,8.681793701171875,-0.01206457894295454,0.15347976982593536,-0.13225223124027252
1711552002266753000,8.7007529296875,-0.05818486958742142,0.1773035079240799,-0.17287473380565643
1711552002285712400,8.71971240234375,-0.15958842635154724,0.2997818887233734,-0.250149130821228
1711552002304671700,8.738671630859375,-0.23777911067008972,0.49861836433410645,-0.31001389026641846
1711552002323631000,8.757631103515624,-0.27626359462738037,0.671187698841095,-0.29565855860710144
1711552002342590700,8.7765908203125,-0.281455934047699,0.6931788325309753,-0.2614501118659973
1711552002361550000,8.795550048828124,-0.2591593861579895,0.4851793646812439,-0.22846342623233795
1711552002380509400,8.814509521484375,-0.2234237939119339,0.0948367565870285,-0.210442915558815
1711552002399468800,8.83346875,-0.2383899837732315,-0.2658788859844208,-0.18356487154960632
1711552002418428400,8.852428466796875,-0.33429574966430664,-0.5123628377914429,-0.13744457066059113
1711552002437387800,8.8713876953125,-0.37583455443382263,-0.6910407543182373,-0.060781046748161316
1711552002456347100,8.89034716796875,-0.24236060678958893,-0.6311760544776917,-0.0766635313630104
1711552002475306500,8.909306396484375,-0.13423752784729004,-0.5047270059585571,-0.10629047453403473
1711552002494265900,8.928265869140626,-0.12996147572994232,-0.35964664816856384,-0.12950333952903748
1711552002513225200,8.94722509765625,-0.18829907476902008,-0.24785839021205902,-0.11881320178508759
1711552002532184600,8.9661845703125,-0.24297146499156952,-0.19379685819149017,-0.05436696484684944
1711552002551144000,8.98514404296875,-0.24052800238132477,-0.16264274716377258,-0.003665188793092966
1711552002570103600,9.004103515625,-0.20051635801792145,-0.18585561215877533,-0.038789913058280945
1711552002589063000,9.02306298828125,-0.1974620372056961,-0.25579962134361267,-0.1484401375055313
1711552002608022300,9.042022216796875,-0.23747368156909943,-0.3627009689807892,-0.19944734871387482
1711552002626981600,9.060981689453126,-0.2811505198478699,-0.35903576016426086,-0.23273947834968567
1711552002645941200,9.079941162109375,-0.2805396616458893,-0.2536616027355194,-0.3289506733417511
1711552002664900600,9.098900634765625,-0.17577634751796722,-0.06765327602624893,-0.48533207178115845
1711552002683860000,9.11785986328125,-0.07834340631961823,0.22220206260681152,-0.5259546041488647
1711552002702819300,9.1368193359375,-0.09728021919727325,0.4705185890197754,-0.471587598323822
1711552002721778700,9.15577880859375,-0.07070759683847427,0.5655080676078796,-0.4526508152484894
1711552002740738000,9.174738037109375,0.06765327602624893,0.5212203860282898,-0.4838049113750458
1711552002759697400,9.193697509765625,0.17852523922920227,0.47723811864852905,-0.5531380772590637
1711552002778657000,9.212656982421874,0.1464548259973526,0.43661558628082275,-0.5980366468429565
1711552002797616400,9.231616455078125,0.012980876490473747,0.36942046880722046,-0.5613847374916077
1711552002816575700,9.25057568359375,-0.08292489498853683,0.33490660786628723,-0.5045742988586426
1711552002835535000,9.26953515625,-0.08292489498853683,0.3162752389907837,-0.4621191918849945
1711552002854494500,9.288494384765626,-0.056657709181308746,0.2695440948009491,-0.38759371638298035
1711552002873453800,9.307453857421875,-0.049632761627435684,0.18616104125976562,-0.2776380479335785
1711552002892413400,9.326413330078125,-0.06734783947467804,0.08048143237829208,-0.16065743565559387
1711552002911372800,9.345372802734374,-0.09972367435693741,-0.025809036567807198,-0.05436696484684944
1711552002930332200,9.364332275390625,-0.10308343172073364,-0.12415826320648193,0.011606430634856224
1711552002949291500,9.38329150390625,-0.06979130208492279,-0.16294817626476288,0.029932374134659767
1711552002968251000,9.4022509765625,-0.013286309316754341,-0.1721111536026001,0.021685699000954628
1711552002987210500,9.42121044921875,0.07528908550739288,-0.1922696828842163,0.007941242307424545
1711552003006169900,9.440169921875,0.20937390625476837,-0.10797034949064255,-0.035124726593494415
1711552003025129200,9.459129150390625,0.3199404180049896,0.061850059777498245,0.0015271619195118546
1711552003044088600,9.478088623046874,0.4405862092971802,0.25671592354774475,0.1588248461484909
1711552003063048000,9.4970478515625,0.5755873322486877,0.4240928590297699,0.21288637816905975
1711552003082007300,9.51600732421875,0.7234166264533997,0.4240928590297699,0.13194678723812103
1711552003100966700,9.534966552734375,0.8840740323066711,0.33887723088264465,0.10506874322891235
1711552003119926000,9.553926025390625,0.9311106204986572,0.34345871210098267,0.19211697578430176
1711552003138885600,9.5728857421875,0.8633046746253967,0.34956738352775574,0.24312418699264526
1711552003157845000,9.591844970703125,0.8348994255065918,0.35873034596443176,0.23915356397628784
1711552003176804400,9.610804443359376,0.8468112945556641,0.3764454126358032,0.23976442217826843
1711552003195763700,9.629763671875,0.7845031023025513,0.44730573892593384,0.3020726442337036
1711552003214723300,9.648723388671876,0.5728384256362915,0.45799586176872253,0.33322674036026
1711552003233682700,9.6676826171875,0.36483898758888245,0.37094762921333313,0.3497200906276703
1711552003252642000,9.68664208984375,0.22128576040267944,0.24510949850082397,0.38301220536231995
1711552003271601400,9.705601318359374,0.0896444097161293,-0.11621702462434769,0.4068359434604645
1711552003290560800,9.724560791015625,-0.0539088174700737,-0.6693550944328308,0.4401280879974365
1711552003309520100,9.74352001953125,-0.17424917221069336,-1.142469882965088,0.49144071340560913
1711552003328479500,9.7624794921875,-0.25152358412742615,-1.4323252439498901,0.528092622756958
1711552003347438800,9.78143896484375,-0.3000873327255249,-1.4650064706802368,0.5360338687896729
1711552003366398500,9.8003984375,-0.2680169343948364,-1.215162754058838,0.5238165259361267
1711552003385357800,9.81935791015625,-0.03802633285522461,-0.8370374441146851,0.5134318470954895
1711552003404317200,9.838317138671876,0.19471314549446106,-0.3663661479949951,0.6038398146629333
1711552003423276500,9.857276611328125,0.17363831400871277,0.039858926087617874,0.7507528066635132
1711552003442236000,9.87623583984375,0.05849030241370201,0.23655737936496735,0.8109229803085327
1711552003461195500,9.895195556640624,-0.0062613640911877155,0.2182314395904541,0.757777750492096
1711552003480155000,9.91415478515625,-0.07162389904260635,0.07742711156606674,0.6753110289573669
1711552003499114200,9.9331142578125,-0.15042544901371002,-0.11499529331922531,0.6212494969367981
1711552003518073600,9.952073486328125,-0.21181736886501312,-0.3153589367866516,0.5876519083976746
1711552003537033000,9.971032958984376,-0.27168211340904236,-0.5242747068405151,0.5962040424346924
1711552003555992300,9.989992431640625,-0.33979353308677673,-0.6323977708816528,0.7141009569168091
1711552003574951700,10.00895166015625,-0.3318522870540619,-0.7322741746902466,0.9669989347457886
1711552003593911000,10.0279111328125,-0.21395538747310638,-1.0099122524261475,1.277012825012207
1711552003612870400,10.046870361328125,-0.08078686892986298,-1.4008656740188599,1.5042544603347778
1711552003631830000,10.065830078125,-0.07009673118591309,-1.6485713720321655,1.5680898427963257
1711552003650789400,10.084789306640625,-0.15378521382808685,-1.5615230798721313,1.489288330078125
1711552003669748700,10.103748779296875,-0.18035782873630524,-1.2066106796264648,1.2651009559631348
1711552003688708000,10.1227080078125,-0.18371757864952087,-0.6751583218574524,0.8518509268760681
1711552003707667500,10.14166748046875,-0.20998476445674896,-0.08872810751199722,0.4783071279525757
1711552003726627000,10.160626953125,-0.20998476445674896,0.31444263458251953,0.28008151054382324
1711552003745586400,10.17958642578125,-0.1721111536026001,0.44608399271965027,0.19211697578430176
1711552003764545800,10.1985458984375,-0.1156061589717865,0.44638943672180176,0.19333870708942413
1711552003783505200,10.217505126953125,-0.08628465235233307,0.3043633699417114,0.30573782324790955
1711552003802464500,10.236464599609375,-0.07528908550739288,0.046883873641490936,0.49999281764030457
1711552003821423900,10.255423828125,-0.07284562289714813,-0.26710063219070435,0.6630937457084656
1711552003840383200,10.27438330078125,-0.1052214577794075,-0.5340485572814941,0.740368127822876
1711552003859342600,10.293342529296876,-0.20387612283229828,-0.6690496206283569,0.732121467590332
1711552003878302000,10.312302001953125,-0.3223838806152344,-0.7038689255714417,0.6603448390960693
1711552003897261300,10.33126123046875,-0.4543306827545166,-0.5172497630119324,0.509155809879303
1711552003916221000,10.350220947265624,-0.5297724604606628,-0.12690715491771698,0.3860665261745453
1711552003935180300,10.36918017578125,-0.5077813267707825,0.11133010685443878,0.27091851830482483
1711552003954139600,10.3881396484375,-0.5667297840118408,0.1672242283821106,0.0977383628487587
1711552003973099000,10.40709912109375,-0.5981893539428711,0.4387536346912384,-0.0308486707508564
1711552003992058400,10.426058349609375,-0.5364919900894165,0.7417425513267517,-0.11148282140493393
1711552004011017700,10.445017822265624,-0.4848739206790924,0.930499792098999,-0.19394956529140472
1711552004029977300,10.463977294921875,-0.42623090744018555,0.9537126421928406,-0.2525925934314728
1711552004048936700,10.482936767578124,-0.3248273432254791,0.9167553186416626,-0.18142683804035187
1711552004067896000,10.50189599609375,-0.2597702443599701,0.7747292518615723,-0.05711585655808449
1711552004086855400,10.52085546875,-0.2942841053009033,0.43111783266067505,0.06780599057674408
1711552004105814800,10.539814697265625,-0.360868364572525,0.045967575162649155,0.231212317943573
1711552004124774100,10.558774169921875,-0.44241881370544434,-0.29397866129875183,0.4153880476951599
1711552004143733500,10.5777333984375,-0.4805978536605835,-0.4066832363605499,0.5207622051239014
1711552004162692900,10.59669287109375,-0.3324631452560425,-0.19410228729248047,0.4001164436340332
1711552004181652500,10.615652587890626,-0.13759729266166687,0.09911280870437622,0.21655155718326569
1711552004200611800,10.63461181640625,-0.10338886082172394,0.3352120518684387,0.1585194170475006
1711552004219571200,10.6535712890625,-0.1562286615371704,0.45646870136260986,0.20616686344146729
1711552004238530600,10.672530517578124,-0.11652245372533798,0.4289797842502594,0.21471896767616272
1711552004257490000,10.691489990234375,-0.04108065739274025,0.18432845175266266,0.17348559200763702
1711552004276449300,10.71044921875,0.00045814859913662076,0.043829549103975296,0.16035200655460358
1711552004295408600,10.72940869140625,0.049021899700164795,0.12263110280036926,0.09590577334165573
1711552004314368000,10.748367919921876,0.04657844081521034,0.23441936075687408,0.01282816007733345
1711552004333327400,10.767327392578125,-0.014813470654189587,0.34865108132362366,-0.030543239787220955
1711552004352287000,10.786286865234375,-0.07620538026094437,0.3993528485298157,-0.0054977829568088055
1711552004371246300,10.805246337890624,-0.11835505068302155,0.258853942155838,0.08093958348035812
1711552004390205700,10.824205810546875,-0.09636391699314117,0.039248060435056686,0.1585194170475006
1711552004409165000,10.8431650390625,-0.03405570983886719,-0.1409570425748825,0.2257145345211029
1711552004428124400,10.86212451171875,-0.04627300798892975,-0.27198755741119385,0.27519458532333374
1711552004447083800,10.881083740234375,-0.09147699922323227,-0.36544984579086304,0.28466299176216125
1711552004466043100,10.900043212890624,-0.1052214577794075,-0.3400989770889282,0.25870123505592346
1711552004485002500,10.91900244140625,-0.08536835014820099,-0.19624030590057373,0.2516762912273407
1711552004503961900,10.9379619140625,-0.07620538026094437,-0.0902552679181099,0.21410810947418213
1711552004522921200,10.956921142578125,-0.09575305134057999,-0.08689551800489426,0.1588248461484909
1711552004541880800,10.975880859375,-0.11255183815956116,-0.12140937149524689,0.12156209349632263
1711552004560840200,10.994840087890625,-0.09208786487579346,-0.09880737960338593,0.08979712426662445
1711552004579799600,11.013799560546875,-0.06337722390890121,-0.0691804364323616,0.043371398001909256
1711552004598759000,11.032759033203124,-0.06154462695121765,-0.017256930470466614,-0.02718348242342472
1711552004617718300,11.05171826171875,-0.04016435891389847,0.0844520553946495,-0.11942406743764877
1711552004636677600,11.070677734375,0.010842849500477314,0.14950916171073914,-0.23945899307727814
1711552004655637000,11.089636962890625,0.05513054504990578,0.24724751710891724,-0.3845393657684326
1711552004674596400,11.108596435546875,0.0795651376247406,0.3672824501991272,-0.5308414697647095
1711552004693555700,11.1275556640625,0.08720094710588455,0.5120574235916138,-0.6282744407653809
1711552004712515000,11.14651513671875,0.10888664424419403,0.6885973215103149,-0.7348703145980835
1711552004731474700,11.165474609375,0.1467602699995041,0.8431460857391357,-0.8936951756477356
1711552004750434000,11.18443408203125,0.23441936075687408,0.9866993427276611,-1.0399973392486572
1711552004769393400,11.203393310546875,0.3006981909275055,1.0386228561401367,-1.1743875741958618
1711552004788352800,11.222352783203124,0.3116937577724457,1.2026400566101074,-1.3942989110946655
1711552004807312100,11.24131201171875,0.4017963111400604,1.4060579538345337,-1.665522813796997
1711552004826271500,11.260271484375,0.5911644101142883,1.412472128868103,-1.803883671760559
1711552004845231000,11.279231201171875,0.8529199361801147,1.4066689014434814,-1.9132285118103027
1711552004864190500,11.2981904296875,1.0642791986465454,1.4796671867370605,-2.0714423656463623
1711552004883149800,11.31714990234375,1.1421644687652588,1.7032437324523926,-2.081827163696289
1711552004902109200,11.336109130859375,1.067638874053955,1.9872958660125732,-1.943466305732727
1711552004921068500,11.355068603515624,0.9824233055114746,2.21881365776062,-1.8161009550094604
1711552004940028000,11.37402783203125,0.9155336022377014,2.397491455078125,-1.6520837545394897
1711552004958987300,11.3929873046875,0.7240274548530579,2.4943137168884277,-1.3845250606536865
1711552004977946600,11.411946533203125,0.490677148103714,2.3883285522460938,-1.1432334184646606
1711552004996906200,11.43090625,0.458301305770874,2.081368923187256,-0.9746347665786743
1711552005015865600,11.449865478515624,0.596662163734436,1.1403318643569946,-0.6478220820426941
1711552005034825000,11.468824951171875,0.4405862092971802,0.02764163166284561,-0.37262752652168274
1711552005053784300,11.487784423828124,0.09269873052835464,-0.6192641854286194,-0.2822195291519165
1711552005072743700,11.50674365234375,-0.08842267841100693,-1.1433861255645752,-0.30512696504592896
1711552005091703000,11.525703125,-0.0102319847792387,-1.5832087993621826,-0.4309650957584381
1711552005110662700,11.54466259765625,0.07040216773748398,-1.6073379516601562,-0.674700140953064
1711552005129622000,11.5636220703125,0.08170316368341446,-1.3813179731369019,-0.8826996088027954
1711552005148581400,11.582581298828124,0.021227551624178886,-0.7298306822776794,-1.0506874322891235
1711552005167540700,11.601540771484375,-0.04260781779885292,0.06979130208492279,-1.1056652069091797
1711552005186500000,11.6205,-0.14920371770858765,0.6849321126937866,-0.9728021621704102
1711552005205459500,11.63945947265625,-0.15012001991271973,0.7689260244369507,-0.6896663308143616
1711552005224418800,11.658418701171875,0.060322895646095276,0.42134398221969604,-0.62857985496521
1711552005243378400,11.67737841796875,0.48181959986686707,-0.33337944746017456,-0.8261946439743042
1711552005262337800,11.696337890625,0.6794343590736389,-0.5276344418525696,-0.8707877397537231
1711552005281297200,11.715297119140626,0.3776671588420868,0.04321868345141411,-0.822834849357605
1711552005300256800,11.7342568359375,-0.033139415085315704,0.9753983616828918,-0.9049961566925049
1711552005319216000,11.753216064453126,-0.04260781779885292,1.5810707807540894,-0.8918625712394714
1711552005338175500,11.772175537109375,0.16447533667087555,1.205694317817688,-0.6276635527610779
1711552005357134800,11.791134765625,0.10766492038965225,0.6003273725509644,-0.6133082509040833
1711552005376094200,11.81009423828125,-0.03252854943275452,0.05757400393486023,-0.7202095985412598
1711552005395053600,11.829053466796875,-0.14492766559123993,-0.44150251150131226,-0.9465349912643433
1711552005414013200,11.84801318359375,-0.18280129134655,-0.38072147965431213,-0.9865466356277466
1711552005432972500,11.86697265625,-0.20173808932304382,-0.03955349326133728,-0.915075421333313
1711552005451932000,11.885931884765625,-0.3095557391643524,0.3052796721458435,-0.6551524996757507
1711552005470891300,11.904891357421874,-0.5282453298568726,0.9112575054168701,-0.572685718536377
1711552005489850600,11.9238505859375,-0.6629409790039062,1.2576178312301636,-0.5940660238265991
1711552005508810200,11.942810302734374,-0.6281217336654663,1.2673916816711426,-0.46547895669937134
1711552005527769600,11.96176953125,-0.7096721529960632,1.1302525997161865,-0.291687935590744
1711552005546729000,11.98072900390625,-0.9353867173194885,0.03222311660647392,-0.10140355676412582
1711552005565688300,11.999688232421875,-1.1632392406463623,-1.2634210586547852,0.28435754776000977
1711552005584647700,12.018647705078125,-1.1030690670013428,-1.968664526939392,0.2464839369058609
1711552005603607300,12.037607177734374,-0.8104648590087891,-2.4069600105285645,0.013744457624852657
1711552005622566700,12.056566650390625,-0.7692314982414246,-2.0190608501434326,-0.20158538222312927
1711552005641526000,12.075526123046876,-0.9421061873435974,-0.5294670462608337,-0.5152644515037537
1711552005660485400,12.0944853515625,-1.0267109870910645,0.624456524848938,-0.7308996915817261
1711552005679445000,12.113445068359376,-1.2777763605117798,0.9094249606132507,-0.7620537877082825
1711552005698404400,12.132404296875,-1.5358667373657227,0.7319687008857727,-0.6890554428100586
1711552005717363700,12.15136376953125,-1.5306744575500488,0.14798198640346527,-0.6832522749900818
1711552005736323300,12.1703232421875,-1.4167481660842896,-0.10247256606817245,-0.6374374032020569
1711552005755282700,12.18928271484375,-1.3379465341567993,-0.04657844081521034,-0.5626064538955688
1711552005774242000,12.208241943359376,-1.404225468635559,-0.13271036744117737,-0.33047783374786377
1711552005793201700,12.22720166015625,-1.5462514162063599,-0.6042979955673218,-0.1340848207473755
1711552005812161000,12.2461611328125,-1.66934072971344,-0.9573778510093689,-0.06017018109560013
1711552005831120400,12.265120361328124,-1.501658320426941,-0.8675807118415833,-0.17531819641590118
1711552005850080000,12.284080078125,-1.0719150304794312,-0.5572614073753357,-0.3759872615337372
1711552005869039400,12.303039306640626,-0.7567087411880493,-0.1824958473443985,-0.45967575907707214
1711552005887998700,12.321998779296875,-0.7386882305145264,-0.03741546720266342,-0.49144071340560913
1711552005906958000,12.3409580078125,-0.6421716213226318,-0.04535670951008797,-0.536644697189331
1711552005925917700,12.359917724609375,-0.4555523991584778,-0.34437501430511475,-0.5836812853813171
1711552005944877000,12.378876953125,-0.4094321131706238,-0.5606211423873901,-0.5568032264709473
1711552005963836400,12.39783642578125,-0.37064221501350403,-0.47204574942588806,-0.518318772315979
1711552005982796000,12.416796142578125,-0.24816381931304932,-0.2854265570640564,-0.5537489056587219
1711552006001755400,12.43575537109375,-0.2188423126935959,-0.20051635801792145,-0.5775726437568665
1711552006020714800,12.45471484375,-0.187382772564888,0.14889828860759735,-0.5378664135932922
1711552006039674400,12.47367431640625,-0.10186170041561127,0.3315468728542328,-0.5543597936630249
1711552006058633700,12.4926337890625,-0.024892739951610565,0.2863428592681885,-0.6087267398834229
1711552006077593000,12.511593017578125,0.08048143237829208,0.0902552679181099,-0.5897899270057678
1711552006096552700,12.530552734375,0.21181736886501312,-0.06765327602624893,-0.6282744407653809
1711552006115512000,12.549511962890625,0.3477347791194916,-0.029474224895238876,-0.6759218573570251
1711552006134471400,12.568471435546876,0.4586067199707031,0.2493855506181717,-0.6172788739204407
1711552006153431000,12.58743115234375,0.46654796600341797,0.4243983030319214,-0.45906487107276917
1711552006172390400,12.606390380859375,0.3370446562767029,0.47235119342803955,-0.25992295145988464
1711552006191349800,12.625349853515624,0.24022257328033447,0.3116937577724457,-0.08429934084415436
1711552006210309400,12.644309326171875,0.18860450387001038,0.10338886082172394,0.11484257876873016
1711552006229268700,12.663268798828126,0.2536616027355194,-0.47815442085266113,0.20799945294857025
1711552006248228000,12.68222802734375,0.14431680738925934,-0.6183478832244873,0.37262752652168274
1711552006267187700,12.701187744140626,0.05940660089254379,-0.6769908666610718,0.5681042671203613
1711552006286147000,12.72014697265625,0.09972367435693741,-0.5639809370040894,0.6731730103492737
1711552006305106400,12.7391064453125,0.24694208800792694,-0.7157807946205139,0.6768381595611572
1711552006324065800,12.758065673828124,0.34956738352775574,-0.9173662066459656,0.5253437161445618
1711552006343025400,12.777025390625,0.47326749563217163,-0.8184061050415039,0.5198459029197693
1711552006361984800,12.79598486328125,0.47204574942588806,-0.19624030590057373,0.40958482027053833
1711552006380944400,12.8149443359375,0.3370446562767029,0.41004297137260437,0.34147340059280396
1711552006399903700,12.83390380859375,0.3776671588420868,0.5077813267707825,0.3194822669029236
1711552006418863000,12.852863037109374,0.4970912039279938,0.3260490894317627,0.39248061180114746
1711552006437822700,12.87182275390625,0.44638943672180176,-0.05024362727999687,0.4004218578338623
1711552006456782000,12.890781982421874,0.35903576016426086,-0.37430739402770996,0.379347026348114
1711552006475741700,12.90974169921875,0.5438223481178284,-0.4757109582424164,0.32070401310920715
1711552006494701000,12.928701171875,0.7035635113716125,-0.1931859850883484,0.26908594369888306
1711552006513660400,12.947660400390625,0.6323977708816528,0.17608177661895752,0.3533852696418762
1711552006532620000,12.9666201171875,0.523052990436554,0.37522369623184204,0.4004218578338623
1711552006551579400,12.985579345703124,0.5056433081626892,0.2533561587333679,0.499381959438324
1711552006570539000,13.0045390625,0.4500546157360077,-0.10186170041561127,0.5690205693244934
1711552006589498400,13.023498291015626,0.38560840487480164,-0.46257734298706055,0.6001746654510498
1711552006608457700,13.042457763671875,0.3862192630767822,-0.5633700489997864,0.6560688018798828
1711552006627417300,13.061417236328126,0.3400989770889282,-0.5416843295097351,0.7199041247367859
1711552006646376700,13.080376708984375,0.3309359848499298,-0.5251910090446472,0.7648026943206787
1711552006665336300,13.09933642578125,0.37919431924819946,-0.5025889873504639,0.7440332770347595
1711552006684295700,13.118295654296874,0.4802924394607544,-0.34865108132362366,0.6948586702346802
1711552006703255300,13.13725537109375,0.42195484042167664,-0.2136499583721161,0.6860011219978333
1711552006722214700,13.156214599609376,0.2591593861579895,-0.13515383005142212,0.6954695582389832
1711552006741174300,13.17517431640625,0.12965604662895203,-0.258853942155838,0.6337721943855286
1711552006760133600,13.194133544921876,0.16783510148525238,-0.39416050910949707,0.6163625717163086
1711552006779093000,13.213093017578124,0.17791436612606049,-0.3510945439338684,0.6560688018798828
1711552006798052600,13.232052490234375,0.05329795181751251,-0.16264274716377258,0.6731730103492737
1711552006817012000,13.251011962890624,0.10277800261974335,-0.17119485139846802,0.5198459029197693
1711552006835971300,13.269971435546875,0.22678354382514954,-0.26771149039268494,0.38270679116249084
1711552006854931000,13.288930908203126,0.21487168967723846,-0.2029598206281662,0.3136790692806244
1711552006873890300,13.307890380859375,0.18952079117298126,-0.022449281066656113,0.1905898153781891
1711552006892850000,13.326849853515625,0.2438877671957016,0.07070759683847427,0.03298669680953026
1711552006911809300,13.345809326171874,0.2753472924232483,0.0899498388171196,-0.01649334840476513
1711552006930769000,13.364768798828125,0.208152174949646,0.05451968312263489,-0.001832594396546483
1711552006949728300,13.383728271484374,0.1461493968963623,-0.09972367435693741,-0.05192350596189499
1711552006968687900,13.40268798828125,0.1611155867576599,-0.18463388085365295,-0.21471896767616272
1711552006987647200,13.421647216796876,0.19593487679958344,0.002901607658714056,-0.3634645342826843
1711552007006606800,13.44060693359375,0.18310672044754028,0.23777911067008972,-0.4425715208053589
1711552007025566200,13.459566162109375,0.09208786487579346,0.2909243404865265,-0.5140427350997925
1711552007044525800,13.47852587890625,0.09453132748603821,0.2689332067966461,-0.6282744407653809
1711552007063485200,13.497485107421875,0.21059563755989075,0.2637408673763275,-0.7000510096549988
1711552007082444500,13.516444580078126,0.24113887548446655,0.38408124446868896,-0.6255255341529846
1711552007101404200,13.535404052734375,0.016340631991624832,0.2842048406600952,-0.47464191913604736
1711552007120363500,13.554363525390626,-0.20662501454353333,0.04810560122132301,-0.4266890585422516
1711552007139323100,13.5733232421875,-0.1101083755493164,-0.12873975932598114,-0.42882707715034485
1711552007158282500,13.592282470703125,-0.01206457894295454,-0.20601414144039154,-0.3894262909889221
1711552007177242000,13.6112421875,-0.18646647036075592,-0.1311832070350647,-0.40347617864608765
1711552007196201500,13.630201416015625,-0.23075416684150696,0.029474224895238876,-0.47097674012184143
1711552007215161000,13.6491611328125,-0.13332124054431915,0.14278964698314667,-0.4917461574077606
1711552007234120400,13.668120361328125,-0.20357069373130798,0.0691804364323616,-0.4828886091709137
1711552007253080000,13.687080078125,-0.2741255760192871,0.049632761627435684,-0.5122101306915283
1711552007272039400,13.706039306640625,-0.24297146499156952,-0.037720900028944016,-0.5681042671203613
1711552007290999000,13.7249990234375,-0.22617268562316895,0.05146535858511925,-0.5607738494873047
1711552007309958400,13.74395849609375,-0.25610506534576416,0.23655737936496735,-0.574212908744812
1711552007328918000,13.76291796875,-0.2539670467376709,0.1815795600414276,-0.6603448390960693
1711552007347877400,13.78187744140625,-0.18829907476902008,0.14401137828826904,-0.7266236543655396
1711552007366837000,13.8008369140625,-0.17424917221069336,0.25274530053138733,-0.7040216326713562
1711552007385796400,13.81979638671875,-0.27168211340904236,0.39599308371543884,-0.6243038177490234
1711552007404756000,13.838755859375,-0.39141160249710083,0.2903134822845459,-0.5219839811325073
1711552007423715300,13.85771533203125,-0.4387536346912384,0.10766492038965225,-0.4373791813850403
1711552007442675000,13.876675048828124,-0.4534143805503845,-0.10399972647428513,-0.42271843552589417
1711552007461634300,13.89563427734375,-0.4754055142402649,-0.14767655730247498,-0.42821621894836426
1711552007480594000,13.914593994140626,-0.5099193453788757,-0.002901607658714056,-0.4059196412563324
1711552007499553300,13.93355322265625,-0.4995346665382385,0.05024362727999687,-0.4062250852584839
1711552007518513000,13.952512939453126,-0.48273590207099915,-0.03588830679655075,-0.4315759539604187
1711552007537472300,13.97147216796875,-0.49373146891593933,-0.09330959618091583,-0.4761691093444824
1711552007556432000,13.990431884765625,-0.5285507440567017,-0.03802633285522461,-0.43004879355430603
1711552007575391200,14.00939111328125,-0.569173276424408,0.02214384824037552,-0.3970620930194855
1711552007594350600,14.0283505859375,-0.5844448804855347,0.007177661173045635,-0.42302384972572327
1711552007613310200,14.047310302734376,-0.5838339924812317,0.01847865991294384,-0.46456265449523926
1711552007632269600,14.06626953125,-0.6036871075630188,0.07559451460838318,-0.4828886091709137
1711552007651229200,14.085229248046875,-0.6669116020202637,0.13820815086364746,-0.5253437161445618
1711552007670188500,14.1041884765625,-0.6852375864982605,0.2341139316558838,-0.528092622756958
1711552007689148200,14.123148193359375,-0.6513345837593079,0.29245150089263916,-0.5348120927810669
1711552007708107500,14.142107421875,-0.7243329286575317,0.2811505198478699,-0.45937031507492065
1711552007727067100,14.161067138671875,-0.7780889868736267,0.26618432998657227,-0.3958403766155243
1711552007746026500,14.180026611328126,-0.7090612649917603,0.25671592354774475,-0.46395179629325867
1711552007764986000,14.198986083984375,-0.6452259421348572,0.17638720571994781,-0.5033525824546814
1711552007783945500,14.217945556640625,-0.6742420196533203,0.12904518842697144,-0.46547895669937134
1711552007802905000,14.236905029296874,-0.6779071688652039,0.13301581144332886,-0.4159989058971405
1711552007821864400,14.255864501953125,-0.6033816933631897,0.17944152653217316,-0.3741546869277954
1711552007840824000,14.274823974609374,-0.5789470672607422,0.06276635825634003,-0.4404335021972656
1711552007859783400,14.293783447265625,-0.7221949100494385,-0.04993819445371628,-0.3790415823459625
1711552007878742800,14.31274267578125,-0.7017309069633484,-0.11224640160799026,-0.3594939112663269
1711552007897702400,14.331702392578125,-0.5939132571220398,-0.04780016839504242,-0.4477638900279999
1711552007916661800,14.350661865234375,-0.5297724604606628,0.13851359486579895,-0.4718930423259735
1711552007935621400,14.369621337890624,-0.597273051738739,0.30314165353775024,-0.39309149980545044
1711552007954580700,14.388580810546875,-0.6910407543182373,0.38652467727661133,-0.24892739951610565
1711552007973540400,14.407540283203126,-0.6116283535957336,0.18035782873630524,-0.23548837006092072
1711552007992499700,14.426499755859375,-0.5190823674201965,-0.06001746281981468,-0.28985533118247986
1711552008011459000,14.445458984375,-0.5291616320610046,-0.18524473905563354,-0.24862197041511536
1711552008030418700,14.464418701171875,-0.514195442199707,-0.09666935354471207,-0.2360992431640625
1711552008049378000,14.4833779296875,-0.4454731345176697,0.11255183815956116,-0.3023780584335327
1711552008068337700,14.502337646484374,-0.4692968726158142,0.31780239939689636,-0.3081812858581543
1711552008087297000,14.521297119140625,-0.4912880063056946,0.4405862092971802,-0.2309068888425827
1711552008106256600,14.540256591796876,-0.45738500356674194,0.45158177614212036,-0.20189081132411957
1711552008125216000,14.559216064453125,-0.3981311321258545,0.3822486400604248,-0.21288637816905975
1711552008144175600,14.578175537109376,-0.42012226581573486,0.34956738352775574,-0.14141519367694855
1711552008163135000,14.597135009765625,-0.48792824149131775,0.26099199056625366,-0.011606430634856224
1711552008182094300,14.61609423828125,-0.5093085169792175,0.11224640160799026,0.10079269111156464
1711552008201054000,14.635053955078124,-0.4088212549686432,-0.04932733252644539,0.0922405794262886
1711552008220013300,14.654013427734375,-0.22769984602928162,-0.14004075527191162,-0.029016077518463135
1711552008238973000,14.672972900390626,-0.13515383005142212,0.0038179049734026194,-0.08460476994514465
1711552008257932300,14.691932373046875,-0.14431680738925934,0.2283107042312622,-0.031154103577136993
1711552008276892000,14.710891845703125,-0.19898919761180878,0.20967933535575867,-0.025045456364750862
1711552008295851300,14.729851318359374,-0.18921536207199097,0.00045814859913662076,-0.04306596517562866
1711552008314810600,14.748810546875,-0.12202023714780807,-0.15042544901371002,-0.01282816007733345
1711552008333770200,14.767770263671874,-0.0691804364323616,-0.17455461621284485,0.03817904740571976
1711552008352729600,14.7867294921875,-0.006566796451807022,-0.14920371770858765,0.025045456364750862
1711552008371689200,14.805689208984376,0.013286309316754341,-0.13912445306777954,-0.01649334840476513
1711552008390648600,14.824648681640625,-0.015729768201708794,-0.17394374310970306,0.038789913058280945
1711552008409608200,14.843608154296875,0.024892739951610565,-0.21700970828533173,0.04734202101826668
1711552008428567600,14.862567626953124,0.19593487679958344,-0.2182314395904541,-0.014660755172371864
1711552008447527200,14.881527099609375,0.347123920917511,-0.2280052751302719,-0.021685699000954628
1711552008466486500,14.900486572265624,0.36361727118492126,-0.31261005997657776,-0.01588248461484909
1711552008485446100,14.919446044921875,0.29367324709892273,-0.4030180275440216,0.02718348242342472
1711552008504405500,14.938405517578126,0.2383899837732315,-0.3510945439338684,0.17256930470466614
1711552008523364900,14.95736474609375,0.21731515228748322,-0.22708898782730103,0.3084867000579834
1711552008542324500,14.976324462890625,0.23136503994464874,-0.24297146499156952,0.26022839546203613
1711552008561283800,14.995283935546874,0.27656903862953186,-0.29703301191329956,0.2809978127479553
1711552008580243200,15.0142431640625,0.2759581506252289,-0.12660172581672668,0.39828383922576904
1711552008599202800,15.033202880859376,0.1879936307668686,0.026419902220368385,0.46059203147888184
1711552008618162200,15.052162109375,0.18463388085365295,-0.06765327602624893,0.4101957082748413
1711552008637121500,15.07112158203125,0.314748078584671,-0.18890993297100067,0.34055712819099426
1711552008656081200,15.0900810546875,0.39996370673179626,0.011759147047996521,0.2864955961704254
1711552008675040500,15.10904052734375,0.4240928590297699,0.2188423126935959,0.2003636509180069
1711552008694000000,15.128000244140624,0.3990474045276642,0.2130390852689743,0.14294235408306122
1711552008712959500,15.14695947265625,0.33979353308677673,0.12232567369937897,0.18264856934547424
1711552008731919000,15.165919189453126,0.342542439699173,0.1617264449596405,0.19425499439239502
1711552008750878500,15.18487841796875,0.38011062145233154,0.16905683279037476,0.17134757339954376
1711552008769837800,15.203837890625,0.35353797674179077,-0.0038179049734026194,0.20463970303535461
1711552008788797400,15.22279736328125,0.3260490894317627,-0.0847574844956398,0.20280711352825165
1711552008807756800,15.2417568359375,0.3361283540725708,-0.064598947763443,0.1847866028547287
1711552008826716400,15.26071630859375,0.3303251266479492,-0.02977965772151947,0.16187916696071625
1711552008845675800,15.27967578125,0.3730856776237488,-0.0435241162776947,0.13194678723812103
1711552008864635100,15.29863525390625,0.342542439699173,-0.044440411031246185,0.12431098520755768
1711552008883594800,15.3175947265625,0.2790125012397766,-0.0844520553946495,0.16340632736682892
1711552008902554000,15.33655419921875,0.30772313475608826,-0.15073087811470032,0.1536324918270111
1711552008921513700,15.355513671875,0.3990474045276642,-0.2231183648109436,0.10201441496610641
1711552008940473000,15.37447314453125,0.4176788032054901,-0.1409570425748825,0.12675444781780243
1711552008959432400,15.393432373046876,0.3773617148399353,-0.07009673118591309,0.1951712965965271
1711552008978392000,15.41239208984375,0.3061959743499756,-0.06704241037368774,0.2675587832927704
1711552008997351400,15.431351318359376,0.2842048406600952,-0.2240346521139145,0.30146175622940063
1711552009016311000,15.45031103515625,0.32299473881721497,-0.3318522870540619,0.36621344089508057
1711552009035270400,15.4692705078125,0.3254382014274597,-0.3730856776237488,0.383928507566452
1711552009054229800,15.488229736328124,0.30222535133361816,-0.3715584874153137,0.41294458508491516
1711552009073189400,15.507189453125,0.3260490894317627,-0.3819431960582733,0.40866854786872864
1711552009092148700,15.526148681640626,0.3764454126358032,-0.3352120518684387,0.4572322964668274
1711552009111108000,15.545108154296875,0.3627009689807892,-0.31383177638053894,0.4929678738117218
1711552009130067700,15.564067626953126,0.3513999581336975,-0.31932955980300903,0.5757400393486023
1711552009149027000,15.583027099609374,0.3513999581336975,-0.3559814393520355,0.5543597936630249
1711552009167986400,15.601986328125,0.4341721534729004,-0.32910341024398804,0.5342012643814087
1711552009186946000,15.620946044921874,0.5258018374443054,-0.2701549530029297,0.43982264399528503
1711552009205905400,15.639905517578125,0.5749764442443848,-0.21090106666088104,0.5439751148223877
1711552009224864800,15.65886474609375,0.503505289554596,-0.1259908676147461,0.6426297426223755
1711552009243824400,15.677824462890625,0.4231765866279602,-0.1104138121008873,0.5842921733856201
1711552009262783700,15.69678369140625,0.49281516671180725,-0.2744309902191162,0.536644697189331
1711552009281743000,15.7157431640625,0.634230375289917,-0.20509785413742065,0.5293143391609192
1711552009300702700,15.73470263671875,0.6504182815551758,0.046883873641490936,0.4780016839504242
1711552009319662000,15.753662109375,0.6455313563346863,0.1519526094198227,0.38331764936447144
1711552009338621400,15.772621337890625,0.7466294765472412,0.10919208079576492,0.31184646487236023
1711552009357581000,15.7915810546875,0.7872520089149475,0.08750637620687485,0.3964512348175049
1711552009376540400,15.81054052734375,0.7197514176368713,0.07528908550739288,0.4615083336830139
1711552009395499800,15.829499755859375,0.6834049820899963,-0.012675444595515728,0.5109884142875671
1711552009414459400,15.84845947265625,0.7206677198410034,-0.22586725652217865,0.6178897023200989
1711552009433418800,15.867418701171875,0.6980656981468201,-0.383470356464386,0.7000510096549988
1711552009452378000,15.886378173828126,0.6571378111839294,-0.4549415409564972,0.6737838387489319
1711552009471337700,15.905337646484375,0.7023417949676514,-0.4802924394607544,0.6273581385612488
1711552009490297000,15.924297119140626,0.7322741746902466,-0.4271472096443176,0.6166679859161377
1711552009509256400,15.94325634765625,0.7212786078453064,-0.2182314395904541,0.610559344291687
1711552009528216000,15.962216064453125,0.6910407543182373,-0.04657844081521034,0.573602020740509
1711552009547175400,15.981175537109374,0.6806560754776001,-0.09269873052835464,0.5021308660507202
1711552009566135000,16.000135009765625,0.6867647171020508,-0.20601414144039154,0.48441576957702637
1711552009585094400,16.019094482421874,0.6241511106491089,-0.12873975932598114,0.4838049113750458
1711552009604053800,16.0380537109375,0.5416843295097351,-0.014202605932950974,0.4667007029056549
1711552009623013400,16.057013427734375,0.5627591609954834,0.049021899700164795,0.40958482027053833
1711552009641972700,16.07597265625,0.6293434500694275,0.037720900028944016,0.39797839522361755
1711552009660932000,16.09493212890625,0.5899426341056824,-0.05513054504990578,0.3796524703502655
1711552009679891700,16.1138916015625,0.5297724604606628,-0.09269873052835464,0.3384190797805786
1711552009698851000,16.13285107421875,0.5450441241264343,0.015729768201708794,0.258395791053772
1711552009717810400,16.151810546875,0.6125446557998657,0.08933897316455841,0.2556469142436981
1711552009736770000,16.17077001953125,0.5920807123184204,0.05787943676114082,0.3646862804889679
1711552009755729400,16.1897294921875,0.425009161233902,-0.04993819445371628,0.4428769648075104
1711552009774688800,16.208688720703126,0.28817546367645264,-0.19868376851081848,0.44318240880966187
1711552009793648400,16.2276484375,0.2848156988620758,-0.2603811025619507,0.38667741417884827
1711552009812607700,16.246607666015624,0.34437501430511475,-0.19410228729248047,0.31581708788871765
1711552009831567000,16.265567138671877,0.3764454126358032,-0.016340631991624832,0.2101374864578247
1711552009850526700,16.284526611328126,0.37858346104621887,0.10247256606817245,0.12614357471466064
1711552009869486000,16.303486083984374,0.38988444209098816,0.21609342098236084,0.1737910360097885
1711552009888445400,16.322445556640623,0.2903134822845459,0.29245150089263916,0.19303326308727264
1711552009907405000,16.341405029296876,0.19929464161396027,0.13484840095043182,0.20647229254245758
1711552009926364400,16.360364501953125,0.22708898782730103,-0.14859285950660706,0.24251331388950348
1711552009945323800,16.37932373046875,0.20601414144039154,-0.31871870160102844,0.2309068888425827
1711552009964283400,16.398283447265626,0.17302745580673218,-0.17913609743118286,0.20250166952610016
1711552009983242800,16.41724267578125,0.23686282336711884,0.04810560122132301,0.1282816082239151
1711552010002202400,16.436202392578124,0.2542724609375,0.08536835014820099,0.05864302068948746
1711552010021161700,16.45516162109375,0.21151192486286163,0.18402300775051117,0.07941242307424545
1711552010040121000,16.47412109375,0.2075413018465042,0.35475972294807434,0.09071341902017593
1711552010059080700,16.493080810546875,0.19471314549446106,0.3672824501991272,0.07513637095689774
1711552010078040000,16.5120400390625,0.16386447846889496,0.18982623517513275,0.11636973917484283
1711552010096999400,16.53099951171875,0.18035782873630524,0.07712167501449585,0.1637117564678192
1711552010115959000,16.549958984375,0.24541492760181427,-0.025809036567807198,0.14569124579429626
1711552010134918400,16.56891845703125,0.2542724609375,-0.2133445292711258,0.16523891687393188
1711552010153877800,16.587877685546875,0.1663079410791397,-0.07070759683847427,0.17287473380565643
1711552010172837400,16.60683740234375,0.11713331937789917,0.2188423126935959,0.057726722210645676
1711552010191796700,16.625796630859377,0.1977674663066864,0.3260490894317627,-0.04276053607463837
1711552010210756400,16.64475634765625,0.24663665890693665,0.304974228143692,0.002443459117785096
1711552010229715700,16.6637158203125,0.1980729103088379,0.2835939824581146,0.10567960888147354
1711552010248675000,16.682675048828123,0.13240493834018707,0.1415679156780243,0.17073670029640198
1711552010267634700,16.701634765625,0.08720094710588455,-0.08903354406356812,0.2003636509180069
1711552010286594000,16.720593994140625,0.055741410702466965,-0.25243985652923584,0.2419024556875229
1711552010305553400,16.739553466796874,0.06673697382211685,-0.20693044364452362,0.2678641974925995
1711552010324513000,16.758512939453126,0.07742711156606674,-0.09941824525594711,0.281914085149765
1711552010343472400,16.777472412109375,0.0850629210472107,-0.042913250625133514,0.323452889919281
1711552010362431700,16.796431640625,0.10155627131462097,-0.08536835014820099,0.38240134716033936
1711552010381391400,16.815391357421873,0.0948367565870285,-0.13515383005142212,0.45020735263824463
1711552010400350700,16.834350830078126,0.13301581144332886,-0.1721111536026001,0.5540543794631958
1711552010419310300,16.853310302734375,0.2338084876537323,-0.2283107042312622,0.7144063711166382
1711552010438269700,16.872269775390624,0.233503058552742,-0.40515607595443726,0.9126319885253906
1711552010457229000,16.89122900390625,0.1153007298707962,-0.6989820003509521,1.0891718864440918
1711552010476188700,16.910188720703125,0.08536835014820099,-0.9118683934211731,1.2904518842697144
1711552010495148000,16.92914794921875,0.1101083755493164,-1.095127820968628,1.4657700061798096
1711552010514107600,16.948107666015623,0.1510363221168518,-1.0749692916870117,1.6249003410339355
1711552010533067000,16.96706689453125,0.2637408673763275,-1.0777181386947632,1.6862921714782715
1711552010552026600,16.986026611328125,0.5129737257957458,-1.3895646333694458,1.6142101287841797
1711552010570986000,17.004986083984374,0.7414371371269226,-1.6058107614517212,1.4834851026535034
1711552010589945300,17.0239453125,0.7179188132286072,-1.4491239786148071,1.2986985445022583
1711552010608905000,17.042905029296875,0.5456549525260925,-0.985783040523529,0.9874629378318787
1711552010627864300,17.0618642578125,0.4598284661769867,0.005955931730568409,0.4761691093444824
1711552010646824000,17.080823974609373,0.44700029492378235,1.1143701076507568,-0.1029307171702385
1711552010665783300,17.099783203125,0.3620901107788086,1.8953607082366943,-0.5314523577690125
1711552010684743000,17.118742919921875,0.24205516278743744,2.2065963745117188,-0.6835576891899109
1711552010703702300,17.137702392578124,0.22128576040267944,1.8874194622039795,-0.5467239618301392
1711552010722661600,17.15666162109375,0.3052796721458435,1.1641556024551392,-0.30146175622940063
1711552010741621200,17.175621337890625,0.39416050910949707,0.3584249019622803,0.02107483521103859
1711552010760580600,17.19458056640625,0.37400195002555847,-0.304974228143692,0.32162031531333923
1711552010779540200,17.213540283203123,0.2900080680847168,-0.7060069441795349,0.527481734752655
1711552010798499600,17.23249951171875,0.263435423374176,-0.8727730512619019,0.6169734001159668
1711552010817459000,17.251458984375,0.3107774555683136,-0.8651372194290161,0.61117023229599
1711552010836418600,17.27041845703125,0.33857181668281555,-0.7695369124412537,0.5577195286750793
1711552010855378000,17.2893779296875,0.29184064269065857,-0.540768027305603,0.3958403766155243
1711552010874337500,17.308337646484375,0.32421648502349854,-0.26129740476608276,0.2886336147785187
1711552010893297000,17.327296875,0.3920224606990814,-0.0539088174700737,0.26969680190086365
1711552010912256500,17.346256591796877,0.3972148299217224,0.0539088174700737,0.17165300250053406
1711552010931216000,17.3652158203125,0.31871870160102844,0.012980876490473747,0.06872228533029556
1711552010950175500,17.384175537109375,0.20173808932304382,0.13942988216876984,0.05955931544303894
1711552010969134800,17.403134765625,0.23105959594249725,0.494647741317749,-0.08032871782779694
1711552010988094500,17.422094482421876,0.3410152494907379,0.8196278214454651,-0.27916520833969116
1711552011007053800,17.4410537109375,0.35323256254196167,0.9680679440498352,-0.2877173125743866
1711552011026013400,17.460013427734374,0.3254382014274597,0.8373429179191589,-0.15546508133411407
1711552011044972800,17.478972900390627,0.2738201320171356,0.5667297840118408,-0.04428769648075104
1711552011063932200,17.49793212890625,0.24541492760181427,0.33399030566215515,-0.032070402055978775
1711552011082891800,17.516891845703125,0.2240346521139145,0.17883066833019257,-0.05711585655808449
1711552011101851100,17.53585107421875,0.1879936307668686,0.1617264449596405,-0.020769402384757996
1711552011120810800,17.554810791015626,0.1253799945116043,0.21945317089557648,-0.05283980444073677
1711552011139770000,17.57377001953125,0.10613775253295898,0.13851359486579895,-0.09896009415388107
1711552011158729700,17.592729736328124,0.1669187992811203,0.030695954337716103,-0.08338304609060287
1711552011177689300,17.611689453125,0.2237292230129242,0.01511890348047018,-0.035735588520765305
1711552011196648700,17.630648681640626,0.2695440948009491,0.07681624591350555,0.018631376326084137
1711552011215608300,17.6496083984375,0.3367392122745514,0.1000291109085083,0.011606430634856224
1711552011234567700,17.668567626953124,0.3523162603378296,0.02611446939408779,0.01893680728971958
1711552011253527000,17.687527099609376,0.3168860971927643,-0.02214384824037552,0.05100720748305321
1711552011272486700,17.706486572265625,0.35811948776245117,-0.09819651395082474,0.06108647957444191
1711552011291446000,17.725446044921874,0.40057456493377686,-0.22586725652217865,0.09621120244264603
1711552011310405600,17.744405517578127,0.35964664816856384,-0.3520108163356781,0.1334739476442337
1711552011329365000,17.763364990234376,0.3174969553947449,-0.3685041666030884,0.14202606678009033
1711552011348324600,17.78232470703125,0.3098611533641815,-0.402407169342041,0.10873392969369888
1711552011367284200,17.8012841796875,0.26740604639053345,-0.4137081801891327,0.050090912729501724
1711552011386243600,17.82024365234375,0.19440771639347076,-0.3721693754196167,0.029016077518463135
1711552011405203200,17.839203125,0.1510363221168518,-0.2750418782234192,0.03848448023200035
1711552011424162600,17.85816259765625,0.11835505068302155,-0.15836669504642487,0.05192350596189499
1711552011443122200,17.8771220703125,0.060933761298656464,-0.1461493968963623,0.04825831577181816
1711552011462081500,17.89608154296875,0.007788525894284248,-0.1415679156780243,0.025961752980947495
1711552011481041200,17.915041259765626,-0.016035201027989388,-0.06001746281981468,0.018631376326084137
1711552011500000500,17.93400048828125,-0.016646064817905426,0.06887500733137131,-0.015577051788568497
1711552011518960000,17.952960205078124,-0.05849030241370201,0.17883066833019257,-0.07819069176912308
1711552011537919500,17.97191943359375,-0.13729186356067657,0.2845102846622467,-0.1285870373249054
1711552011556879000,17.990879150390626,-0.20509785413742065,0.3468184769153595,-0.13103049993515015
1711552011575838700,18.009838623046875,-0.22769984602928162,0.3611738085746765,-0.12003492563962936
1711552011594798000,18.028798095703124,-0.22953243553638458,0.3318522870540619,-0.12431098520755768
1711552011613757700,18.0477578125,-0.22067490220069885,0.2530507445335388,-0.10720676928758621
1711552011632717000,18.066717041015625,-0.20357069373130798,0.228921577334404,-0.11392628401517868
1711552011651676700,18.0856767578125,-0.15592323243618011,0.2964221239089966,-0.15149445831775665
1711552011670636000,18.104635986328127,-0.10644318908452988,0.3813323378562927,-0.1594357043504715
1711552011689595600,18.123595703125,-0.07345648854970932,0.3407098352909088,-0.1389717310667038
1711552011708555000,18.142554931640625,-0.04566214233636856,0.24022257328033447,-0.10720676928758621
1711552011727514600,18.1615146484375,0.005345067009329796,0.06368265300989151,-0.02412915788590908
1711552011746474200,18.18047412109375,0.07834340631961823,-0.1516471803188324,0.08643736690282822
1711552011765433600,18.19943359375,0.1611155867576599,-0.37033677101135254,0.16218459606170654
1711552011784393200,18.218393310546876,0.2078467458486557,-0.5355756878852844,0.1585194170475006
1711552011803352600,18.2373525390625,0.21487168967723846,-0.5933024287223816,0.15515965223312378
1711552011822312200,18.256312255859374,0.2023489624261856,-0.5114465355873108,0.15485422313213348
1711552011841271600,18.275271484375,0.19898919761180878,-0.3917170464992523,0.14141519367694855
1711552011860231200,18.294231201171876,0.22067490220069885,-0.3513999581336975,0.15241076052188873
1711552011879190800,18.313190673828124,0.2756527364253998,-0.4329504072666168,0.19425499439239502
1711552011898150100,18.332150146484373,0.32940882444381714,-0.5682569742202759,0.25381430983543396
1711552011917109800,18.35110986328125,0.3575085997581482,-0.5994110703468323,0.23945899307727814
1711552011936069400,18.3700693359375,0.34926193952560425,-0.5761982202529907,0.15057817101478577
1711552011955028700,18.38902880859375,0.29367324709892273,-0.58749920129776,0.10109812021255493
1711552011973988000,18.407988037109376,0.19624030590057373,-0.5988001823425293,0.1386663019657135
1711552011992947700,18.42694775390625,0.13942988216876984,-0.5178605914115906,0.1646280586719513
1711552012011907300,18.4459072265625,0.12446369975805283,-0.3119991719722748,0.10170898586511612
1711552012030866700,18.46486669921875,0.09392046183347702,-0.07620538026094437,0.03390299528837204
1711552012049826300,18.483826416015624,0.0206166859716177,0.10155627131462097,-0.022907428443431854
1711552012068786000,18.502785888671873,-0.06551524996757507,0.13729186356067657,-0.046425722539424896
1711552012087745300,18.521745361328126,-0.11163553595542908,0.0844520553946495,-0.02871064469218254
1711552012106705000,18.540704833984375,-0.11652245372533798,-0.014813470654189587,0.0027488914784044027
1711552012125664300,18.559664306640624,-0.11499529331922531,-0.0951421856880188,0.024740023538470268
1711552012144623900,18.578623779296876,-0.13484840095043182,-0.11743875592947006,0.047952886670827866
1711552012163583500,18.59758349609375,-0.1818849891424179,-0.07895427197217941,0.04520399495959282
1711552012182542800,18.61654296875,-0.22098033130168915,0.023365577682852745,0.0021380267571657896
1711552012201502500,18.63550244140625,-0.26710063219070435,0.11194097250699997,-0.046425722539424896
1711552012220462000,18.654462158203124,-0.31413722038269043,0.19837833940982819,-0.1078176349401474
1711552012239421400,18.67342138671875,-0.33276858925819397,0.2805396616458893,-0.1533270627260208
1711552012258381000,18.692381103515626,-0.3107774555683136,0.33887723088264465,-0.16554436087608337
1711552012277340400,18.71134033203125,-0.28664830327033997,0.366060733795166,-0.15790854394435883
1711552012296300000,18.730300048828123,-0.27290382981300354,0.35873034596443176,-0.15088360011577606
1711552012315259600,18.749259765625,-0.2185368686914444,0.38530296087265015,-0.16523891687393188
1711552012334219000,18.768218994140625,-0.1418733447790146,0.37400195002555847,-0.16859868168830872
1711552012353178600,18.7871787109375,-0.09208786487579346,0.34956738352775574,-0.13958260416984558
1711552012372138000,18.806137939453127,-0.06643154472112656,0.38530296087265015,-0.12095122784376144
1711552012391097600,18.82509765625,-0.027947064489126205,0.48181959986686707,-0.11606431007385254
1711552012410057200,18.84405712890625,0.044440411031246185,0.45769044756889343,-0.1130099818110466
1711552012429016600,18.8630166015625,0.14737112820148468,0.2655734717845917,-0.06505709886550903
1711552012447976200,18.88197607421875,0.212733656167984,0.0032070400193333626,0.048563748598098755
1711552012466935800,18.900935791015623,0.19379685819149017,-0.3052796721458435,0.1588248461484909
1711552012485895200,18.919895263671876,0.19990549981594086,-0.6476693749427795,0.25442516803741455
1711552012504854800,18.938854736328125,0.2991710305213928,-0.7805324792861938,0.3020726442337036
1711552012523814100,18.957814208984374,0.35537058115005493,-0.7053961157798767,0.27550002932548523
1711552012542773800,18.976773681640626,0.29275694489479065,-0.5844448804855347,0.24709481000900269
1711552012561733400,18.9957333984375,0.19074252247810364,-0.4390590488910675,0.21349723637104034
1711552012580692700,19.014692626953124,0.13545925915241241,-0.3480401933193207,0.11698060482740402
1711552012599652400,19.03365234375,0.19929464161396027,-0.3019199073314667,0.05864302068948746
1711552012618612000,19.052612060546874,0.22006404399871826,-0.23258677124977112,0.08918625861406326
1711552012637571300,19.0715712890625,0.1464548259973526,-0.17638720571994781,0.09437860548496246
1711552012656531000,19.090531005859376,0.09422589093446732,-0.06337722390890121,0.039706211537122726
1711552012675490300,19.109490234375,0.08628465235233307,0.04718930274248123,-0.06108647957444191
1711552012694450000,19.128449951171874,0.04413498193025589,0.11621702462434769,-0.1542433500289917
1711552012713409500,19.147409423828126,-0.03741546720266342,0.17486004531383514,-0.1698204129934311
1711552012732369000,19.166368896484375,-0.11927134543657303,0.21181736886501312,-0.13622283935546875
1711552012751328500,19.18532861328125,-0.13332124054431915,0.24174973368644714,-0.11117739230394363
1711552012770288000,19.2042880859375,-0.13515383005142212,0.26251915097236633,-0.10720676928758621
1711552012789247500,19.22324755859375,-0.1821904182434082,0.23716825246810913,-0.10231985151767731
1711552012808207000,19.24220703125,-0.26251915097236633,0.20967933535575867,-0.11331541836261749
1711552012827166500,19.26116650390625,-0.30802857875823975,0.3269653618335724,-0.1692095398902893
1711552012846126000,19.2801259765625,-0.2680169343948364,0.5145008563995361,-0.20341797173023224
1711552012865085400,19.29908544921875,-0.25060728192329407,0.5282453298568726,-0.20830489695072174
1711552012884045000,19.318045166015626,-0.26648977398872375,0.49739664793014526,-0.16615521907806396
1711552012903004700,19.337004638671875,-0.23686282336711884,0.4909825623035431,-0.13255766034126282
1711552012921964000,19.355964111328124,-0.1360701322555542,0.48762279748916626,-0.10690133273601532
1711552012940923600,19.374923583984376,-0.09972367435693741,0.5175551772117615,-0.1185077652335167
1711552012959883000,19.393883056640625,-0.11346813291311264,0.5258018374443054,-0.17562362551689148
1711552012978842600,19.412842529296874,-0.08720094710588455,0.45738500356674194,-0.18784092366695404
1711552012997802200,19.43180224609375,-0.046883873641490936,0.3263545036315918,-0.1441640853881836
1711552013016761600,19.45076171875,-0.024281874299049377,0.12843431532382965,-0.07574722915887833
1711552013035721200,19.46972119140625,0.0019853105768561363,-0.06979130208492279,0.019853105768561363
1711552013054680800,19.488680908203126,0.07040216773748398,-0.25671592354774475,0.0821613147854805
1711552013073640200,19.50764013671875,0.12263110280036926,-0.4454731345176697,0.1591302752494812
1711552013092599600,19.526599609375,0.15989385545253754,-0.540768027305603,0.27916520833969116
1711552013111559200,19.54555908203125,0.21059563755989075,-0.5667297840118408,0.35155269503593445
1711552013130518800,19.564518798828125,0.2228129357099533,-0.5444332361221313,0.3075704276561737
1711552013149478100,19.58347802734375,0.19379685819149017,-0.4390590488910675,0.1905898153781891
1711552013168437800,19.602437744140627,0.14248420298099518,-0.29214608669281006,0.08552107214927673
1711552013187397400,19.6213974609375,0.051159925758838654,-0.13240493834018707,0.03756818547844887
1711552013206356700,19.640356689453125,0.0102319847792387,-0.04505127668380737,-0.008246674202382565
1711552013225316400,19.65931640625,0.04993819445371628,-0.07284562289714813,-0.021685699000954628
1711552013244275700,19.678275634765626,0.08781181275844574,-0.1876882016658783,0.05345066636800766
1711552013263235300,19.6972353515625,0.07070759683847427,-0.2228129357099533,0.11484257876873016
1711552013282194700,19.716194580078124,0.02458730712532997,-0.14859285950660706,0.08765909820795059
1711552013301154300,19.735154296875,-0.011453714221715927,-0.012980876490473747,0.01588248461484909
1711552013320114000,19.754114013671874,-0.04169152304530144,0.10125083476305008,-0.05100720748305321
1711552013339073300,19.7730732421875,-0.08781181275844574,0.14859285950660706,-0.08277218043804169
1711552013358033000,19.792032958984375,-0.1305723488330841,0.16905683279037476,-0.09498947113752365
1711552013376992300,19.8109921875,-0.15347976982593536,0.17547090351581573,-0.09101885557174683
1711552013395951900,19.829951904296873,-0.14370593428611755,0.1879936307668686,-0.0870482325553894
1711552013414911200,19.8489111328125,-0.09666935354471207,0.21548254787921906,-0.08307760953903198
1711552013433870800,19.867870849609375,-0.06734783947467804,0.15531237423419952,-0.044898562133312225
1711552013452830200,19.886830322265624,-0.0639880821108818,0.07406735420227051,0.03940077871084213
1711552013471789800,19.905789794921876,-0.037720900028944016,-0.005039634648710489,0.10567960888147354
1711552013490749400,19.92474951171875,0.006872228812426329,-0.20448698103427887,0.15210533142089844
1711552013509708800,19.943708740234374,0.05177079141139984,-0.4689914286136627,0.23426663875579834
1711552013528668400,19.96266845703125,0.04413498193025589,-0.6424770355224609,0.2761108875274658
1711552013547627800,19.981627685546876,0.004123337101191282,-0.6632464528083801,0.24465134739875793
1711552013566587400,20.00058740234375,-0.010842849500477314,-0.540768027305603,0.17715078592300415
1711552013585546800,20.019546630859374,-0.028557928279042244,-0.35353797674179077,0.07086031138896942
1711552013604506400,20.03850634765625,-0.05085449293255806,-0.11896591633558273,-0.06322450190782547
1711552013623465700,20.0574658203125,-0.08109229803085327,0.07284562289714813,-0.18875721096992493
1711552013642425300,20.07642529296875,-0.1418733447790146,0.28267768025398254,-0.28008151054382324
1711552013661384700,20.095384765625,-0.1715002804994583,0.7426588535308838,-0.4218021333217621
1711552013680344300,20.11434423828125,-0.1922696828842163,1.3315324783325195,-0.7367029190063477
1711552013699304000,20.133303955078127,-0.35873034596443176,1.6775873899459839,-0.9352339506149292
1711552013718263300,20.15226318359375,-0.5346593856811523,1.9005529880523682,-1.0803143978118896
1711552013737223000,20.171222900390624,-0.5926915407180786,2.022726058959961,-1.3402373790740967
1711552013756182300,20.190182373046873,-0.46227192878723145,2.006232738494873,-1.4633265733718872
1711552013775141600,20.2091416015625,-0.24510949850082397,1.8886412382125854,-1.349400281906128
1711552013794101200,20.228101318359375,-0.19898919761180878,1.603672742843628,-1.183245062828064
1711552013813060900,20.247060791015624,-0.18066325783729553,1.2344050407409668,-1.0396918058395386
1711552013832020200,20.266020263671876,-0.1055268943309784,0.8694133162498474,-0.7024945020675659
1711552013850979800,20.284979736328125,0.004428769461810589,0.4451677203178406,-0.2419024556875229
1711552013869939200,20.303939208984374,0.18952079117298126,-0.29367324709892273,0.28557929396629333
1711552013888898800,20.32289892578125,0.4350884258747101,-0.9439387917518616,0.7067705392837524
1711552013907858200,20.341858154296876,0.6443096399307251,-1.070082426071167,0.9483675956726074
1711552013926817800,20.36081787109375,0.6491965651512146,-0.8678861260414124,1.0051779747009277
1711552013945777200,20.379777099609374,0.5340485572814941,-0.5080868005752563,0.8753692507743835
1711552013964736800,20.39873681640625,0.40576693415641785,-0.21548254787921906,0.7220421433448792
1711552013983696100,20.417696044921875,0.3352120518684387,-0.2283107042312622,0.5531380772590637
1711552014002655700,20.43665576171875,0.2029598206281662,-0.3770562708377838,0.3271180987358093
1711552014021615000,20.455614990234373,-0.03527744114398956,-0.5438223481178284,0.20891575515270233
1711552014040574700,20.47457470703125,-0.14920371770858765,-0.5841394662857056,-0.0256563201546669
1711552014059534000,20.4935341796875,-0.23472478985786438,-0.5154171586036682,-0.26419901847839355
1711552014078493700,20.51249365234375,-0.36361727118492126,-0.3825540542602539,-0.41294458508491516
1711552014097453000,20.531453125,-0.45188722014427185,-0.19013166427612305,-0.5396990180015564
1711552014116412700,20.55041259765625,-0.42623090744018555,-0.08811724185943604,-0.5803215503692627
1711552014135372000,20.5693720703125,-0.2331976294517517,-0.1818849891424179,-0.47922343015670776
1711552014154331600,20.58833154296875,0.07803797721862793,-0.397825688123703,-0.07024945318698883
1711552014173291000,20.607291015625,0.23075416684150696,-0.689513623714447,0.5051851868629456
1711552014192250600,20.626250732421877,0.20082180202007294,-1.0526727437973022,0.8570432662963867
1711552014211210000,20.6452099609375,0.10369429737329483,-1.4146101474761963,0.8521563410758972
1711552014230169300,20.66416943359375,0.016646064817905426,-1.5386157035827637,0.6563742160797119
1711552014249129000,20.68312890625,0.0102319847792387,-1.2719731330871582,0.46975502371788025
1711552014268088300,20.70208837890625,0.057268574833869934,-0.7145590782165527,0.3454440236091614
1711552014287048000,20.7210478515625,0.08872810751199722,-0.044440411031246185,0.21746785938739777
1711552014306007300,20.74000732421875,0.06520981341600418,0.49800750613212585,0.10354158282279968
1711552014324967000,20.758966796875,0.04535670951008797,0.7426588535308838,0.07513637095689774
1711552014343926300,20.77792626953125,0.06826414167881012,0.5841394662857056,0.16249002516269684
1711552014362886000,20.796885986328125,0.10186170041561127,0.08781181275844574,0.3271180987358093
1711552014381845200,20.81584521484375,0.20082180202007294,-0.43020153045654297,0.5027416944503784
1711552014400804900,20.834804931640626,0.22739441692829132,-0.7359393239021301,0.5943714380264282
1711552014419764200,20.85376416015625,0.1516471803188324,-0.8810197114944458,0.5852084755897522
1711552014438723800,20.872723876953124,0.08781181275844574,-0.9075923562049866,0.5543597936630249
1711552014457683200,20.89168310546875,0.05177079141139984,-0.8092431426048279,0.5106829404830933
1711552014476642800,20.910642822265626,0.020311253145337105,-0.586888313293457,0.4098902642726898
1711552014495602200,20.929602294921875,-0.005650499369949102,-0.3013090491294861,0.25900667905807495
1711552014514561500,20.9485615234375,0.01206457894295454,-0.07651081681251526,0.17776164412498474
1711552014533521200,20.967521240234376,0.043829549103975296,0.009926552884280682,0.19944734871387482
1711552014552480500,20.98648046875,0.04413498193025589,-0.02977965772151947,0.21166464686393738
1711552014571440000,21.005440185546874,0.012675444595515728,-0.14217877388000488,0.22754712402820587
1711552014590399500,21.0243994140625,-0.014813470654189587,-0.2955058515071869,0.25503605604171753
1711552014609359000,21.043359130859375,-0.06551524996757507,-0.39507678151130676,0.2406807243824005
1711552014628318500,21.062318359375,-0.11377356201410294,-0.4225656986236572,0.2260199636220932
1711552014647278000,21.081278076171873,-0.12232567369937897,-0.4647153913974762,0.2309068888425827
1711552014666237400,21.100237548828126,-0.15500694513320923,-0.5893318057060242,0.21807873249053955
1711552014685197000,21.119197021484375,-0.2903134822845459,-0.7512109875679016,0.19730933010578156
1711552014704156400,21.138156494140624,-0.4864010810852051,-0.6815723776817322,0.16249002516269684
1711552014723115800,21.15711572265625,-0.5789470672607422,-0.4650208055973053,-0.04428769648075104
1711552014742075400,21.176075439453125,-0.6235402226448059,-0.3416261374950409,-0.30604326725006104
1711552014761034800,21.19503466796875,-0.6742420196533203,-0.26129740476608276,-0.41294458508491516
1711552014779994400,21.213994384765623,-0.735023021697998,-0.18860450387001038,-0.4059196412563324
1711552014798953700,21.23295361328125,-0.7738129496574402,-0.1406516134738922,-0.4477638900279999
1711552014817913000,21.2519130859375,-0.8910989761352539,-0.08017600327730179,-0.6420188546180725
1711552014836872700,21.270872802734374,-1.1840087175369263,0.7209731340408325,-1.3515383005142212
1711552014855832000,21.28983203125,-1.0383174419403076,2.1977386474609375,-1.8826853036880493
1711552014874791700,21.308791748046875,-0.7371610999107361,3.1256422996520996,-2.296546220779419
1711552014893751000,21.3277509765625,-0.5258018374443054,3.5721845626831055,-2.7174320220947266
1711552014912710700,21.346710693359373,-0.18035782873630524,3.9912376403808594,-3.196349859237671
1711552014931670000,21.365669921875,0.6006327867507935,3.719403028488159,-3.6315910816192627
1711552014950629600,21.384629638671875,1.3086251020431519,2.96742844581604,-3.123351573944092
1711552014969589000,21.403589111328124,1.041066288948059,2.0331106185913086,-1.7944152355194092
1711552014988548600,21.422548583984376,0.6546943187713623,1.2567015886306763,-0.8863648176193237
1711552015007508000,21.441508056640625,0.6629409790039062,-0.07162389904260635,-0.4205803871154785
1711552015026467600,21.460467529296874,0.5844448804855347,-0.9216422438621521,0.20402882993221283
1711552015045427000,21.479427001953123,0.10949750989675522,-0.7408262491226196,0.011606430634856224
1711552015064386600,21.498386474609376,0.249690979719162,1.0529781579971313,-0.8231402635574341
1711552015083346000,21.517345947265625,0.1925751268863678,3.919766664505005,-1.2507456541061401
1711552015102305300,21.53630517578125,-0.6012436747550964,4.807658672332764,-1.2159262895584106
1711552015121265000,21.555264892578126,-1.2918262481689453,2.7560691833496094,-2.0320417881011963
1711552015140224300,21.574224365234375,-1.4732531309127808,-0.22708898782730103,-1.8472551107406616
1711552015159184000,21.593183837890624,-0.9075923562049866,-2.1021385192871094,-1.4205660820007324
1711552015178143200,21.612143310546877,-0.48670652508735657,-1.2817469835281372,-0.5061014890670776
1711552015197102800,21.631102783203126,-0.2032652497291565,-0.42164942622184753,0.5024362802505493
1711552015216062200,21.650062255859375,0.21487168967723846,0.9259182810783386,1.0259474515914917
1711552015235021600,21.669021484375,-0.28725916147232056,2.168111801147461,0.7531962990760803
1711552015253981200,21.687981201171876,-1.162322998046875,1.1000148057937622,1.2525782585144043
1711552015272940800,21.70694091796875,-0.9472985863685608,-2.2893683910369873,1.9620976448059082
1711552015291900200,21.725900146484374,-0.5896372199058533,-5.434100151062012,2.2262966632843018
1711552015310859800,21.74485986328125,-0.6137663722038269,-6.289310932159424,2.0045528411865234
1711552015329819100,21.763819091796876,-0.5667297840118408,-4.951211929321289,1.5125012397766113
1711552015348778800,21.78277880859375,-0.3776671588420868,-2.981172800064087,1.1181880235671997
1711552015367738000,21.801738037109374,-0.3217730224132538,-1.021518588066101,0.8454368710517883
1711552015386697500,21.820697509765626,-0.22953243553638458,0.6082686185836792,0.6120865345001221
1711552015405657000,21.839656982421875,-0.19624030590057373,1.1045962572097778,0.5287034511566162
1711552015424616400,21.858616455078124,-0.2787070572376251,0.7979421019554138,0.3955349326133728
1711552015443576000,21.877576171875,-0.23136503994464874,-0.15347976982593536,0.3066541254520416
1711552015462535400,21.896535400390626,-0.0902552679181099,-0.9051488637924194,0.3533852696418762
1711552015481495000,21.9154951171875,-0.09880737960338593,-1.151021957397461,0.5506945848464966
1711552015500454700,21.93445458984375,-0.22708898782730103,-0.9066760540008545,0.6612611413002014
1711552015519414000,21.9534140625,-0.20601414144039154,-0.4555523991584778,0.7266236543655396
1711552015538373600,21.97237353515625,-0.1974620372056961,-0.5160280466079712,0.7660244107246399
1711552015557333000,21.9913330078125,-0.18860450387001038,-0.7582359313964844,0.6359102129936218
1711552015576292400,22.010292236328127,0.06154462695121765,-0.6485856771469116,0.4676169753074646
1711552015595252000,22.029251953125,0.2753472924232483,-0.3223838806152344,0.3903425931930542
1711552015614211300,22.04821142578125,0.1562286615371704,-0.04932733252644539,0.36224281787872314
1711552015633171000,22.0671708984375,-0.005039634648710489,0.03436114266514778,0.3494146466255188
1711552015652130600,22.086130615234374,0.012370011769235134,-0.21456626057624817,0.38881543278694153
1711552015671090000,22.10508984375,0.04657844081521034,-0.18982623517513275,0.30146175622940063
1711552015690049500,22.124049560546876,-0.003512472379952669,0.08750637620687485,0.04153880476951599
1711552015709009000,22.1430087890625,0.028863361105322838,0.42195484042167664,-0.0409279391169548
1711552015727968500,22.161968505859374,0.22647811472415924,0.7283035516738892,-0.06902772188186646
1711552015746928000,22.18092822265625,0.3263545036315918,0.8294016718864441,-0.11636973917484283
1711552015765887500,22.199887451171875,0.31383177638053894,0.6088794469833374,-0.003970621153712273
1711552015784846800,22.218846923828124,0.19379685819149017,0.0102319847792387,0.12247838824987411
1711552015803806500,22.237806396484373,-0.001679878099821508,-0.28787001967430115,0.18875721096992493
1711552015822766000,22.25676611328125,-0.0746782198548317,-0.16264274716377258,0.21746785938739777
1711552015841725400,22.275725341796875,0.023365577682852745,-0.07559451460838318,0.25473061203956604
1711552015860685000,22.29468505859375,0.1571449637413025,0.053603384643793106,0.32559093832969666
1711552015879644400,22.31364453125,0.17486004531383514,0.06979130208492279,0.39339691400527954
1711552015898604000,22.33260400390625,0.09941824525594711,-0.07070759683847427,0.4059196412563324
1711552015917563600,22.351563720703126,0.04230238497257233,-0.24816381931304932,0.3185659945011139
1711552015936523000,22.37052294921875,0.07834340631961823,-0.2689332067966461,0.21135921776294708
1711552015955482600,22.389482666015624,0.16416990756988525,-0.1617264449596405,0.13652828335762024
1711552015974442000,22.40844189453125,0.21670427918434143,0.16294817626476288,0.11636973917484283
1711552015993401600,22.427401611328126,0.16997312009334564,0.4696022868156433,0.014660755172371864
1711552016012361000,22.44636083984375,0.21517711877822876,0.615293562412262,-0.24220788478851318
1711552016031320600,22.465320556640624,0.6327031850814819,0.5703949928283691,-0.9334014058113098
1711552016050280200,22.4842802734375,0.7826704978942871,0.8397863507270813,-1.0836740732192993
1711552016069239600,22.503239501953125,0.2133445292711258,0.7374665141105652,-1.084285020828247
1711552016088199200,22.52219921875,0.1516471803188324,1.0273218154907227,-1.010064959526062
1711552016107158500,22.541158447265627,0.16539163887500763,1.3761255741119385,-0.6291907429695129
1711552016126118100,22.5601181640625,0.04046979174017906,0.9335541129112244,-0.10567960888147354
1711552016145077800,22.579077880859376,0.06520981341600418,0.16875138878822327,0.05589412897825241
1711552016164037000,22.598037109375,0.17394374310970306,-0.6653844714164734,-0.18692462146282196
1711552016182996700,22.616996826171874,0.0691804364323616,-1.0065524578094482,-0.40378162264823914
1711552016201956400,22.635956298828123,-0.030085090547800064,0.023365577682852745,-0.8451313972473145
1711552016220915700,22.654915771484376,-0.3223838806152344,1.5538872480392456,-1.3747512102127075
1711552016239875300,22.673875244140625,-0.8290961980819702,2.4039056301116943,-1.380554437637329
1711552016258834700,22.692834716796874,-1.0288490056991577,1.8752021789550781,-1.1725549697875977
1711552016277794300,22.711794189453126,-0.8669698238372803,0.6046034097671509,-0.9334014058113098
1711552016296754000,22.73075390625,-0.7463240623474121,0.10919208079576492,-0.1487455666065216
1711552016315713300,22.74971337890625,-0.5068650245666504,-1.087186574935913,0.41844236850738525
1711552016334673000,22.7686728515625,-0.10461059212684631,-1.170569658279419,0.2776380479335785
1711552016353632300,22.78763232421875,-0.05604684352874756,-0.771980345249176,0.1127045527100563
1711552016372591900,22.806591796875,-0.12965604662895203,-0.2707658112049103,-0.16157373785972595
1711552016391551500,22.825551513671876,-0.06765327602624893,0.049021899700164795,-0.043371398001909256
1711552016410511000,22.844510986328125,-0.05635227635502815,0.42164942622184753,0.10048725455999374
1711552016429470500,22.863470458984374,-0.042913250625133514,0.7328850030899048,-0.01954767294228077
1711552016448430000,22.88243017578125,-0.051159925758838654,0.05757400393486023,0.026878049597144127
1711552016467389400,22.901389404296875,-0.1003345400094986,-0.5737547278404236,0.17531819641590118
1711552016486349000,22.92034912109375,-0.1052214577794075,-0.6082686185836792,0.3243691921234131
1711552016505308700,22.93930859375,-0.04016435891389847,-0.6119337677955627,0.4211912751197815
1711552016524268300,22.958268310546874,0.05757400393486023,-0.6638572812080383,0.45998117327690125
1711552016543227600,22.9772275390625,0.07620538026094437,-0.49312058091163635,0.40866854786872864
1711552016562187300,22.996187255859375,0.08689551800489426,-0.314748078584671,0.3026835024356842
1711552016581146600,23.015146728515624,0.05818486958742142,-0.20662501454353333,0.2202167510986328
1711552016600106200,23.034106201171873,0.04230238497257233,-0.1253799945116043,-0.005803215317428112
1711552016619065900,23.05306591796875,0.16875138878822327,-0.3046688139438629,-0.4001164436340332
1711552016638025500,23.072025390625,0.6180424690246582,-0.3813323378562927,-0.4786125421524048
1711552016656984800,23.09098486328125,0.7750346660614014,-0.2435823380947113,-0.4618137776851654
1711552016675944400,23.1099443359375,0.717307984828949,-0.11438442766666412,-0.8826996088027954
1711552016694904000,23.128904052734374,0.5627591609954834,0.7417425513267517,-1.028085470199585
1711552016713863400,23.147863525390626,0.40118545293807983,1.6885830163955688,-0.8927788734436035
1711552016732823000,23.166822998046875,0.06062832847237587,1.9595015048980713,-0.785877525806427
1711552016751782700,23.18578271484375,-0.43081238865852356,0.892626166343689,-0.6322450637817383
1711552016770742300,23.2047421875,-0.595745861530304,-1.0642791986465454,-0.6826413869857788
1711552016789701600,23.22370166015625,0.053603384643793106,-2.6671884059906006,-0.435241162776947
1711552016808661200,23.2426611328125,0.6846266984939575,-2.7985243797302246,-0.1899789422750473
1711552016827620900,23.261620849609375,0.7515164017677307,-0.7768672704696655,-0.28008151054382324
