time,seconds_elapsed,z,y,x
1710953587355144400,0.03914453125,0.7071449756622314,9.281277656555176,3.0867810249328613
1710953587374102800,0.058102783203125,0.6136407852172852,9.321533203125,2.983765125274658
1710953587393060900,0.077060791015625,0.5348800420761108,9.361272811889648,2.8724303245544434
1710953587412019200,0.096019287109375,0.46469542384147644,9.396608352661133,2.7673439979553223
1710953587430977500,0.1149775390625,0.40039995312690735,9.422225952148438,2.6891863346099854
1710953587449935600,0.133935546875,0.3502076268196106,9.436887741088867,2.6444098949432373
1710953587468894000,0.15289404296875,0.31555381417274475,9.442344665527344,2.6292459964752197
1710953587487852000,0.17185205078125,0.29226961731910706,9.440056800842285,2.6401314735412598
1710953587506810000,0.19081005859375,0.28147369623184204,9.43299388885498,2.6664183139801025
1710953587525768400,0.2097685546875,0.27870896458625793,9.424702644348145,2.695866346359253
1710953587544726800,0.228726806640625,0.27959543466567993,9.41520881652832,2.728745222091675
1710953587563684900,0.247684814453125,0.2846921682357788,9.406726837158203,2.7573208808898926
1710953587582643200,0.266643310546875,0.2882043421268463,9.401117324829102,2.7760255336761475
1710953587601601300,0.285601318359375,0.2878183424472809,9.3983736038208,2.785341501235962
1710953587620559600,0.3045595703125,0.28971588611602783,9.39759635925293,2.7877652645111084
1710953587639518000,0.32351806640625,0.2903035581111908,9.398613929748535,2.7842719554901123
1710953587658476000,0.34247607421875,0.2818133533000946,9.399771690368652,2.7812376022338867
1710953587677434000,0.36143408203125,0.2674209475517273,9.399548530578613,2.783409595489502
1710953587696392400,0.380392333984375,0.25455737113952637,9.398054122924805,2.7896525859832764
1710953587715350500,0.3993505859375,0.24593989551067352,9.395692825317383,2.798368453979492
1710953587734308900,0.418308837890625,0.23697134852409363,9.39251708984375,2.8097753524780273
1710953587753267200,0.43726708984375,0.22528669238090515,9.38885498046875,2.8229479789733887
1710953587772225300,0.456225341796875,0.21244212985038757,9.385140419006348,2.8362607955932617
1710953587791183600,0.47518359375,0.200771301984787,9.382033348083496,2.8473706245422363
1710953587810141700,0.4941416015625,0.19070971012115479,9.379121780395508,2.8576364517211914
1710953587829100000,0.51310009765625,0.18199209868907928,9.376812934875488,2.8657703399658203
1710953587848058400,0.532058349609375,0.1740594059228897,9.3749418258667,2.872377872467041
1710953587867016400,0.551016357421875,0.1663525402545929,9.37321662902832,2.8784594535827637
1710953587885974800,0.569974853515625,0.1599096655845642,9.371675491333008,2.883835554122925
1710953587904932900,0.588932861328125,0.15465272963047028,9.370665550231934,2.8874032497406006
1710953587923891200,0.60789111328125,0.14895573258399963,9.369815826416016,2.89045786857605
1710953587942849300,0.626849365234375,0.14218641817569733,9.368531227111816,2.8949601650238037
1710953587961807600,0.6458076171875,0.13692890107631683,9.366976737976074,2.900239944458008
1710953587980765700,0.664765625,0.13611255586147308,9.365357398986816,2.9055025577545166
1710953587999724000,0.68372412109375,0.13929593563079834,9.363788604736328,2.9104042053222656
1710953588018682000,0.70268212890625,0.14418363571166992,9.362221717834473,2.915201187133789
1710953588037640400,0.721640380859375,0.14824986457824707,9.36080265045166,2.9195523262023926
1710953588056598800,0.740598876953125,0.15270647406578064,9.359861373901367,2.9223387241363525
1710953588075556900,0.759556884765625,0.15811166167259216,9.359415054321289,2.9234824180603027
1710953588094515200,0.77851513671875,0.16176407039165497,9.359265327453613,2.923757791519165
1710953588113473300,0.797473388671875,0.16440615057945251,9.358915328979492,2.9247329235076904
1710953588132431600,0.816431640625,0.16714856028556824,9.358782768249512,2.925001382827759
1710953588151390000,0.835389892578125,0.17095085978507996,9.35931396484375,2.923081398010254
1710953588170348000,0.85434814453125,0.1747279316186905,9.360332489013672,2.9195942878723145
1710953588189306400,0.873306396484375,0.18118949234485626,9.36246395111084,2.9123573303222656
1710953588208264700,0.8922646484375,0.1882236897945404,9.365925788879395,2.9007561206817627
1710953588227222800,0.911222900390625,0.1928049772977829,9.369470596313477,2.8889853954315186
1710953588246181000,0.93018115234375,0.19598110020160675,9.372647285461426,2.878448963165283
1710953588265139200,0.94913916015625,0.20469456911087036,9.376116752624512,2.8665194511413574
1710953588284097500,0.96809765625,0.21889013051986694,9.38060474395752,2.8507421016693115
1710953588303056000,0.987055908203125,0.23284317553043365,9.385225296020508,2.8343818187713623
1710953588322014200,1.00601416015625,0.24795764684677124,9.389450073242188,2.819065809249878
1710953588340972300,1.02497216796875,0.26895415782928467,9.393990516662598,2.8019654750823975
1710953588359930600,1.0439306640625,0.29867589473724365,9.399504661560059,2.7803738117218018
1710953588378888700,1.062888671875,0.3398624658584595,9.406301498413086,2.752521514892578
1710953588397847000,1.081846923828125,0.39258456230163574,9.414168357849121,2.7183992862701416
1710953588416805400,1.100805419921875,0.45597851276397705,9.421963691711426,2.681248664855957
1710953588435763500,1.119763427734375,0.5285817980766296,9.427882194519043,2.6468889713287354
1710953588454721800,1.1387216796875,0.6106382608413696,9.430375099182129,2.6202163696289062
1710953588473680100,1.15768017578125,0.7074006795883179,9.427919387817383,2.604673147201538
1710953588492638200,1.17663818359375,0.8175265789031982,9.419116020202637,2.6042826175689697
1710953588511596500,1.195596435546875,0.9344430565834045,9.404097557067871,2.6191885471343994
1710953588530555000,1.214554931640625,1.0526535511016846,9.382802963256836,2.6505320072174072
1710953588549513000,1.233512939453125,1.167436122894287,9.355618476867676,2.698124647140503
1710953588568471300,1.25247119140625,1.2846107482910156,9.323416709899902,2.755736827850342
1710953588587429600,1.2714296875,1.398002028465271,9.284566879272461,2.830688953399658
1710953588606388000,1.290387939453125,1.4939078092575073,9.240511894226074,2.9243061542510986
1710953588625346300,1.30934619140625,1.554914116859436,9.19879150390625,3.022392749786377
1710953588644304400,1.328304443359375,1.5874621868133545,9.157373428344727,3.12935471534729
1710953588663262700,1.3472626953125,1.6005311012268066,9.110024452209473,3.258242130279541
1710953588682221000,1.366220947265625,1.5848042964935303,9.0549898147583,3.415543794631958
1710953588701179100,1.38517919921875,1.5281058549880981,8.990888595581055,3.6054391860961914
1710953588720137500,1.404137451171875,1.4284523725509644,8.914087295532227,3.8300068378448486
1710953588739095800,1.423095703125,1.2830535173416138,8.821619033813477,4.086954593658447
1710953588758054100,1.44205419921875,1.0906928777694702,8.707868576049805,4.37650728225708
1710953588777012200,1.46101220703125,0.8595482110977173,8.564902305603027,4.698297500610352
1710953588795970600,1.479970458984375,0.6016743779182434,8.390575408935547,5.040498733520508
1710953588814929000,1.498928955078125,0.33043861389160156,8.184744834899902,5.391766548156738
1710953588833887200,1.51788720703125,0.05196738615632057,7.94441556930542,5.749256610870361
1710953588852845600,1.536845458984375,-0.22487790882587433,7.667074680328369,6.110301971435547
1710953588871804000,1.555803955078125,-0.4949799180030823,7.353072166442871,6.469754695892334
1710953588890762200,1.57476220703125,-0.7604076862335205,7.007165908813477,6.818489074707031
1710953588909720300,1.59372021484375,-1.0232445001602173,6.634426116943359,7.14896821975708
1710953588928678700,1.6126787109375,-1.2881675958633423,6.239733695983887,7.454980373382568
1710953588947637000,1.631636962890625,-1.5545135736465454,5.831523895263672,7.729630947113037
1710953588966595300,1.65059521484375,-1.817379117012024,5.415186882019043,7.9714035987854
1710953588985553700,1.6695537109375,-2.0781502723693848,4.991444110870361,8.181513786315918
1710953589004512000,1.688511962890625,-2.331897497177124,4.562545299530029,8.361568450927734
1710953589023470000,1.707469970703125,-2.5659687519073486,4.135275840759277,8.513853073120117
1710953589042428400,1.726428466796875,-2.7565810680389404,3.720452308654785,8.644644737243652
1710953589061386800,1.74538671875,-2.8889660835266113,3.3204963207244873,8.763479232788086
1710953589080345000,1.764344970703125,-2.9541337490081787,2.929532527923584,8.880390167236328
1710953589099303400,1.783303466796875,-2.958690643310547,2.541243076324463,8.997700691223145
1710953589118261800,1.80226171875,-2.910332679748535,2.1609339714050293,9.1121187210083
1710953589137220000,1.82122021484375,-2.8311028480529785,1.7920225858688354,9.21650218963623
1710953589156178400,1.840178466796875,-2.7336642742156982,1.4374808073043823,9.30758285522461
1710953589175136500,1.859136474609375,-2.6329500675201416,1.0995020866394043,9.382380485534668
1710953589194094800,1.8780947265625,-2.541407585144043,0.7833434343338013,9.43917465209961
1710953589213053200,1.89705322265625,-2.4693777561187744,0.48373448848724365,9.478321075439453
1710953589232011500,1.916011474609375,-2.4107825756073,0.20277272164821625,9.503546714782715
1710953589250969900,1.934969970703125,-2.3678297996520996,-0.05398210510611534,9.51634693145752
1710953589269928200,1.95392822265625,-2.358954906463623,-0.2706660032272339,9.514854431152344
1710953589288886500,1.972886474609375,-2.381265640258789,-0.4303661286830902,9.50340747833252
1710953589307844900,1.991844970703125,-2.4168684482574463,-0.5457876920700073,9.488479614257812
1710953589326803200,2.01080322265625,-2.455753803253174,-0.6463598608970642,9.472164154052734
1710953589345761500,2.029761474609375,-2.4994850158691406,-0.7454969882965088,9.453422546386719
1710953589364719900,2.048719970703125,-2.5434963703155518,-0.8334190249443054,9.434321403503418
1710953589383678200,2.06767822265625,-2.573160409927368,-0.9015764594078064,9.420000076293945
1710953589402636500,2.086636474609375,-2.5788800716400146,-0.9541621804237366,9.413253784179688
1710953589421595000,2.105594970703125,-2.548715829849243,-1.0064679384231567,9.416021347045898
1710953589440553200,2.12455322265625,-2.4792840480804443,-1.0771570205688477,9.42673110961914
1710953589459511600,2.143511474609375,-2.4061450958251953,-1.1731057167053223,9.434228897094727
1710953589478470000,2.162469970703125,-2.3691351413726807,-1.2727006673812866,9.430685997009277
1710953589497428200,2.18142822265625,-2.3865060806274414,-1.3548153638839722,9.414852142333984
1710953589516386600,2.200386474609375,-2.4345638751983643,-1.4157166481018066,9.393563270568848
1710953589535345000,2.219344970703125,-2.4948837757110596,-1.4629199504852295,9.370475769042969
1710953589554303200,2.23830322265625,-2.5573556423187256,-1.4970520734786987,9.34821605682373
1710953589573261800,2.25726171875,-2.609523057937622,-1.5206434726715088,9.329973220825195
1710953589592220000,2.276219970703125,-2.6388330459594727,-1.5394574403762817,9.31863784790039
1710953589611178200,2.29517822265625,-2.648904800415039,-1.5551930665969849,9.313165664672852
1710953589630136600,2.314136474609375,-2.652946710586548,-1.5638480186462402,9.310565948486328
1710953589649095000,2.333094970703125,-2.6676535606384277,-1.5606387853622437,9.306900978088379
1710953589668053500,2.352053466796875,-2.700087070465088,-1.5467818975448608,9.299859046936035
1710953589687011800,2.37101171875,-2.744640350341797,-1.5235809087753296,9.290641784667969
1710953589705970200,2.38997021484375,-2.798710584640503,-1.4933617115020752,9.279411315917969
1710953589724928500,2.408928466796875,-2.8682665824890137,-1.4573655128479004,9.263882637023926
1710953589743886800,2.427886962890625,-2.9529855251312256,-1.4228155612945557,9.242610931396484
1710953589762845200,2.44684521484375,-3.042825698852539,-1.3938812017440796,9.217845916748047
1710953589781803500,2.465803466796875,-3.139296054840088,-1.364702582359314,9.189820289611816
1710953589800762000,2.48476220703125,-3.2404654026031494,-1.3260432481765747,9.160314559936523
1710953589819720400,2.503720458984375,-3.344149589538574,-1.2762274742126465,9.13007640838623
1710953589838678800,2.5226787109375,-3.4460556507110596,-1.2215995788574219,9.099602699279785
1710953589857637000,2.54163720703125,-3.5388026237487793,-1.1728521585464478,9.07037353515625
1710953589876595500,2.560595458984375,-3.617488384246826,-1.1312968730926514,9.044574737548828
1710953589895553800,2.5795537109375,-3.677701234817505,-1.094348669052124,9.024815559387207
1710953589914512100,2.59851220703125,-3.7180325984954834,-1.0655937194824219,9.01172161102295
1710953589933470700,2.617470703125,-3.740689992904663,-1.0497716665267944,9.004199028015137
1710953589952429000,2.636428955078125,-3.7533485889434814,-1.045823335647583,8.9993896484375
1710953589971387400,2.655387451171875,-3.7703492641448975,-1.0459141731262207,8.992270469665527
1710953589990345700,2.674345703125,-3.7845613956451416,-1.0421894788742065,8.986730575561523
1710953590009304300,2.69330419921875,-3.7716989517211914,-1.030018925666809,8.993538856506348
1710953590028262700,2.7122626953125,-3.730804443359375,-1.0105537176132202,9.012784004211426
1710953590047221000,2.731220947265625,-3.691718101501465,-0.9793481826782227,9.032301902770996
1710953590066179300,2.750179443359375,-3.6836202144622803,-0.9246160984039307,9.041372299194336
1710953590085137700,2.7691376953125,-3.727177381515503,-0.8401983976364136,9.031755447387695
1710953590104096300,2.78809619140625,-3.8282151222229004,-0.7205860614776611,8.999773979187012
1710953590123054600,2.8070546875,-3.982848882675171,-0.5694795846939087,8.943321228027344
1710953590142013000,2.826012939453125,-4.197213172912598,-0.4022201597690582,8.853926658630371
1710953590160971300,2.84497119140625,-4.44890022277832,-0.21549569070339203,8.736775398254395
1710953590179929600,2.8639296875,-4.684244632720947,0.009149913676083088,8.615575790405273
1710953590198888200,2.88288818359375,-4.8563103675842285,0.2929953932762146,8.514739036560059
1710953590217846500,2.901846435546875,-4.946017742156982,0.6493395566940308,8.443083763122559
1710953590236804900,2.920804931640625,-4.961550235748291,1.0880184173583984,8.388660430908203
1710953590255763500,2.939763427734375,-4.892462730407715,1.591753363609314,8.34868335723877
1710953590274721800,2.9587216796875,-4.731477737426758,2.1293296813964844,8.321625709533691
1710953590293680000,2.97768017578125,-4.502468109130859,2.6671502590179443,8.293641090393066
1710953590312638500,2.996638427734375,-4.226027488708496,3.1762800216674805,8.25968074798584
1710953590331597000,3.01559716796875,-3.9234745502471924,3.6338422298431396,8.22021484375
1710953590350555400,3.034555419921875,-3.63210391998291,4.046494483947754,8.1611328125
1710953590369513700,3.053513671875,-3.387988805770874,4.4311747550964355,8.065766334533691
1710953590388472300,3.072472412109375,-3.1958651542663574,4.796656131744385,7.934036731719971
1710953590407430700,3.0914306640625,-3.028122663497925,5.154404640197754,7.77386474609375
1710953590426389000,3.110388916015625,-2.85067081451416,5.51589822769165,7.5907135009765625
1710953590445347600,3.12934765625,-2.63728666305542,5.884742259979248,7.3881611824035645
1710953590464306000,3.148305908203125,-2.370544910430908,6.258502006530762,7.168128490447998
1710953590483264300,3.16726416015625,-2.037412166595459,6.636450290679932,6.9265336990356445
1710953590502222800,3.186222900390625,-1.677493929862976,7.008910655975342,6.650681972503662
1710953590521181200,3.20518115234375,-1.330029845237732,7.351736545562744,6.3524298667907715
1710953590540139500,3.224139404296875,-1.0043158531188965,7.654121398925781,6.047823905944824
1710953590559098000,3.24309814453125,-0.7238662242889404,7.920123100280762,5.737426280975342
1710953590578056400,3.262056396484375,-0.5000642538070679,8.151124954223633,5.429501056671143
1710953590597015000,3.28101513671875,-0.33495447039604187,8.345316886901855,5.139443397521973
1710953590615973400,3.299973388671875,-0.2222171276807785,8.507954597473145,4.871932029724121
1710953590634931700,3.318931640625,-0.1439700722694397,8.643880844116211,4.629576683044434
1710953590653890300,3.337890380859375,-0.08295007795095444,8.755351066589355,4.416711807250977
1710953590672848600,3.3568486328125,-0.027891162782907486,8.839975357055664,4.245519161224365
1710953590691807200,3.37580712890625,0.02811073139309883,8.902474403381348,4.112850666046143
1710953590710765600,3.394765625,0.08367567509412766,8.949869155883789,4.007897853851318
1710953590729724000,3.413723876953125,0.13724666833877563,8.984161376953125,3.9289183616638184
1710953590748682500,3.4326826171875,0.1916676014661789,9.005313873291016,3.8778839111328125
1710953590767640800,3.451640869140625,0.24723640084266663,9.0167236328125,3.8481099605560303
1710953590786599400,3.470599365234375,0.3033190369606018,9.024469375610352,3.825878620147705
1710953590805557800,3.489557861328125,0.36012011766433716,9.035797119140625,3.7940826416015625
1710953590824516000,3.50851611328125,0.41616976261138916,9.054547309875488,3.7433078289031982
1710953590843474700,3.527474609375,0.47138503193855286,9.078289985656738,3.678698778152466
1710953590862433000,3.54643310546875,0.5220757126808167,9.103790283203125,3.6081607341766357
1710953590881391600,3.5653916015625,0.5658390522003174,9.129591941833496,3.5356409549713135
1710953590900350000,3.584349853515625,0.5897302627563477,9.157015800476074,3.4600107669830322
1710953590919308300,3.603308349609375,0.5814462900161743,9.187960624694824,3.378415822982788
1710953590938267000,3.622266845703125,0.5453283190727234,9.221923828125,3.290764570236206
1710953590957225200,3.64122509765625,0.49085885286331177,9.258020401000977,3.1966402530670166
1710953590976183600,3.66018359375,0.4283415377140045,9.296491622924805,3.0922718048095703
1710953590995142100,3.67914208984375,0.36349719762802124,9.335951805114746,2.9796369075775146
1710953591014100700,3.698100830078125,0.2916347086429596,9.37507438659668,2.862398147583008
1710953591033059000,3.71705908203125,0.21385279297828674,9.413928031921387,2.7390918731689453
1710953591052017400,3.736017333984375,0.1334766149520874,9.452113151550293,2.609621524810791
1710953591070976000,3.75497607421875,0.06022127717733383,9.489651679992676,2.4725022315979004
1710953591089934300,3.773934326171875,-0.004016741644591093,9.52637767791748,2.327765464782715
1710953591108893000,3.792892822265625,-0.0576452761888504,9.561664581298828,2.1775307655334473
1710953591127851300,3.811851318359375,-0.09943754225969315,9.593555450439453,2.0308141708374023
1710953591146809600,3.8308095703125,-0.12511901557445526,9.620777130126953,1.896150827407837
1710953591165768200,3.849768310546875,-0.12896086275577545,9.644639015197754,1.770505666732788
1710953591184726800,3.868726806640625,-0.10592297464609146,9.667142868041992,1.6448463201522827
1710953591203685000,3.88768505859375,-0.05419604107737541,9.689281463623047,1.5117138624191284
1710953591222643500,3.9066435546875,0.022336313501000404,9.709815979003906,1.3745394945144653
1710953591241602000,3.92560205078125,0.12079062312841415,9.726638793945312,1.2442984580993652
1710953591260560400,3.944560302734375,0.23674149811267853,9.738433837890625,1.1301546096801758
1710953591279519000,3.96351904296875,0.3607425093650818,9.745450019836426,1.032694935798645
1710953591298477300,3.982477294921875,0.4853294789791107,9.748668670654297,0.9477951526641846
1710953591317436000,4.001435791015625,0.6038497090339661,9.7488431930542,0.8751081228256226
1710953591336394200,4.020394287109375,0.7079682350158691,9.74669361114502,0.8192265033721924
1710953591355352800,4.039352783203125,0.793163001537323,9.742653846740723,0.7886604070663452
1710953591374311200,4.058311279296875,0.8658598065376282,9.73641586303711,0.7892183661460876
1710953591393269500,4.07726953125,0.9367349147796631,9.727447509765625,0.8183507323265076
1710953591412228000,4.09622802734375,1.0046360492706299,9.71573543548584,0.8749798536300659
1710953591431186700,4.115186767578125,1.054457187652588,9.703615188598633,0.9478148818016052
1710953591450145000,4.13414501953125,1.0685503482818604,9.695707321166992,1.0108635425567627
1710953591469103400,4.153103271484375,1.040415644645691,9.69355583190918,1.0596674680709839
1710953591488062000,4.17206201171875,0.9799589514732361,9.694387435913086,1.1085656881332397
1710953591507020500,4.1910205078125,0.9030336737632751,9.695808410644531,1.160269856452942
1710953591525979000,4.209978759765625,0.8167126774787903,9.69921875,1.1952060461044312
1710953591544937200,4.228937255859375,0.7247316837310791,9.707234382629395,1.189432978630066
1710953591563895800,4.247895751953125,0.646808922290802,9.719080924987793,1.1364376544952393
1710953591582854100,4.266854248046875,0.6122871041297913,9.731308937072754,1.0474331378936768
1710953591601812700,4.285812744140625,0.6358465552330017,9.739886283874512,0.9490557312965393
1710953591620771000,4.30477099609375,0.7020171880722046,9.74223804473877,0.8754136562347412
1710953591639729700,4.323729736328125,0.7816338539123535,9.738858222961426,0.8450459241867065
1710953591658688000,4.34268798828125,0.8443411588668823,9.732514381408691,0.8576887845993042
1710953591677646600,4.361646484375,0.8654866814613342,9.727477073669434,0.8930421471595764
1710953591696605000,4.38060498046875,0.8347522020339966,9.727105140686035,0.9257464408874512
1710953591715563500,4.3995634765625,0.7574499249458313,9.731502532958984,0.9457809329032898
1710953591734521900,4.41852197265625,0.6510906219482422,9.737984657287598,0.958189070224762
1710953591753480400,4.43748046875,0.5377012491226196,9.74334716796875,0.973881721496582
1710953591772438800,4.456438720703125,0.435865193605423,9.746026039123535,0.9976938366889954
1710953591791397400,4.4753974609375,0.3526288568973541,9.746254920959473,1.0278838872909546
1710953591810355700,4.494355712890625,0.28681427240371704,9.745467185974121,1.055457592010498
1710953591829314300,4.513314208984375,0.23545923829078674,9.745428085327148,1.0684539079666138
1710953591848272600,4.532272705078125,0.20116442441940308,9.746818542480469,1.062757968902588
1710953591867231200,4.551231201171875,0.1862674057483673,9.74925708770752,1.0429167747497559
1710953591886189600,4.570189453125,0.19341056048870087,9.75133228302002,1.022007942199707
1710953591905148200,4.589148193359375,0.2190106213092804,9.751876831054688,1.011601209640503
1710953591924106500,4.6081064453125,0.25103724002838135,9.750686645507812,1.0156195163726807
1710953591943065000,4.627065185546875,0.2847787141799927,9.747694969177246,1.0352411270141602
1710953591962023400,4.6460234375,0.32052314281463623,9.742157936096191,1.0761158466339111
1710953591980982000,4.66498193359375,0.35549551248550415,9.733270645141602,1.1434402465820312
1710953591999940400,4.6839404296875,0.3807816207408905,9.722213745117188,1.2263593673706055
1710953592018899000,4.70289892578125,0.38325250148773193,9.713006973266602,1.296532154083252
1710953592037857300,4.721857177734375,0.36892154812812805,9.70873737335205,1.3321850299835205
1710953592056815900,4.74081591796875,0.3447917401790619,9.70804500579834,1.3436408042907715
1710953592075774200,4.759774169921875,0.3126718997955322,9.709773063659668,1.3390036821365356
1710953592094732800,4.77873291015625,0.2922479808330536,9.712152481079102,1.3263018131256104
1710953592113691100,4.797691162109375,0.28168272972106934,9.711820602416992,1.3310105800628662
1710953592132649700,4.816649658203125,0.27889278531074524,9.709412574768066,1.3490419387817383
1710953592151608000,4.835608154296875,0.2990279495716095,9.707046508789062,1.3616890907287598
1710953592170566700,4.854566650390625,0.34165000915527344,9.702252388000488,1.385619878768921
1710953592189525000,4.87352490234375,0.38512131571769714,9.6922025680542,1.4433528184890747
1710953592208483600,4.892483642578125,0.4074920415878296,9.68067455291748,1.5129053592681885
1710953592227442000,4.91144189453125,0.3933763802051544,9.674517631530762,1.555419683456421
1710953592246400300,4.930400146484375,0.3467594087123871,9.674674034118652,1.56550931930542
1710953592265358800,4.94935888671875,0.2888057827949524,9.677563667297363,1.5594019889831543
1710953592284317400,4.9683173828125,0.24124541878700256,9.68079948425293,1.5473557710647583
1710953592303275800,4.98727587890625,0.21549978852272034,9.683783531188965,1.5324132442474365
1710953592322234000,5.006234130859375,0.21317368745803833,9.685646057128906,1.5209195613861084
1710953592341192700,5.025192626953125,0.23401615023612976,9.68576431274414,1.5171008110046387
1710953592360151300,5.0441513671875,0.276553213596344,9.683310508728027,1.5255851745605469
1710953592379109600,5.063109619140625,0.33443501591682434,9.676989555358887,1.5538421869277954
1710953592398068000,5.08206787109375,0.39658308029174805,9.667303085327148,1.5988662242889404
1710953592417026600,5.101026611328125,0.4488149881362915,9.656399726867676,1.6501203775405884
1710953592435985200,5.119985107421875,0.472637802362442,9.646649360656738,1.699745535850525
1710953592454943500,5.138943603515625,0.46012330055236816,9.639532089233398,1.7430124282836914
1710953592473901800,5.15790185546875,0.429472416639328,9.635388374328613,1.7734805345535278
1710953592492860400,5.1768603515625,0.404582142829895,9.63487720489502,1.782088041305542
1710953592511819000,5.195819091796875,0.3967934250831604,9.637543678283691,1.7693787813186646
1710953592530777300,5.21477734375,0.40714961290359497,9.64039134979248,1.7514194250106812
1710953592549735700,5.233735595703125,0.43542537093162537,9.63791275024414,1.7582440376281738
1710953592568694300,5.2526943359375,0.47916701436042786,9.625974655151367,1.8114615678787231
1710953592587652600,5.271652587890625,0.5182411670684814,9.605072975158691,1.909024953842163
1710953592606611200,5.290611083984375,0.5158807039260864,9.582252502441406,2.021062135696411
1710953592625569500,5.309569580078125,0.4558166265487671,9.567923545837402,2.1017744541168213
1710953592644528000,5.328528076171875,0.37393301725387573,9.568442344665527,2.1155309677124023
1710953592663486500,5.347486572265625,0.3172172009944916,9.576532363891602,2.088010787963867
1710953592682445000,5.366445068359375,0.3016836941242218,9.582046508789062,2.064887046813965
1710953592701403400,5.3854033203125,0.3225337862968445,9.577929496765137,2.0807759761810303
1710953592720362000,5.404362060546875,0.35968542098999023,9.56395149230957,2.1381897926330566
1710953592739320300,5.4233203125,0.38514286279678345,9.54919147491455,2.1988627910614014
1710953592758278700,5.442278564453125,0.3770447075366974,9.541251182556152,2.2344441413879395
1710953592777237200,5.4612373046875,0.33467215299606323,9.541102409362793,2.2418177127838135
1710953592796195800,5.48019580078125,0.27443721890449524,9.543676376342773,2.239042282104492
1710953592815154200,5.499154296875,0.21131491661071777,9.542941093444824,2.2489993572235107
1710953592834112500,5.518112548828125,0.14987869560718536,9.53652286529541,2.2809371948242188
1710953592853071000,5.537071044921875,0.09014077484607697,9.52550983428955,2.329573154449463
1710953592872029700,5.55602978515625,0.03498983383178711,9.511993408203125,2.3856146335601807
1710953592890988000,5.574988037109375,-0.00735786696895957,9.49801254272461,2.4409241676330566
1710953592909946400,5.5939462890625,-0.02706172689795494,9.485766410827637,2.487950563430786
1710953592928905000,5.612905029296875,-0.02010347507894039,9.476622581481934,2.5226144790649414
1710953592947863300,5.63186328125,0.007708502002060413,9.469237327575684,2.5502681732177734
1710953592966822000,5.65082177734375,0.048972949385643005,9.461189270019531,2.5795094966888428
1710953592985780200,5.6697802734375,0.0949220061302185,9.45254898071289,2.609731435775757
1710953593004738800,5.68873876953125,0.13782818615436554,9.445067405700684,2.634784460067749
1710953593023697200,5.707697265625,0.1733858287334442,9.439146995544434,2.6538357734680176
1710953593042655700,5.72665576171875,0.19783391058444977,9.433365821838379,2.6726126670837402
1710953593061614000,5.745614013671875,0.20839178562164307,9.427372932434082,2.692880868911743
1710953593080572700,5.76457275390625,0.2033686488866806,9.422486305236816,2.7103095054626465
1710953593099531000,5.783531005859375,0.18460747599601746,9.420425415039062,2.718803644180298
1710953593118489600,5.802489501953125,0.16184011101722717,9.423332214355469,2.710167169570923
1710953593137448000,5.821447998046875,0.1480044573545456,9.432538986206055,2.6787490844726562
1710953593156406500,5.840406494140625,0.1425146758556366,9.44185733795166,2.6460165977478027
1710953593175364900,5.85936474609375,0.1212197095155716,9.444804191589355,2.6365439891815186
1710953593194323500,5.878323486328125,0.08088480681180954,9.449743270874023,2.6203410625457764
1710953593213281800,5.89728173828125,0.0368913970887661,9.462141036987305,2.576220989227295
1710953593232240000,5.916240234375,0.002923583146184683,9.479416847229004,2.512179136276245
1710953593251198700,5.93519873046875,-0.012657255865633488,9.500151634216309,2.4325592517852783
1710953593270157300,5.9541572265625,-0.006475755479186773,9.518319129943848,2.3604984283447266
1710953593289115600,5.97311572265625,0.012661906890571117,9.526086807250977,2.3289284706115723
1710953593308074000,5.992073974609375,0.031897325068712234,9.52750015258789,2.3229501247406006
1710953593327032600,6.011032470703125,0.050874512642621994,9.533537864685059,2.2977049350738525
1710953593345991200,6.0299912109375,0.06547587364912033,9.548540115356445,2.2341625690460205
1710953593364949500,6.048949462890625,0.0707584023475647,9.568262100219727,2.147961139678955
1710953593383907800,6.067907958984375,0.07427073270082474,9.587201118469238,2.061659812927246
1710953593402866400,6.086866455078125,0.08801119774580002,9.602806091308594,1.9871490001678467
1710953593421825000,6.105824951171875,0.11930957436561584,9.615046501159668,1.9253677129745483
1710953593440783400,6.124783447265625,0.1650094836950302,9.624229431152344,1.875464677810669
1710953593459741700,6.14374169921875,0.21380211412906647,9.63017749786377,1.8396649360656738
1710953593478700300,6.1627001953125,0.25538143515586853,9.63227653503418,1.823294758796692
1710953593497659000,6.181658935546875,0.2834227979183197,9.63044548034668,1.8288159370422363
1710953593516617200,6.2006171875,0.2935216426849365,9.625895500183105,1.8510463237762451
1710953593535575600,6.219575439453125,0.28286460041999817,9.62067699432373,1.8796144723892212
1710953593554534100,6.2385341796875,0.25649338960647583,9.615544319152832,1.909428596496582
1710953593573492700,6.25749267578125,0.2256413847208023,9.611504554748535,1.9335079193115234
1710953593592451000,6.276451171875,0.2016768455505371,9.610875129699707,1.939274549484253
1710953593611409700,6.29540966796875,0.1931230127811432,9.613237380981445,1.9284104108810425
1710953593630368000,6.314367919921875,0.201542466878891,9.615548133850098,1.9159890413284302
1710953593649326600,6.33332666015625,0.22545143961906433,9.613980293273926,1.9211783409118652
1710953593668285000,6.352284912109375,0.2571626603603363,9.604673385620117,1.9632863998413086
1710953593687243500,6.371243408203125,0.2667396068572998,9.58829116821289,2.0405688285827637
1710953593706201900,6.390201904296875,0.2357528954744339,9.57046127319336,2.1262857913970947
1710953593725160400,6.409160400390625,0.17575354874134064,9.556619644165039,2.1932859420776367
1710953593744118800,6.428118896484375,0.11268521100282669,9.553051948547363,2.2128891944885254
1710953593763077400,6.447077392578125,0.06791225075721741,9.559050559997559,2.1886820793151855
1710953593782036000,6.466035888671875,0.053411632776260376,9.572052955627441,2.131512403488159
1710953593800994300,6.484994384765625,0.09319990873336792,9.585464477539062,2.0689542293548584
1710953593819952600,6.50395263671875,0.18985536694526672,9.590398788452148,2.0392584800720215
1710953593838911200,6.5229111328125,0.31247228384017944,9.58763313293457,2.0371639728546143
1710953593857869800,6.541869873046875,0.4188576638698578,9.58342170715332,2.037884473800659
1710953593876828200,6.560828125,0.4814245104789734,9.58167552947998,2.032266139984131
1710953593895786800,6.579786865234375,0.4999035596847534,9.58230972290039,2.0248000621795654
1710953593914745000,6.5987451171875,0.4873901307582855,9.583356857299805,2.022892475128174
1710953593933703700,6.61770361328125,0.4551106095314026,9.583158493041992,2.0313377380371094
1710953593952662000,6.636662109375,0.41587305068969727,9.581192016601562,2.0489470958709717
1710953593971620600,6.65562060546875,0.3843657970428467,9.577983856201172,2.069997549057007
1710953593990579200,6.6745791015625,0.37202975153923035,9.57480525970459,2.086883544921875
1710953594009537500,6.69353759765625,0.3825104236602783,9.572017669677734,2.097749948501587
1710953594028496100,6.71249609375,0.41404110193252563,9.568199157714844,2.1091558933258057
1710953594047454700,6.731454833984375,0.46504703164100647,9.56130313873291,2.12969708442688
1710953594066413000,6.7504130859375,0.5306591987609863,9.548518180847168,2.171312093734741
1710953594085371600,6.76937158203125,0.6020764112472534,9.528464317321777,2.2397000789642334
1710953594104330000,6.788330078125,0.6631804704666138,9.50355339050293,2.32659912109375
1710953594123288600,6.80728857421875,0.6960372924804688,9.479317665100098,2.414220094680786
1710953594142247000,6.826246826171875,0.6997328996658325,9.45899486541748,2.491621494293213
1710953594161205500,6.84520556640625,0.6797024011611938,9.44162368774414,2.562056541442871
1710953594180164000,6.8641640625,0.6412166953086853,9.4270601272583,2.6248362064361572
1710953594199122400,6.883122314453125,0.5931182503700256,9.416215896606445,2.6745991706848145
1710953594218081000,6.9020810546875,0.5278637409210205,9.410345077514648,2.708716869354248
1710953594237039600,6.92103955078125,0.4453009068965912,9.415583610534668,2.7053439617156982
1710953594255998000,6.939998046875,0.345315545797348,9.430649757385254,2.6672046184539795
1710953594274956500,6.95895654296875,0.25769609212875366,9.45114803314209,2.603804111480713
1710953594293915100,6.9779150390625,0.22966566681861877,9.473688125610352,2.5232667922973633
1710953594312873500,6.99687353515625,0.27854663133621216,9.492019653320312,2.448336362838745
1710953594331832000,7.01583203125,0.37994033098220825,9.498085021972656,2.4108946323394775
1710953594350790700,7.034790771484375,0.503093421459198,9.494769096374512,2.4013822078704834
1710953594369749000,7.0537490234375,0.6109455227851868,9.493409156799316,2.3816590309143066
1710953594388707600,7.07270751953125,0.6852079629898071,9.500638961791992,2.332108497619629
1710953594407666200,7.091666259765625,0.7300858497619629,9.514620780944824,2.2603869438171387
1710953594426624500,7.11062451171875,0.7600369453430176,9.53065299987793,2.18160080909729
1710953594445583000,7.1295830078125,0.7861508727073669,9.54627799987793,2.1026010513305664
1710953594464541400,7.14854150390625,0.8100860118865967,9.561899185180664,2.0209438800811768
1710953594483500000,7.1675,0.8306706547737122,9.578299522399902,1.9330123662948608
1710953594502458600,7.186458740234375,0.8473193645477295,9.595053672790527,1.840485692024231
1710953594521417200,7.205417236328125,0.8613525032997131,9.610153198242188,1.7531112432479858
1710953594540375600,7.22437548828125,0.8702992796897888,9.621941566467285,1.6826237440109253
1710953594559334100,7.243334228515625,0.8723112344741821,9.629878997802734,1.6355087757110596
1710953594578292700,7.262292724609375,0.8686124086380005,9.634693145751953,1.608912706375122
1710953594597251000,7.2812509765625,0.8595883250236511,9.638230323791504,1.592486023902893
1710953594616209700,7.300209716796875,0.8466897010803223,9.641887664794922,1.5771803855895996
1710953594635168300,7.319168212890625,0.830868124961853,9.646074295043945,1.559902548789978
1710953594654126600,7.338126708984375,0.8168549537658691,9.650766372680664,1.5381289720535278
1710953594673085200,7.357085205078125,0.8098419308662415,9.655181884765625,1.5139415264129639
1710953594692043800,7.376043701171875,0.8111080527305603,9.658857345581055,1.4896190166473389
1710953594711002000,7.395002197265625,0.8183932900428772,9.66158390045166,1.4677876234054565
1710953594729960700,7.413960693359375,0.8295745253562927,9.66236686706543,1.4563177824020386
1710953594748919300,7.432919189453125,0.8355539441108704,9.659520149230957,1.471699833869934
1710953594767877600,7.451877685546875,0.814906120300293,9.651965141296387,1.5316287279129028
1710953594786836200,7.470836181640625,0.7549773454666138,9.64328670501709,1.6147470474243164
1710953594805794800,7.489794921875,0.669363260269165,9.638835906982422,1.6778546571731567
1710953594824753400,7.50875341796875,0.5813179016113281,9.63987922668457,1.7044602632522583
1710953594843711700,7.527711669921875,0.5076042413711548,9.64511775970459,1.6983610391616821
1710953594862670300,7.54667041015625,0.4685521423816681,9.648215293884277,1.691975712776184
1710953594881629000,7.56562890625,0.4650149643421173,9.64216423034668,1.7270857095718384
1710953594900587500,7.58458740234375,0.47944432497024536,9.624578475952148,1.8187907934188843
1710953594919545900,7.6035458984375,0.48895031213760376,9.600980758666992,1.9371315240859985
1710953594938504400,7.62250439453125,0.47325849533081055,9.579842567443848,2.0428011417388916
1710953594957463000,7.641463134765625,0.4254207909107208,9.563691139221191,2.1272547245025635
1710953594976421400,7.66042138671875,0.3509453535079956,9.548596382141113,2.207155227661133
1710953594995380000,7.6793798828125,0.2630915939807892,9.529550552368164,2.29974365234375
1710953595014338600,7.698338623046875,0.1792365163564682,9.504427909851074,2.409173011779785
1710953595033297200,7.717297119140625,0.1120542660355568,9.475016593933105,2.5262393951416016
1710953595052255700,7.736255859375,0.06261217594146729,9.445088386535645,2.63757061958313
1710953595071214000,7.755214111328125,0.030336976051330566,9.41776180267334,2.7340855598449707
1710953595090172700,7.774172607421875,0.016075866296887398,9.393333435058594,2.8169851303100586
1710953595109131300,7.79313134765625,0.017824405804276466,9.36943244934082,2.8954806327819824
1710953595128089900,7.81208984375,0.031131748110055923,9.343205451965332,2.9789130687713623
1710953595147048400,7.83104833984375,0.05189947783946991,9.314985275268555,3.0657360553741455
1710953595166006800,7.8500068359375,0.0721098855137825,9.288995742797852,3.1432056427001953
1710953595184965400,7.86896533203125,0.0883144736289978,9.269124031066895,3.2009263038635254
1710953595203924000,7.887924072265625,0.09841427952051163,9.253195762634277,3.246394395828247
1710953595222882300,7.90688232421875,0.09888140112161636,9.236976623535156,3.2922470569610596
1710953595241841000,7.9258408203125,0.08592958748340607,9.223494529724121,3.330188035964966
1710953595260799500,7.944799560546875,0.05898011475801468,9.222823143005371,3.332631826400757
1710953595279758000,7.963758056640625,0.02104872092604637,9.234871864318848,3.2995598316192627
1710953595298716700,7.982716552734375,-0.03735756874084473,9.257218360900879,3.2361879348754883
1710953595317675000,8.001675048828124,-0.11578512191772461,9.287797927856445,3.1454403400421143
1710953595336633600,8.020633544921875,-0.20021602511405945,9.316895484924316,3.0538105964660645
1710953595355592200,8.03959228515625,-0.25890785455703735,9.347627639770508,2.9538512229919434
1710953595374550800,8.05855078125,-0.25873494148254395,9.377469062805176,2.857713460922241
1710953595393509400,8.07750927734375,-0.20892994105815887,9.394951820373535,2.803853988647461
1710953595412468000,8.096468017578125,-0.13508227467536926,9.402385711669922,2.7833945751190186
1710953595431426300,8.11542626953125,-0.05419135093688965,9.413095474243164,2.7497406005859375
1710953595450385200,8.13438525390625,0.01817486248910427,9.436293601989746,2.6695351600646973
1710953595469343500,8.153343505859375,0.08621396869421005,9.470312118530273,2.544825792312622
1710953595488302000,8.172302001953126,0.15902119874954224,9.508296012878418,2.3952906131744385
1710953595507260700,8.1912607421875,0.24715328216552734,9.544661521911621,2.238020181655884
1710953595526219300,8.21021923828125,0.3559892475605011,9.576370239257812,2.0824971199035645
1710953595545177900,8.229177734375,0.4837389290332794,9.602113723754883,1.9328205585479736
1710953595564136200,8.24813623046875,0.6231909990310669,9.621376991271973,1.791959524154663
1710953595583094800,8.2670947265625,0.7636644244194031,9.633350372314453,1.6690635681152344
1710953595602053400,8.286053466796876,0.8920023441314697,9.638195991516113,1.5747668743133545
1710953595621012000,8.305011962890624,0.9962072968482971,9.636893272399902,1.5192906856536865
1710953595639970600,8.323970458984375,1.070002555847168,9.630895614624023,1.507095217704773
1710953595658929200,8.34292919921875,1.1129244565963745,9.622310638427734,1.5306649208068848
1710953595677887700,8.3618876953125,1.1261875629425049,9.612838745117188,1.5796889066696167
1710953595696846000,8.38084619140625,1.117597222328186,9.603585243225098,1.640889048576355
1710953595715804700,8.3998046875,1.1034064292907715,9.596017837524414,1.6939083337783813
1710953595734763300,8.41876318359375,1.0991307497024536,9.591721534729004,1.7208070755004883
1710953595753721900,8.437721923828125,1.1114696264266968,9.588964462280273,1.7282313108444214
1710953595772680400,8.456680419921875,1.1371104717254639,9.583123207092285,1.74387788772583
1710953595791638800,8.475638671875,1.1613645553588867,9.572094917297363,1.7879103422164917
1710953595810597600,8.49459765625,1.1513949632644653,9.5579252243042,1.8683538436889648
1710953595829556000,8.513555908203125,1.0838814973831177,9.543817520141602,1.9776614904403687
1710953595848514600,8.5325146484375,0.9710063338279724,9.53542709350586,2.0744051933288574
1710953595867473200,8.55147314453125,0.8471844792366028,9.537394523620605,2.1191437244415283
1710953595886431700,8.570431640625,0.7343969345092773,9.550219535827637,2.1034181118011475
1710953595905390300,8.589390380859374,0.6577333211898804,9.563372611999512,2.068737506866455
1710953595924348700,8.6083486328125,0.6309720873832703,9.562548637390137,2.08085036277771
1710953595943307500,8.6273076171875,0.6281576156616211,9.544602394104004,2.162494659423828
1710953595962265900,8.646265869140626,0.6100449562072754,9.51640796661377,2.2882769107818604
1710953595981224400,8.665224365234375,0.5485454797744751,9.488804817199707,2.4149670600891113
1710953596000183000,8.68418310546875,0.4360087513923645,9.467159271240234,2.5205509662628174
1710953596019141600,8.7031416015625,0.2889400124549866,9.449267387390137,2.6073458194732666
1710953596038100200,8.722100341796875,0.1390632838010788,9.430370330810547,2.686849594116211
1710953596057058600,8.74105859375,0.010858568362891674,9.407938957214355,2.7678418159484863
1710953596076017400,8.760017333984376,-0.0845453217625618,9.382782936096191,2.850722074508667
1710953596094975700,8.778975830078124,-0.14617981016635895,9.357311248779297,2.9308252334594727
1710953596113934300,8.797934326171875,-0.17363174259662628,9.333902359008789,3.003084897994995
1710953596132893000,8.816892822265626,-0.16912305355072021,9.312487602233887,3.0690979957580566
1710953596151851500,8.8358515625,-0.1406530737876892,9.291069030761719,3.1347482204437256
1710953596170810000,8.85481005859375,-0.09893904626369476,9.267353057861328,3.2057392597198486
1710953596189768400,8.8737685546875,-0.05912606790661812,9.239688873291016,3.2855803966522217
1710953596208727300,8.892727294921874,-0.03406304121017456,9.21114730834961,3.365114450454712
1710953596227686000,8.911685791015625,-0.02314303070306778,9.187156677246094,3.4301605224609375
1710953596246644200,8.930644287109375,-0.018782835453748703,9.167738914489746,3.4817514419555664
1710953596265602800,8.949602783203124,-0.020187729969620705,9.152462005615234,3.5217063426971436
1710953596284561400,8.9685615234375,-0.032369550317525864,9.1488037109375,3.5311100482940674
1710953596303520000,8.98752001953125,-0.056871745735406876,9.164765357971191,3.489158868789673
1710953596322478600,9.006478515625,-0.0819825828075409,9.193587303161621,3.411980628967285
1710953596341437000,9.02543701171875,-0.12888698279857635,9.21939468383789,3.3401403427124023
1710953596360395800,9.044395751953125,-0.2193172425031662,9.248063087463379,3.2550928592681885
1710953596379354000,9.06335400390625,-0.3329509198665619,9.282520294189453,3.1455273628234863
1710953596398312700,9.082312744140625,-0.43467485904693604,9.320952415466309,3.016836166381836
1710953596417271300,9.101271240234375,-0.4983338415622711,9.362792015075684,2.874051570892334
1710953596436230000,9.12022998046875,-0.5282527804374695,9.39407730102539,2.764533281326294
1710953596455188500,9.1391884765625,-0.5522633194923401,9.405193328857422,2.721717119216919
1710953596474146800,9.158146728515625,-0.5662946701049805,9.412825584411621,2.692286252975464
1710953596493105400,9.17710546875,-0.5717587471008301,9.433614730834961,2.617325782775879
1710953596512064000,9.19606396484375,-0.5729297995567322,9.468311309814453,2.488621234893799
1710953596531022600,9.215022705078125,-0.5512875914573669,9.50978946685791,2.330315351486206
1710953596549981200,9.233981201171876,-0.4911779761314392,9.552806854248047,2.1617162227630615
1710953596568939800,9.252939697265624,-0.38779884576797485,9.595455169677734,1.9867637157440186
1710953596587898400,9.2718984375,-0.24019668996334076,9.636089324951172,1.8051295280456543
1710953596606856700,9.290856689453125,-0.05563867464661598,9.671693801879883,1.6203820705413818
1710953596625815300,9.309815185546874,0.15849937498569489,9.698221206665039,1.4456024169921875
1710953596644774000,9.32877392578125,0.3869248926639557,9.713020324707031,1.2953383922576904
1710953596663732500,9.347732421875,0.6100959777832031,9.716229438781738,1.1802780628204346
1710953596682691000,9.366691162109374,0.8108731508255005,9.709540367126465,1.1125261783599854
1710953596701649400,9.3856494140625,0.9830795526504517,9.695497512817383,1.0960257053375244
1710953596720608000,9.40460791015625,1.1323058605194092,9.677299499511719,1.1127203702926636
1710953596739566600,9.423566650390624,1.2612357139587402,9.659578323364258,1.1279237270355225
1710953596758525200,9.442525146484375,1.3730416297912598,9.645265579223633,1.1198168992996216
1710953596777483800,9.46148388671875,1.478394627571106,9.632232666015625,1.0976457595825195
1710953596796442400,9.4804423828125,1.5910391807556152,9.61630630493164,1.0796372890472412
1710953596815401000,9.49940087890625,1.7159541845321655,9.595632553100586,1.0722544193267822
1710953596834359300,9.518359375,1.8441524505615234,9.570826530456543,1.0810978412628174
1710953596853318000,9.53731787109375,1.9444248676300049,9.546428680419922,1.1204066276550293
1710953596872276500,9.5562763671875,2.0056371688842773,9.52906322479248,1.1596413850784302
1710953596891235000,9.575235107421875,2.0448012351989746,9.51861572265625,1.1769192218780518
1710953596910193700,9.594193603515626,2.0819385051727295,9.510696411132812,1.1758283376693726
1710953596929152000,9.613152099609374,2.1313865184783936,9.498366355895996,1.1868563890457153
1710953596948110600,9.632110595703125,2.1787919998168945,9.479168891906738,1.2524412870407104
1710953596967069200,9.651069091796876,2.196373701095581,9.458024978637695,1.3755334615707397
1710953596986027800,9.67002783203125,2.165341854095459,9.441965103149414,1.5267542600631714
1710953597004986400,9.688986328125,2.0870373249053955,9.431303024291992,1.6926851272583008
1710953597023944700,9.70794482421875,1.9845235347747803,9.41940975189209,1.8726385831832886
1710953597042903300,9.7269033203125,1.878579020500183,9.401325225830078,2.0631070137023926
1710953597061862000,9.74586181640625,1.781042218208313,9.374438285827637,2.262340545654297
1710953597080820500,9.764820556640625,1.6968294382095337,9.337008476257324,2.4721286296844482
1710953597099779000,9.783779052734374,1.631258249282837,9.287514686584473,2.6928532123565674
1710953597118737400,9.8027373046875,1.5862681865692139,9.227537155151367,2.9166228771209717
1710953597137696000,9.821696044921875,1.5621988773345947,9.160432815551758,3.133113384246826
1710953597156654600,9.840654541015626,1.5579816102981567,9.090277671813965,3.333158016204834
1710953597175613200,9.85961328125,1.5726276636123657,9.024026870727539,3.5020244121551514
1710953597194571800,9.87857177734375,1.5974092483520508,8.966232299804688,3.6366684436798096
1710953597213530000,9.897530029296876,1.6293481588363647,8.915176391601562,3.7463643550872803
1710953597232488700,9.91648876953125,1.6683363914489746,8.872360229492188,3.829918146133423
1710953597251447300,9.935447265625,1.7111936807632446,8.83753490447998,3.8910369873046875
1710953597270405600,9.954405517578126,1.7461767196655273,8.806878089904785,3.9446346759796143
1710953597289364200,9.9733642578125,1.760906457901001,8.775935173034668,4.006564617156982
1710953597308322800,9.99232275390625,1.757386326789856,8.747614860534668,4.069546222686768
1710953597327281400,10.011281494140626,1.746317982673645,8.729477882385254,4.113024711608887
1710953597346240000,10.030239990234374,1.740390658378601,8.72192096710205,4.131526470184326
1710953597365198600,10.049198486328125,1.720047116279602,8.732865333557129,4.11690092086792
1710953597384157000,10.068156982421876,1.684885025024414,8.759439468383789,4.07477331161499
1710953597403115500,10.087115478515624,1.6537415981292725,8.776955604553223,4.049762725830078
1710953597422074000,10.10607421875,1.639487862586975,8.779520034790039,4.049998760223389
1710953597441032700,10.12503271484375,1.6457102298736572,8.775713920593262,4.055720806121826
1710953597459991300,10.1439912109375,1.652388572692871,8.762006759643555,4.082553386688232
1710953597478949600,10.16294970703125,1.6286367177963257,8.740988731384277,4.136792182922363
1710953597497908200,10.181908203125,1.576582908630371,8.72450065612793,4.191404342651367
1710953597516866800,10.20086669921875,1.5155671834945679,8.708292007446289,4.247244358062744
1710953597535825200,10.2198251953125,1.4498604536056519,8.680718421936035,4.325901985168457
1710953597554783700,10.23878369140625,1.3796364068984985,8.640628814697266,4.427926540374756
1710953597573742300,10.257742431640626,1.3160605430603027,8.594104766845703,4.536490440368652
1710953597592701000,10.276700927734375,1.266478419303894,8.54659652709961,4.6391921043396
1710953597611659500,10.295659423828125,1.2267420291900635,8.502419471740723,4.730153560638428
1710953597630617900,10.314617919921876,1.1925530433654785,8.464160919189453,4.806888580322266
1710953597649576400,10.333576416015624,1.1634365320205688,8.431143760681152,4.871613502502441
1710953597668535000,10.35253515625,1.1395841836929321,8.399409294128418,4.931699752807617
1710953597687493400,10.371493408203126,1.1196386814117432,8.36638069152832,4.992040634155273
1710953597706452000,10.390451904296874,1.1023896932601929,8.332426071166992,5.052307605743408
1710953597725410600,10.40941064453125,1.0812634229660034,8.303403854370117,5.104382514953613
1710953597744369000,10.428368896484375,1.04301118850708,8.289608001708984,5.134678840637207
1710953597763327500,10.447327392578124,0.9851790070533752,8.290233612060547,5.145080089569092
1710953597782286000,10.4662861328125,0.9225356578826904,8.288125038146973,5.160068511962891
1710953597801244700,10.48524462890625,0.8644072413444519,8.268453598022461,5.2015252113342285
1710953597820203300,10.504203369140624,0.8134247660636902,8.229414939880371,5.2711920738220215
1710953597839161600,10.52316162109375,0.768802285194397,8.179012298583984,5.355660438537598
1710953597858120200,10.5421201171875,0.7305443286895752,8.126956939697266,5.439599990844727
1710953597877078800,10.561078857421874,0.6910972595214844,8.081706047058105,5.511696815490723
1710953597896037000,10.580037109375,0.6485337615013123,8.048508644104004,5.565185070037842
1710953597914995700,10.59899560546875,0.6127333641052246,8.027366638183594,5.599673271179199
1710953597933954300,10.617954345703126,0.6057690978050232,8.021780967712402,5.608428478240967
1710953597952912600,10.63691259765625,0.6099585294723511,8.032723426818848,5.592288970947266
1710953597971871200,10.655871337890625,0.6154482960700989,8.062119483947754,5.549219608306885
1710953597990829800,10.674829833984376,0.6428918838500977,8.107616424560547,5.479382038116455
1710953598009788200,10.6937880859375,0.7126425504684448,8.152873992919922,5.40307092666626
1710953598028746800,10.712746826171875,0.8067665100097656,8.183494567871094,5.34321403503418
1710953598047705300,10.731705322265626,0.8902930021286011,8.210190773010254,5.288716793060303
1710953598066664000,10.750663818359374,0.9677854776382446,8.245378494262695,5.219915866851807
1710953598085622500,10.76962255859375,1.0422438383102417,8.280364990234375,5.149725437164307
1710953598104580900,10.788580810546875,1.1095948219299316,8.31331729888916,5.082119464874268
1710953598123539500,10.80753955078125,1.17560875415802,8.350785255432129,5.0052690505981445
1710953598142498000,10.826498046875,1.256018877029419,8.39793872833252,4.905856609344482
1710953598161456400,10.845456298828125,1.3545618057250977,8.457653045654297,4.77531623840332
1710953598180415000,10.8644150390625,1.4587831497192383,8.529348373413086,4.614384174346924
1710953598199373600,10.88337353515625,1.5556280612945557,8.607492446899414,4.434127330780029
1710953598218332000,10.902331787109375,1.631778597831726,8.685797691345215,4.250247478485107
1710953598237290500,10.92129052734375,1.6805808544158936,8.759625434875488,4.076148986816406
1710953598256249000,10.9402490234375,1.7055436372756958,8.825701713562012,3.920267343521118
1710953598275207400,10.95920751953125,1.714229941368103,8.881383895874023,3.788513422012329
1710953598294166000,10.978166015625,1.7142281532287598,8.925736427307129,3.6828041076660156
1710953598313124600,10.99712451171875,1.712676763534546,8.96029281616211,3.5986499786376953
1710953598332083000,11.0160830078125,1.7136142253875732,8.986034393310547,3.533425807952881
1710953598351041500,11.03504150390625,1.7135016918182373,9.005228996276855,3.484272003173828
1710953598370000100,11.054000244140624,1.714425802230835,9.022212982177734,3.4395952224731445
1710953598388958500,11.07295849609375,1.726861596107483,9.042567253112793,3.3793962001800537
1710953598407917000,11.0919169921875,1.7459344863891602,9.073673248291016,3.2848973274230957
1710953598426875600,11.110875732421874,1.7577261924743652,9.120668411254883,3.1455047130584717
1710953598445834200,11.129834228515625,1.7639671564102173,9.1757230758667,2.9774014949798584
1710953598464792600,11.14879248046875,1.7423231601715088,9.227914810180664,2.824939727783203
1710953598483751200,11.167751220703124,1.6903783082962036,9.276082038879395,2.6957945823669434
1710953598502709800,11.186709716796875,1.6094759702682495,9.328113555908203,2.562474489212036
1710953598521668400,11.20566845703125,1.4893323183059692,9.388039588928223,2.4118425846099854
1710953598540626700,11.224626708984376,1.3301676511764526,9.449546813964844,2.259887218475342
1710953598559585300,11.243585205078125,1.1395279169082642,9.502158164978027,2.1402909755706787
1710953598578543900,11.2625439453125,0.920181393623352,9.54178524017334,2.068328619003296
1710953598597502200,11.281502197265626,0.6897364258766174,9.570073127746582,2.0269036293029785
1710953598616460800,11.300460693359375,0.4787118434906006,9.59053897857666,1.9906731843948364
1710953598635419400,11.31941943359375,0.2993420362472534,9.606612205505371,1.9477680921554565
1710953598654377700,11.338377685546876,0.15378066897392273,9.620079040527344,1.8975830078125
1710953598673336300,11.35733642578125,0.045026086270809174,9.632238388061523,1.8407464027404785
1710953598692295000,11.376294921875,-0.023556267842650414,9.644219398498535,1.7773228883743286
1710953598711253200,11.395253173828126,-0.055775366723537445,9.655645370483398,1.713417649269104
1710953598730211800,11.4142119140625,-0.053757213056087494,9.665240287780762,1.6585036516189575
1710953598749170400,11.43317041015625,-0.024051768705248833,9.672587394714355,1.6158157587051392
1710953598768129000,11.45212890625,0.017587359994649887,9.678800582885742,1.5782617330551147
1710953598787087600,11.471087646484374,0.06383061408996582,9.684940338134766,1.5389046669006348
1710953598806046000,11.4900458984375,0.11584379523992538,9.691781997680664,1.4920892715454102
1710953598825004500,11.509004638671875,0.1688309609889984,9.700180053710938,1.43122398853302
1710953598843963100,11.527963134765624,0.2138688862323761,9.709965705871582,1.3569121360778809
1710953598862921500,11.54692138671875,0.2463461309671402,9.720320701599121,1.2747801542282104
1710953598881880000,11.565880126953125,0.274624764919281,9.730325698852539,1.1898466348648071
1710953598900838700,11.584838623046876,0.3176756203174591,9.737451553344727,1.1187095642089844
1710953598919797000,11.603796875,0.3804321587085724,9.738821983337402,1.0867444276809692
1710953598938755600,11.622755615234375,0.44940605759620667,9.733309745788574,1.1095495223999023
1710953598957714200,11.641714111328126,0.5042135715484619,9.72100830078125,1.1908676624298096
1710953598976672800,11.6606728515625,0.5183549523353577,9.7058744430542,1.3029632568359375
1710953598995631400,11.67963134765625,0.4814869463443756,9.69575023651123,1.3895996809005737
1710953599014589700,11.698589599609376,0.39480751752853394,9.692469596862793,1.438936710357666
1710953599033548300,11.71754833984375,0.2705497741699219,9.6902494430542,1.4819804430007935
1710953599052507000,11.7365068359375,0.13635486364364624,9.683533668518066,1.543044924736023
1710953599071465500,11.755465576171876,0.008576528169214725,9.672660827636719,1.615530252456665
1710953599090423800,11.774423828125,-0.12106545269489288,9.662055969238281,1.673439860343933
1710953599109382400,11.79338232421875,-0.24889995157718658,9.656973838806152,1.6885780096054077
1710953599128341000,11.812341064453125,-0.3489053249359131,9.659317970275879,1.6571769714355469
1710953599147299600,11.831299560546874,-0.3995314836502075,9.66469669342041,1.6138116121292114
1710953599166258200,11.850258056640625,-0.3992069661617279,9.666569709777832,1.6026408672332764
1710953599185216500,11.869216552734375,-0.3607410490512848,9.662144660949707,1.63805091381073
1710953599204175000,11.888175048828124,-0.30539920926094055,9.653067588806152,1.7015931606292725
1710953599223133700,11.9071337890625,-0.2567615509033203,9.643095970153809,1.7649784088134766
1710953599242092300,11.92609228515625,-0.2305392324924469,9.6355562210083,1.809224009513855
1710953599261051000,11.94505078125,-0.22833514213562012,9.631389617919922,1.8315503597259521
1710953599280009200,11.96400927734375,-0.24075908958911896,9.629194259643555,1.841478705406189
1710953599298967800,11.9829677734375,-0.25581684708595276,9.627237319946289,1.8496642112731934
1710953599317926400,12.001926513671876,-0.2689168453216553,9.624670028686523,1.861128330230713
1710953599336885000,12.020885009765625,-0.28035932779312134,9.620955467224121,1.878564715385437
1710953599355843600,12.039843505859375,-0.2924663722515106,9.616585731506348,1.8989849090576172
1710953599374802000,12.058802001953126,-0.30645230412483215,9.613271713256836,1.9135026931762695
1710953599393760500,12.077760498046874,-0.321556955575943,9.611565589904785,1.9195868968963623
1710953599412719000,12.096718994140625,-0.336687296628952,9.610539436340332,1.922126293182373
1710953599431677700,12.115677734375,-0.34352895617485046,9.60901165008545,1.9285430908203125
1710953599450636300,12.13463623046875,-0.3354184627532959,9.605019569396973,1.9497395753860474
1710953599469594600,12.1535947265625,-0.30705830454826355,9.596880912780762,1.9939848184585571
1710953599488553200,12.17255322265625,-0.25525403022766113,9.584555625915527,2.059495687484741
1710953599507511800,12.19151171875,-0.18427114188671112,9.568670272827148,2.1393868923187256
1710953599526470400,12.210470458984375,-0.09623552858829498,9.549382209777832,2.229443073272705
1710953599545429000,12.229428955078125,0.0013028079411014915,9.527053833007812,2.3250021934509277
1710953599564387300,12.24838720703125,0.09800061583518982,9.503767967224121,2.416435480117798
1710953599583346000,12.267345947265625,0.18823689222335815,9.483192443847656,2.4907853603363037
1710953599602304500,12.286304443359375,0.272957444190979,9.467318534851074,2.54278564453125
1710953599621263000,12.30526318359375,0.3583023250102997,9.456361770629883,2.5727851390838623
1710953599640221700,12.3242216796875,0.44933027029037476,9.44917106628418,2.5848910808563232
1710953599659180000,12.343179931640625,0.5461764335632324,9.44387435913086,2.585597038269043
1710953599678138600,12.362138671875,0.64536052942276,9.439123153686523,2.5800859928131104
1710953599697097200,12.38109716796875,0.742779016494751,9.434576988220215,2.5704901218414307
1710953599716055800,12.400055908203125,0.8280748724937439,9.431466102600098,2.5557987689971924
1710953599735014400,12.419014404296876,0.8866718411445618,9.434442520141602,2.5249741077423096
1710953599753973000,12.437972900390625,0.909896731376648,9.447783470153809,2.4661409854888916
1710953599772931600,12.456931640625,0.9089716672897339,9.4696683883667,2.3810789585113525
1710953599791890000,12.475889892578126,0.9084687829017639,9.492977142333984,2.2865796089172363
1710953599810848500,12.4948486328125,0.91855388879776,9.511490821838379,2.2041263580322266
1710953599829807000,12.51380712890625,0.9362711310386658,9.521932601928711,2.1509532928466797
1710953599848765700,12.532765625,0.9516323208808899,9.525514602661133,2.1282284259796143
1710953599867724300,12.551724365234374,0.9492419362068176,9.528608322143555,2.1154048442840576
1710953599886683000,12.570682861328125,0.9149684906005859,9.537825584411621,2.088803768157959
1710953599905641500,12.589641357421876,0.8429909348487854,9.553133010864258,2.0487618446350098
1710953599924599800,12.608599853515624,0.7411123514175415,9.56855583190918,2.015902042388916
1710953599943558400,12.627558349609375,0.6289769411087036,9.578420639038086,2.0071396827697754
1710953599962517000,12.64651708984375,0.5227043032646179,9.582178115844727,2.0196619033813477
1710953599981475600,12.6654755859375,0.4256596565246582,9.583725929260254,2.0350453853607178
1710953600000434200,12.68443408203125,0.33198124170303345,9.58684253692627,2.0378048419952393
1710953600019392800,12.703392822265625,0.23912478983402252,9.592166900634766,2.0257203578948975
1710953600038351400,12.722351318359374,0.15012136101722717,9.598286628723145,2.005180835723877
1710953600057310000,12.74131005859375,0.06885455548763275,9.603355407714844,1.9852505922317505
1710953600076268500,12.7602685546875,-0.004565315321087837,9.605847358703613,1.9743516445159912
1710953600095227100,12.77922705078125,-0.07258233428001404,9.605307579040527,1.975649356842041
1710953600114185500,12.798185546875,-0.1398007869720459,9.602118492126465,1.9874999523162842
1710953600133144000,12.81714404296875,-0.21114873886108398,9.597557067871094,2.0031704902648926
1710953600152102700,12.8361025390625,-0.2879779636859894,9.593260765075684,2.0141501426696777
1710953600171061200,12.855061279296875,-0.3649120032787323,9.590425491333008,2.0151803493499756
1710953600190019800,12.874019775390625,-0.4355037808418274,9.589447021484375,2.005800724029541
1710953600208978400,12.892978515625,-0.4962998926639557,9.589330673217773,1.9921863079071045
1710953600227937000,12.91193701171875,-0.5462870597839355,9.588936805725098,1.9809765815734863
1710953600246895600,12.9308955078125,-0.581164538860321,9.589016914367676,1.9706307649612427
1710953600265854200,12.949854248046876,-0.5974097847938538,9.59073543548584,1.9573630094528198
1710953600284812800,12.968812744140624,-0.5927541851997375,9.594136238098145,1.9420541524887085
1710953600303771400,12.987771484375,-0.5684663653373718,9.59790325164795,1.9306694269180298
1710953600322729700,13.006729736328126,-0.5223364233970642,9.604055404663086,1.9130247831344604
1710953600341688300,13.025688232421874,-0.453323096036911,9.616087913513184,1.8696902990341187
1710953600360647000,13.04464697265625,-0.365396112203598,9.632465362548828,1.8034608364105225
1710953600379605500,13.06360546875,-0.26323676109313965,9.648459434509277,1.7344504594802856
1710953600398564000,13.082564208984374,-0.15274371206760406,9.660050392150879,1.6824100017547607
1710953600417522700,13.101522705078125,-0.04075152799487114,9.665421485900879,1.6578189134597778
1710953600436481300,13.120481201171875,0.06048953905701637,9.665702819824219,1.6555699110031128
1710953600455440000,13.13943994140625,0.13609962165355682,9.663833618164062,1.6619811058044434
1710953600474398500,13.1583984375,0.17746266722679138,9.6621675491333,1.6677569150924683
1710953600493357000,13.177357177734375,0.18782834708690643,9.660682678222656,1.675204873085022
1710953600512315600,13.196315673828124,0.1802562177181244,9.659367561340332,1.6836016178131104
1710953600531274200,13.215274169921875,0.1670117974281311,9.658086776733398,1.6922922134399414
1710953600550232800,13.23423291015625,0.15409022569656372,9.6553373336792,1.7091253995895386
1710953600569191200,13.253191162109376,0.1470765471458435,9.650148391723633,1.7387900352478027
1710953600588150000,13.27214990234375,0.15072235465049744,9.643503189086914,1.7749689817428589
1710953600607108400,13.2911083984375,0.16012591123580933,9.637018203735352,1.8090424537658691
1710953600626067200,13.310067138671876,0.1679958552122116,9.631622314453125,1.8368462324142456
1710953600645025500,13.329025634765625,0.16940423846244812,9.627820014953613,1.8565428256988525
1710953600663984000,13.347984130859375,0.16208894550800323,9.62564754486084,1.8684273958206177
1710953600682942700,13.366942626953126,0.1479809433221817,9.624390602111816,1.8760559558868408
1710953600701901300,13.3859013671875,0.1319703310728073,9.623658180236816,1.8810011148452759
1710953600720860000,13.40485986328125,0.11765316873788834,9.623856544494629,1.8809409141540527
1710953600739818500,13.423818603515626,0.10542136430740356,9.62494945526123,1.876068353652954
1710953600758777000,13.442777099609375,0.09825048595666885,9.62631607055664,1.8694313764572144
1710953600777735700,13.461735595703125,0.09470874071121216,9.627696990966797,1.8624907732009888
1710953600796694300,13.4806943359375,0.08599338680505753,9.629048347473145,1.8559131622314453
1710953600815652900,13.49965283203125,0.06260615587234497,9.628981590270996,1.8571929931640625
1710953600834611500,13.518611572265625,0.01709434948861599,9.624951362609863,1.8789361715316772
1710953600853570000,13.537570068359376,-0.05568867549300194,9.616564750671387,1.920668363571167
1710953600872528600,13.556528564453124,-0.15798939764499664,9.608366012573242,1.9556878805160522
1710953600891487200,13.5754873046875,-0.28496891260147095,9.607281684875488,1.946613073348999
1710953600910445800,13.59444580078125,-0.4229021668434143,9.615293502807617,1.8808677196502686
1710953600929404400,13.613404296875,-0.5536769032478333,9.62720775604248,1.7834540605545044
1710953600948363000,13.632363037109375,-0.6534106135368347,9.63784122467041,1.6898107528686523
1710953600967321600,13.651321533203125,-0.6979356408119202,9.646302223205566,1.6223797798156738
1710953600986280200,13.6702802734375,-0.6786054372787476,9.652536392211914,1.59324312210083
1710953601005238800,13.68923876953125,-0.600899875164032,9.656085014343262,1.6029094457626343
1710953601024197400,13.708197265625,-0.4903125464916229,9.655810356140137,1.6417416334152222
1710953601043156000,13.727156005859374,-0.3784993588924408,9.650531768798828,1.7012834548950195
1710953601062114300,13.7461142578125,-0.2903207540512085,9.640504837036133,1.7739126682281494
1710953601081073200,13.7650732421875,-0.24078327417373657,9.627838134765625,1.8485538959503174
1710953601100031500,13.784031494140624,-0.2325567901134491,9.615461349487305,1.9129061698913574
1710953601118990000,13.802989990234375,-0.260871022939682,9.605295181274414,1.959753155708313
1710953601137948700,13.82194873046875,-0.3176480531692505,9.597625732421875,1.9887346029281616
1710953601156907300,13.8409072265625,-0.3873503506183624,9.591777801513672,2.0045361518859863
1710953601175865900,13.859865966796875,-0.4553303122520447,9.58670711517334,2.0144734382629395
1710953601194824400,13.878824462890625,-0.5130212903022766,9.5816068649292,2.0248448848724365
1710953601213783000,13.897782958984376,-0.5569093227386475,9.576412200927734,2.0377883911132812
1710953601232741600,13.91674169921875,-0.5881748795509338,9.572036743164062,2.0495259761810303
1710953601251700200,13.9357001953125,-0.6088046431541443,9.56922435760498,2.0566227436065674
1710953601270658800,13.954658935546876,-0.6191059947013855,9.568113327026367,2.0587143898010254
1710953601289617400,13.973617431640625,-0.6179783344268799,9.568292617797852,2.0582175254821777
1710953601308576000,13.992575927734375,-0.6069406867027283,9.5693941116333,2.056382894515991
1710953601327534600,14.01153466796875,-0.5905389785766602,9.571393013000488,2.0518524646759033
1710953601346493200,14.0304931640625,-0.5722609758377075,9.574142456054688,2.044187068939209
1710953601365451800,14.04945166015625,-0.555522084236145,9.577035903930664,2.035233736038208
1710953601384410000,14.06841015625,-0.5443565845489502,9.579550743103027,2.0263912677764893
1710953601403369000,14.087368896484374,-0.541201651096344,9.58162784576416,2.0173935890197754
1710953601422327600,14.10632763671875,-0.5399680733680725,9.583758354187012,2.0075836181640625
1710953601441286100,14.1252861328125,-0.541175901889801,9.585468292236328,1.9990826845169067
1710953601460244700,14.14424462890625,-0.5421831607818604,9.587169647216797,1.990624189376831
1710953601479203000,14.163203125,-0.5415114164352417,9.588872909545898,1.9825915098190308
1710953601498162000,14.182161865234375,-0.5374829173088074,9.590391159057617,1.9763333797454834
1710953601517120300,14.201120361328124,-0.5309403538703918,9.591405868530273,1.9731768369674683
1710953601536078800,14.220078857421875,-0.5239925980567932,9.592142105102539,1.9714561700820923
1710953601555037400,14.239037353515625,-0.5190180540084839,9.5929536819458,1.9688202142715454
1710953601573996000,14.25799609375,-0.5162413120269775,9.593696594238281,1.9659295082092285
1710953601592954600,14.27695458984375,-0.5123409628868103,9.594244956970215,1.9642715454101562
1710953601611913200,14.295913330078125,-0.5073888897895813,9.594425201416016,1.964677333831787
1710953601630871800,14.314871826171874,-0.5032394528388977,9.594156265258789,1.9670543670654297
1710953601649830400,14.333830322265625,-0.5013015866279602,9.593404769897461,1.9712157249450684
1710953601668789000,14.3527890625,-0.49862155318260193,9.592985153198242,1.9739279747009277
1710953601687747600,14.37174755859375,-0.49400168657302856,9.592883110046387,1.9755923748016357
1710953601706706200,14.3907060546875,-0.4887358844280243,9.59280776977539,1.97726571559906
1710953601725664500,14.40966455078125,-0.4855060279369354,9.592429161071777,1.9798909425735474
1710953601744623400,14.428623291015626,-0.4853663444519043,9.592055320739746,1.9817336797714233
1710953601763581700,14.447581787109375,-0.48768115043640137,9.59173583984375,1.9827169179916382
1710953601782540300,14.466540283203125,-0.4924679100513458,9.591532707214355,1.9825189113616943
1710953601801499000,14.485498779296876,-0.49929219484329224,9.591242790222168,1.982212781906128
1710953601820457500,14.50445751953125,-0.5083214044570923,9.590725898742676,1.9824182987213135
1710953601839416000,14.523416015625,-0.5155683755874634,9.590033531188965,1.9838944673538208
1710953601858374700,14.542374755859376,-0.5211122035980225,9.589292526245117,1.9860278367996216
1710953601877333200,14.561333251953124,-0.5257116556167603,9.588581085205078,1.988248586654663
1710953601896291800,14.580291748046875,-0.5287126302719116,9.58834457397461,1.9885956048965454
1710953601915250400,14.59925048828125,-0.5301095843315125,9.588510513305664,1.9874167442321777
1710953601934208800,14.618208740234374,-0.5282785296440125,9.589330673217773,1.9839494228363037
1710953601953167600,14.637167724609375,-0.5249406695365906,9.590901374816895,1.9772285223007202
1710953601972126000,14.6561259765625,-0.5221797823905945,9.593256950378418,1.9665007591247559
1710953601991084500,14.67508447265625,-0.520290195941925,9.596274375915527,1.9522336721420288
1710953602010043100,14.694043212890625,-0.5194631814956665,9.599879264831543,1.9346548318862915
1710953602029001700,14.713001708984375,-0.5197246074676514,9.603799819946289,1.9150218963623047
1710953602047960300,14.731960205078124,-0.5202910304069519,9.607987403869629,1.893738031387329
1710953602066919000,14.7509189453125,-0.5182687044143677,9.612466812133789,1.8714340925216675
1710953602085877500,14.76987744140625,-0.5124674439430237,9.616758346557617,1.8508760929107666
1710953602104836000,14.788836181640624,-0.5055030584335327,9.620800018310547,1.8316797018051147
1710953602123794700,14.807794677734375,-0.4988252818584442,9.624428749084473,1.814368486404419
1710953602142753300,14.826753173828125,-0.49258336424827576,9.627436637878418,1.800054907798767
1710953602161711600,14.845711669921876,-0.48567521572113037,9.63007926940918,1.7877596616744995
1710953602180670200,14.864670166015625,-0.47759106755256653,9.6322603225708,1.7781609296798706
1710953602199628800,14.88362890625,-0.47174400091171265,9.63371467590332,1.7718356847763062
1710953602218587400,14.90258740234375,-0.4684722125530243,9.634183883666992,1.7701448202133179
1710953602237546000,14.9215458984375,-0.46443232893943787,9.63419246673584,1.7711657285690308
1710953602256504600,14.940504638671875,-0.45872047543525696,9.633776664733887,1.774909257888794
1710953602275463200,14.959463134765626,-0.45396357774734497,9.632894515991211,1.7809090614318848
1710953602294421800,14.978421875,-0.45181846618652344,9.631688117980957,1.787971019744873
1710953602313380400,14.99738037109375,-0.45087048411369324,9.630484580993652,1.7946791648864746
1710953602332338700,15.016338623046876,-0.44999298453330994,9.629302978515625,1.801223635673523
1710953602351297300,15.03529736328125,-0.4486873745918274,9.628120422363281,1.8078644275665283
1710953602370256000,15.054255859375,-0.44751039147377014,9.626882553100586,1.8147317171096802
1710953602389214500,15.07321435546875,-0.44575637578964233,9.625520706176758,1.8223718404769897
1710953602408173000,15.092173095703124,-0.4429965317249298,9.62427806854248,1.829596757888794
1710953602427131600,15.111131591796875,-0.441021591424942,9.623096466064453,1.8362739086151123
1710953602446090200,15.13009033203125,-0.44101211428642273,9.622060775756836,1.8416988849639893
1710953602465048600,15.149048583984374,-0.44190749526023865,9.621146202087402,1.846258521080017
1710953602484007200,15.168007080078125,-0.442452073097229,9.620269775390625,1.8506840467453003
1710953602502965800,15.1869658203125,-0.4425710439682007,9.619405746459961,1.8551374673843384
1710953602521924400,15.20592431640625,-0.44237425923347473,9.618748664855957,1.8585935831069946
1710953602540883000,15.224883056640625,-0.4424310028553009,9.618289947509766,1.8609570264816284
1710953602559841500,15.243841552734375,-0.44331470131874084,9.618001937866211,1.8622266054153442
1710953602578800000,15.262800048828124,-0.444524347782135,9.617901802062988,1.862458348274231
1710953602597758500,15.281758544921875,-0.445198655128479,9.617820739746094,1.8627160787582397
1710953602616717000,15.300717041015625,-0.44563913345336914,9.617657661437988,1.863449215888977
1710953602635675600,15.319675537109376,-0.4455934464931488,9.617520332336426,1.8641774654388428
1710953602654634200,15.33863427734375,-0.44522085785865784,9.61730670928955,1.8653606176376343
1710953602673592800,15.3575927734375,-0.44416889548301697,9.61718463897705,1.8662407398223877
1710953602692551400,15.376551513671876,-0.4434075951576233,9.61740493774414,1.8652853965759277
1710953602711510000,15.395510009765625,-0.4432028830051422,9.617690086364746,1.8638652563095093
1710953602730468400,15.41446826171875,-0.44130003452301025,9.618230819702148,1.8615244626998901
1710953602749427000,15.433427001953126,-0.4365130364894867,9.61915111541748,1.8578917980194092
1710953602768385500,15.452385498046874,-0.43155789375305176,9.620328903198242,1.8529469966888428
1710953602787344100,15.47134423828125,-0.42659953236579895,9.621419906616211,1.8484262228012085
1710953602806302700,15.490302734375,-0.4191957414150238,9.62267780303955,1.8435649871826172
1710953602825261300,15.50926123046875,-0.409051775932312,9.6242094039917,1.8378379344940186
1710953602844220000,15.528219970703125,-0.3983738124370575,9.625709533691406,1.8323283195495605
1710953602863178200,15.54717822265625,-0.38805338740348816,9.626855850219727,1.8285075426101685
1710953602882136800,15.56613671875,-0.37827661633491516,9.62778091430664,1.8256809711456299
1710953602901095400,15.585095458984375,-0.3679029941558838,9.628836631774902,1.8222402334213257
1710953602920054000,15.604053955078125,-0.3572203814983368,9.630375862121582,1.8162155151367188
1710953602939012600,15.6230126953125,-0.3462851047515869,9.632506370544434,1.8070147037506104
1710953602957971200,15.64197119140625,-0.33554714918136597,9.634912490844727,1.7961771488189697
1710953602976929500,15.660929443359375,-0.32338252663612366,9.637735366821289,1.7832212448120117
1710953602995888000,15.67988818359375,-0.30870962142944336,9.640989303588867,1.7681677341461182
1710953603014846700,15.6988466796875,-0.2915579080581665,9.644535064697266,1.7516608238220215
1710953603033805300,15.717805419921875,-0.2737117111682892,9.648210525512695,1.7342166900634766
1710953603052764000,15.736763916015626,-0.2579602301120758,9.651793479919434,1.7166023254394531
1710953603071722500,15.755722412109375,-0.24566268920898438,9.655479431152344,1.6975691318511963
1710953603090681000,15.77468115234375,-0.23509851098060608,9.659399032592773,1.6766372919082642
1710953603109639400,15.793639404296876,-0.22272889316082,9.663595199584961,1.65399968624115
1710953603128598000,15.812597900390625,-0.20385470986366272,9.66795539855957,1.6307891607284546
1710953603147556600,15.831556640625,-0.18001772463321686,9.672322273254395,1.607532024383545
1710953603166515200,15.85051513671875,-0.15471792221069336,9.677061080932617,1.5814390182495117
1710953603185473800,15.869473876953125,-0.13137242197990417,9.68274974822998,1.548380732536316
1710953603204432100,15.88843212890625,-0.1129368469119072,9.689129829406738,1.509434461593628
1710953603223390700,15.907390625,-0.09678217023611069,9.696234703063965,1.464258074760437
1710953603242349300,15.926349365234374,-0.07419437170028687,9.704950332641602,1.4067033529281616
1710953603261308000,15.945307861328125,-0.045147884637117386,9.715360641479492,1.3342080116271973
1710953603280266500,15.9642666015625,-0.015450767241418362,9.7266845703125,1.2497050762176514
1710953603299224800,15.983224853515624,0.012419376522302628,9.737604141235352,1.161596417427063
1710953603318183400,16.002183349609375,0.026725484058260918,9.747175216674805,1.07807195186615
1710953603337142000,16.02114208984375,0.02569960243999958,9.756336212158203,0.9917908906936646
1710953603356100600,16.0401005859375,0.02736867032945156,9.764942169189453,0.9030741453170776
1710953603375059200,16.05905908203125,0.0411720871925354,9.773004531860352,0.8106014728546143
1710953603394017800,16.078017822265625,0.07079964131116867,9.781052589416504,0.704542875289917
1710953603412976400,16.096976318359374,0.11933710426092148,9.788431167602539,0.5854538083076477
1710953603431934700,16.115934814453126,0.18866701424121857,9.793651580810547,0.468159556388855
1710953603450893300,16.134893310546875,0.27668118476867676,9.795978546142578,0.3641970753669739
1710953603469852000,16.153851806640624,0.3799711763858795,9.79542064666748,0.27521318197250366
1710953603488810500,16.172810546875,0.4912388324737549,9.792344093322754,0.19772140681743622
1710953603507769000,16.19176904296875,0.5984221696853638,9.787525177001953,0.12893398106098175
1710953603526727400,16.2107275390625,0.69154292345047,9.781996726989746,0.06853892654180527
1710953603545686000,16.22968603515625,0.7655900120735168,9.776708602905273,0.015414693392813206
1710953603564644600,16.24864453125,0.819912314414978,9.772265434265137,-0.030893666669726372
1710953603583603200,16.267603271484376,0.8576963543891907,9.76882266998291,-0.06956017017364502
1710953603602561800,16.286561767578124,0.8850165605545044,9.766112327575684,-0.1009046882390976
1710953603621520400,16.305520263671873,0.9087650179862976,9.76361083984375,-0.1281270980834961
1710953603640479000,16.32447900390625,0.9355621933937073,9.760665893554688,-0.15655261278152466
1710953603659437300,16.343437255859374,0.9687439799308777,9.756803512573242,-0.1916169822216034
1710953603678396000,16.36239599609375,1.0113356113433838,9.751572608947754,-0.23329156637191772
1710953603697354500,16.3813544921875,1.0636621713638306,9.74477767944336,-0.279864102602005
1710953603716313000,16.40031298828125,1.1223337650299072,9.73670482635498,-0.3276079595088959
1710953603735271700,16.419271728515625,1.181610107421875,9.72799015045166,-0.37468549609184265
1710953603754230300,16.438230224609374,1.236120581626892,9.719168663024902,-0.4244554042816162
1710953603773188900,16.45718896484375,1.2851922512054443,9.710497856140137,-0.474239319562912
1710953603792147200,16.476147216796875,1.334548830986023,9.701889991760254,-0.5125557780265808
1710953603811105800,16.495105712890624,1.377833604812622,9.694506645202637,-0.5371139049530029
1710953603830064400,16.514064453125,1.4067317247390747,9.689387321472168,-0.5543206930160522
1710953603849023000,16.53302294921875,1.416626214981079,9.687357902526855,-0.5645116567611694
1710953603867981600,16.551981689453125,1.4125527143478394,9.688262939453125,-0.5591498017311096
1710953603886940200,16.570940185546874,1.4029262065887451,9.690556526184082,-0.5434114336967468
1710953603905898800,16.589898681640626,1.391272783279419,9.692567825317383,-0.5374806523323059
1710953603924857300,16.608857421875,1.3766655921936035,9.694206237792969,-0.5454747080802917
1710953603943815700,16.627815673828124,1.36678946018219,9.694907188415527,-0.5577237010002136
1710953603962774300,16.646774169921876,1.37009859085083,9.693670272827148,-0.5709375143051147
1710953603981732900,16.66573291015625,1.3856779336929321,9.690542221069336,-0.5862451791763306
1710953604000691500,16.68469140625,1.4111416339874268,9.685917854309082,-0.601711094379425
1710953604019650000,16.703650146484375,1.4452167749404907,9.680577278137207,-0.6067536473274231
1710953604038608600,16.722608642578123,1.4822325706481934,9.676172256469727,-0.5874245166778564
1710953604057567200,16.741567138671876,1.5116568803787231,9.674324035644531,-0.5410590171813965
1710953604076525600,16.760525634765624,1.5194844007492065,9.676204681396484,-0.4823044240474701
1710953604095484400,16.779484375,1.496909499168396,9.682090759277344,-0.4321598708629608
1710953604114442800,16.79844287109375,1.4460476636886597,9.691146850585938,-0.40127381682395935
1710953604133401300,16.8174013671875,1.3776586055755615,9.701661109924316,-0.3875681459903717
1710953604152360000,16.83635986328125,1.3034939765930176,9.71194839477539,-0.38646650314331055
1710953604171318500,16.855318603515624,1.2314205169677734,9.720832824707031,-0.399231493473053
1710953604190277000,16.874277099609376,1.1640467643737793,9.72783088684082,-0.42975106835365295
1710953604209235700,16.893235595703125,1.1025289297103882,9.732705116271973,-0.47882044315338135
1710953604228194300,16.9121943359375,1.0476731061935425,9.735498428344727,-0.5411399602890015
1710953604247152600,16.931152587890626,1.0008834600448608,9.73641300201416,-0.6090114116668701
1710953604266111200,16.950111328125,0.9648385643959045,9.735649108886719,-0.6757203936576843
1710953604285069800,16.96906982421875,0.9410854578018188,9.73344898223877,-0.7380402088165283
1710953604304028400,16.9880283203125,0.9300310015678406,9.730023384094238,-0.7950344681739807
1710953604322987000,17.006987060546876,0.9298899173736572,9.72579288482666,-0.845366358757019
1710953604341945600,17.025945556640625,0.9370661377906799,9.721317291259766,-0.8878673315048218
1710953604360904200,17.044904296875,0.9470651149749756,9.717073440551758,-0.9230085015296936
1710953604379862800,17.06386279296875,0.9572002291679382,9.713277816772461,-0.9520445466041565
1710953604398821400,17.0828212890625,0.9648135900497437,9.709961891174316,-0.9778397679328918
1710953604417779700,17.10177978515625,0.9672020673751831,9.707253456115723,-1.002060055732727
1710953604436738300,17.12073828125,0.9643478989601135,9.705163955688477,-1.0247995853424072
1710953604455697000,17.13969677734375,0.9570989608764648,9.703721046447754,-1.0450656414031982
1710953604474655500,17.158655517578126,0.9470447301864624,9.70279312133789,-1.0626863241195679
1710953604493614000,17.177614013671874,0.9363581538200378,9.701934814453125,-1.0798544883728027
1710953604512572700,17.19657275390625,0.9278220534324646,9.700772285461426,-1.0975176095962524
1710953604531531300,17.21553125,0.9276047348976135,9.696298599243164,-1.13654363155365
1710953604550489900,17.23448974609375,0.9365510940551758,9.691143035888672,-1.172608733177185
1710953604569448400,17.253448486328125,0.9549694061279297,9.685296058654785,-1.2055917978286743
1710953604588406800,17.27240673828125,0.9812851548194885,9.679096221923828,-1.2339251041412354
1710953604607365600,17.29136572265625,1.0130091905593872,9.672808647155762,-1.2573670148849487
1710953604626324000,17.310323974609375,1.048836588859558,9.666321754455566,-1.277709722518921
1710953604645282600,17.329282470703124,1.0863126516342163,9.65965747833252,-1.296664834022522
1710953604664241200,17.3482412109375,1.123692274093628,9.652989387512207,-1.3143373727798462
1710953604683199700,17.36719970703125,1.1568167209625244,9.647293090820312,-1.3273643255233765
1710953604702158300,17.386158447265625,1.1841175556182861,9.64328670501709,-1.3323947191238403
1710953604721117000,17.405116943359374,1.2054613828659058,9.640839576721191,-1.3309701681137085
1710953604740075500,17.424075439453127,1.2213560342788696,9.639707565307617,-1.324660062789917
1710953604759034000,17.4430341796875,1.2329397201538086,9.63999080657959,-1.3118009567260742
1710953604777992700,17.46199267578125,1.2390596866607666,9.641918182373047,-1.2917187213897705
1710953604796951300,17.480951416015625,1.240221381187439,9.645288467407227,-1.265165090560913
1710953604815909600,17.49990966796875,1.2360080480575562,9.649682998657227,-1.2354308366775513
1710953604834868500,17.518868408203126,1.2274105548858643,9.654637336730957,-1.204917550086975
1710953604853826800,17.537826904296875,1.214734435081482,9.659987449645996,-1.174493432044983
1710953604872785400,17.556785400390623,1.1992114782333374,9.665678977966309,-1.1432056427001953
1710953604891744000,17.575743896484376,1.1812824010849,9.671448707580566,-1.1126712560653687
1710953604910702600,17.59470263671875,1.1607478857040405,9.67734146118164,-1.0826356410980225
1710953604929661200,17.6136611328125,1.1384071111679077,9.68335247039795,-1.0521926879882812
1710953604948619800,17.632619873046874,1.1156115531921387,9.689194679260254,-1.0224010944366455
1710953604967578400,17.651578369140626,1.0934680700302124,9.694841384887695,-0.9923577904701233
1710953604986537000,17.670536865234375,1.073105812072754,9.700017929077148,-0.9635759592056274
1710953605005495600,17.68949560546875,1.0562562942504883,9.70443058013916,-0.9374068975448608
1710953605024454000,17.708453857421876,1.0386693477630615,9.708592414855957,-0.9136671423912048
1710953605043412700,17.727412841796873,1.0199565887451172,9.712867736816406,-0.888974666595459
1710953605062371000,17.74637109375,1.0021530389785767,9.71701717376709,-0.8635110259056091
1710953605081329700,17.76532958984375,0.9849026799201965,9.72083568572998,-0.8400640487670898
1710953605100288300,17.784288330078127,0.9670125246047974,9.724419593811035,-0.8191165328025818
1710953605119246800,17.803246826171875,0.9489378333091736,9.727910041809082,-0.7985444068908691
1710953605138205400,17.822205322265624,0.9348176717758179,9.730772018432617,-0.7801072001457214
1710953605157164000,17.8411640625,0.9252573251724243,9.733061790466309,-0.7627502083778381
1710953605176122600,17.86012255859375,0.9179781079292297,9.735222816467285,-0.7437378764152527
1710953605195081200,17.879081298828126,0.911668062210083,9.737339973449707,-0.7234960794448853
1710953605214039800,17.898039794921875,0.9051963090896606,9.739336967468262,-0.7045031785964966
1710953605232998400,17.916998291015624,0.8980869054794312,9.741145133972168,-0.6884132623672485
1710953605251957000,17.93595703125,0.8894867300987244,9.742987632751465,-0.6733464002609253
1710953605270915300,17.954915283203125,0.8788310289382935,9.74498462677002,-0.6582686901092529
1710953605289874200,17.973874267578125,0.8674306869506836,9.747079849243164,-0.6421704292297363
1710953605308832500,17.99283251953125,0.8566359281539917,9.749021530151367,-0.6270045638084412
1710953605327791000,18.011791015625,0.8457190990447998,9.750879287719727,-0.6127791404724121
1710953605346749700,18.030749755859375,0.8362933993339539,9.752593994140625,-0.5982638597488403
1710953605365708300,18.049708251953124,0.82891446352005,9.75407886505127,-0.5841595530509949
1710953605384667000,18.0686669921875,0.8242610096931458,9.755317687988281,-0.5698808431625366
1710953605403625500,18.08762548828125,0.8211351633071899,9.75646686553955,-0.5545164346694946
1710953605422584000,18.106583984375,0.8184163570404053,9.757613182067871,-0.5381231307983398
1710953605441542700,18.125542724609375,0.8146367073059082,9.758776664733887,-0.5225318074226379
1710953605460501200,18.144501220703123,0.8099420070648193,9.76001262664795,-0.5064899325370789
1710953605479459800,18.1634599609375,0.8037426471710205,9.761499404907227,-0.48736289143562317
1710953605498418400,18.18241845703125,0.7955422401428223,9.763319969177246,-0.463778018951416
1710953605517377000,18.201376953125,0.785219669342041,9.765412330627441,-0.43649905920028687
1710953605536335600,18.220335693359374,0.77227783203125,9.767728805541992,-0.40674635767936707
1710953605555294200,18.239294189453126,0.7578670382499695,9.770182609558105,-0.3735784590244293
1710953605574252800,18.258252685546875,0.7443721294403076,9.772527694702148,-0.33766621351242065
1710953605593211400,18.27721142578125,0.7315496206283569,9.774599075317383,-0.3040287494659424
1710953605612170000,18.296169921875,0.7171387076377869,9.776567459106445,-0.2735424041748047
1710953605631128600,18.315128662109377,0.7022739052772522,9.7783842086792,-0.2457769811153412
1710953605650087000,18.3340869140625,0.6910392045974731,9.779728889465332,-0.22308363020420074
1710953605669045800,18.353045654296874,0.681512176990509,9.780699729919434,-0.20937329530715942
1710953605688004000,18.372004150390627,0.6669902205467224,9.781972885131836,-0.1962728351354599
1710953605706962700,18.390962646484375,0.6493275761604309,9.783531188964844,-0.17685411870479584
1710953605725921300,18.40992138671875,0.6336694359779358,9.784850120544434,-0.1598867028951645
1710953605744879900,18.4288798828125,0.6199300289154053,9.78584098815918,-0.1529243439435959
1710953605763838500,18.44783837890625,0.604835033416748,9.78676700592041,-0.15411116182804108
1710953605782797000,18.466797119140626,0.5877552628517151,9.787835121154785,-0.15238405764102936
1710953605801755600,18.485755615234375,0.5724327564239502,9.788901329040527,-0.14182674884796143
1710953605820714200,18.50471435546875,0.5618323087692261,9.789739608764648,-0.12539364397525787
1710953605839672800,18.5236728515625,0.5535433888435364,9.790410041809082,-0.10889805108308792
1710953605858631400,18.54263134765625,0.5439204573631287,9.791130065917969,-0.09120489656925201
1710953605877590000,18.561590087890625,0.5273531675338745,9.792241096496582,-0.06554725766181946
1710953605896548600,18.580548583984374,0.5012926459312439,9.793781280517578,-0.030510233715176582
1710953605915507200,18.599507080078126,0.4682943522930145,9.79545783996582,0.00909374188631773
1710953605934465800,18.6184658203125,0.43197596073150635,9.797014236450195,0.04783453792333603
1710953605953424400,18.63742431640625,0.3830469846725464,9.798890113830566,0.07358912378549576
1710953605972383000,18.656383056640625,0.3291495442390442,9.800503730773926,0.11037492752075195
1710953605991341600,18.675341552734373,0.2725290060043335,9.801648139953613,0.15435773134231567
1710953606010300000,18.6942998046875,0.2122068852186203,9.802335739135742,0.1988840103149414
1710953606029258800,18.7132587890625,0.14817970991134644,9.802511215209961,0.24332036077976227
1710953606048217300,18.73221728515625,0.08188759535551071,9.802145957946777,0.28570055961608887
1710953606067176000,18.751176025390624,0.01532714068889618,9.80142593383789,0.31965601444244385
1710953606086134500,18.770134521484376,-0.049004439264535904,9.8005952835083,0.34105607867240906
1710953606105092900,18.7890927734375,-0.11091344803571701,9.799678802490234,0.35267025232315063
1710953606124051700,18.8080517578125,-0.1715068370103836,9.798502922058105,0.36097806692123413
1710953606143010000,18.827010009765626,-0.22994597256183624,9.797021865844727,0.3686225712299347
1710953606161969000,18.845968994140627,-0.28275930881500244,9.79556941986084,0.37046876549720764
1710953606180927200,18.86492724609375,-0.3275907635688782,9.794475555419922,0.3623862564563751
1710953606199885800,18.8838857421875,-0.3620360493659973,9.793717384338379,0.34988686442375183
1710953606218844400,18.902844482421877,-0.3839761018753052,9.793246269226074,0.3395220637321472
1710953606237803000,18.921802978515625,-0.3953284025192261,9.79302978515625,0.33269792795181274
1710953606256761600,18.94076171875,-0.39918357133865356,9.792984008789062,0.32938095927238464
1710953606275720200,18.95972021484375,-0.3991962969303131,9.792956352233887,0.3302079439163208
1710953606294678800,18.9786787109375,-0.39883217215538025,9.792881965637207,0.33286407589912415
1710953606313637400,18.997637451171876,-0.40061822533607483,9.792741775512695,0.33482515811920166
1710953606332596000,19.016595947265625,-0.4054555892944336,9.79259204864502,0.3333713710308075
1710953606351554600,19.035554443359374,-0.4118213653564453,9.792288780212402,0.3344755470752716
1710953606370513200,19.05451318359375,-0.4164182245731354,9.791971206665039,0.3380630612373352
1710953606389471700,19.0734716796875,-0.4168223440647125,9.791797637939453,0.34259033203125
1710953606408430300,19.092430419921875,-0.4136696755886078,9.791834831237793,0.3452870845794678
1710953606427389000,19.111388916015624,-0.40831243991851807,9.791998863220215,0.3470414876937866
1710953606446347500,19.130347412109376,-0.4006372392177582,9.792259216308594,0.3486051559448242
1710953606465306000,19.14930615234375,-0.38968443870544434,9.792587280273438,0.35180479288101196
1710953606484264700,19.1682646484375,-0.3738020062446594,9.793017387390137,0.357021301984787
1710953606503223300,19.187223388671875,-0.35532376170158386,9.79350757598877,0.36241018772125244
1710953606522182000,19.206181884765623,-0.3359833061695099,9.794039726257324,0.36644676327705383
1710953606541140500,19.225140380859376,-0.31636375188827515,9.794561386108398,0.3699616491794586
1710953606560099000,19.24409912109375,-0.29528582096099854,9.795052528381348,0.37435418367385864
1710953606579057400,19.263057373046873,-0.2751230299472809,9.795330047607422,0.38238784670829773
1710953606598016300,19.282016357421874,-0.25960680842399597,9.795255661010742,0.39491114020347595
1710953606616974600,19.300974609375,-0.24788318574428558,9.794902801513672,0.41086509823799133
1710953606635933400,19.319933349609375,-0.23744584619998932,9.794462203979492,0.42720919847488403
1710953606654892000,19.33889208984375,-0.22655323147773743,9.794073104858398,0.4417913258075714
1710953606673850400,19.357850341796876,-0.21583440899848938,9.793733596801758,0.45453202724456787
1710953606692809200,19.376809326171873,-0.2067323625087738,9.793327331542969,0.46732500195503235
1710953606711767600,19.395767578125,-0.19849222898483276,9.792922973632812,0.47920167446136475
1710953606730726400,19.414726318359374,-0.19095104932785034,9.792570114135742,0.48939770460128784
1710953606749684700,19.433684814453127,-0.18512755632400513,9.79234504699707,0.4960768520832062
1710953606768643300,19.452643310546875,-0.18303808569908142,9.79214859008789,0.5007003545761108
1710953606787602000,19.471601806640624,-0.18470439314842224,9.791816711425781,0.5065507888793945
1710953606806560500,19.490560546875,-0.18742908537387848,9.791369438171387,0.5141412615776062
1710953606825519000,19.50951904296875,-0.19085121154785156,9.790959358215332,0.5206489562988281
1710953606844477700,19.528477783203126,-0.1962401419878006,9.790509223937988,0.5270701050758362
1710953606863436300,19.547436279296875,-0.20555494725704193,9.789901733398438,0.5347450375556946
1710953606882395000,19.566394775390624,-0.21815846860408783,9.789084434509277,0.5446330308914185
1710953606901353500,19.585353515625,-0.23284128308296204,9.788137435913086,0.5554547905921936
1710953606920312000,19.60431201171875,-0.2481936812400818,9.787145614624023,0.5661885738372803
1710953606939270700,19.623270751953125,-0.26538312435150146,9.786087036132812,0.5765923261642456
1710953606958229200,19.642229248046874,-0.28405070304870605,9.784954071044922,0.5868245959281921
1710953606977187800,19.661187744140626,-0.302364319562912,9.783782005310059,0.5971412658691406
1710953606996146400,19.680146484375,-0.3186502754688263,9.782613754272461,0.6077029705047607
1710953607015105000,19.69910498046875,-0.33241933584213257,9.781448364257812,0.618986189365387
1710953607034063600,19.718063720703125,-0.3458779454231262,9.780202865600586,0.6311750411987305
1710953607053022200,19.737022216796873,-0.35818272829055786,9.778952598571777,0.6435628533363342
1710953607071980500,19.75598046875,-0.36764490604400635,9.777956008911133,0.653292715549469
1710953607090939400,19.774939453125,-0.3764464259147644,9.777153968811035,0.6602538228034973
1710953607109897700,19.793897705078123,-0.386726438999176,9.776349067687988,0.6662070751190186
1710953607128856300,19.812856201171876,-0.39867737889289856,9.775444030761719,0.6724212765693665
1710953607147815000,19.83181494140625,-0.41071048378944397,9.774564743041992,0.6779344081878662
1710953607166773500,19.8507734375,-0.4220214784145355,9.77376937866211,0.6824273467063904
1710953607185732000,19.869732177734374,-0.4329730272293091,9.772995948791504,0.6866506934165955
1710953607204690700,19.888690673828126,-0.44254958629608154,9.772305488586426,0.6903452277183533
1710953607223649300,19.907649169921875,-0.45143696665763855,9.771676063537598,0.6934990882873535
1710953607242607900,19.92660791015625,-0.4586386978626251,9.771228790283203,0.6950626373291016
1710953607261566500,19.94556640625,-0.464133083820343,9.77103328704834,0.6941749453544617
1710953607280525000,19.964525146484377,-0.4677011966705322,9.771080017089844,0.6911221742630005
1710953607299483600,19.983483642578125,-0.4689463973045349,9.771328926086426,0.6867393255233765
1710953607318442200,20.002442138671874,-0.46783724427223206,9.771743774414062,0.6815810799598694
1710953607337400800,20.02140087890625,-0.46411335468292236,9.77228832244873,0.676299512386322
1710953607356359400,20.040359375,-0.4587939381599426,9.773033142089844,0.6691111326217651
1710953607375318000,20.059318115234376,-0.45386332273483276,9.773825645446777,0.6608424186706543
1710953607394276600,20.078276611328125,-0.44813892245292664,9.774665832519531,0.6522782444953918
1710953607413235000,20.09723486328125,-0.4410456418991089,9.775476455688477,0.6449140906333923
1710953607432193800,20.11619384765625,-0.4326183497905731,9.776361465454102,0.63717120885849
1710953607451152100,20.135152099609375,-0.42362961173057556,9.777185440063477,0.6305327415466309
1710953607470110700,20.15411083984375,-0.41408199071884155,9.777819633483887,0.6270309090614319
1710953607489069300,20.1730693359375,-0.40230998396873474,9.778400421142578,0.6256393790245056
1710953607508028000,20.19202783203125,-0.3900185823440552,9.778890609741211,0.6257558465003967
1710953607526986500,20.210986572265625,-0.3801104724407196,9.77920150756836,0.6269993185997009
1710953607545945000,20.229945068359374,-0.37275224924087524,9.779380798339844,0.6286042928695679
1710953607564903700,20.248903564453126,-0.3666537404060364,9.779546737670898,0.6296224594116211
1710953607583862300,20.2678623046875,-0.36132586002349854,9.779669761657715,0.6307868957519531
1710953607602820900,20.28682080078125,-0.3567422926425934,9.779582977294922,0.6347214579582214
1710953607621779500,20.305779541015625,-0.3523077666759491,9.779302597045898,0.6414946913719177
1710953607640738000,20.324738037109373,-0.3477579653263092,9.778830528259277,0.6510842442512512
1710953607659696400,20.3436962890625,-0.3420662581920624,9.778327941894531,0.661586582660675
1710953607678655200,20.3626552734375,-0.3369109034538269,9.777886390686035,0.6706844568252563
1710953607697613600,20.381613525390627,-0.33374547958374023,9.777477264404297,0.6781821846961975
1710953607716572200,20.400572265625,-0.3317624628543854,9.777000427246094,0.6859899163246155
1710953607735530800,20.41953076171875,-0.3290681540966034,9.776480674743652,0.6946439743041992
1710953607754489300,20.4384892578125,-0.3268766701221466,9.775832176208496,0.7047285437583923
1710953607773448000,20.457447998046874,-0.32625624537467957,9.775070190429688,0.7155036926269531
1710953607792406500,20.476406494140626,-0.32713550329208374,9.774224281311035,0.726571261882782
1710953607811365000,20.495365234375,-0.3294910490512848,9.773364067077637,0.7370073199272156
1710953607830323700,20.51432373046875,-0.3329192101955414,9.772509574890137,0.7467334270477295
1710953607849282300,20.5332822265625,-0.3359365165233612,9.771720886230469,0.755650520324707
1710953607868240600,20.55224072265625,-0.3380756974220276,9.771034240722656,0.7635437846183777
1710953607887199200,20.57119921875,-0.3389390707015991,9.770524978637695,0.7696294784545898
1710953607906157800,20.59015771484375,-0.3396970331668854,9.770102500915527,0.7746526598930359
1710953607925116400,20.609116455078127,-0.34262096881866455,9.769645690917969,0.7791171669960022
1710953607944075000,20.628074951171875,-0.3469107747077942,9.7691068649292,0.7839594483375549
1710953607963033600,20.64703369140625,-0.35048532485961914,9.768475532531738,0.7902165055274963
1710953607981992200,20.6659921875,-0.353237122297287,9.767906188964844,0.7960021495819092
1710953608000950800,20.68495068359375,-0.3580450415611267,9.767369270324707,0.8004431128501892
1710953608019909400,20.703909423828126,-0.36383429169654846,9.766753196716309,0.8053292632102966
1710953608038868000,20.722867919921875,-0.36818310618400574,9.766216278076172,0.8098407983779907
1710953608057826300,20.741826416015623,-0.37178856134414673,9.765857696533203,0.8125160336494446
1710953608076785200,20.76078515625,-0.3749464452266693,9.765679359436035,0.8132034540176392
1710953608095743500,20.779743408203124,-0.3774220049381256,9.765604972839355,0.8129541277885437
1710953608114702000,20.7987021484375,-0.38028669357299805,9.765462875366211,0.8133281469345093
1710953608133660700,20.81766064453125,-0.38930532336235046,9.764833450317383,0.816615641117096
1710953608152619300,20.836619384765626,-0.40596720576286316,9.763593673706055,0.82330322265625
1710953608171577900,20.855577880859375,-0.42357945442199707,9.762396812438965,0.8286024928092957
1710953608190536400,20.874536376953124,-0.43790706992149353,9.761972427368164,0.8261409401893616
1710953608209495000,20.8934951171875,-0.45332351326942444,9.761808395385742,0.8197414875030518
1710953608228453400,20.912453369140625,-0.47618505358695984,9.761063575744629,0.8156479001045227
1710953608247412000,20.931411865234374,-0.5020838379859924,9.759929656982422,0.813675582408905
1710953608266370600,20.95037060546875,-0.5218906402587891,9.759309768676758,0.8086292743682861
1710953608285329200,20.9693291015625,-0.5281087756156921,9.759965896606445,0.7965854406356812
1710953608304287700,20.988287841796875,-0.5171620845794678,9.761931419372559,0.7794998288154602
1710953608323246300,21.007246337890624,-0.49295520782470703,9.764318466186523,0.7651660442352295
1710953608342205000,21.026204833984377,-0.45731115341186523,9.76646900177002,0.7598276734352112
1710953608361163500,21.04516357421875,-0.4059261977672577,9.768524169921875,0.7625908851623535
1710953608380122000,21.0641220703125,-0.34747421741485596,9.770049095153809,0.7718774676322937
1710953608399080400,21.08308056640625,-0.29544979333877563,9.770095825195312,0.7926725745201111
1710953608418039000,21.1020390625,-0.25215810537338257,9.7683744430542,0.8280467391014099
1710953608436997600,21.12099755859375,-0.2112288475036621,9.765457153320312,0.872714638710022
1710953608455956200,21.139956298828125,-0.16570736467838287,9.762397766113281,0.9157061576843262
1710953608474914800,21.158914794921873,-0.12635032832622528,9.759449005126953,0.952670156955719
1710953608493873400,21.177873291015626,-0.10639967769384384,9.756633758544922,0.983440101146698
1710953608512832000,21.19683203125,-0.09437835216522217,9.754786491394043,1.0028092861175537
1710953608531790600,21.21579052734375,-0.05599905550479889,9.754701614379883,1.0064947605133057
1710953608550749200,21.234749267578124,0.0034098317846655846,9.756271362304688,0.9927444458007812
1710953608569707500,21.25370751953125,0.06364092230796814,9.757869720458984,0.9748397469520569
1710953608588666000,21.272666015625,0.11841849982738495,9.758718490600586,0.9611296653747559
1710953608607624700,21.291624755859374,0.16529887914657593,9.758622169494629,0.955173909664154
1710953608626583300,21.310583251953126,0.20196308195590973,9.757047653198242,0.9641717076301575
1710953608645542000,21.3295419921875,0.2191595733165741,9.754819869995117,0.9827675223350525
1710953608664500500,21.34850048828125,0.21631468832492828,9.752878189086914,1.0024815797805786
1710953608683459000,21.367458984375,0.1998528391122818,9.751644134521484,1.0177878141403198
1710953608702417700,21.386417724609377,0.17856815457344055,9.750565528869629,1.0319714546203613
1710953608721376300,21.405376220703126,0.16387265920639038,9.74831771850586,1.0553911924362183
1710953608740334600,21.42433447265625,0.14460697770118713,9.746678352355957,1.0731998682022095
1710953608759293400,21.44329345703125,0.12133310735225677,9.74588394165039,1.083239197731018
1710953608778252000,21.462251953125,0.09614621102809906,9.746259689331055,1.0823830366134644
1710953608797210400,21.48121044921875,0.072062648832798,9.74847412109375,1.0641602277755737
1710953608816169200,21.500169189453125,0.04624407738447189,9.753009796142578,1.0232560634613037
1710953608835127600,21.51912744140625,0.01779230497777462,9.758824348449707,0.9671716094017029
1710953608854086100,21.538086181640626,-0.01732509210705757,9.763788223266602,0.9157053828239441
1710953608873044700,21.557044677734375,-0.0672701969742775,9.7673978805542,0.8739584684371948
1710953608892003300,21.57600341796875,-0.1359778791666031,9.770973205566406,0.8246088624000549
1710953608910962000,21.5949619140625,-0.21367105841636658,9.775130271911621,0.756011426448822
1710953608929920500,21.61392041015625,-0.28358882665634155,9.778593063354492,0.6848947405815125
1710953608948879000,21.632879150390625,-0.33334365487098694,9.780142784118652,0.6388081312179565
1710953608967837700,21.651837646484374,-0.36026349663734436,9.779478073120117,0.6343527436256409
1710953608986796300,21.67079638671875,-0.37314572930336,9.776876449584961,0.6661955118179321
1710953609005755000,21.6897548828125,-0.38512876629829407,9.773212432861328,0.7116180658340454
1710953609024713500,21.70871337890625,-0.40581655502319336,9.769627571105957,0.7483853697776794
1710953609043672000,21.727672119140625,-0.43868064880371094,9.766904830932617,0.7651918530464172
1710953609062630700,21.746630615234373,-0.4791868329048157,9.765031814575195,0.7648017406463623
1710953609081589000,21.765589111328126,-0.5158263444900513,9.763819694519043,0.7563990354537964
1710953609100547800,21.7845478515625,-0.5386896729469299,9.76334285736084,0.7465472221374512
1710953609119506200,21.803506103515623,-0.542693555355072,9.763493537902832,0.7416664958000183
1710953609138465000,21.822465087890624,-0.5254694819450378,9.763787269592285,0.7501612305641174
1710953609157423400,21.84142333984375,-0.48876774311065674,9.763449668884277,0.7788143754005432
1710953609176382000,21.8603818359375,-0.43715745210647583,9.761906623840332,0.827320396900177
1710953609195340500,21.879340576171874,-0.3798452615737915,9.7594575881958,0.8826587200164795
1710953609214299100,21.898299072265626,-0.3294083774089813,9.757351875305176,0.9251795411109924
1710953609233257700,21.9172578125,-0.2964193820953369,9.756481170654297,0.9452987909317017
1710953609252216300,21.93621630859375,-0.2820761501789093,9.756409645080566,0.9504162669181824
1710953609271175000,21.9551748046875,-0.2774111032485962,9.755885124206543,0.9571484327316284
1710953609290133500,21.974133544921877,-0.2758089005947113,9.754210472106934,0.9745227098464966
1710953609309092000,21.993092041015625,-0.2781507074832916,9.751463890075684,1.0009753704071045
1710953609328050700,22.01205078125,-0.29077258706092834,9.747934341430664,1.0313191413879395
1710953609347009300,22.03100927734375,-0.3160892724990845,9.744296073913574,1.057910442352295
1710953609365968000,22.0499677734375,-0.3487011194229126,9.74085807800293,1.079118251800537
1710953609384926700,22.0689267578125,-0.3802855610847473,9.736703872680664,1.1056060791015625
1710953609403885000,22.087885009765625,-0.40698376297950745,9.732534408569336,1.1324824094772339
1710953609422844000,22.106843994140625,-0.4318615198135376,9.730517387390137,1.1405737400054932
1710953609441802200,22.12580224609375,-0.4528241455554962,9.730854034423828,1.1295183897018433
1710953609460761000,22.144760986328127,-0.46511200070381165,9.73246955871582,1.1104531288146973
1710953609479719400,22.163719482421875,-0.4615362882614136,9.735066413879395,1.0889698266983032
1710953609498678300,22.18267822265625,-0.43509045243263245,9.738835334777832,1.0659162998199463
1710953609517636600,22.20163671875,-0.388714075088501,9.743651390075684,1.0394984483718872
1710953609536595500,22.220595458984373,-0.335990309715271,9.748497009277344,1.0120786428451538
1710953609555553800,22.2395537109375,-0.28993189334869385,9.751986503601074,0.9925119876861572
1710953609574512600,22.2585126953125,-0.25501006841659546,9.753726959228516,0.9849727749824524
1710953609593471200,22.27747119140625,-0.22738611698150635,9.754501342773438,0.9840700626373291
1710953609612429800,22.296429931640624,-0.20250006020069122,9.755029678344727,0.9842572212219238
1710953609631388400,22.315388427734376,-0.17796997725963593,9.755374908447266,0.9855828881263733
1710953609650347000,22.334346923828125,-0.15601788461208344,9.755654335021973,0.9865368604660034
1710953609669305600,22.3533056640625,-0.14073079824447632,9.755717277526855,0.98820561170578
1710953609688264200,22.37226416015625,-0.13417722284793854,9.75493049621582,0.9968574047088623
1710953609707222800,22.391222900390623,-0.13622146844863892,9.752706527709961,1.0181031227111816
1710953609726181400,22.410181396484376,-0.1458052098751068,9.74903392791748,1.0514084100723267
1710953609745140000,22.429139892578124,-0.16106200218200684,9.744454383850098,1.0908974409103394
1710953609764098600,22.4480986328125,-0.17867223918437958,9.73991584777832,1.128048300743103
1710953609783057200,22.46705712890625,-0.1947401762008667,9.736411094665527,1.1553219556808472
1710953609802015700,22.486015625,-0.207647904753685,9.73436164855957,1.170246958732605
1710953609820974300,22.504974365234375,-0.2184116691350937,9.73338794708252,1.1763672828674316
1710953609839933000,22.523932861328124,-0.22919228672981262,9.732895851135254,1.1783863306045532
1710953609858891500,22.5428916015625,-0.24018190801143646,9.732460975646973,1.17978036403656
1710953609877850000,22.56185009765625,-0.25170138478279114,9.731908798217773,1.1819440126419067
1710953609896809000,22.58080908203125,-0.26533520221710205,9.731277465820312,1.1841500997543335
1710953609915767600,22.599767578125,-0.28174859285354614,9.730700492858887,1.1851009130477905
1710953609934726100,22.61872607421875,-0.3014194071292877,9.73023796081543,1.1840689182281494
1710953609953684700,22.637684814453124,-0.32280099391937256,9.729938507080078,1.1808724403381348
1710953609972643300,22.656643310546876,-0.3422754108905792,9.729870796203613,1.175947666168213
1710953609991602000,22.675601806640625,-0.35492393374443054,9.727999687194824,1.1876190900802612
1710953610010560500,22.694560546875,-0.3598736822605133,9.726356506347656,1.1995267868041992
1710953610029519000,22.71351904296875,-0.3569331467151642,9.725265502929688,1.2092127799987793
1710953610048478000,22.73247802734375,-0.34838324785232544,9.72414779663086,1.2206381559371948
1710953610067436300,22.751436279296875,-0.3353027105331421,9.722164154052734,1.2399520874023438
1710953610086395100,22.77039501953125,-0.3077249825000763,9.719064712524414,1.271004319190979
1710953610105353700,22.789353759765625,-0.26022815704345703,9.715250015258789,1.31019127368927
1710953610124312300,22.808312255859374,-0.20246805250644684,9.710722923278809,1.3532365560531616
1710953610143271000,22.82727099609375,-0.14384828507900238,9.705666542053223,1.3963282108306885
1710953610162229500,22.8462294921875,-0.08600806444883347,9.700788497924805,1.4344673156738281
1710953610181188000,22.86518798828125,-0.02732689306139946,9.69649887084961,1.465450406074524
1710953610200146700,22.884146728515624,0.04173382371664047,9.691457748413086,1.4980964660644531
1710953610219105500,22.90310546875,0.14663490653038025,9.682745933532715,1.5470325946807861
1710953610238064000,22.922064208984374,0.306012898683548,9.665752410888672,1.627869963645935
1710953610257022700,22.941022705078126,0.530856728553772,9.633170127868652,1.7580137252807617
1710953610275981300,22.959981201171875,0.7903112769126892,9.582990646362305,1.9266784191131592
1710953610294940000,22.97893994140625,1.0529881715774536,9.517631530761719,2.1157267093658447
1710953610313898500,22.9978984375,1.2962599992752075,9.446348190307617,2.292728900909424
1710953610332857300,23.016857421875,1.491798996925354,9.3842134475708,2.4251744747161865
1710953610351816000,23.03581591796875,1.6389751434326172,9.336560249328613,2.5125269889831543
1710953610370774500,23.0547744140625,1.7452155351638794,9.297032356262207,2.5864641666412354
1710953610389733000,23.073733154296875,1.8187483549118042,9.257284164428711,2.676797389984131
1710953610408691700,23.092691650390623,1.8634357452392578,9.216660499572754,2.784090280532837
1710953610427650300,23.111650390625,1.878201961517334,9.177206993103027,2.9019999504089355
1710953610446609000,23.13060888671875,1.867360234260559,9.139131546020508,3.026484966278076
1710953610465567700,23.149567626953125,1.8388034105300903,9.103280067443848,3.1495208740234375
1710953610484526300,23.1685263671875,1.8004035949707031,9.071623802185059,3.26107120513916
1710953610503485000,23.18748486328125,1.7599190473556519,9.046272277832031,3.3523178100585938
1710953610522443500,23.206443603515623,1.723110318183899,9.028029441833496,3.419935464859009
1710953610541402000,23.225402099609376,1.6946102380752563,9.016209602355957,3.4650604724884033
1710953610560361000,23.24436083984375,1.672585368156433,9.010109901428223,3.4915266036987305
1710953610579319600,23.263319580078125,1.650011658668518,9.009337425231934,3.504236936569214
1710953610598278100,23.282278076171874,1.621972918510437,9.013270378112793,3.5072104930877686
1710953610617236700,23.30123681640625,1.5858577489852905,9.020851135253906,3.504239082336426
1710953610636195300,23.3201953125,1.5397186279296875,9.030865669250488,3.4990177154541016
1710953610655154200,23.339154296875,1.4819626808166504,9.04235553741455,3.4942779541015625
1710953610674112800,23.35811279296875,1.4118717908859253,9.055408477783203,3.489494800567627
1710953610693071400,23.3770712890625,1.332985758781433,9.070867538452148,3.4803593158721924
1710953610712030000,23.396030029296874,1.250298261642456,9.090024948120117,3.4610092639923096
1710953610730988800,23.41498876953125,1.1656711101531982,9.115177154541016,3.424198627471924
1710953610749947400,23.433947509765623,1.07586669921875,9.149247169494629,3.3621671199798584
1710953610768906000,23.452906005859376,0.9760094285011292,9.193087577819824,3.271838665008545
1710953610787864600,23.471864501953124,0.8615533113479614,9.245582580566406,3.1539371013641357
1710953610806823200,23.4908232421875,0.7285956740379333,9.304207801818848,3.0118517875671387
1710953610825782000,23.509781982421874,0.5760437846183777,9.365205764770508,2.8515777587890625
1710953610844740600,23.52874072265625,0.40804293751716614,9.425243377685547,2.677438259124756
1710953610863699200,23.54769921875,0.2341671884059906,9.481245994567871,2.4942991733551025
1710953610882657800,23.56665771484375,0.06535878777503967,9.531197547912598,2.307028293609619
1710953610901616400,23.585616455078124,-0.08794911950826645,9.574285507202148,2.1203091144561768
1710953610920575200,23.6045751953125,-0.21669702231884003,9.609306335449219,1.9454210996627808
1710953610939533800,23.623533935546874,-0.3124043345451355,9.636041641235352,1.7942909002304077
1710953610958492400,23.642492431640626,-0.3715367019176483,9.656097412109375,1.6709684133529663
1710953610977451000,23.661450927734375,-0.39399197697639465,9.670330047607422,1.5810973644256592
1710953610996409600,23.68040966796875,-0.3823769688606262,9.678365707397461,1.534080982208252
1710953611015368400,23.699368408203124,-0.3388061821460724,9.681315422058105,1.525692105293274
1710953611034327000,23.7183271484375,-0.27277639508247375,9.681805610656738,1.535784125328064
1710953611053285600,23.73728564453125,-0.20349523425102234,9.682146072387695,1.5443470478057861
1710953611072244200,23.756244140625,-0.14787507057189941,9.683043479919434,1.5450506210327148
1710953611091203000,23.775203125,-0.11356687545776367,9.684024810791016,1.5417999029159546
1710953611110161700,23.79416162109375,-0.0975603312253952,9.684732437133789,1.5384564399719238
1710953611129120300,23.813120361328124,-0.09068697690963745,9.68524169921875,1.535657525062561
1710953611148078800,23.832078857421877,-0.09121549874544144,9.685332298278809,1.5350583791732788
1710953611167037400,23.851037353515625,-0.09617608040571213,9.685153007507324,1.535888910293579
1710953611185996300,23.869996337890626,-0.10213182866573334,9.685516357421875,1.533209204673767
1710953611204955000,23.888954833984375,-0.10275206714868546,9.686711311340332,1.5255978107452393
1710953611223913500,23.90791357421875,-0.09146872907876968,9.68835163116455,1.5158692598342896
1710953611242872000,23.9268720703125,-0.06579671055078506,9.690047264099121,1.5063326358795166
1710953611261830700,23.94583056640625,-0.028780218213796616,9.69147777557373,1.4982720613479614
1710953611280789500,23.96478955078125,0.013628781773149967,9.69271469116211,1.4904588460922241
1710953611299748000,23.983748046875,0.053976744413375854,9.694079399108887,1.480639100074768
1710953611318706700,24.002706787109375,0.08847659081220627,9.69577407836914,1.4678267240524292
1710953611337665300,24.021665283203124,0.11515797674655914,9.697674751281738,1.453353762626648
1710953611356624000,24.040623779296876,0.13291414082050323,9.699210166931152,1.4415454864501953
1710953611375582700,24.059582763671877,0.1396651566028595,9.69996166229248,1.4358372688293457
1710953611394541300,24.078541259765625,0.13390110433101654,9.699807167053223,1.437430500984192
1710953611413500000,24.0975,0.11748730391263962,9.69884204864502,1.4453493356704712
1710953611432458800,24.116458740234375,0.09280262142419815,9.697282791137695,1.457566738128662
1710953611451417300,24.135417236328124,0.06367906928062439,9.695265769958496,1.472461462020874
1710953611470376000,24.1543759765625,0.03205179423093796,9.693046569824219,1.4880194664001465
1710953611489334500,24.17333447265625,-0.0015985413920134306,9.690999984741211,1.5016329288482666
1710953611508293400,24.19229345703125,-0.03634141385555267,9.68957233428955,1.5103782415390015
1710953611527252000,24.211251953125,-0.06905712932348251,9.688913345336914,1.513461709022522
1710953611546210600,24.23021044921875,-0.09630633145570755,9.689127922058105,1.510601282119751
