time,seconds_elapsed,z,y,x
1710953587374102800,0.058102783203125,-0.009392046369612217,0.30741769075393677,0.09728021919727325
1710953587393060900,0.077060791015625,-0.013362666592001915,0.29153522849082947,0.08628465235233307
1710953587412019200,0.096019287109375,-0.0029779658652842045,0.21120649576187134,0.07895427197217941
1710953587430977500,0.1149775390625,0.010461059398949146,0.10338886082172394,0.06826414167881012
1710953587449935600,0.133935546875,0.020540328696370125,0.004734201822429895,0.06215549260377884
1710953587468894000,0.15289404296875,0.024816380813717842,-0.060322895646095276,0.06368265300989151
1710953587487852000,0.17185205078125,0.0193185992538929,-0.0847574844956398,0.0642935186624527
1710953587506810000,0.19081005859375,0.014431680552661419,-0.07101303339004517,0.06734783947467804
1710953587525768400,0.2097685546875,0.019929463043808937,-0.03588830679655075,0.0691804364323616
1710953587544726800,0.228726806640625,0.022678354755043983,0.016340631991624832,0.06795870512723923
1710953587563684900,0.247684814453125,0.017486004158854485,0.08872810751199722,0.06704241037368774
1710953587582643200,0.266643310546875,0.015347977168858051,0.13698641955852509,0.06062832847237587
1710953587601601300,0.285601318359375,0.02390008419752121,0.14340050518512726,0.05024362727999687
1710953587620559600,0.3045595703125,0.03275762498378754,0.1207985132932663,0.053603384643793106
1710953587639518000,0.32351806640625,0.039477135986089706,0.08323032408952713,0.07009673118591309
1710953587658476000,0.34247607421875,0.049861837178468704,0.028863361105322838,0.07620538026094437
1710953587677434000,0.36143408203125,0.05413788929581642,-0.021838415414094925,0.06704241037368774
1710953587696392400,0.380392333984375,0.05688678100705147,-0.049632761627435684,0.05787943676114082
1710953587715350500,0.3993505859375,0.06452259421348572,-0.05757400393486023,0.056657709181308746
1710953587734308900,0.418308837890625,0.06391172856092453,-0.05635227635502815,0.060933761298656464
1710953587753267200,0.43726708984375,0.05474875494837761,-0.04718930274248123,0.061850059777498245
1710953587772225300,0.456225341796875,0.04222602769732475,-0.030390523374080658,0.05635227635502815
1710953587791183600,0.47518359375,0.036422811448574066,-0.008399390615522861,0.04932733252644539
1710953587810141700,0.4941416015625,0.03153589367866516,0.011759147047996521,0.04230238497257233
1710953587829100000,0.51310009765625,0.029397867619991302,0.030695954337716103,0.037720900028944016
1710953587848058400,0.532058349609375,0.031230462715029716,0.04566214233636856,0.03191768378019333
1710953587867016400,0.551016357421875,0.029397867619991302,0.05513054504990578,0.027030766010284424
1710953587885974800,0.569974853515625,0.027259841561317444,0.0642935186624527,0.021227551624178886
1710953587904932900,0.588932861328125,0.028787001967430115,0.0691804364323616,0.02214384824037552
1710953587923891200,0.60789111328125,0.031230462715029716,0.054214250296354294,0.023365577682852745
1710953587942849300,0.626849365234375,0.029703300446271896,0.03558287397027016,0.017562363296747208
1710953587961807600,0.6458076171875,0.02023489587008953,0.03955349326133728,0.009621120058000088
1710953587980765700,0.664765625,0.01626427471637726,0.06887500733137131,0.0062613640911877155
1710953587999724000,0.68372412109375,0.018402300775051117,0.10766492038965225,0.011759147047996521
1710953588018682000,0.70268212890625,0.0193185992538929,0.13179408013820648,0.01695149764418602
1710953588037640400,0.721640380859375,0.01626427471637726,0.1418733447790146,0.014813470654189587
1710953588056598800,0.740598876953125,0.013209951110184193,0.14950916171073914,0.01206457894295454
1710953588075556900,0.759556884765625,0.013820815831422806,0.14401137828826904,0.015729768201708794
1710953588094515200,0.77851513671875,0.02023489587008953,0.1262962967157364,0.0154243353754282
1710953588113473300,0.797473388671875,0.020540328696370125,0.10827577859163284,0.007788525894284248
1710953588132431600,0.816431640625,0.011377356946468353,0.09208786487579346,0.003512472379952669
1710953588151390000,0.835389892578125,0.0031306820455938578,0.07559451460838318,-0.0013744457392022014
1710953588170348000,0.85434814453125,-0.006948587018996477,0.058795735239982605,-0.0062613640911877155
1710953588189306400,0.873306396484375,-0.023136503994464874,0.064598947763443,-0.013286309316754341
1710953588208264700,0.8922646484375,-0.02283107116818428,0.0639880821108818,-0.028557928279042244
1710953588227222800,0.911222900390625,-0.012751801870763302,-0.0032070400193333626,-0.06612611562013626
1710953588246181000,0.93018115234375,-0.018555017188191414,-0.11438442766666412,-0.11224640160799026
1710953588265139200,0.94913916015625,-0.046654798090457916,-0.1815795600414276,-0.12263110280036926
1710953588284097500,0.96809765625,-0.07261654734611511,-0.1715002804994583,-0.0948367565870285
1710953588303056000,0.987055908203125,-0.07444914430379868,-0.1204930767416954,-0.07651081681251526
1710953588322014200,1.00601416015625,-0.07261654734611511,-0.0642935186624527,-0.0896444097161293
1710953588340972300,1.02497216796875,-0.07964149862527847,-0.03711003437638283,-0.1311832070350647
1710953588359930600,1.0439306640625,-0.09338594973087311,-0.05482511222362518,-0.18616104125976562
1710953588378888700,1.062888671875,-0.114460788667202,-0.0902552679181099,-0.249690979719162
1710953588397847000,1.081846923828125,-0.145614892244339,-0.13515383005142212,-0.31413722038269043
1710953588416805400,1.100805419921875,-0.16210824251174927,-0.18432845175266266,-0.3727802336215973
1710953588435763500,1.119763427734375,-0.1608865112066269,-0.2228129357099533,-0.43600472807884216
1710953588454721800,1.1387216796875,-0.13675735890865326,-0.2383899837732315,-0.5206094980239868
1710953588473680100,1.15768017578125,-0.06559160351753235,-0.20204351842403412,-0.614682674407959
1710953588492638200,1.17663818359375,0.026343543082475662,-0.19898919761180878,-0.6944005489349365
1710953588511596500,1.195596435546875,0.1265253722667694,-0.25702136754989624,-0.7533490061759949
1710953588530555000,1.214554931640625,0.21510076522827148,-0.3413206934928894,-0.7826704978942871
1710953588549513000,1.233512939453125,0.2599993348121643,-0.43569931387901306,-0.7976366877555847
1710953588568471300,1.25247119140625,0.2865719497203827,-0.4747946560382843,-0.8443678617477417
1710953588587429600,1.2714296875,0.3723984360694885,-0.5306887626647949,-0.7625119686126709
1710953588606388000,1.290387939453125,0.4337903559207916,-0.5080868005752563,-0.5493201613426208
1710953588625346300,1.30934619140625,0.4872410297393799,-0.3871355652809143,-0.33918267488479614
1710953588644304400,1.328304443359375,0.5868119597434998,-0.2790125012397766,-0.20143266022205353
1710953588663262700,1.3472626953125,0.7477748394012451,-0.2597702443599701,-0.06490438431501389
1710953588682221000,1.366220947265625,0.9328668713569641,-0.3205513060092926,0.10399972647428513
1710953588701179100,1.38517919921875,1.1283435821533203,-0.4237874448299408,0.3046688139438629
1710953588720137500,1.404137451171875,1.3271801471710205,-0.5358811020851135,0.4864010810852051
1710953588739095800,1.423095703125,1.5009710788726807,-0.7047852277755737,0.6601921319961548
1710953588758054100,1.44205419921875,1.6802599430084229,-0.9356921315193176,0.771980345249176
1710953588777012200,1.46101220703125,1.858327031135559,-1.1388046741485596,0.8431460857391357
1710953588795970600,1.479970458984375,1.9905792474746704,-1.2261583805084229,0.9225585460662842
1710953588814929000,1.498928955078125,2.1093924045562744,-1.152243733406067,1.0517563819885254
1710953588833887200,1.51788720703125,2.2434773445129395,-1.0163263082504272,1.187368392944336
1710953588852845600,1.536845458984375,2.395582675933838,-0.8297070860862732,1.317788004875183
1710953588871804000,1.555803955078125,2.52142071723938,-0.6464476585388184,1.4482076168060303
1710953588890762200,1.57476220703125,2.572427988052368,-0.5184714794158936,1.5599958896636963
1710953588909720300,1.59372021484375,2.5901429653167725,-0.4650208055973053,1.6436843872070312
1710953588928678700,1.6126787109375,2.5681519508361816,-0.48273590207099915,1.718515396118164
1710953588947637000,1.631636962890625,2.49912428855896,-0.5163334608078003,1.7805181741714478
1710953588966595300,1.65059521484375,2.4197118282318115,-0.5429060459136963,1.8220568895339966
1710953588985553700,1.6695537109375,2.334190607070923,-0.5908589363098145,1.856876254081726
1710953589004512000,1.688511962890625,2.2440881729125977,-0.6195695996284485,1.8535164594650269
1710953589023470000,1.707469970703125,2.1234424114227295,-0.5526798963546753,1.862373948097229
1710953589042428400,1.726428466796875,1.9377394914627075,-0.3318522870540619,1.9274311065673828
1710953589061386800,1.74538671875,1.7584506273269653,-0.020922118797898293,2.0181446075439453
1710953589080345000,1.764344970703125,1.6420809030532837,0.3572031855583191,2.09266996383667
1710953589099303400,1.783303466796875,1.5922954082489014,0.6272054314613342,2.1018331050872803
1710953589118261800,1.80226171875,1.5382338762283325,0.8275690674781799,2.061821460723877
1710953589137220000,1.82122021484375,1.4655410051345825,0.8981239199638367,2.0496039390563965
1710953589156178400,1.840178466796875,1.3864339590072632,0.9054543375968933,2.0434954166412354
1710953589175136500,1.859136474609375,1.3094650506973267,0.845894992351532,1.9723296165466309
1710953589194094800,1.8780947265625,1.2242493629455566,0.7038689255714417,1.890168309211731
1710953589213053200,1.89705322265625,1.153999924659729,0.5306887626647949,1.844353437423706
1710953589232011500,1.916011474609375,1.071533203125,0.4243983030319214,1.790902853012085
1710953589250969900,1.934969970703125,0.9707404971122742,0.27809619903564453,1.7044655084609985
1710953589269928200,1.95392822265625,0.7798452377319336,0.04718930274248123,1.578627347946167
1710953589288886500,1.972886474609375,0.49884745478630066,-0.1308777779340744,1.4237730503082275
1710953589307844900,1.991844970703125,0.2926805913448334,-0.21487168967723846,1.2881611585617065
1710953589326803200,2.01080322265625,0.23128867149353027,-0.24633121490478516,1.190117359161377
1710953589345761500,2.029761474609375,0.2199876755475998,-0.29184064269065857,1.1348340511322021
1710953589364719900,2.048719970703125,0.1424078494310379,-0.31230461597442627,1.1308634281158447
1710953589383678200,2.06767822265625,0.008017600513994694,-0.24755294620990753,1.1785109043121338
1710953589402636500,2.086636474609375,-0.10865757614374161,-0.13820815086364746,1.2536472082138062
1710953589421595000,2.105594970703125,-0.13614648580551147,0.06307178735733032,1.3431389331817627
1710953589440553200,2.12455322265625,-0.040546149015426636,0.2493855506181717,1.427743673324585
1710953589459511600,2.143511474609375,0.07612902671098709,0.22556181252002716,1.446069598197937
1710953589478470000,2.162469970703125,0.08712458610534668,-0.008399390615522861,1.419191598892212
1710953589497428200,2.18142822265625,0.0019089524867013097,-0.30772313475608826,1.4039199352264404
1710953589516386600,2.200386474609375,-0.10193806141614914,-0.46196648478507996,1.4182753562927246
1710953589535345000,2.219344970703125,-0.1706603467464447,-0.5273290276527405,1.4335469007492065
1710953589554303200,2.23830322265625,-0.23571744561195374,-0.5303833484649658,1.4237730503082275
1710953589573261800,2.25726171875,-0.28733551502227783,-0.4637990891933441,1.4167481660842896
1710953589592220000,2.276219970703125,-0.32337653636932373,-0.3352120518684387,1.4369066953659058
1710953589611178200,2.29517822265625,-0.36216646432876587,-0.2542724609375,1.4857758283615112
1710953589630136600,2.314136474609375,-0.4168388545513153,-0.24174973368644714,1.5160136222839355
1710953589649095000,2.333094970703125,-0.47700902819633484,-0.3165806829929352,1.5099049806594849
1710953589668053500,2.352053466796875,-0.5298488140106201,-0.4137081801891327,1.5095995664596558
1710953589687011800,2.37101171875,-0.5930733680725098,-0.48792824149131775,1.5428917407989502
1710953589705970200,2.38997021484375,-0.6514109373092651,-0.5480984449386597,1.5694643259048462
1710953589724928500,2.408928466796875,-0.6978366374969482,-0.641866147518158,1.5722131729125977
1710953589743886800,2.427886962890625,-0.7021127343177795,-0.7191405892372131,1.5822924375534058
1710953589762845200,2.44684521484375,-0.6847030520439148,-0.735633909702301,1.568853497505188
1710953589781803500,2.465803466796875,-0.6969203352928162,-0.7670934200286865,1.542586326599121
1710953589800762000,2.48476220703125,-0.7622829079627991,-0.7796161770820618,1.5248712301254272
1710953589819720400,2.503720458984375,-0.8435279130935669,-0.7961094975471497,1.5346450805664062
1710953589838678800,2.5226787109375,-0.8972840309143066,-0.7759509682655334,1.560606837272644
1710953589857637000,2.54163720703125,-0.8829286694526672,-0.7093667387962341,1.5621339082717896
1710953589876595500,2.560595458984375,-0.854218065738678,-0.6186532974243164,1.5615230798721313
1710953589895553800,2.5795537109375,-0.8511636853218079,-0.5105302333831787,1.6009238958358765
1710953589914512100,2.59851220703125,-0.8172607421875,-0.38927358388900757,1.6384921073913574
1710953589933470700,2.617470703125,-0.7577013969421387,-0.28298309445381165,1.6675081253051758
1710953589952429000,2.636428955078125,-0.7005855441093445,-0.24480405449867249,1.6956079006195068
1710953589971387400,2.655387451171875,-0.6816487312316895,-0.2808450758457184,1.6940807104110718
1710953589990345700,2.674345703125,-0.6929497122764587,-0.23716825246810913,1.6675081253051758
1710953590009304300,2.69330419921875,-0.7216603755950928,-0.039858926087617874,1.6061161756515503
1710953590028262700,2.7122626953125,-0.7155517339706421,0.12476912885904312,1.4992148876190186
1710953590047221000,2.731220947265625,-0.7393754720687866,0.0948367565870285,1.3767365217208862
1710953590066179300,2.750179443359375,-0.8591049313545227,-0.10308343172073364,1.302211046218872
1710953590085137700,2.7691376953125,-1.0255656242370605,-0.4033234715461731,1.2591450214385986
1710953590104096300,2.78809619140625,-1.207297921180725,-0.7060069441795349,1.15132737159729
1710953590123054600,2.8070546875,-1.344131588935852,-1.0071632862091064,1.0074687004089355
1710953590142013000,2.826012939453125,-1.419268012046814,-1.373376727104187,0.8907935619354248
1710953590160971300,2.84497119140625,-1.536859393119812,-1.5517492294311523,0.7567087411880493
1710953590179929600,2.8639296875,-1.7366122007369995,-1.3990330696105957,0.5746710300445557
1710953590198888200,2.88288818359375,-2.00478196144104,-0.9744820594787598,0.3119991719722748
1710953590217846500,2.901846435546875,-2.3163228034973145,-0.4955640435218811,-0.016035201027989388
1710953590236804900,2.920804931640625,-2.695059061050415,-0.10766492038965225,-0.2854265570640564
1710953590255763500,2.939763427734375,-3.0395867824554443,0.41615164279937744,-0.3831649422645569
1710953590274721800,2.9587216796875,-3.197495222091675,0.9787580966949463,-0.4644099473953247
1710953590293680000,2.97768017578125,-3.1135013103485107,1.327561855316162,-0.6278162598609924
1710953590312638500,2.996638427734375,-2.8273112773895264,1.54930579662323,-0.7783944606781006
1710953590331597000,3.01559716796875,-2.5121049880981445,1.661399483680725,-0.7344121932983398
1710953590350555400,3.034555419921875,-2.348087787628174,1.5850414037704468,-0.5627591609954834
1710953590369513700,3.053513671875,-2.27020263671875,1.290604591369629,-0.4839576184749603
1710953590388472300,3.072472412109375,-2.192317247390747,0.9476040005683899,-0.5227475166320801
1710953590407430700,3.0914306640625,-2.1785728931427,0.7612902522087097,-0.606436014175415
1710953590426389000,3.110388916015625,-2.2601232528686523,0.8067996501922607,-0.6382009983062744
1710953590445347600,3.12934765625,-2.415893793106079,1.1091777086257935,-0.5667297840118408
1710953590464306000,3.148305908203125,-2.5893795490264893,1.62199866771698,-0.4497492015361786
1710953590483264300,3.16726416015625,-2.7854671478271484,2.2649338245391846,-0.3367392122745514
1710953590502222800,3.186222900390625,-2.904891014099121,2.6479461193084717,-0.1253799945116043
1710953590521181200,3.20518115234375,-2.7769148349761963,2.8648030757904053,0.060322895646095276
1710953590540139500,3.224139404296875,-2.555171012878418,2.9423828125,0.17791436612606049
1710953590559098000,3.24309814453125,-2.365192174911499,2.802800416946411,0.29214608669281006
1710953590578056400,3.262056396484375,-2.136423110961914,2.576474905014038,0.4033234715461731
1710953590597015000,3.28101513671875,-1.8823034763336182,2.276845693588257,0.4909825623035431
1710953590615973400,3.299973388671875,-1.6691116094589233,1.9943207502365112,0.5557342171669006
1710953590634931700,3.318931640625,-1.4757729768753052,1.8498512506484985,0.6085740327835083
1710953590653890300,3.337890380859375,-1.2494475841522217,1.789986491203308,0.6012436747550964
1710953590672848600,3.3568486328125,-0.9696714878082275,1.7527238130569458,0.5648971796035767
1710953590691807200,3.37580712890625,-0.7451786994934082,1.7569998502731323,0.5294670462608337
1710953590710765600,3.394765625,-0.5857429504394531,1.7777692079544067,0.5254964232444763
1710953590729724000,3.413723876953125,-0.4134790897369385,1.8431317806243896,0.5438223481178284
1710953590748682500,3.4326826171875,-0.2369391769170761,1.8874194622039795,0.5285507440567017
1710953590767640800,3.451640869140625,-0.11384992301464081,1.8657337427139282,0.4943423271179199
1710953590786599400,3.470599365234375,-0.09002619981765747,1.8153374195098877,0.4488328993320465
1710953590805557800,3.489557861328125,-0.1651625633239746,1.7823506593704224,0.4198168218135834
1710953590824516000,3.50851611328125,-0.2687041461467743,1.8086179494857788,0.42073312401771545
1710953590843474700,3.527474609375,-0.31268641352653503,1.8895574808120728,0.449138343334198
1710953590862433000,3.54643310546875,-0.31665703654289246,1.9326233863830566,0.4699077308177948
1710953590881391600,3.5653916015625,-0.3084103465080261,1.89047372341156,0.4799869954586029
1710953590900350000,3.584349853515625,-0.3285689055919647,1.727067470550537,0.5380191802978516
1710953590919308300,3.603308349609375,-0.37835437059402466,1.4579814672470093,0.6058251261711121
1710953590938267000,3.622266845703125,-0.43455392122268677,1.2133301496505737,0.6424770355224609
1710953590957225200,3.64122509765625,-0.4947241246700287,1.068555235862732,0.680350661277771
1710953590976183600,3.66018359375,-0.5750528573989868,1.0169371366500854,0.6855430006980896
1710953590995142100,3.67914208984375,-0.6184242367744446,1.0377064943313599,0.7111993432044983
1710953591014100700,3.698100830078125,-0.6514109373092651,1.0844377279281616,0.7594576478004456
1710953591033059000,3.71705908203125,-0.6990583539009094,1.1516327857971191,0.799774706363678
1710953591052017400,3.736017333984375,-0.7396808862686157,1.2261583805084229,0.8052725195884705
1710953591070976000,3.75497607421875,-0.7873283624649048,1.2521201372146606,0.7399099469184875
1710953591089934300,3.773934326171875,-0.8267291188240051,1.170875072479248,0.6424770355224609
1710953591108893000,3.792892822265625,-0.843833327293396,0.9772309064865112,0.5163334608078003
1710953591127851300,3.811851318359375,-0.7967967391014099,0.717307984828949,0.3718639314174652
1710953591146809600,3.8308095703125,-0.7155517339706421,0.4039343297481537,0.19654574990272522
1710953591165768200,3.849768310546875,-0.6758455038070679,0.0642935186624527,-0.010537417605519295
1710953591184726800,3.868726806640625,-0.6932551860809326,-0.22678354382514954,-0.2124282270669937
1710953591203685000,3.88768505859375,-0.7500655651092529,-0.402407169342041,-0.3877464234828949
1710953591222643500,3.9066435546875,-0.7610611319541931,-0.49373146891593933,-0.5181660652160645
1710953591241602000,3.92560205078125,-0.7128028273582458,-0.5080868005752563,-0.6314814686775208
1710953591260560400,3.944560302734375,-0.6239219903945923,-0.4744892120361328,-0.70753413438797
1710953591279519000,3.96351904296875,-0.546953022480011,-0.4592176079750061,-0.7386882305145264
1710953591298477300,3.982477294921875,-0.4886154532432556,-0.45188722014427185,-0.7304415702819824
1710953591317436000,4.001435791015625,-0.42019861936569214,-0.4292852282524109,-0.6840158104896545
1710953591336394200,4.020394287109375,-0.3181841969490051,-0.4592176079750061,-0.5954404473304749
1710953591355352800,4.039352783203125,-0.1703549176454544,-0.5563451051712036,-0.503505289554596
1710953591374311200,4.058311279296875,-0.01824958436191082,-0.754570722579956,-0.48243045806884766
1710953591393269500,4.07726953125,0.08743002265691757,-1.095433235168457,-0.5236638188362122
1710953591412228000,4.09622802734375,0.2047160565853119,-1.326951026916504,-0.5169443488121033
1710953591431186700,4.115186767578125,0.24686573445796967,-1.302211046218872,-0.3730856776237488
1710953591450145000,4.13414501953125,0.16165009140968323,-1.162628412246704,-0.12446369975805283
1710953591469103400,4.153103271484375,0.12591449916362762,-0.9344704151153564,0.13393209874629974
1710953591488062000,4.17206201171875,0.18058690428733826,-0.6669116020202637,0.3092502951622009
1710953591507020500,4.1910205078125,0.19188790023326874,-0.5526798963546753,0.3761399984359741
1710953591525979000,4.209978759765625,0.044669486582279205,-0.6012436747550964,0.41462448239326477
1710953591544937200,4.228937255859375,-0.21403174102306366,-0.6183478832244873,0.43233954906463623
1710953591563895800,4.247895751953125,-0.4586831033229828,-0.4134027361869812,0.3367392122745514
1710953591582854100,4.266854248046875,-0.5961276888847351,0.11163553595542908,0.1101083755493164
1710953591601812700,4.285812744140625,-0.5316814184188843,0.9228639602661133,-0.1259908676147461
1710953591620771000,4.30477099609375,-0.2644280791282654,1.7475314140319824,-0.25641047954559326
1710953591639729700,4.323729736328125,0.06391172856092453,2.2783730030059814,-0.2582430839538574
1710953591658688000,4.34268798828125,0.31925320625305176,2.3507604598999023,-0.13729186356067657
1710953591677646600,4.361646484375,0.3849211633205414,2.0832016468048096,0.08903354406356812
1710953591696605000,4.38060498046875,0.3055087625980377,1.7359249591827393,0.3520108163356781
1710953591715563500,4.3995634765625,0.20013457536697388,1.5386157035827637,0.588110089302063
1710953591734521900,4.41852197265625,0.1579848974943161,1.559385061264038,0.7322741746902466
1710953591753480400,4.43748046875,0.18089233338832855,1.7429499626159668,0.7677043080329895
1710953591772438800,4.456438720703125,0.2248746007680893,2.031888961791992,0.7237220406532288
1710953591791397400,4.4753974609375,0.24625486135482788,2.235917806625366,0.6467530727386475
1710953591810355700,4.494355712890625,0.20166173577308655,2.2395830154418945,0.5584831237792969
1710953591829314300,4.513314208984375,0.0962875634431839,2.0211987495422363,0.4500546157360077
1710953591848272600,4.532272705078125,-0.015500693581998348,1.6788091659545898,0.304974228143692
1710953591867231200,4.551231201171875,-0.08391755074262619,1.3223695755004883,0.15042544901371002
1710953591886189600,4.570189453125,-0.06986765563488007,1.0190751552581787,-0.008704823441803455
1710953591905148200,4.589148193359375,-0.003283398225903511,0.8156571984291077,-0.10888664424419403
1710953591924106500,4.6081064453125,0.07276926934719086,0.7209731340408325,-0.1253799945116043
1710953591943065000,4.627065185546875,0.1634826809167862,0.7066178321838379,-0.13515383005142212
1710953591962023400,4.6460234375,0.30367615818977356,0.698371171951294,-0.141262486577034
1710953591980982000,4.66498193359375,0.45944666862487793,0.5294670462608337,-0.16019928455352783
1710953591999940400,4.6839404296875,0.5022072196006775,0.04046979174017906,-0.15409064292907715
1710953592018899000,4.70289892578125,0.3528507649898529,-0.5447386503219604,-0.09728021919727325
1710953592037857300,4.721857177734375,0.13049599528312683,-0.8831577301025391,-0.06643154472112656
1710953592056815900,4.74081591796875,0.015042545273900032,-1.068555235862732,-0.021838415414094925
1710953592075774200,4.759774169921875,-0.08147408813238144,-1.0948224067687988,0.024892739951610565
1710953592094732800,4.77873291015625,-0.07536543905735016,-0.8626937866210938,-0.00045814859913662076
1710953592113691100,4.797691162109375,0.0703258067369461,-0.6082686185836792,0.021227551624178886
1710953592132649700,4.816649658203125,0.1170569658279419,-0.28328853845596313,0.026419902220368385
1710953592151608000,4.835608154296875,0.10270164161920547,0.208152174949646,-0.0383317656815052
1710953592170566700,4.854566650390625,0.2554178237915039,0.4659371078014374,-0.12446369975805283
1710953592189525000,4.87352490234375,0.4707476794719696,0.2383899837732315,-0.15470150113105774
1710953592208483600,4.892483642578125,0.44234246015548706,-0.41645705699920654,-0.141262486577034
1710953592227442000,4.91144189453125,0.19708025455474854,-1.207221508026123,-0.07528908550739288
1710953592246400300,4.930400146484375,-0.009697478264570236,-1.7047709226608276,-0.002901607658714056
1710953592265358800,4.94935888671875,-0.09918916970491409,-1.788459300994873,0.016340631991624832
1710953592284317400,4.9683173828125,-0.13797907531261444,-1.5422807931900024,-0.017256930470466614
1710953592303275800,4.98727587890625,-0.1508072465658188,-1.1653772592544556,-0.0847574844956398
1710953592322234000,5.006234130859375,-0.11659881472587585,-0.7765618562698364,-0.15439607203006744
1710953592341192700,5.025192626953125,-0.06101011857390404,-0.4091266989707947,-0.2280052751302719
1710953592360151300,5.0441513671875,0.031230462715029716,-0.14431680738925934,-0.3107774555683136
1710953592379109600,5.063109619140625,0.15493057668209076,-0.057268574833869934,-0.3727802336215973
1710953592398068000,5.08206787109375,0.23587016761302948,-0.0743727833032608,-0.3767508566379547
1710953592417026600,5.101026611328125,0.2545015513896942,-0.1513417512178421,-0.2997818887233734
1710953592435985200,5.119985107421875,0.2297615110874176,-0.2701549530029297,-0.1311832070350647
1710953592454943500,5.138943603515625,0.17111849784851074,-0.425009161233902,0.03558287397027016
1710953592473901800,5.15790185546875,0.07154753804206848,-0.5053378939628601,0.0795651376247406
1710953592492860400,5.1768603515625,-0.06498073786497116,-0.42684176564216614,0.04505127668380737
1710953592511819000,5.195819091796875,-0.16363540291786194,-0.25213444232940674,-0.002901607658714056
1710953592530777300,5.21477734375,-0.13248129189014435,0.008093958720564842,-0.04046979174017906
1710953592549735700,5.233735595703125,0.08468113094568253,0.3379609286785126,-0.07712167501449585
1710953592568694300,5.2526943359375,0.39164069294929504,0.6687442064285278,-0.09392046183347702
1710953592587652600,5.271652587890625,0.6433169841766357,0.8052725195884705,0.008093958720564842
1710953592606611200,5.290611083984375,0.6558396816253662,0.503810703754425,0.212733656167984
1710953592625569500,5.309569580078125,0.3626246154308319,-0.14523309469223022,0.3404043912887573
1710953592644528000,5.328528076171875,-0.06345357745885849,-0.6323977708816528,0.24999640882015228
1710953592663486500,5.347486572265625,-0.21616977453231812,-0.5911644101142883,0.09972367435693741
1710953592682445000,5.366445068359375,-0.11873684078454971,-0.0798705667257309,0.017256930470466614
1710953592701403400,5.3854033203125,0.1738673895597458,0.6009382009506226,-0.001679878099821508
1710953592720362000,5.404362060546875,0.41302093863487244,1.2298234701156616,0.09086613357067108
1710953592739320300,5.4233203125,0.40752315521240234,1.5431971549987793,0.268627792596817
1710953592758278700,5.442278564453125,0.2566395699977875,1.4515674114227295,0.4445568323135376
1710953592777237200,5.4612373046875,0.10606139898300171,1.1833977699279785,0.5551233887672424
1710953592796195800,5.48019580078125,0.07368556410074234,0.9097303748130798,0.569173276424408
1710953592815154200,5.499154296875,0.15676318109035492,0.698676586151123,0.5309942364692688
1710953592834112500,5.518112548828125,0.26702427864074707,0.5306887626647949,0.4894554018974304
1710953592853071000,5.537071044921875,0.331165075302124,0.37369653582572937,0.439364492893219
1710953592872029700,5.55602978515625,0.343993216753006,0.2182314395904541,0.35414886474609375
1710953592890988000,5.574988037109375,0.3116174042224884,0.08903354406356812,0.21975859999656677
1710953592909946400,5.5939462890625,0.24350596964359283,0.005039634648710489,0.04810560122132301
1710953592928905000,5.612905029296875,0.17111849784851074,0.005650499369949102,-0.09758564829826355
1710953592947863300,5.63186328125,0.1534034162759781,0.040775224566459656,-0.19471314549446106
1710953592966822000,5.65082177734375,0.17447824776172638,-0.0013744457392022014,-0.27840161323547363
1710953592985780200,5.6697802734375,0.16928590834140778,-0.12782345712184906,-0.3318522870540619
1710953593004738800,5.68873876953125,0.12866339087486267,-0.24816381931304932,-0.3379609286785126
1710953593023697200,5.707697265625,0.10025817900896072,-0.305585116147995,-0.30222535133361816
1710953593042655700,5.72665576171875,0.10606139898300171,-0.34193155169487,-0.24174973368644714
1710953593061614000,5.745614013671875,0.10850485414266586,-0.38499751687049866,-0.1718057245016098
1710953593080572700,5.76457275390625,0.0807105079293251,-0.42959064245224,-0.09605848789215088
1710953593099531000,5.783531005859375,0.015347977168858051,-0.45738500356674194,-0.036804601550102234
1710953593118489600,5.802489501953125,-0.09552398324012756,-0.397825688123703,-0.01206457894295454
1710953593137448000,5.821447998046875,-0.21311545372009277,-0.18371757864952087,-0.002901607658714056
1710953593156406500,5.840406494140625,-0.1291215419769287,0.08720094710588455,0.0691804364323616
1710953593175364900,5.85936474609375,0.012293653562664986,-0.017562363296747208,0.14950916171073914
1710953593194323500,5.878323486328125,-0.09980003535747528,-0.3370446562767029,0.1510363221168518
1710953593213281800,5.89728173828125,-0.24976733326911926,-0.4604393243789673,0.1366809904575348
1710953593232240000,5.916240234375,-0.3548360764980316,-0.3266599476337433,0.13332124054431915
1710953593251198700,5.93519873046875,-0.44005170464515686,-0.046883873641490936,0.12385283410549164
1710953593270157300,5.9541572265625,-0.3200167715549469,0.22647811472415924,0.07315105944871902
1710953593289115600,5.97311572265625,-0.05215258151292801,0.2240346521139145,0.0001527161948615685
1710953593308074000,5.992073974609375,0.025121813639998436,-0.1464548259973526,-0.12110394239425659
1710953593327032600,6.011032470703125,-0.16455170512199402,-0.5236638188362122,-0.23044873774051666
1710953593345991200,6.0299912109375,-0.3917934000492096,-0.7292198538780212,-0.2386954128742218
1710953593364949500,6.048949462890625,-0.4898371994495392,-0.791528046131134,-0.19410228729248047
1710953593383907800,6.067907958984375,-0.47181668877601624,-0.7848085165023804,-0.20387612283229828
1710953593402866400,6.086866455078125,-0.41042476892471313,-0.7249437570571899,-0.2689332067966461
1710953593421825000,6.105824951171875,-0.34903284907341003,-0.5997164845466614,-0.347123920917511
1710953593440783400,6.124783447265625,-0.28733551502227783,-0.485484778881073,-0.388051837682724
1710953593459741700,6.14374169921875,-0.20456334948539734,-0.4754055142402649,-0.3837758004665375
1710953593478700300,6.1627001953125,-0.09613484144210815,-0.549930989742279,-0.3455967605113983
1710953593497659000,6.181658935546875,0.014126247726380825,-0.6443096399307251,-0.2802342176437378
1710953593516617200,6.2006171875,0.08132137358188629,-0.688902735710144,-0.17638720571994781
1710953593535575600,6.219575439453125,0.095982126891613,-0.6675224900245667,-0.053603384643793106
1710953593554534100,6.2385341796875,0.0910952091217041,-0.586888313293457,0.03894263133406639
1710953593573492700,6.25749267578125,0.03611737862229347,-0.4497492015361786,0.0798705667257309
1710953593592451000,6.276451171875,-0.07933606207370758,-0.2646571695804596,0.07742711156606674
1710953593611409700,6.29540966796875,-0.1404225379228592,-0.07070759683847427,0.03558287397027016
1710953593630368000,6.314367919921875,-0.09552398324012756,0.08628465235233307,-0.017562363296747208
1710953593649326600,6.33332666015625,0.0654388889670372,0.17516547441482544,-0.08353576064109802
1710953593668285000,6.352284912109375,0.3220020830631256,0.1357647031545639,-0.10644318908452988
1710953593687243500,6.371243408203125,0.48327040672302246,-0.28695371747016907,-0.03405570983886719
1710953593706201900,6.390201904296875,0.4713585376739502,-0.8776599764823914,0.03955349326133728
1710953593725160400,6.409160400390625,0.29817837476730347,-1.3513855934143066,0.03252854943275452
1710953593744118800,6.428118896484375,-0.020693045109510422,-1.5746567249298096,-0.04841103404760361
1710953593763077400,6.447077392578125,-0.24946190416812897,-1.2625048160552979,-0.05299251899123192
1710953593782036000,6.466035888671875,-0.4232529401779175,-0.58749920129776,-0.07406735420227051
1710953593800994300,6.484994384765625,-0.3710239827632904,0.3196350038051605,-0.21090106666088104
1710953593819952600,6.50395263671875,-0.11049016565084457,1.2399027347564697,-0.3092502951622009
1710953593838911200,6.5229111328125,0.057497646659612656,1.780212640762329,-0.2964221239089966
1710953593857869800,6.541869873046875,0.08193223923444748,1.8843650817871094,-0.13332124054431915
1710953593876828200,6.560828125,0.06696604937314987,1.7389793395996094,0.08750637620687485
1710953593895786800,6.579786865234375,0.06604975461959839,1.4772237539291382,0.25243985652923584
1710953593914745000,6.5987451171875,0.09170607477426529,1.2215768098831177,0.35048365592956543
1710953593933703700,6.61770361328125,0.131717711687088,1.0383174419403076,0.4127918779850006
1710953593952662000,6.636662109375,0.1576794683933258,0.9585995674133301,0.4195113778114319
1710953593971620600,6.65562060546875,0.1527925580739975,1.0193805694580078,0.3773617148399353
1710953593990579200,6.6745791015625,0.11950042098760605,1.1840087175369263,0.2994764447212219
1710953594009537500,6.69353759765625,0.10514509677886963,1.3761255741119385,0.2182314395904541
1710953594028496100,6.71249609375,0.1417969912290573,1.4955496788024902,0.12263110280036926
1710953594047454700,6.731454833984375,0.2297615110874176,1.4778345823287964,0.0010690133785828948
1710953594066413000,6.7504130859375,0.3830885887145996,1.3009892702102661,-0.11499529331922531
1710953594085371600,6.76937158203125,0.5361102223396301,0.8956804871559143,-0.23472478985786438
1710953594104330000,6.788330078125,0.591088056564331,0.2683223485946655,-0.3013090491294861
1710953594123288600,6.80728857421875,0.5217548608779907,-0.41187557578086853,-0.301003634929657
1710953594142247000,6.826246826171875,0.4209621846675873,-0.9231693744659424,-0.2738201320171356
1710953594161205500,6.84520556640625,0.36567893624305725,-1.3306162357330322,-0.26160284876823425
1710953594180164000,6.8641640625,0.2667188346385956,-1.8278601169586182,-0.3269653618335724
1710953594199122400,6.883122314453125,0.15370884537696838,-2.2667665481567383,-0.39965829253196716
1710953594218081000,6.9020810546875,0.024510949850082397,-2.3687808513641357,-0.2854265570640564
1710953594237039600,6.92103955078125,-0.20578506588935852,-1.9204061031341553,0.014813470654189587
1710953594255998000,6.939998046875,-0.3304014801979065,-1.1027636528015137,0.38499751687049866
1710953594274956500,6.95895654296875,-0.43485936522483826,-0.32360562682151794,0.45188722014427185
1710953594293915100,6.9779150390625,-0.4941132366657257,0.25152358412742615,0.1928805559873581
1710953594312873500,6.99687353515625,-0.3603338599205017,0.6320923566818237,-0.13179408013820648
1710953594331832000,7.01583203125,-0.06101011857390404,0.6995928883552551,-0.39080074429512024
1710953594350790700,7.034790771484375,0.0553596206009388,0.30741769075393677,-0.6021599769592285
1710953594369749000,7.0537490234375,-0.10682497918605804,-0.4634936451911926,-0.6925679445266724
1710953594388707600,7.07270751953125,-0.349643737077713,-1.1937824487686157,-0.6858484148979187
1710953594407666200,7.091666259765625,-0.5096902847290039,-1.6119194030761719,-0.6235402226448059
1710953594426624500,7.11062451171875,-0.5686387419700623,-1.7090469598770142,-0.560315728187561
1710953594445583000,7.1295830078125,-0.5814669132232666,-1.5548036098480225,-0.49281516671180725
1710953594464541400,7.14854150390625,-0.5973494052886963,-1.2997674942016602,-0.41065385937690735
1710953594483500000,7.1675,-0.6193405389785767,-1.0300707817077637,-0.3251327872276306
1710953594502458600,7.186458740234375,-0.6187296509742737,-0.8104648590087891,-0.2548833191394806
1710953594521417200,7.205417236328125,-0.5585594773292542,-0.6669116020202637,-0.21120649576187134
1710953594540375600,7.22437548828125,-0.4479929506778717,-0.6113229393959045,-0.16447533667087555
1710953594559334100,7.243334228515625,-0.32184937596321106,-0.607046902179718,-0.1256854236125946
1710953594578292700,7.262292724609375,-0.2271653413772583,-0.5926915407180786,-0.09361502528190613
1710953594597251000,7.2812509765625,-0.19265148043632507,-0.5337430834770203,-0.050549060106277466
1710953594616209700,7.300209716796875,-0.18868085741996765,-0.4082103967666626,-0.0032070400193333626
1710953594635168300,7.319168212890625,-0.1911243200302124,-0.23655737936496735,0.046883873641490936
1710953594654126600,7.338126708984375,-0.19509494304656982,-0.011759147047996521,0.07345648854970932
1710953594673085200,7.357085205078125,-0.16882775723934174,0.263435423374176,0.08261945843696594
1710953594692043800,7.376043701171875,-0.13309216499328613,0.5065596103668213,0.08139773458242416
1710953594711002000,7.395002197265625,-0.08391755074262619,0.662330150604248,0.07498364895582199
1710953594729960700,7.413960693359375,0.019013166427612305,0.753043532371521,0.07284562289714813
1710953594748919300,7.432919189453125,0.21723878383636475,0.7026472091674805,0.11652245372533798
1710953594767877600,7.451877685546875,0.4722748398780823,0.45097091794013977,0.25243985652923584
1710953594786836200,7.470836181640625,0.48479756712913513,-0.027030766010284424,0.36972591280937195
1710953594805794800,7.489794921875,0.275270938873291,-0.39477136731147766,0.39996370673179626
1710953594824753400,7.50875341796875,0.06238456442952156,-0.249690979719162,0.43722647428512573
1710953594843711700,7.527711669921875,-0.07444914430379868,0.2338084876537323,0.4326449930667877
1710953594862670300,7.54667041015625,0.022678354755043983,0.8776599764823914,0.3413206934928894
1710953594881629000,7.56562890625,0.36140286922454834,1.5224277973175049,0.28664830327033997
1710953594900587500,7.58458740234375,0.699821949005127,1.7756311893463135,0.26099199056625366
1710953594919545900,7.6035458984375,0.7682388424873352,1.5654937028884888,0.28787001967430115
1710953594938504400,7.62250439453125,0.6317105293273926,1.1864521503448486,0.38652467727661133
1710953594957463000,7.641463134765625,0.5019017457962036,0.8348994255065918,0.5083922147750854
1710953594976421400,7.66042138671875,0.4906007647514343,0.5920807123184204,0.6027708053588867
1710953594995380000,7.6793798828125,0.5620719790458679,0.4500546157360077,0.623845636844635
1710953595014338600,7.698338623046875,0.6378191709518433,0.36544984579086304,0.5529853701591492
1710953595033297200,7.717297119140625,0.6491202116012573,0.32330018281936646,0.44180795550346375
1710953595052255700,7.736255859375,0.591088056564331,0.3162752389907837,0.34895649552345276
1710953595071214000,7.755214111328125,0.5000692009925842,0.38957902789115906,0.2787070572376251
1710953595090172700,7.774172607421875,0.43867728114128113,0.5047270059585571,0.21395538747310638
1710953595109131300,7.79313134765625,0.44173160195350647,0.550541877746582,0.13759729266166687
1710953595128089900,7.81208984375,0.4930442273616791,0.5047270059585571,0.06001746281981468
1710953595147048400,7.83104833984375,0.5104538798332214,0.402407169342041,-0.010537417605519295
1710953595166006800,7.8500068359375,0.44234246015548706,0.2234237939119339,-0.06001746281981468
1710953595184965400,7.86896533203125,0.32566729187965393,0.002901607658714056,-0.11346813291311264
1710953595203924000,7.887924072265625,0.2862665057182312,-0.22678354382514954,-0.15409064292907715
1710953595222882300,7.90688232421875,0.30428701639175415,-0.48914995789527893,-0.19013166427612305
1710953595241841000,7.9258408203125,0.21571162343025208,-0.8791871070861816,-0.2683223485946655
1710953595260799500,7.944799560546875,-0.0475710928440094,-1.3141229152679443,-0.3556760251522064
1710953595279758000,7.963758056640625,-0.21800236403942108,-1.496466040611267,-0.31383177638053894
1710953595298716700,7.982716552734375,-0.4070650041103363,-1.4756965637207031,-0.12935061752796173
1710953595317675000,8.001675048828124,-0.519769549369812,-1.2707514762878418,0.09361502528190613
1710953595336633600,8.020633544921875,-0.5020545125007629,-0.9723440408706665,0.20967933535575867
1710953595355592200,8.03959228515625,-0.5955168008804321,-0.6366738080978394,0.12996147572994232
1710953595374550800,8.05855078125,-0.5216021537780762,-0.03497200831770897,-0.01908952370285988
1710953595393509400,8.07750927734375,-0.2115882933139801,0.34498587250709534,-0.1516471803188324
1710953595412468000,8.096468017578125,-0.048792824149131775,0.2032652497291565,-0.34956738352775574
1710953595431426300,8.11542626953125,-0.19051344692707062,-0.2802342176437378,-0.5242747068405151
1710953595450385200,8.13438525390625,-0.4901426136493683,-0.8507819175720215,-0.6436987519264221
1710953595469343500,8.153343505859375,-0.7329613566398621,-1.2148573398590088,-0.7142536640167236
1710953595488302000,8.172302001953126,-0.8676570653915405,-1.363297462463379,-0.7677043080329895
1710953595507260700,8.1912607421875,-0.9162207841873169,-1.3165663480758667,-0.8315396904945374
1710953595526219300,8.21021923828125,-0.9153045415878296,-1.1702642440795898,-0.8978185057640076
1710953595545177900,8.229177734375,-0.8911753296852112,-1.0001384019851685,-0.9472985863685608
1710953595564136200,8.24813623046875,-0.8368083834648132,-0.8407026529312134,-0.9567669630050659
1710953595583094800,8.2670947265625,-0.7271581888198853,-0.7481566667556763,-0.9195042252540588
1710953595602053400,8.286053466796876,-0.5619192123413086,-0.7255546450614929,-0.8239038586616516
1710953595621012000,8.305011962890624,-0.34903284907341003,-0.7689260244369507,-0.6815723776817322
1710953595639970600,8.323970458984375,-0.13217586278915405,-0.8232930302619934,-0.521831214427948
1710953595658929200,8.34292919921875,0.028787001967430115,-0.8626937866210938,-0.3578140437602997
1710953595677887700,8.3618876953125,0.1424078494310379,-0.8599448800086975,-0.19593487679958344
1710953595696846000,8.38084619140625,0.18150319159030914,-0.7597630620002747,-0.06795870512723923
1710953595715804700,8.3998046875,0.11950042098760605,-0.505032479763031,-0.007788525894284248
1710953595734763300,8.41876318359375,0.0031306820455938578,-0.12782345712184906,0.0001527161948615685
1710953595753721900,8.437721923828125,-0.014584396965801716,0.2237292230129242,-0.029474224895238876
1710953595772680400,8.456680419921875,0.13507747650146484,0.4857902228832245,-0.05238165333867073
1710953595791638800,8.475638671875,0.35040730237960815,0.6553052067756653,0.028863361105322838
1710953595810597600,8.49459765625,0.5669588446617126,0.5719221234321594,0.2548833191394806
1710953595829556000,8.513555908203125,0.662864625453949,0.25274530053138733,0.504421591758728
1710953595848514600,8.5325146484375,0.46799877285957336,-0.06520981341600418,0.6159043908119202
1710953595867473200,8.55147314453125,0.13416117429733276,0.07681624591350555,0.6779071688652039
1710953595886431700,8.570431640625,-0.1404225379228592,0.708145022392273,0.7609847784042358
1710953595905390300,8.589390380859374,-0.08025235682725906,1.5453351736068726,0.7032580971717834
1710953595924348700,8.6083486328125,0.33513569831848145,2.3318235874176025,0.6122392416000366
1710953595943307500,8.6273076171875,0.7667116522789001,2.6473352909088135,0.6183478832244873
1710953595962265900,8.646265869140626,0.9398918151855469,2.3229660987854004,0.6968439817428589
1710953595981224400,8.665224365234375,0.8418480157852173,1.707519769668579,0.845894992351532
1710953596000183000,8.68418310546875,0.6622537970542908,1.179121732711792,1.0206023454666138
1710953596019141600,8.7031416015625,0.5300015807151794,0.8205441236495972,1.093906044960022
1710953596038100200,8.722100341796875,0.4774671792984009,0.6498073935508728,1.0267109870910645
1710953596057058600,8.74105859375,0.46952593326568604,0.6189587116241455,0.8840740323066711
1710953596076017400,8.760017333984376,0.4612792730331421,0.6739365458488464,0.7191405892372131
1710953596094975700,8.778975830078124,0.4249328076839447,0.7466294765472412,0.5548179149627686
1710953596113934300,8.797934326171875,0.3730092942714691,0.8019127249717712,0.3730856776237488
1710953596132893000,8.816892822265626,0.3479638397693634,0.8165735006332397,0.20021092891693115
1710953596151851500,8.8358515625,0.3696495592594147,0.7548761367797852,0.051159925758838654
1710953596170810000,8.85481005859375,0.4264599680900574,0.6155989766120911,-0.05696314200758934
1710953596189768400,8.8737685546875,0.49457138776779175,0.4042397737503052,-0.09728021919727325
1710953596208727300,8.892727294921874,0.47349655628204346,0.1314886510372162,-0.10247256606817245
1710953596227686000,8.911685791015625,0.3791179656982422,-0.08261945843696594,-0.1104138121008873
1710953596246644200,8.930644287109375,0.3210858106613159,-0.22006404399871826,-0.13759729266166687
1710953596265602800,8.949602783203124,0.23922991752624512,-0.4656316637992859,-0.2075413018465042
1710953596284561400,8.9685615234375,0.006490438245236874,-0.8755219578742981,-0.304974228143692
1710953596303520000,8.98752001953125,-0.32307112216949463,-1.1446079015731812,-0.3211621642112732
1710953596322478600,9.006478515625,-0.4431060254573822,-0.9567669630050659,-0.19410228729248047
1710953596341437000,9.02543701171875,-0.36858054995536804,-0.7111993432044983,0.11591159552335739
1710953596360395800,9.044395751953125,-0.5072468519210815,-0.7661771774291992,0.342542439699173
1710953596379354000,9.06335400390625,-0.6272817850112915,-0.7512109875679016,0.43753188848495483
1710953596398312700,9.082312744140625,-0.742429792881012,-0.6052142977714539,0.3868301212787628
1710953596417271300,9.101271240234375,-0.7900772094726562,-0.29397866129875183,0.2658788859844208
1710953596436230000,9.12022998046875,-0.47212210297584534,-0.028863361105322838,0.19654574990272522
1710953596455188500,9.1391884765625,-0.06528617441654205,-0.24113887548446655,0.08170316368341446
1710953596474146800,9.158146728515625,-0.10529781877994537,-0.6293434500694275,-0.12721258401870728
1710953596493105400,9.17710546875,-0.4116465151309967,-0.9824233055114746,-0.25610506534576416
1710953596512064000,9.19606396484375,-0.6706531643867493,-1.2869393825531006,-0.3627009689807892
1710953596531022600,9.215022705078125,-0.7922152876853943,-1.4311034679412842,-0.5334376692771912
1710953596549981200,9.233981201171876,-0.8520799875259399,-1.4491239786148071,-0.7411317229270935
1710953596568939800,9.252939697265624,-0.9198859930038452,-1.4231622219085693,-0.9628756046295166
1710953596587898400,9.2718984375,-0.9861648082733154,-1.346804141998291,-1.16079580783844
1710953596606856700,9.290856689453125,-1.020984172821045,-1.2646428346633911,-1.3162609338760376
1710953596625815300,9.309815185546874,-0.9705877900123596,-1.2142465114593506,-1.4314088821411133
1710953596644774000,9.32877392578125,-0.8496365547180176,-1.1363612413406372,-1.4414881467819214
1710953596663732500,9.347732421875,-0.6642391085624695,-1.0089958906173706,-1.346498727798462
1710953596682691000,9.366691162109374,-0.4061487317085266,-0.8874338269233704,-1.1772891283035278
1710953596701649400,9.3856494140625,-0.14164426922798157,-0.7334958910942078,-1.004719853401184
1710953596720608000,9.40460791015625,-0.004199695307761431,-0.5716167092323303,-0.8666644096374512
1710953596739566600,9.423566650390624,-0.06375901401042938,-0.44608399271965027,-0.725860059261322
1710953596758525200,9.442525146484375,-0.18440480530261993,-0.3559814393520355,-0.6076577305793762
1710953596777483800,9.46148388671875,-0.2021198868751526,-0.23991714417934418,-0.569173276424408
1710953596796442400,9.4804423828125,-0.12118030339479446,-0.10308343172073364,-0.6149880886077881
1710953596815401000,9.49940087890625,-0.04329504072666168,-0.05482511222362518,-0.6867647171020508
1710953596834359300,9.518359375,0.08376483619213104,-0.0902552679181099,-0.6855430006980896
1710953596853318000,9.53731787109375,0.20318889617919922,-0.3052796721458435,-0.5291616320610046
1710953596872276500,9.5562763671875,0.07307469844818115,-0.49892380833625793,-0.37094762921333313
1710953596891235000,9.575235107421875,-0.01000291109085083,-0.2435823380947113,-0.23747368156909943
1710953596910193700,9.594193603515626,0.04283689334988594,0.3452913165092468,-0.16539163887500763
1710953596929152000,9.613152099609374,0.3531562089920044,1.049007534980774,-0.1311832070350647
1710953596948110600,9.632110595703125,0.8687260746955872,1.6366595029830933,0.011453714221715927
1710953596967069200,9.651069091796876,1.228219985961914,1.883143424987793,0.26648977398872375
1710953596986027800,9.67002783203125,1.3229039907455444,1.8281655311584473,0.5612320303916931
1710953597004986400,9.688986328125,1.341230034828186,1.6082541942596436,0.7848085165023804
1710953597023944700,9.70794482421875,1.3360376358032227,1.3254238367080688,0.8440623879432678
1710953597042903300,9.7269033203125,1.310381293296814,1.0303761959075928,0.801301896572113
1710953597061862000,9.74586181640625,1.308854103088379,0.8617774844169617,0.736244797706604
1710953597080820500,9.764820556640625,1.3552799224853516,0.8391754627227783,0.6791289448738098
1710953597099779000,9.783779052734374,1.4227803945541382,0.9301943182945251,0.6149880886077881
1710953597118737400,9.8027373046875,1.4505747556686401,1.0502293109893799,0.5545125007629395
1710953597137696000,9.821696044921875,1.4240021705627441,1.1125375032424927,0.4702131748199463
1710953597156654600,9.840654541015626,1.3164899349212646,1.0089958906173706,0.33399030566215515
1710953597175613200,9.85961328125,1.0864993333816528,0.6959276795387268,0.13301581144332886
1710953597194571800,9.87857177734375,0.8336013555526733,0.16294817626476288,-0.11224640160799026
1710953597213530000,9.897530029296876,0.5956695079803467,-0.4839576184749603,-0.42653632164001465
1710953597232488700,9.91648876953125,0.3326922357082367,-1.0358740091323853,-0.7041743993759155
1710953597251447300,9.935447265625,0.13477204740047455,-1.3962842226028442,-0.8810197114944458
1710953597270405600,9.954405517578126,0.0758235901594162,-1.5795435905456543,-0.8929315805435181
1710953597289364200,9.9733642578125,0.07735075056552887,-1.7799072265625,-0.8950695991516113
1710953597308322800,9.99232275390625,-0.022525638341903687,-2.0215041637420654,-0.9503529071807861
1710953597327281400,10.011281494140626,-0.19295690953731537,-2.062432289123535,-0.9592103958129883
1710953597346240000,10.030239990234374,-0.2729802131652832,-1.8046473264694214,-0.8248201608657837
1710953597365198600,10.049198486328125,-0.45990481972694397,-1.5700751543045044,-0.5774199366569519
1710953597384157000,10.068156982421876,-0.5524508357048035,-1.3504693508148193,-0.388051837682724
1710953597403115500,10.087115478515624,-0.284586638212204,-0.928972601890564,-0.23105959594249725
1710953597422074000,10.10607421875,-0.104076087474823,-0.502894401550293,-0.162031888961792
1710953597441032700,10.12503271484375,-0.022525638341903687,-0.1107192412018776,-0.0798705667257309
1710953597459991300,10.1439912109375,0.26274821162223816,0.33276858925819397,0.23136503994464874
1710953597478949600,10.16294970703125,0.4701367914676666,0.5694786906242371,0.5346593856811523
1710953597497908200,10.181908203125,0.42798712849617004,0.5309942364692688,0.6226239204406738
1710953597516866800,10.20086669921875,0.4408152997493744,0.35873034596443176,0.5526798963546753
1710953597535825200,10.2198251953125,0.5645154118537903,0.08414662629365921,0.44791659712791443
1710953597554783700,10.23878369140625,0.6341540217399597,-0.22434009611606598,0.3000873327255249
1710953597573742300,10.257742431640626,0.6048324704170227,-0.453719824552536,0.10766492038965225
1710953597592701000,10.276700927734375,0.5406916737556458,-0.5584831237792969,-0.03375028073787689
1710953597611659500,10.295659423828125,0.46433359384536743,-0.5438223481178284,-0.07376192510128021
1710953597630617900,10.314617919921876,0.38095054030418396,-0.45097091794013977,-0.04780016839504242
1710953597649576400,10.333576416015624,0.33574655652046204,-0.29306238889694214,0.0154243353754282
1710953597668535000,10.35253515625,0.35468336939811707,-0.07315105944871902,0.11224640160799026
1710953597687493400,10.371493408203126,0.3849211633205414,0.08872810751199722,0.17455461621284485
1710953597706452000,10.390451904296874,0.39164069294929504,0.15775582194328308,0.19165882468223572
1710953597725410600,10.40941064453125,0.31894776225090027,0.14248420298099518,0.22098033130168915
1710953597744369000,10.428368896484375,0.1427132785320282,0.033139415085315704,0.2790125012397766
1710953597763327500,10.447327392578124,0.015042545273900032,-0.07681624591350555,0.3254382014274597
1710953597782286000,10.4662861328125,0.08223766833543777,-0.1104138121008873,0.31810784339904785
1710953597801244700,10.48524462890625,0.27771440148353577,-0.07895427197217941,0.3220784664154053
1710953597820203300,10.504203369140624,0.45730865001678467,-0.007483093533664942,0.3202458620071411
1710953597839161600,10.52316162109375,0.5321395993232727,0.05146535858511925,0.3153589367866516
1710953597858120200,10.5421201171875,0.5229766368865967,0.05787943676114082,0.28695371747016907
1710953597877078800,10.561078857421874,0.4365392327308655,-0.04260781779885292,0.2383899837732315
1710953597896037000,10.580037109375,0.31039565801620483,-0.1773035079240799,0.1571449637413025
1710953597914995700,10.59899560546875,0.19463679194450378,-0.11438442766666412,0.11927134543657303
1710953597933954300,10.617954345703126,0.03214675933122635,0.11133010685443878,0.08200860023498535
1710953597952912600,10.63691259765625,-0.11079560220241547,0.2231183648109436,0.14767655730247498
1710953597971871200,10.655871337890625,-0.2882518172264099,0.34315329790115356,0.19960007071495056
1710953597990829800,10.674829833984376,-0.44585493206977844,0.560315728187561,0.14462223649024963
1710953598009788200,10.6937880859375,-0.4024835228919983,0.8571959733963013,0.06795870512723923
1710953598028746800,10.712746826171875,-0.22014039754867554,1.014493703842163,0.08872810751199722
1710953598047705300,10.731705322265626,-0.2164752036333084,0.9390518665313721,0.125074565410614
1710953598066664000,10.750663818359374,-0.3087157905101776,0.8339831233024597,0.05177079141139984
1710953598085622500,10.76962255859375,-0.30169084668159485,0.6507236957550049,-0.05177079141139984
1710953598104580900,10.788580810546875,-0.34781113266944885,0.3617846667766571,-0.19074252247810364
1710953598123539500,10.80753955078125,-0.46479174494743347,0.1724165827035904,-0.31352636218070984
1710953598142498000,10.826498046875,-0.6135373115539551,0.25274530053138733,-0.3672824501991272
1710953598161456400,10.845456298828125,-0.7842740416526794,0.40576693415641785,-0.3819431960582733
1710953598180415000,10.8644150390625,-0.9354630708694458,0.44241881370544434,-0.38438665866851807
1710953598199373600,10.88337353515625,-1.0173189640045166,0.34437501430511475,-0.3816377818584442
1710953598218332000,10.902331787109375,-1.0438915491104126,0.07284562289714813,-0.388051837682724
1710953598237290500,10.92129052734375,-1.0371720790863037,-0.34345871210098267,-0.4338667094707489
1710953598256249000,10.9402490234375,-1.0047961473464966,-0.8064942359924316,-0.5148062705993652
1710953598275207400,10.95920751953125,-0.9412662386894226,-1.2276854515075684,-0.6015490889549255
1710953598294166000,10.978166015625,-0.8584941029548645,-1.5080723762512207,-0.6589703559875488
1710953598313124600,10.99712451171875,-0.761366605758667,-1.5551090240478516,-0.652556300163269
1710953598332083000,11.0160830078125,-0.6236165761947632,-1.3865103721618652,-0.5734493136405945
1710953598351041500,11.03504150390625,-0.4794524908065796,-1.0804671049118042,-0.4292852282524109
1710953598370000100,11.054000244140624,-0.4266127049922943,-0.8077159523963928,-0.3507890999317169
1710953598388958500,11.07295849609375,-0.5371792316436768,-0.6852375864982605,-0.39568766951560974
1710953598407917000,11.0919169921875,-0.7601448893547058,-0.6690496206283569,-0.38469210267066956
1710953598426875600,11.110875732421874,-0.9974658489227295,-0.5514581799507141,-0.2652680277824402
1710953598445834200,11.129834228515625,-1.0338122844696045,-0.32299473881721497,-0.11163553595542908
1710953598464792600,11.14879248046875,-0.8157335519790649,-0.14981459081172943,0.15561780333518982
1710953598483751200,11.167751220703124,-0.7149408459663391,-0.24174973368644714,0.2747364342212677
1710953598502709800,11.186709716796875,-0.8010727763175964,-0.4332558512687683,0.39965829253196716
1710953598521668400,11.20566845703125,-0.9290489554405212,-0.7286089658737183,0.5743656158447266
1710953598540626700,11.224626708984376,-0.9266055226325989,-1.103679895401001,0.7050906419754028
1710953598559585300,11.243585205078125,-0.7427352070808411,-1.5157082080841064,0.8028290271759033
1710953598578543900,11.2625439453125,-0.5145772099494934,-1.901469349861145,0.8801034092903137
1710953598597502200,11.281502197265626,-0.38293585181236267,-2.0132575035095215,0.8788816928863525
1710953598616460800,11.300460693359375,-0.34750568866729736,-1.8296927213668823,0.7799215912818909
1710953598635419400,11.31941943359375,-0.3569740951061249,-1.4182753562927246,0.6947059631347656
1710953598654377700,11.338377685546876,-0.36369362473487854,-0.9210313558578491,0.6174315810203552
1710953598673336300,11.35733642578125,-0.37988153100013733,-0.4851793646812439,0.4839576184749603
1710953598692295000,11.376294921875,-0.37896522879600525,-0.25763222575187683,0.29794928431510925
1710953598711253200,11.395253173828126,-0.339869886636734,-0.3813323378562927,0.06123919412493706
1710953598730211800,11.4142119140625,-0.25037819147109985,-0.7857248187065125,-0.2029598206281662
1710953598749170400,11.43317041015625,-0.17921245098114014,-1.3318378925323486,-0.42959064245224
1710953598768129000,11.45212890625,-0.1758527010679245,-1.9585851430892944,-0.5734493136405945
1710953598787087600,11.471087646484374,-0.22655446827411652,-2.4992005825042725,-0.6782126426696777
1710953598806046000,11.4900458984375,-0.32307112216949463,-2.8315110206604004,-0.7402154207229614
1710953598825004500,11.509004638671875,-0.45043641328811646,-2.910923480987549,-0.7057015299797058
1710953598843963100,11.527963134765624,-0.5466476082801819,-2.752098560333252,-0.5823068618774414
1710953598862921500,11.54692138671875,-0.5897135734558105,-2.344040870666504,-0.41554075479507446
1710953598881880000,11.565880126953125,-0.5784125924110413,-1.7307326793670654,-0.31383177638053894
1710953598900838700,11.584838623046876,-0.422947496175766,-0.9732602834701538,-0.32452189922332764
1710953598919797000,11.603796875,-0.10713040828704834,-0.23961171507835388,-0.3407098352909088
1710953598938755600,11.622755615234375,0.27282747626304626,0.15225805342197418,-0.3303251266479492
1710953598957714200,11.641714111328126,0.6216312646865845,-0.036804601550102234,-0.27229297161102295
1710953598976672800,11.6606728515625,0.6903535723686218,-0.7921388745307922,-0.1455385386943817
1710953598995631400,11.67963134765625,0.43745553493499756,-1.6727005243301392,0.006566796451807022
1710953599014589700,11.698589599609376,0.24930918216705322,-2.2621850967407227,0.20631958544254303
1710953599033548300,11.71754833984375,0.2771035432815552,-2.642753839492798,0.3257436454296112
1710953599052507000,11.7365068359375,0.4081340432167053,-2.8987061977386475,0.27748534083366394
1710953599071465500,11.755465576171876,0.45853036642074585,-3.0969316959381104,0.1876882016658783
1710953599090423800,11.774423828125,0.3430769443511963,-3.227046012878418,0.17516547441482544
1710953599109382400,11.79338232421875,0.08284853398799896,-3.107621908187866,0.15592323243618011
1710953599128341000,11.812341064453125,-0.14225514233112335,-2.6836817264556885,0.04199695214629173
1710953599147299600,11.831299560546874,-0.13064870238304138,-2.1256566047668457,-0.14248420298099518
1710953599166258200,11.850258056640625,0.10758855938911438,-1.7145447731018066,-0.3523162603378296
1710953599185216500,11.869216552734375,0.3723984360694885,-1.6507093906402588,-0.5554288029670715
1710953599204175000,11.888175048828124,0.49976375699043274,-1.965915560722351,-0.7060069441795349
1710953599223133700,11.9071337890625,0.46250098943710327,-2.500422239303589,-0.7667880058288574
1710953599242092300,11.92609228515625,0.33544111251831055,-2.9851434230804443,-0.7377719283103943
1710953599261051000,11.94505078125,0.2138790339231491,-3.299433469772339,-0.6837103962898254
1710953599280009200,11.96400927734375,0.1582903414964676,-3.4213008880615234,-0.6467530727386475
1710953599298967800,11.9829677734375,0.1530979871749878,-3.35288405418396,-0.6299542784690857
1710953599317926400,12.001926513671876,0.1683696061372757,-3.1509933471679688,-0.6015490889549255
1710953599336885000,12.020885009765625,0.19646938145160675,-2.9075636863708496,-0.5633700489997864
1710953599355843600,12.039843505859375,0.19769111275672913,-2.729496479034424,-0.5264127254486084
1710953599374802000,12.058802001953126,0.15431971848011017,-2.649167776107788,-0.5071704983711243
1710953599393760500,12.077760498046874,0.11858412623405457,-2.698647975921631,-0.5151117444038391
1710953599412719000,12.096718994140625,0.1164461001753807,-2.7902774810791016,-0.5358811020851135
1710953599431677700,12.115677734375,0.1521816849708557,-2.763094186782837,-0.5823068618774414
1710953599450636300,12.13463623046875,0.2456440031528473,-2.676656723022461,-0.6540834903717041
1710953599469594600,12.1535947265625,0.3678169548511505,-2.5920519828796387,-0.7689260244369507
1710953599488553200,12.17255322265625,0.4606684148311615,-2.4933972358703613,-0.8889609575271606
1710953599507511800,12.19151171875,0.5138136148452759,-2.4048218727111816,-0.9900590777397156
1710953599526470400,12.210470458984375,0.5468003153800964,-2.3122758865356445,-1.0807725191116333
1710953599545429000,12.229428955078125,0.5480220913887024,-2.280510902404785,-1.1339176893234253
1710953599564387300,12.24838720703125,0.4811323583126068,-2.3339617252349854,-1.1562143564224243
1710953599583346000,12.267345947265625,0.3433823585510254,-2.3593125343322754,-1.1409426927566528
1710953599602304500,12.286304443359375,0.19005531072616577,-2.2762348651885986,-1.1042908430099487
1710953599621263000,12.30526318359375,0.04864010959863663,-2.1082470417022705,-1.0764964818954468
1710953599640221700,12.3242216796875,-0.058566659688949585,-1.9155192375183105,-1.0609194040298462
1710953599659180000,12.343179931640625,-0.12637265026569366,-1.7383683919906616,-1.039233684539795
1710953599678138600,12.362138671875,-0.16913318634033203,-1.6033673286437988,-1.0105230808258057
1710953599697097200,12.38109716796875,-0.2008981555700302,-1.4793617725372314,-0.9549343585968018
1710953599716055800,12.400055908203125,-0.24976733326911926,-1.3654354810714722,-0.8275690674781799
1710953599735014400,12.419014404296876,-0.3823249936103821,-1.28083074092865,-0.615293562412262
1710953599753973000,12.437972900390625,-0.5622246861457825,-1.1534653902053833,-0.36361727118492126
1710953599772931600,12.456931640625,-0.677678108215332,-0.8804088830947876,-0.1727220118045807
1710953599791890000,12.475889892578126,-0.6517163515090942,-0.4595230221748352,-0.09605848789215088
1710953599810848500,12.4948486328125,-0.4846448302268982,0.007788525894284248,-0.03741546720266342
1710953599829807000,12.51380712890625,-0.23021966218948364,0.39996370673179626,0.012980876490473747
1710953599848765700,12.532765625,-0.03779725730419159,0.4967857897281647,0.049632761627435684
1710953599867724300,12.551724365234374,-0.03321577236056328,0.2530507445335388,0.10583232343196869
1710953599886683000,12.570682861328125,-0.1608865112066269,-0.145843967795372,0.21517711877822876
1710953599905641500,12.589641357421876,-0.23999349772930145,-0.5557342171669006,0.34437501430511475
1710953599924599800,12.608599853515624,-0.18532110750675201,-0.930499792098999,0.40515607595443726
1710953599943558400,12.627558349609375,-0.05917752534151077,-1.2395973205566406,0.3565923273563385
1710953599962517000,12.64651708984375,0.019624030217528343,-1.4524837732315063,0.25793763995170593
1710953599981475600,12.6654755859375,-0.00847574882209301,-1.5334233045578003,0.1974620372056961
1710953600000434200,12.68443408203125,-0.093691386282444,-1.4711151123046875,0.212733656167984
1710953600019392800,12.703392822265625,-0.16455170512199402,-1.2713623046875,0.25793763995170593
1710953600038351400,12.722351318359374,-0.18806999921798706,-0.9824233055114746,0.29672756791114807
1710953600057310000,12.74131005859375,-0.15813761949539185,-0.725860059261322,0.30375251173973083
1710953600076268500,12.7602685546875,-0.08941533416509628,-0.5355756878852844,0.29886558651924133
1710953600095227100,12.77922705078125,-0.013973532244563103,-0.40118545293807983,0.29764387011528015
1710953600114185500,12.798185546875,0.04222602769732475,-0.33001968264579773,0.31352636218070984
1710953600133144000,12.81714404296875,0.051389001309871674,-0.2964221239089966,0.34926193952560425
1710953600152102700,12.8361025390625,0.00954476185142994,-0.21548254787921906,0.39629852771759033
1710953600171061200,12.855061279296875,-0.06039925664663315,-0.03527744114398956,0.42959064245224
1710953600190019800,12.874019775390625,-0.12667807936668396,0.1776089370250702,0.4329504072666168
1710953600208978400,12.892978515625,-0.14378230273723602,0.3559814393520355,0.41676250100135803
1710953600227937000,12.91193701171875,-0.13187043368816376,0.490677148103714,0.3782780170440674
1710953600246895600,12.9308955078125,-0.14225514233112335,0.6140718460083008,0.3061959743499756
1710953600265854200,12.949854248046876,-0.16913318634033203,0.7405208349227905,0.21548254787921906
1710953600284812800,12.968812744140624,-0.1804341822862625,0.9033163189888,0.12354740500450134
1710953600303771400,12.987771484375,-0.1599702090024948,1.0829105377197266,0.040775224566459656
1710953600322729700,13.006729736328126,-0.23541201651096344,1.31870436668396,-0.046883873641490936
1710953600341688300,13.025688232421874,-0.3960694372653961,1.5532764196395874,-0.13240493834018707
1710953600360647000,13.04464697265625,-0.4785361886024475,1.8147265911102295,-0.187382772564888
1710953600379605500,13.06360546875,-0.4226420819759369,2.085034132003784,-0.2231183648109436
1710953600398564000,13.082564208984374,-0.2583194375038147,2.2227842807769775,-0.26129740476608276
1710953600417522700,13.101522705078125,-0.05673406645655632,2.0752604007720947,-0.3043633699417114
1710953600436481300,13.120481201171875,0.08407026529312134,1.6073379516601562,-0.31322091817855835
1710953600455440000,13.13943994140625,0.12438733875751495,1.0120502710342407,-0.2484692484140396
1710953600474398500,13.1583984375,0.10881029069423676,0.41034841537475586,-0.14981459081172943
1710953600493357000,13.177357177734375,0.10453423857688904,-0.16814053058624268,-0.08903354406356812
1710953600512315600,13.196315673828124,0.08254310488700867,-0.5676460862159729,-0.07070759683847427
1710953600531274200,13.215274169921875,0.07490729540586472,-0.7875574231147766,-0.0847574844956398
1710953600550232800,13.23423291015625,0.12133301794528961,-0.9149227142333984,-0.11438442766666412
1710953600569191200,13.253191162109376,0.18119776248931885,-0.9714277386665344,-0.1724165827035904
1710953600588150000,13.27214990234375,0.19616395235061646,-0.9695951342582703,-0.23564109206199646
1710953600607108400,13.2911083984375,0.17081306874752045,-0.9448550939559937,-0.25610506534576416
1710953600626067200,13.310067138671876,0.12835796177387238,-0.8904881477355957,-0.23228132724761963
1710953600645025500,13.329025634765625,0.07673988491296768,-0.8046616315841675,-0.17363831400871277
1710953600663984000,13.347984130859375,0.030925029888749123,-0.7243329286575317,-0.11102467030286789
1710953600682942700,13.366942626953126,0.008017600513994694,-0.6284271478652954,-0.05757400393486023
1710953600701901300,13.3859013671875,-0.013973532244563103,-0.43661558628082275,-0.009315688163042068
1710953600720860000,13.40485986328125,-0.045738499611616135,-0.13698641955852509,0.04841103404760361
1710953600739818500,13.423818603515626,-0.06345357745885849,0.20967933535575867,0.10277800261974335
1710953600758777000,13.442777099609375,-0.05734493210911751,0.5566505193710327,0.13545925915241241
1710953600777735700,13.461735595703125,-0.04329504072666168,0.8177952170372009,0.17058399319648743
1710953600796694300,13.4806943359375,-0.02130390889942646,0.9182825088500977,0.23044873774051666
1710953600815652900,13.49965283203125,0.05719221383333206,0.8520036339759827,0.304974228143692
1710953600834611500,13.518611572265625,0.19616395235061646,0.614682674407959,0.38438665866851807
1710953600853570000,13.537570068359376,0.28870996832847595,0.19532401859760284,0.4552469849586487
1710953600872528600,13.556528564453124,0.19280420243740082,-0.33001968264579773,0.514195442199707
1710953600891487200,13.5754873046875,-0.10651954263448715,-0.7432697415351868,0.5676460862159729
1710953600910445800,13.59444580078125,-0.4220311939716339,-0.7777835726737976,0.6299542784690857
1710953600929404400,13.613404296875,-0.5625301003456116,-0.5346593856811523,0.6333140730857849
1710953600948363000,13.632363037109375,-0.5173261165618896,-0.24174973368644714,0.4760163724422455
1710953600967321600,13.651321533203125,-0.35819584131240845,-0.006566796451807022,0.17638720571994781
1710953600986280200,13.6702802734375,-0.14256057143211365,0.18127411603927612,-0.15867212414741516
1710953601005238800,13.68923876953125,0.05169443041086197,0.38530296087265015,-0.4234820008277893
1710953601024197400,13.708197265625,0.19708025455474854,0.5743656158447266,-0.5206094980239868
1710953601043156000,13.727156005859374,0.3119228184223175,0.7200568318367004,-0.4558578431606293
1710953601062114300,13.7461142578125,0.3882809281349182,0.7594576478004456,-0.29397866129875183
1710953601081073200,13.7650732421875,0.3995819091796875,0.6571378111839294,-0.09147699922323227
1710953601100031500,13.784031494140624,0.3384954333305359,0.48365217447280884,0.09758564829826355
1710953601118990000,13.802989990234375,0.24106250703334808,0.29275694489479065,0.25610506534576416
1710953601137948700,13.82194873046875,0.15095995366573334,0.08903354406356812,0.3565923273563385
1710953601156907300,13.8409072265625,0.09262236952781677,-0.09453132748603821,0.3678933084011078
1710953601175865900,13.859865966796875,0.07429642975330353,-0.23747368156909943,0.31261005997657776
1710953601194824400,13.878824462890625,0.08498656004667282,-0.310166597366333,0.23503021895885468
1710953601213783000,13.897782958984376,0.09262236952781677,-0.2955058515071869,0.16539163887500763
1710953601232741600,13.91674169921875,0.07246383279561996,-0.23044873774051666,0.11591159552335739
1710953601251700200,13.9357001953125,0.03764454275369644,-0.15989385545253754,0.07651081681251526
1710953601270658800,13.954658935546876,0.0077121676877141,-0.09789107739925385,0.03130681812763214
1710953601289617400,13.973617431640625,-0.0066431546583771706,-0.04016435891389847,-0.021838415414094925
1710953601308576000,13.992575927734375,-0.017027854919433594,0.007177661173045635,-0.06368265300989151
1710953601327534600,14.01153466796875,-0.0319940410554409,0.02825249545276165,-0.08628465235233307
1710953601346493200,14.0304931640625,-0.04390590637922287,0.02367101050913334,-0.09728021919727325
1710953601365451800,14.04945166015625,-0.04451677203178406,0.002901607658714056,-0.08781181275844574
1710953601384410000,14.06841015625,-0.04298960790038109,-0.019700389355421066,-0.05238165333867073
1710953601403369000,14.087368896484374,-0.04634936526417732,-0.023365577682852745,-0.007483093533664942
1710953601422327600,14.10632763671875,-0.0524580143392086,0.0038179049734026194,0.02672533318400383
1710953601441286100,14.1252861328125,-0.06192641705274582,0.05757400393486023,0.049021899700164795
1710953601460244700,14.14424462890625,-0.06620246917009354,0.11224640160799026,0.06154462695121765
1710953601479203000,14.163203125,-0.05673406645655632,0.15836669504642487,0.06490438431501389
1710953601498162000,14.182161865234375,-0.03413207083940506,0.20082180202007294,0.06062832847237587
1710953601517120300,14.201120361328124,-0.010613775812089443,0.23044873774051666,0.05635227635502815
1710953601536078800,14.220078857421875,0.01107192412018776,0.24022257328033447,0.047494735568761826
1710953601555037400,14.239037353515625,0.02390008419752121,0.22464552521705627,0.03802633285522461
1710953601573996000,14.25799609375,0.04130972921848297,0.18035782873630524,0.027030766010284424
1710953601592954600,14.27695458984375,0.05230529606342316,0.14767655730247498,0.02916879393160343
1710953601611913200,14.295913330078125,0.05413788929581642,0.1467602699995041,0.04780016839504242
1710953601630871800,14.314871826171874,0.060551971197128296,0.15928299725055695,0.05604684352874756
1710953601649830400,14.333830322265625,0.0651334598660469,0.1565341055393219,0.04657844081521034
1710953601668789000,14.3527890625,0.0550541877746582,0.14370593428611755,0.027947064489126205
1710953601687747600,14.37174755859375,0.050778135657310486,0.12690715491771698,0.017867794260382652
1710953601706706200,14.3907060546875,0.05871937796473503,0.10461059212684631,0.01511890348047018
1710953601725664500,14.40966455078125,0.0651334598660469,0.07101303339004517,0.016035201027989388
1710953601744623400,14.428623291015626,0.05933023989200592,0.03527744114398956,0.013286309316754341
1710953601763581700,14.447581787109375,0.04802924394607544,-0.008399390615522861,0.01359174121171236
1710953601782540300,14.466540283203125,0.03550651669502258,-0.05635227635502815,0.014813470654189587
1710953601801499000,14.485498779296876,0.028787001967430115,-0.09880737960338593,0.016035201027989388
1710953601820457500,14.50445751953125,0.027870705351233482,-0.13423752784729004,0.0102319847792387
1710953601839416000,14.523416015625,0.01565340906381607,-0.1461493968963623,0.010842849500477314
1710953601858374700,14.542374755859376,-0.00022907429956831038,-0.13362666964530945,0.01695149764418602
1710953601877333200,14.561333251953124,-0.017027854919433594,-0.10369429737329483,0.023976443335413933
1710953601896291800,14.580291748046875,-0.03321577236056328,-0.05849030241370201,0.025809036567807198
1710953601915250400,14.59925048828125,-0.0423787422478199,-0.006566796451807022,0.024281874299049377
1710953601934208800,14.618208740234374,-0.046654798090457916,0.04505127668380737,0.02672533318400383
1710953601953167600,14.637167724609375,-0.050930850207805634,0.07528908550739288,0.03130681812763214
1710953601972126000,14.6561259765625,-0.053374309092760086,0.08414662629365921,0.03222311660647392
1710953601991084500,14.67508447265625,-0.053374309092760086,0.07559451460838318,0.027947064489126205
1710953602010043100,14.694043212890625,-0.049709122627973557,0.04413498193025589,0.017867794260382652
1710953602029001700,14.713001708984375,-0.048792824149131775,-0.008093958720564842,0.0001527161948615685
1710953602047960300,14.731960205078124,-0.0576503649353981,-0.06520981341600418,-0.0206166859716177
1710953602066919000,14.7509189453125,-0.06406444311141968,-0.09972367435693741,-0.033139415085315704
1710953602085877500,14.76987744140625,-0.06711876392364502,-0.11957678198814392,-0.0383317656815052
1710953602104836000,14.788836181640624,-0.05673406645655632,-0.13271036744117737,-0.05024362727999687
1710953602123794700,14.807794677734375,-0.0423787422478199,-0.145843967795372,-0.06795870512723923
1710953602142753300,14.826753173828125,-0.03413207083940506,-0.17088942229747772,-0.08200860023498535
1710953602161711600,14.845711669921876,-0.030161447823047638,-0.19624030590057373,-0.08170316368341446
1710953602180670200,14.864670166015625,-0.028328854590654373,-0.20723587274551392,-0.06612611562013626
1710953602199628800,14.88362890625,-0.014584396965801716,-0.2032652497291565,-0.05146535858511925
1710953602218587400,14.90258740234375,0.0022143847309052944,-0.19440771639347076,-0.052687086164951324
1710953602237546000,14.9215458984375,0.01107192412018776,-0.17547090351581573,-0.05482511222362518
1710953602256504600,14.940504638671875,0.019929463043808937,-0.14828743040561676,-0.04657844081521034
1710953602275463200,14.959463134765626,0.03061959706246853,-0.12935061752796173,-0.03527744114398956
1710953602294421800,14.978421875,0.03428478538990021,-0.12385283410549164,-0.024892739951610565
1710953602313380400,14.99738037109375,0.028787001967430115,-0.11835505068302155,-0.01908952370285988
1710953602332338700,15.016338623046876,0.02756527252495289,-0.11163553595542908,-0.012980876490473747
1710953602351297300,15.03529736328125,0.02542724646627903,-0.10644318908452988,-0.010537417605519295
1710953602370256000,15.054255859375,0.028176138177514076,-0.09056070446968079,-0.009926552884280682
1710953602389214500,15.07321435546875,0.036422811448574066,-0.07040216773748398,-0.013897174037992954
1710953602408173000,15.092173095703124,0.037033677101135254,-0.0539088174700737,-0.011148282326757908
1710953602427131600,15.111131591796875,0.02909243479371071,-0.042913250625133514,-0.0010690133785828948
1710953602446090200,15.13009033203125,0.025121813639998436,-0.03497200831770897,0.007483093533664942
1710953602465048600,15.149048583984374,0.023594651371240616,-0.02306014485657215,0.009926552884280682
1710953602484007200,15.168007080078125,0.025121813639998436,-0.01511890348047018,0.008399390615522861
1710953602502965800,15.1869658203125,0.026038112118840218,-0.013286309316754341,0.007483093533664942
1710953602521924400,15.20592431640625,0.020540328696370125,-0.009926552884280682,0.008399390615522861
1710953602540883000,15.224883056640625,0.015958841890096664,-0.005345067009329796,0.009315688163042068
1710953602559841500,15.243841552734375,0.013515383005142212,-0.0102319847792387,0.005650499369949102
1710953602578800000,15.262800048828124,0.014431680552661419,-0.02306014485657215,-0.0013744457392022014
1710953602597758500,15.281758544921875,0.01259908638894558,-0.02977965772151947,-0.004428769461810589
1710953602616717000,15.300717041015625,0.0058795735239982605,-0.02977965772151947,-0.006566796451807022
1710953602635675600,15.319675537109376,0.004963276442140341,-0.025809036567807198,-0.005039634648710489
1710953602654634200,15.33863427734375,0.0006872228696011007,-0.019394956529140472,-0.0025961752980947495
1710953602673592800,15.3575927734375,-0.006337722297757864,-0.005039634648710489,-0.00045814859913662076
1710953602692551400,15.376551513671876,-0.01000291109085083,0.011453714221715927,-0.005345067009329796
1710953602711510000,15.395510009765625,-0.006337722297757864,0.01511890348047018,-0.01908952370285988
1710953602730468400,15.41446826171875,-0.012140937149524689,0.0038179049734026194,-0.03191768378019333
1710953602749427000,15.433427001953126,-0.02649625949561596,0.00045814859913662076,-0.030695954337716103
1710953602768385500,15.452385498046874,-0.03260490670800209,0.004428769461810589,-0.03252854943275452
1710953602787344100,15.47134423828125,-0.039018988609313965,0.007788525894284248,-0.042913250625133514
1710953602806302700,15.490302734375,-0.05306887626647949,0.023365577682852745,-0.0591011680662632
1710953602825261300,15.50926123046875,-0.062537282705307,0.04657844081521034,-0.07345648854970932
1710953602844220000,15.528219970703125,-0.06131555140018463,0.06612611562013626,-0.0792597085237503
1710953602863178200,15.54717822265625,-0.05306887626647949,0.08109229803085327,-0.08536835014820099
1710953602882136800,15.56613671875,-0.04848739132285118,0.09147699922323227,-0.09178243577480316
1710953602901095400,15.585095458984375,-0.05062541738152504,0.09330959618091583,-0.10125083476305008
1710953602920054000,15.604053955078125,-0.0683404952287674,0.08567378669977188,-0.11102467030286789
1710953602939012600,15.6230126953125,-0.08483384549617767,0.08139773458242416,-0.11652245372533798
1710953602957971200,15.64197119140625,-0.09613484144210815,0.07528908550739288,-0.1311832070350647
1710953602976929500,15.660929443359375,-0.10835213959217072,0.05940660089254379,-0.15042544901371002
1710953602995888000,15.67988818359375,-0.11507165431976318,0.053603384643793106,-0.16661337018013
1710953603014846700,15.6988466796875,-0.10621411353349686,0.06643154472112656,-0.17791436612606049
1710953603033805300,15.717805419921875,-0.0884990319609642,0.06612611562013626,-0.18035782873630524
1710953603052764000,15.736763916015626,-0.0784197673201561,0.03405570983886719,-0.17027856409549713
1710953603071722500,15.755722412109375,-0.08208495378494263,-0.002901607658714056,-0.15286891162395477
1710953603090681000,15.77468115234375,-0.09430225193500519,-0.0206166859716177,-0.14340050518512726
1710953603109639400,15.793639404296876,-0.1043815165758133,-0.016340631991624832,-0.14950916171073914
1710953603128598000,15.812597900390625,-0.09552398324012756,0.004734201822429895,-0.1663079410791397
1710953603147556600,15.831556640625,-0.0888044685125351,-0.01908952370285988,-0.17944152653217316
1710953603166515200,15.85051513671875,-0.09796743839979172,-0.09178243577480316,-0.16386447846889496
1710953603185473800,15.869473876953125,-0.12148573249578476,-0.14034618437290192,-0.13301581144332886
1710953603204432100,15.88843212890625,-0.13736821711063385,-0.1766926348209381,-0.13209950923919678
1710953603223390700,15.907390625,-0.14592032134532928,-0.2606865465641022,-0.16478078067302704
1710953603242349300,15.926349365234374,-0.19448406994342804,-0.35475972294807434,-0.19165882468223572
1710953603261308000,15.945307861328125,-0.2784779667854309,-0.44119709730148315,-0.17424917221069336
1710953603280266500,15.9642666015625,-0.33192864060401917,-0.5474875569343567,-0.13973531126976013
1710953603299224800,15.983224853515624,-0.3713294267654419,-0.7118101716041565,-0.1262962967157364
1710953603318183400,16.002183349609375,-0.4284452795982361,-0.975092887878418,-0.10338886082172394
1710953603337142000,16.02114208984375,-0.48647743463516235,-1.2606722116470337,-0.10155627131462097
1710953603356100600,16.0401005859375,-0.5130500793457031,-1.402392864227295,-0.13301581144332886
1710953603375059200,16.05905908203125,-0.5732202529907227,-1.319009780883789,-0.18555018305778503
1710953603394017800,16.078017822265625,-0.6840922236442566,-1.1265873908996582,-0.24755294620990753
1710953603412976400,16.096976318359374,-0.7448732256889343,-0.8877392411231995,-0.3321577310562134
1710953603431934700,16.115934814453126,-0.7042507529258728,-0.6076577305793762,-0.4234820008277893
1710953603450893300,16.134893310546875,-0.6144536137580872,-0.3617846667766571,-0.5129737257957458
1710953603469852000,16.153851806640624,-0.5280162692070007,-0.23228132724761963,-0.5929969549179077
1710953603488810500,16.172810546875,-0.464486300945282,-0.19471314549446106,-0.6198750138282776
1710953603507769000,16.19176904296875,-0.4122573733329773,-0.22067490220069885,-0.5780308246612549
1710953603526727400,16.2107275390625,-0.367053359746933,-0.2805396616458893,-0.48914995789527893
1710953603545686000,16.22968603515625,-0.3401753306388855,-0.38988444209098816,-0.3819431960582733
1710953603564644600,16.24864453125,-0.31757333874702454,-0.531605064868927,-0.27320927381515503
1710953603583603200,16.267603271484376,-0.2943604588508606,-0.6403390169143677,-0.1879936307668686
1710953603602561800,16.286561767578124,-0.27542364597320557,-0.6937896609306335,-0.13179408013820648
1710953603621520400,16.305520263671873,-0.2742019295692444,-0.716697096824646,-0.11743875592947006
1710953603640479000,16.32447900390625,-0.30138540267944336,-0.6714931130409241,-0.13301581144332886
1710953603659437300,16.343437255859374,-0.33223408460617065,-0.521831214427948,-0.16539163887500763
1710953603678396000,16.36239599609375,-0.34200790524482727,-0.28298309445381165,-0.22036947309970856
1710953603697354500,16.3813544921875,-0.3291797637939453,-0.0025961752980947495,-0.2759581506252289
1710953603716313000,16.40031298828125,-0.29100072383880615,0.24724751710891724,-0.310166597366333
1710953603735271700,16.419271728515625,-0.2638172209262848,0.38041603565216064,-0.3153589367866516
1710953603754230300,16.438230224609374,-0.2674824297428131,0.4182896614074707,-0.2854265570640564
1710953603773188900,16.45718896484375,-0.24549128115177155,0.38957902789115906,-0.27687445282936096
1710953603792147200,16.476147216796875,-0.16363540291786194,0.3107774555683136,-0.28787001967430115
1710953603811105800,16.495105712890624,-0.10835213959217072,0.1715002804994583,-0.2383899837732315
1710953603830064400,16.514064453125,-0.08513928204774857,0.06123919412493706,-0.13881902396678925
1710953603849023000,16.53302294921875,-0.03107774630188942,0.019394956529140472,-0.033139415085315704
1710953603867981600,16.551981689453125,0.06910407543182373,0.0032070400193333626,0.027030766010284424
1710953603886940200,16.570940185546874,0.09567669779062271,-0.019394956529140472,0.049632761627435684
1710953603905898800,16.589898681640626,0.019013166427612305,0.024892739951610565,0.07040216773748398
1710953603924857300,16.608857421875,-0.02588539570569992,0.1256854236125946,0.09086613357067108
1710953603943815700,16.627815673828124,-0.015806125476956367,0.2536616027355194,0.047494735568761826
1710953603962774300,16.646774169921876,0.005268708802759647,0.3993528485298157,-0.033139415085315704
1710953603981732900,16.66573291015625,0.015347977168858051,0.5148062705993652,-0.09911280870437622
1710953604000691500,16.68469140625,0.043142326176166534,0.5624537467956543,-0.16325360536575317
1710953604019650000,16.703650146484375,0.13904809951782227,0.549930989742279,-0.21731515228748322
1710953604038608600,16.722608642578123,0.28901541233062744,0.4592176079750061,-0.2280052751302719
1710953604057567200,16.741567138671876,0.4047742784023285,0.2997818887233734,-0.16447533667087555
1710953604076525600,16.760525634765624,0.4059959948062897,0.10461059212684631,-0.01908952370285988
1710953604095484400,16.779484375,0.3061196208000183,-0.05146535858511925,0.15775582194328308
1710953604114442800,16.79844287109375,0.1787542998790741,-0.18952079117298126,0.30711227655410767
1710953604133401300,16.8174013671875,0.07154753804206848,-0.33460119366645813,0.3923279047012329
1710953604152360000,16.83635986328125,-0.013362666592001915,-0.4454731345176697,0.4176788032054901
1710953604171318500,16.855318603515624,-0.10682497918605804,-0.47815442085266113,0.40607234835624695
1710953604190277000,16.874277099609376,-0.20945025980472565,-0.4088212549686432,0.38499751687049866
1710953604209235700,16.893235595703125,-0.2943604588508606,-0.25213444232940674,0.3523162603378296
1710953604228194300,16.9121943359375,-0.3404807448387146,-0.0746782198548317,0.3107774555683136
1710953604247152600,16.931152587890626,-0.3459785282611847,0.07254019379615784,0.25579962134361267
1710953604266111200,16.950111328125,-0.32184937596321106,0.1724165827035904,0.18371757864952087
1710953604285069800,16.96906982421875,-0.29161158204078674,0.2133445292711258,0.10583232343196869
1710953604304028400,16.9880283203125,-0.2629009187221527,0.1980729103088379,0.03283398225903511
1710953604322987000,17.006987060546876,-0.22533275187015533,0.1611155867576599,-0.023365577682852745
1710953604341945600,17.025945556640625,-0.18745912611484528,0.11957678198814392,-0.05482511222362518
1710953604360904200,17.044904296875,-0.15172353386878967,0.09544762223958969,-0.06276635825634003
1710953604379862800,17.06386279296875,-0.12545634806156158,0.08903354406356812,-0.060933761298656464
1710953604398821400,17.0828212890625,-0.11293362826108932,0.0948367565870285,-0.04199695214629173
1710953604417779700,17.10177978515625,-0.10224349051713943,0.12904518842697144,-0.013286309316754341
1710953604436738300,17.12073828125,-0.08972076326608658,0.1464548259973526,0.010537417605519295
1710953604455697000,17.13969677734375,-0.072921983897686,0.14431680738925934,0.03222311660647392
1710953604474655500,17.158655517578126,-0.062537282705307,0.11499529331922531,0.04810560122132301
1710953604493614000,17.177614013671874,-0.06620246917009354,0.06551524996757507,0.0539088174700737
1710953604512572700,17.19657275390625,-0.07475458085536957,-0.004734201822429895,0.04413498193025589
1710953604531531300,17.21553125,-0.08086322247982025,-0.06979130208492279,0.018784092739224434
1710953604550489900,17.23448974609375,-0.08972076326608658,-0.11163553595542908,-0.0154243353754282
1710953604569448400,17.253448486328125,-0.08758273720741272,-0.11407899856567383,-0.04993819445371628
1710953604588406800,17.27240673828125,-0.072921983897686,-0.09147699922323227,-0.08933897316455841
1710953604607365600,17.29136572265625,-0.06528617441654205,-0.06795870512723923,-0.12354740500450134
1710953604626324000,17.310323974609375,-0.05978839099407196,-0.04046979174017906,-0.14859285950660706
1710953604645282600,17.329282470703124,-0.04696023091673851,-0.009010255336761475,-0.16508620977401733
1710953604664241200,17.3482412109375,-0.021609341725707054,0.018784092739224434,-0.16447533667087555
1710953604683199700,17.36719970703125,0.01718057133257389,0.0102319847792387,-0.1513417512178421
1710953604702158300,17.386158447265625,0.0345902182161808,-0.04016435891389847,-0.12721258401870728
1710953604721117000,17.405116943359374,0.03428478538990021,-0.0844520553946495,-0.09453132748603821
1710953604740075500,17.424075439453127,0.041615162044763565,-0.09789107739925385,-0.05940660089254379
1710953604759034000,17.4430341796875,0.06391172856092453,-0.08414662629365921,-0.02367101050913334
1710953604777992700,17.46199267578125,0.08773545175790787,-0.04505127668380737,0.006872228812426329
1710953604796951300,17.480951416015625,0.10178534686565399,0.009621120058000088,0.03405570983886719
1710953604815909600,17.49990966796875,0.10728313028812408,0.07528908550739288,0.054214250296354294
1710953604834868500,17.518868408203126,0.1164461001753807,0.14370593428611755,0.06887500733137131
1710953604853826800,17.537826904296875,0.1375209391117096,0.21029019355773926,0.07773254066705704
1710953604872785400,17.556785400390623,0.15554144978523254,0.2652680277824402,0.08567378669977188
1710953604891744000,17.575743896484376,0.16989676654338837,0.3006981909275055,0.09605848789215088
1710953604910702600,17.59470263671875,0.18455752730369568,0.3116937577724457,0.1052214577794075
1710953604929661200,17.6136611328125,0.19616395235061646,0.3095557391643524,0.10674861818552017
1710953604948619800,17.632619873046874,0.20166173577308655,0.2945895493030548,0.10369429737329483
1710953604967578400,17.651578369140626,0.20196716487407684,0.27626359462738037,0.09666935354471207
1710953604986537000,17.670536865234375,0.1989128440618515,0.2539670467376709,0.0948367565870285
1710953605005495600,17.68949560546875,0.19982914626598358,0.2600756883621216,0.09666935354471207
1710953605024454000,17.708453857421876,0.21296273171901703,0.2490801066160202,0.09636391699314117
1710953605043412700,17.727412841796873,0.22365286946296692,0.21945317089557648,0.09208786487579346
1710953605062371000,17.74637109375,0.21296273171901703,0.18341214954853058,0.0948367565870285
1710953605081329700,17.76532958984375,0.189444437623024,0.12751802802085876,0.11407899856567383
1710953605100288300,17.784288330078127,0.1680641770362854,0.07834340631961823,0.12263110280036926
1710953605119246800,17.803246826171875,0.14332415163516998,0.03894263133406639,0.10674861818552017
1710953605138205400,17.822205322265624,0.1219438835978508,0.030085090547800064,0.08231402933597565
1710953605157164000,17.8411640625,0.12255474925041199,0.036193739622831345,0.06062832847237587
1710953605176122600,17.86012255859375,0.1268308013677597,0.03222311660647392,0.045967575162649155
1710953605195081200,17.879081298828126,0.12133301794528961,0.033139415085315704,0.04169152304530144
1710953605214039800,17.898039794921875,0.11094831675291061,0.04321868345141411,0.046883873641490936
1710953605232998400,17.916998291015624,0.11217004805803299,0.04535670951008797,0.054214250296354294
1710953605251957000,17.93595703125,0.11797326058149338,0.030390523374080658,0.0591011680662632
1710953605270915300,17.954915283203125,0.12041672319173813,-0.005650499369949102,0.05543597787618637
1710953605289874200,17.973874267578125,0.11003202199935913,-0.05329795181751251,0.05329795181751251
1710953605308832500,17.99283251953125,0.0907897800207138,-0.10613775253295898,0.0591011680662632
1710953605327791000,18.011791015625,0.07735075056552887,-0.13851359486579895,0.061850059777498245
1710953605346749700,18.030749755859375,0.06757691502571106,-0.14340050518512726,0.053603384643793106
1710953605365708300,18.049708251953124,0.06666062027215958,-0.13912445306777954,0.039858926087617874
1710953605384667000,18.0686669921875,0.07002037763595581,-0.1363755613565445,0.028863361105322838
1710953605403625500,18.08762548828125,0.06604975461959839,-0.14523309469223022,0.025503603741526604
1710953605422584000,18.106583984375,0.051389001309871674,-0.15928299725055695,0.03130681812763214
1710953605441542700,18.125542724609375,0.037033677101135254,-0.1672242283821106,0.039248060435056686
1710953605460501200,18.144501220703123,0.04069886729121208,-0.16416990756988525,0.04199695214629173
1710953605479459800,18.1634599609375,0.05719221383333206,-0.15806126594543457,0.041386090219020844
1710953605498418400,18.18241845703125,0.07002037763595581,-0.14950916171073914,0.042913250625133514
1710953605517377000,18.201376953125,0.07368556410074234,-0.1311832070350647,0.04566214233636856
1710953605536335600,18.220335693359374,0.07612902671098709,-0.10125083476305008,0.047494735568761826
1710953605555294200,18.239294189453126,0.0758235901594162,-0.0691804364323616,0.05177079141139984
1710953605574252800,18.258252685546875,0.059024810791015625,-0.005345067009329796,0.0642935186624527
1710953605593211400,18.27721142578125,0.04130972921848297,0.1101083755493164,0.07681624591350555
1710953605612170000,18.296169921875,0.041004300117492676,0.22464552521705627,0.07131846249103546
1710953605631128600,18.315128662109377,0.04864010959863663,0.3379609286785126,0.04413498193025589
1710953605650087000,18.3340869140625,0.04711294546723366,0.43753188848495483,0.01695149764418602
1710953605669045800,18.353045654296874,0.07307469844818115,0.503505289554596,0.009315688163042068
1710953605688004000,18.372004150390627,0.1164461001753807,0.5148062705993652,0.005345067009329796
1710953605706962700,18.390962646484375,0.10819942504167557,0.5145008563995361,0.010537417605519295
1710953605725921300,18.40992138671875,0.05413788929581642,0.5792525410652161,0.04046979174017906
1710953605744879900,18.4288798828125,0.031841326504945755,0.6980656981468201,0.08170316368341446
1710953605763838500,18.44783837890625,0.09414953738451004,0.7896954417228699,0.08750637620687485
1710953605782797000,18.466797119140626,0.1891390085220337,0.7814487814903259,0.05757400393486023
1710953605801755600,18.485755615234375,0.2395353466272354,0.698676586151123,0.02153298258781433
1710953605820714200,18.50471435546875,0.23189954459667206,0.5945241451263428,0.004734201822429895
1710953605839672800,18.5236728515625,0.21265730261802673,0.5047270059585571,0.003512472379952669
1710953605858631400,18.54263134765625,0.22090397775173187,0.4289797842502594,0.017562363296747208
1710953605877590000,18.561590087890625,0.22670719027519226,0.3211621642112732,0.054214250296354294
1710953605896548600,18.580548583984374,0.19646938145160675,0.20937390625476837,0.1055268943309784
1710953605915507200,18.599507080078126,0.14057525992393494,0.1571449637413025,0.17486004531383514
1710953605934465800,18.6184658203125,0.11247547715902328,0.20967933535575867,0.2393062710762024
1710953605953424400,18.63742431640625,0.1534034162759781,0.3016144931316376,0.28237223625183105
1710953605972383000,18.656383056640625,0.22059854865074158,0.35048365592956543,0.30314165353775024
1710953605991341600,18.675341552734373,0.24778202176094055,0.36392268538475037,0.31841325759887695
1710953606010300000,18.6942998046875,0.2456440031528473,0.3507890999317169,0.3416261374950409
1710953606029258800,18.7132587890625,0.245338574051857,0.27779075503349304,0.3565923273563385
1710953606048217300,18.73221728515625,0.2242637276649475,0.12843431532382965,0.35964664816856384
1710953606067176000,18.751176025390624,0.16378812491893768,-0.02916879393160343,0.35017824172973633
1710953606086134500,18.770134521484376,0.08987347781658173,-0.10430516302585602,0.337350070476532
1710953606105092900,18.7890927734375,0.041004300117492676,-0.07406735420227051,0.3352120518684387
1710953606124051700,18.8080517578125,0.029703300446271896,-0.009926552884280682,0.33429574966430664
1710953606143010000,18.827010009765626,0.019624030217528343,0.03436114266514778,0.31932955980300903
1710953606161969000,18.845968994140627,-0.029245151206851006,0.10186170041561127,0.28787001967430115
1710953606180927200,18.86492724609375,-0.08636100590229034,0.1974620372056961,0.24602578580379486
1710953606199885800,18.8838857421875,-0.09674570709466934,0.2835939824581146,0.18616104125976562
1710953606218844400,18.902844482421877,-0.07719803601503372,0.3452913165092468,0.11743875592947006
1710953606237803000,18.921802978515625,-0.057039499282836914,0.3773617148399353,0.06582067906856537
1710953606256761600,18.94076171875,-0.03168861195445061,0.38591381907463074,0.02825249545276165
1710953606275720200,18.95972021484375,-0.002672533504664898,0.3208567202091217,0.007483093533664942
1710953606294678800,18.9786787109375,0.008628465235233307,0.23197589814662933,0.006566796451807022
1710953606313637400,18.997637451171876,0.007101302966475487,0.15531237423419952,0.01908952370285988
1710953606332596000,19.016595947265625,0.008017600513994694,0.07620538026094437,0.03252854943275452
1710953606351554600,19.035554443359374,0.010461059398949146,0.014508038759231567,0.033139415085315704
1710953606370513200,19.05451318359375,0.004657844081521034,-0.02000582218170166,0.025809036567807198
1710953606389471700,19.0734716796875,-0.0066431546583771706,-0.02764163166284561,0.017867794260382652
1710953606408430300,19.092430419921875,-0.008170315995812416,-0.030085090547800064,0.009926552884280682
1710953606427389000,19.111388916015624,-0.0017562361899763346,-0.043829549103975296,-0.007177661173045635
1710953606446347500,19.130347412109376,0.016875140368938446,-0.07620538026094437,-0.03955349326133728
1710953606465306000,19.14930615234375,0.03672824427485466,-0.1302669197320938,-0.07712167501449585
1710953606484264700,19.1682646484375,0.03428478538990021,-0.19501857459545135,-0.09758564829826355
1710953606503223300,19.187223388671875,0.011682788841426373,-0.2444986253976822,-0.1049160286784172
1710953606522182000,19.206181884765623,-0.01000291109085083,-0.2680169343948364,-0.10858121514320374
1710953606541140500,19.225140380859376,-0.01763872057199478,-0.2753472924232483,-0.11468986421823502
1710953606560099000,19.24409912109375,-0.01000291109085083,-0.2689332067966461,-0.11499529331922531
1710953606579057400,19.263057373046873,0.008017600513994694,-0.2542724609375,-0.10461059212684631
1710953606598016300,19.282016357421874,0.02390008419752121,-0.23777911067008972,-0.09941824525594711
1710953606616974600,19.300974609375,0.026648975908756256,-0.22250749170780182,-0.09850194305181503
1710953606635933400,19.319933349609375,0.007101302966475487,-0.19104796648025513,-0.09392046183347702
1710953606654892000,19.33889208984375,-0.009697478264570236,-0.13515383005142212,-0.0792597085237503
1710953606673850400,19.357850341796876,-0.0057268571108579636,-0.06704241037368774,-0.06673697382211685
1710953606692809200,19.376809326171873,0.00954476185142994,-0.007177661173045635,-0.06246092543005943
1710953606711767600,19.395767578125,0.019624030217528343,0.04199695214629173,-0.05787943676114082
1710953606730726400,19.414726318359374,0.016875140368938446,0.07070759683847427,-0.042913250625133514
1710953606749684700,19.433684814453127,0.015042545273900032,0.09575305134057999,-0.02153298258781433
1710953606768643300,19.452643310546875,0.0345902182161808,0.11804962158203125,-0.005345067009329796
1710953606787602000,19.471601806640624,0.059635672718286514,0.12690715491771698,-0.0013744457392022014
1710953606806560500,19.490560546875,0.0654388889670372,0.11682789027690887,0.005345067009329796
1710953606825519000,19.50951904296875,0.06330086290836334,0.09422589093446732,0.029474224895238876
1710953606844477700,19.528477783203126,0.07796161621809006,0.0899498388171196,0.056657709181308746
1710953606863436300,19.547436279296875,0.09903645515441895,0.08903354406356812,0.07651081681251526
1710953606882395000,19.566394775390624,0.11736239492893219,0.08750637620687485,0.08261945843696594
1710953606901353500,19.585353515625,0.12835796177387238,0.07040216773748398,0.08261945843696594
1710953606920312000,19.60431201171875,0.13110685348510742,0.03955349326133728,0.08292489498853683
1710953606939270700,19.623270751953125,0.1265253722667694,-0.0062613640911877155,0.08659008145332336
1710953606958229200,19.642229248046874,0.1118646115064621,-0.05146535858511925,0.08811724185943604
1710953606977187800,19.661187744140626,0.09445496648550034,-0.07376192510128021,0.08659008145332336
1710953606996146400,19.680146484375,0.08284853398799896,-0.07895427197217941,0.08323032408952713
1710953607015105000,19.69910498046875,0.07154753804206848,-0.05238165333867073,0.08231402933597565
1710953607034063600,19.718063720703125,0.0657443255186081,-0.02214384824037552,0.07498364895582199
1710953607053022200,19.737022216796873,0.04955640435218811,0.004428769461810589,0.06520981341600418
1710953607071980500,19.75598046875,0.02695440873503685,0.02916879393160343,0.06123919412493706
1710953607090939400,19.774939453125,0.016569707542657852,0.05543597787618637,0.06887500733137131
1710953607109897700,19.793897705078123,0.021151192486286163,0.06856957077980042,0.07131846249103546
1710953607128856300,19.812856201171876,0.018402300775051117,0.06643154472112656,0.07101303339004517
1710953607147815000,19.83181494140625,0.008017600513994694,0.07162389904260635,0.07589995115995407
1710953607166773500,19.8507734375,0.0012980876490473747,0.0850629210472107,0.07803797721862793
1710953607185732000,19.869732177734374,0.0006872228696011007,0.09941824525594711,0.07651081681251526
1710953607204690700,19.888690673828126,0.004352411720901728,0.11255183815956116,0.0691804364323616
1710953607223649300,19.907649169921875,0.0012980876490473747,0.11407899856567383,0.06123919412493706
1710953607242607900,19.92660791015625,-0.007864884100854397,0.10980294644832611,0.05238165333867073
1710953607261566500,19.94556640625,-0.0191658828407526,0.10186170041561127,0.04321868345141411
1710953607280525000,19.964525146484377,-0.02741255611181259,0.09269873052835464,0.03222311660647392
1710953607299483600,19.983483642578125,-0.0319940410554409,0.0844520553946495,0.017562363296747208
1710953607318442200,20.002442138671874,-0.032910339534282684,0.07315105944871902,0.006872228812426329
1710953607337400800,20.02140087890625,-0.03565923124551773,0.061850059777498245,0.0013744457392022014
1710953607356359400,20.040359375,-0.041157014667987823,0.055741410702466965,-0.005955931730568409
1710953607375318000,20.059318115234376,-0.034437503665685654,0.04046979174017906,-0.018173227086663246
1710953607394276600,20.078276611328125,-0.02893971838057041,0.01359174121171236,-0.03283398225903511
1710953607413235000,20.09723486328125,-0.03565923124551773,-0.023365577682852745,-0.03497200831770897
1710953607432193800,20.11619384765625,-0.04512763395905495,-0.047494735568761826,-0.031001387163996696
1710953607451152100,20.135152099609375,-0.03993528336286545,-0.053603384643793106,-0.03252854943275452
1710953607470110700,20.15411083984375,-0.0319940410554409,-0.041386090219020844,-0.03955349326133728
1710953607489069300,20.1730693359375,-0.023136503994464874,-0.006566796451807022,-0.04505127668380737
1710953607508028000,20.19202783203125,-0.008781181648373604,0.022449281066656113,-0.0435241162776947
1710953607526986500,20.210986572265625,0.005268708802759647,0.019700389355421066,-0.043829549103975296
1710953607545945000,20.229945068359374,0.00923932995647192,0.0010690133785828948,-0.04260781779885292
1710953607564903700,20.248903564453126,0.004657844081521034,-0.025809036567807198,-0.03558287397027016
1710953607583862300,20.2678623046875,0.010766491293907166,-0.04169152304530144,-0.025503603741526604
1710953607602820900,20.28682080078125,0.02023489587008953,-0.04657844081521034,-0.02153298258781433
1710953607621779500,20.305779541015625,0.03061959706246853,-0.034666575491428375,-0.02306014485657215
1710953607640738000,20.324738037109373,0.037033677101135254,-0.014202605932950974,-0.02672533318400383
1710953607659696400,20.3436962890625,0.03275762498378754,0.006566796451807022,-0.027947064489126205
1710953607678655200,20.3626552734375,0.026038112118840218,0.017562363296747208,-0.02367101050913334
1710953607697613600,20.381613525390627,0.027259841561317444,0.02306014485657215,-0.0206166859716177
1710953607716572200,20.400572265625,0.03214675933122635,0.029474224895238876,-0.022449281066656113
1710953607735530800,20.41953076171875,0.04130972921848297,0.039248060435056686,-0.0206166859716177
1710953607754489300,20.4384892578125,0.050778135657310486,0.04474584385752678,-0.009621120058000088
1710953607773448000,20.457447998046874,0.057497646659612656,0.046883873641490936,0.0019853105768561363
1710953607792406500,20.476406494140626,0.0553596206009388,0.05146535858511925,0.012675444595515728
1710953607811365000,20.495365234375,0.05169443041086197,0.05299251899123192,0.02000582218170166
1710953607830323700,20.51432373046875,0.04894553869962692,0.04780016839504242,0.0206166859716177
1710953607849282300,20.5332822265625,0.041615162044763565,0.04535670951008797,0.014508038759231567
1710953607868240600,20.55224072265625,0.034895651042461395,0.04566214233636856,0.004734201822429895
1710953607887199200,20.57119921875,0.031841326504945755,0.0435241162776947,-0.0001527161948615685
1710953607906157800,20.59015771484375,0.03153589367866516,0.04016435891389847,0.0025961752980947495
1710953607925116400,20.609116455078127,0.034895651042461395,0.03527744114398956,0.0010690133785828948
1710953607944075000,20.628074951171875,0.046807512640953064,0.03191768378019333,-0.0062613640911877155
1710953607963033600,20.64703369140625,0.04864010959863663,0.031612250953912735,-0.001679878099821508
1710953607981992200,20.6659921875,0.046807512640953064,0.049632761627435684,0.005955931730568409
1710953608000950800,20.68495068359375,0.06330086290836334,0.06001746281981468,0.0019853105768561363
1710953608019909400,20.703909423828126,0.07826705276966095,0.03955349326133728,-0.010537417605519295
1710953608038868000,20.722867919921875,0.07246383279561996,0.006872228812426329,-0.011453714221715927
1710953608057826300,20.741826416015623,0.05994110554456711,-0.03649916872382164,0.0032070400193333626
1710953608076785200,20.76078515625,0.0553596206009388,-0.06520981341600418,0.021227551624178886
1710953608095743500,20.779743408203124,0.06818778067827225,-0.05299251899123192,0.04199695214629173
1710953608114702000,20.7987021484375,0.10270164161920547,-0.028863361105322838,0.07192932814359665
1710953608133660700,20.81766064453125,0.15004366636276245,-0.06643154472112656,0.09086613357067108
1710953608152619300,20.836619384765626,0.1634826809167862,-0.15989385545253754,0.0948367565870285
1710953608171577900,20.855577880859375,0.12835796177387238,-0.2484692484140396,0.0899498388171196
1710953608190536400,20.874536376953124,0.09750928729772568,-0.27259841561317444,0.09575305134057999
1710953608209495000,20.8934951171875,0.12133301794528961,-0.2964221239089966,0.10216713696718216
1710953608228453400,20.912453369140625,0.15523600578308105,-0.36942046880722046,0.07498364895582199
1710953608247412000,20.931411865234374,0.1378263682126999,-0.4546361267566681,0.0025961752980947495
1710953608266370600,20.95037060546875,0.07521272450685501,-0.5105302333831787,-0.09666935354471207
1710953608285329200,20.9693291015625,0.0034361144062131643,-0.5435169339179993,-0.18829907476902008
1710953608304287700,20.988287841796875,-0.03168861195445061,-0.5236638188362122,-0.25671592354774475
1710953608323246300,21.007246337890624,-0.01824958436191082,-0.47143489122390747,-0.30894485116004944
1710953608342205000,21.026204833984377,0.010155626572668552,-0.42164942622184753,-0.356286883354187
1710953608361163500,21.04516357421875,0.04222602769732475,-0.3214675784111023,-0.36025750637054443
1710953608380122000,21.0641220703125,0.11888955533504486,-0.1928805559873581,-0.3092502951622009
1710953608399080400,21.08308056640625,0.24167338013648987,-0.08628465235233307,-0.2585485279560089
1710953608418039000,21.1020390625,0.34552037715911865,-0.0386371985077858,-0.2393062710762024
1710953608436997600,21.12099755859375,0.3876700699329376,-0.040775224566459656,-0.22769984602928162
1710953608455956200,21.139956298828125,0.3895026445388794,-0.04413498193025589,-0.18127411603927612
1710953608474914800,21.158914794921873,0.3788125216960907,-0.09789107739925385,-0.13271036744117737
1710953608493873400,21.177873291015626,0.3366628587245941,-0.28267768025398254,-0.16814053058624268
1710953608512832000,21.19683203125,0.21540619432926178,-0.5187768936157227,-0.2942841053009033
1710953608531790600,21.21579052734375,0.033368486911058426,-0.6858484148979187,-0.3920224606990814
1710953608550749200,21.234749267578124,-0.08391755074262619,-0.7246383428573608,-0.4124864339828491
1710953608569707500,21.25370751953125,-0.07658717036247253,-0.6666061878204346,-0.40485063195228577
1710953608588666000,21.272666015625,0.014737112447619438,-0.5273290276527405,-0.3966039717197418
1710953608607624700,21.291624755859374,0.1222493126988411,-0.33948808908462524,-0.3623955249786377
1710953608626583300,21.310583251953126,0.2041051983833313,-0.23594652116298676,-0.2893971800804138
1710953608645542000,21.3295419921875,0.24289511144161224,-0.27656903862953186,-0.19929464161396027
1710953608664500500,21.34850048828125,0.2193768173456192,-0.3868301212787628,-0.11316270381212234
1710953608683459000,21.367458984375,0.1677587330341339,-0.4754055142402649,-0.046883873641490936
1710953608702417700,21.386417724609377,0.1417969912290573,-0.522442102432251,-0.004428769461810589
1710953608721376300,21.405376220703126,0.1170569658279419,-0.5291616320610046,0.023365577682852745
1710953608740334600,21.42433447265625,0.07857248187065125,-0.4848739206790924,0.058795735239982605
1710953608759293400,21.44329345703125,0.029397867619991302,-0.4066832363605499,0.0902552679181099
1710953608778252000,21.462251953125,-0.03962985426187515,-0.3685041666030884,0.09880737960338593
1710953608797210400,21.48121044921875,-0.15141810476779938,-0.40576693415641785,0.08933897316455841
1710953608816169200,21.500169189453125,-0.2833648920059204,-0.4445568323135376,0.10461059212684631
1710953608835127600,21.51912744140625,-0.3493382930755615,-0.37583455443382263,0.1360701322555542
1710953608854086100,21.538086181640626,-0.3084103465080261,-0.1876882016658783,0.21517711877822876
1710953608873044700,21.557044677734375,-0.28122687339782715,0.02367101050913334,0.3352120518684387
1710953608892003300,21.57600341796875,-0.3746891915798187,0.16325360536575317,0.45280352234840393
1710953608910962000,21.5949619140625,-0.48708829283714294,0.3605629503726959,0.4943423271179199
1710953608929920500,21.61392041015625,-0.46021026372909546,0.6134609580039978,0.4451677203178406
1710953608948879000,21.632879150390625,-0.2723693251609802,0.7765618562698364,0.3202458620071411
1710953608967837700,21.651837646484374,-0.012446369975805283,0.7918334603309631,0.18860450387001038
1710953608986796300,21.67079638671875,0.18180863559246063,0.6440041661262512,0.1107192412018776
1710953609005755000,21.6897548828125,0.23281583189964294,0.37430739402770996,0.09880737960338593
1710953609024713500,21.70871337890625,0.1677587330341339,0.050549060106277466,0.12996147572994232
1710953609043672000,21.727672119140625,0.06391172856092453,-0.2646571695804596,0.1776089370250702
1710953609062630700,21.746630615234373,-0.007864884100854397,-0.5749764442443848,0.18585561215877533
1710953609081589000,21.765589111328126,-0.03474293276667595,-0.8092431426048279,0.13698641955852509
1710953609100547800,21.7845478515625,-0.04298960790038109,-0.9078977704048157,0.053603384643793106
1710953609119506200,21.803506103515623,-0.01672242395579815,-0.8914044499397278,-0.04566214233636856
1710953609138465000,21.822465087890624,0.05230529606342316,-0.8022181987762451,-0.15225805342197418
1710953609157423400,21.84142333984375,0.15065452456474304,-0.6455313563346863,-0.24480405449867249
1710953609176382000,21.8603818359375,0.23373213410377502,-0.45616328716278076,-0.30741769075393677
1710953609195340500,21.879340576171874,0.23067781329154968,-0.2897026240825653,-0.31383177638053894
1710953609214299100,21.898299072265626,0.12927426397800446,-0.08750637620687485,-0.24174973368644714
1710953609233257700,21.9172578125,0.004352411720901728,0.12904518842697144,-0.1153007298707962
1710953609252216300,21.93621630859375,-0.050319984555244446,0.27198755741119385,-0.01908952370285988
1710953609271175000,21.9551748046875,-0.012140937149524689,0.33337944746017456,0.016340631991624832
1710953609290133500,21.974133544921877,0.05658135190606117,0.33887723088264465,0.024892739951610565
1710953609309092000,21.993092041015625,0.10331250727176666,0.32788166403770447,0.056657709181308746
1710953609328050700,22.01205078125,0.11125374585390091,0.3110828995704651,0.12721258401870728
1710953609347009300,22.03100927734375,0.070631243288517,0.351705402135849,0.20601414144039154
1710953609365968000,22.0499677734375,0.036422811448574066,0.5548179149627686,0.2600756883621216
1710953609384926700,22.0689267578125,0.06757691502571106,0.9179770350456238,0.2845102846622467
1710953609403885000,22.087885009765625,0.02909243479371071,1.2933534383773804,0.3092502951622009
1710953609422844000,22.106843994140625,-0.09063705801963806,1.4784455299377441,0.32421648502349854
1710953609441802200,22.12580224609375,-0.15783219039440155,1.4650064706802368,0.2893971800804138
1710953609460761000,22.144760986328127,-0.16180281341075897,1.2649482488632202,0.19654574990272522
1710953609479719400,22.163719482421875,-0.14653119444847107,0.9283617734909058,0.04321868345141411
1710953609498678300,22.18267822265625,-0.1346193253993988,0.5236638188362122,-0.14309507608413696
1710953609517636600,22.20163671875,-0.14194969832897186,0.14859285950660706,-0.2735147178173065
1710953609536595500,22.220595458984373,-0.13614648580551147,-0.10644318908452988,-0.3006981909275055
1710953609555553800,22.2395537109375,-0.09338594973087311,-0.18829907476902008,-0.25060728192329407
1710953609574512600,22.2585126953125,-0.04604393243789673,-0.15256348252296448,-0.1870773434638977
1710953609593471200,22.27747119140625,-0.036880962550640106,-0.03436114266514778,-0.14706569910049438
1710953609612429800,22.296429931640624,-0.036880962550640106,0.10216713696718216,-0.12812888622283936
1710953609631388400,22.315388427734376,-0.03413207083940506,0.27656903862953186,-0.10888664424419403
1710953609650347000,22.334346923828125,-0.03962985426187515,0.4647153913974762,-0.06704241037368774
1710953609669305600,22.3533056640625,-0.026801692321896553,0.6586649417877197,-0.004734201822429895
1710953609688264200,22.37226416015625,0.02909243479371071,0.7945823669433594,0.05604684352874756
1710953609707222800,22.391222900390623,0.11125374585390091,0.8306233882904053,0.10155627131462097
1710953609726181400,22.410181396484376,0.17905974388122559,0.780837893486023,0.1360701322555542
1710953609745140000,22.429139892578124,0.20502148568630219,0.6702713966369629,0.15286891162395477
1710953609764098600,22.4480986328125,0.17997603118419647,0.53221595287323,0.1455385386943817
1710953609783057200,22.46705712890625,0.11950042098760605,0.40088000893592834,0.12140937149524689
1710953609802015700,22.486015625,0.055970486253499985,0.29214608669281006,0.0948367565870285
1710953609820974300,22.504974365234375,0.021151192486286163,0.20112723112106323,0.0798705667257309
1710953609839933000,22.523932861328124,0.008933897130191326,0.11102467030286789,0.07254019379615784
1710953609858891500,22.5428916015625,0.01259908638894558,0.033139415085315704,0.06490438431501389
1710953609877850000,22.56185009765625,0.02023489587008953,-0.04841103404760361,0.05787943676114082
1710953609896809000,22.58080908203125,0.019624030217528343,-0.141262486577034,0.05849030241370201
1710953609915767600,22.599767578125,0.010766491293907166,-0.2441931962966919,0.06154462695121765
1710953609934726100,22.61872607421875,-0.0011453714687377214,-0.3272708058357239,0.07101303339004517
1710953609953684700,22.637684814453124,-0.017333287745714188,-0.34926193952560425,0.0743727833032608
1710953609972643300,22.656643310546876,-0.032910339534282684,-0.310166597366333,0.06307178735733032
1710953609991602000,22.675601806640625,-0.04329504072666168,-0.22708898782730103,0.02000582218170166
1710953610010560500,22.694560546875,-0.04604393243789673,-0.15989385545253754,-0.03955349326133728
1710953610029519000,22.71351904296875,-0.03107774630188942,-0.11621702462434769,-0.07162389904260635
1710953610048478000,22.73247802734375,0.01259908638894558,-0.08048143237829208,-0.11896591633558273
1710953610067436300,22.751436279296875,0.07154753804206848,-0.08017600327730179,-0.20601414144039154
1710953610086395100,22.77039501953125,0.10209077596664429,-0.07620538026094437,-0.2744309902191162
1710953610105353700,22.789353759765625,0.11247547715902328,0.026419902220368385,-0.2835939824581146
1710953610124312300,22.808312255859374,0.12499820441007614,0.1870773434638977,-0.2637408673763275
1710953610143271000,22.82727099609375,0.14424043893814087,0.3016144931316376,-0.24205516278743744
1710953610162229500,22.8462294921875,0.1476002037525177,0.35353797674179077,-0.233503058552742
1710953610181188000,22.86518798828125,0.1582903414964676,0.34315329790115356,-0.2744309902191162
1710953610200146700,22.884146728515624,0.2044106274843216,0.30222535133361816,-0.3926333487033844
1710953610219105500,22.90310546875,0.2862665057182312,0.31230461597442627,-0.6195695996284485
1710953610238064000,22.922064208984374,0.4463130831718445,0.39141160249710083,-0.8804088830947876
1710953610257022700,22.941022705078126,0.7028762698173523,0.5792525410652161,-1.0826051235198975
1710953610275981300,22.959981201171875,0.9850957989692688,0.8064942359924316,-1.2096649408340454
1710953610294940000,22.97893994140625,1.1692715883255005,1.0648900270462036,-1.1937824487686157
1710953610313898500,22.9978984375,1.1118502616882324,1.2179116010665894,-0.9882264733314514
1710953610332857300,23.016857421875,0.8632283210754395,1.0551161766052246,-0.7591522336006165
1710953610351816000,23.03581591796875,0.5944477915763855,0.6201804876327515,-0.6278162598609924
1710953610370774500,23.0547744140625,0.4808269441127777,-0.002901607658714056,-0.5862774848937988
1710953610389733000,23.073733154296875,0.4713585376739502,-0.6302597522735596,-0.5914698243141174
1710953610408691700,23.092691650390623,0.44173160195350647,-1.1339176893234253,-0.5761982202529907
1710953610427650300,23.111650390625,0.399887353181839,-1.5273146629333496,-0.5358811020851135
1710953610446609000,23.13060888671875,0.37270388007164,-1.7319543361663818,-0.48181959986686707
1710953610465567700,23.149567626953125,0.3470475673675537,-1.6922481060028076,-0.38988444209098816
1710953610484526300,23.1685263671875,0.30856308341026306,-1.4399609565734863,-0.2649625837802887
1710953610503485000,23.18748486328125,0.25847217440605164,-1.0276272296905518,-0.11927134543657303
1710953610522443500,23.206443603515623,0.21540619432926178,-0.5312996506690979,0.03527744114398956
1710953610541402000,23.225402099609376,0.18547381460666656,-0.03588830679655075,0.16783510148525238
1710953610560361000,23.24436083984375,0.1582903414964676,0.32879796624183655,0.27168211340904236
1710953610579319600,23.263319580078125,0.12774710357189178,0.4955640435218811,0.342542439699173
1710953610598278100,23.282278076171874,0.08956804871559143,0.495258629322052,0.37003132700920105
