time,seconds_elapsed,z,y,x
1707006807954050300,0.10105029296875,0.24885354936122894,9.467203140258789,2.190629243850708
1707006807973010200,0.12001025390625,0.23808585107326508,9.474381446838379,2.3988046646118164
1707006807991969800,0.1389697265625,0.22372891008853912,9.379864692687988,2.6356940269470215
1707006808010929400,0.157929443359375,0.2356930375099182,9.403793334960938,2.6967110633850098
1707006808029889000,0.176888916015625,0.22492532432079315,9.414560317993164,2.7122645378112793
1707006808048848600,0.1958486328125,0.2991028428077698,9.34157943725586,2.737389087677002
1707006808067808300,0.214808349609375,0.3074777126312256,9.29731273651123,2.715853691101074
1707006808086767900,0.233767822265625,0.27397820353507996,9.34875774383545,2.606980323791504
1707006808105727500,0.2527275390625,0.25004997849464417,9.408578872680664,2.4717857837677
1707006808124687000,0.27168701171875,0.2476571500301361,9.464810371398926,2.438286304473877
1707006808143646700,0.290646728515625,0.23688943684101105,9.433703422546387,2.4873390197753906
1707006808162606600,0.309606689453125,0.21655045449733734,9.396614074707031,2.482553482055664
1707006808181566000,0.32856591796875,0.1746760457754135,9.387042999267578,2.526820659637451
1707006808200525600,0.347525634765625,0.20338992774486542,9.477970123291016,2.6536402702331543
1707006808219485400,0.3664853515625,0.22133609652519226,9.476774215698242,2.792423963546753
1707006808238444800,0.38544482421875,0.3684946894645691,9.418149948120117,2.878565549850464
1707006808257404700,0.40440478515625,0.4666004180908203,9.322437286376953,2.830709218978882
1707006808276364300,0.4233642578125,0.3601198196411133,9.267401695251465,2.691925525665283
1707006808295323600,0.44232373046875,0.0933200865983963,9.42054271697998,2.537588357925415
1707006808314283500,0.461283447265625,0.09212367236614227,9.586843490600586,2.4646072387695312
1707006808333243100,0.4802431640625,0.24406790733337402,9.455238342285156,2.5160529613494873
1707006808352202800,0.49920263671875,0.33499518036842346,9.238688468933105,2.5351955890655518
1707006808371162400,0.518162353515625,0.381655216217041,9.293723106384277,2.599801778793335
1707006808390122000,0.5371220703125,0.28953152894973755,9.354740142822266,2.647658348083496
1707006808409081600,0.55608154296875,0.26919254660606384,9.33320426940918,2.6452653408050537
1707006808428041200,0.575041259765625,0.30149564146995544,9.29611587524414,2.606980323791504
1707006808447000800,0.594000732421875,0.2356930375099182,9.317651748657227,2.5734808444976807
1707006808465960400,0.61296044921875,0.11844471842050552,9.379864692687988,2.5842485427856445
1707006808484920000,0.631920166015625,0.12921242415905,9.416953086853027,2.548356056213379
1707006808503879700,0.650879638671875,0.22013968229293823,9.432506561279297,2.524427890777588
1707006808522839300,0.66983935546875,0.3601198196411133,9.388239860534668,2.5196423530578613
1707006808541799000,0.688798828125,0.41515472531318665,9.32722282409668,2.5184457302093506
1707006808560758500,0.707758544921875,0.3074777126312256,9.33440113067627,2.550748825073242
1707006808579718100,0.72671826171875,0.23210379481315613,9.365508079528809,2.53399920463562
1707006808598677800,0.745677734375,0.17228323221206665,9.4121675491333,2.4921247959136963
1707006808617637400,0.764637451171875,0.20937198400497437,9.395418167114258,2.4670002460479736
1707006808636597000,0.783596923828125,0.12681959569454193,9.454042434692383,2.475374937057495
1707006808655556600,0.802556640625,0.0849452018737793,9.480362892150879,2.4598217010498047
1707006808674516200,0.82151611328125,0.1423729509115219,9.43609619140625,2.4131617546081543
1707006808693475800,0.840475830078125,0.23449662327766418,9.353543281555176,2.368894338607788
1707006808712435500,0.859435546875,0.259621262550354,9.379864692687988,2.4131617546081543
1707006808731395000,0.87839501953125,0.2021935135126114,9.426525115966797,2.480160713195801
1707006808750354700,0.897354736328125,0.14715859293937683,9.410971641540527,2.4741785526275635
1707006808769314300,0.916314208984375,0.11246266216039658,9.403793334960938,2.3976082801818848
1707006808788274000,0.93527392578125,0.16510476171970367,9.45164966583252,2.311466693878174
1707006808807233500,0.954233642578125,0.17706887423992157,9.468399047851562,2.2755744457244873
1707006808826193200,0.973193115234375,0.24646073579788208,9.480362892150879,2.228914260864258
1707006808845152800,0.99215283203125,0.1543370634317398,9.432506561279297,2.2193429470062256
1707006808864112400,1.0111123046875,0.04546362906694412,9.57607650756836,2.2157537937164307
1707006808883072000,1.030072021484375,0.08973085135221481,9.644271850585938,2.2169501781463623
1707006808902031600,1.049031494140625,0.14117653667926788,9.482755661010742,2.2911276817321777
1707006808920991200,1.0679912109375,0.22013968229293823,9.418149948120117,2.228914260864258
1707006808939950800,1.086950927734375,0.2584248483181,9.463613510131836,2.1822543144226074
1707006808958910500,1.105910400390625,0.1782652884721756,9.525827407836914,2.1547367572784424
1707006808977870000,1.1248701171875,0.09810572862625122,9.521040916442871,2.179861545562744
1707006808996829700,1.14382958984375,0.10648060590028763,9.482755661010742,2.149951219558716
1707006809015789300,1.162789306640625,0.15074782073497772,9.467203140258789,2.1056840419769287
1707006809034749000,1.1817490234375,0.18065811693668365,9.493523597717285,2.159522533416748
1707006809053708500,1.20070849609375,0.14715859293937683,9.517452239990234,2.234896421432495
1707006809072668200,1.219668212890625,0.16151553392410278,9.591629981994629,2.172683000564575
1707006809091627800,1.238627685546875,0.14117653667926788,9.608379364013672,2.1200408935546875
1707006809110587400,1.25758740234375,0.19621145725250244,9.58325481414795,2.0889341831207275
1707006809129547000,1.276547119140625,0.20578274130821228,9.562915802001953,2.183450698852539
1707006809148506600,1.295506591796875,0.16271193325519562,9.501898765563965,2.276770830154419
1707006809167466200,1.31446630859375,0.14476576447486877,9.546165466308594,2.276770830154419
1707006809186425900,1.33342578125,0.16151553392410278,9.580862045288086,2.276770830154419
1707006809205385500,1.352385498046875,0.17347964644432068,9.475577354431152,2.2983062267303467
1707006809224345000,1.371344970703125,0.18903298676013947,9.440881729125977,2.3126630783081055
1707006809243304700,1.3903046875,0.13519448041915894,9.45882797241211,2.2683959007263184
1707006809262264600,1.4092646484375,0.061016976833343506,9.549755096435547,2.204986095428467
1707006809281224200,1.42822412109375,0.064606212079525,9.588040351867676,2.204986095428467
1707006809300183800,1.447183837890625,0.1339980661869049,9.517452239990234,2.194218397140503
1707006809319143400,1.466143310546875,0.17228323221206665,9.41336441040039,2.2133610248565674
1707006809338103000,1.48510302734375,0.17108681797981262,9.44447135925293,2.2636101245880127
1707006809357062700,1.504062744140625,0.12442677468061447,9.488738059997559,2.2648067474365234
1707006809376022300,1.523022216796875,0.15314064919948578,9.554540634155273,2.2947168350219727
1707006809394982000,1.54198193359375,0.2787638306617737,9.44447135925293,2.324627161026001
1707006809413941500,1.56094140625,0.22612173855304718,9.343972206115723,2.400001049041748
1707006809432901000,1.579901123046875,0.1663011759519577,9.53779125213623,2.441875457763672
1707006809451860700,1.59886083984375,0.16510476171970367,9.57607650756836,2.486142635345459
1707006809470820600,1.617820556640625,0.20817556977272034,9.448060035705566,2.4430718421936035
1707006809489780200,1.6367802734375,0.3170489966869354,9.360722541809082,2.389233350753784
1707006809508739800,1.65573974609375,0.31465616822242737,9.422935485839844,2.352144718170166
1707006809527699500,1.674699462890625,0.2309073805809021,9.482755661010742,2.348555326461792
1707006809546659000,1.6936591796875,0.15912270545959473,9.378668785095215,2.3712873458862305
1707006809565618700,1.71261865234375,0.1459621787071228,9.281759262084961,2.3437697887420654
1707006809584578300,1.731578369140625,0.13639089465141296,9.328418731689453,2.423929452896118
1707006809603538000,1.750537841796875,0.12203395366668701,9.431310653686523,2.5088746547698975
1707006809622497500,1.76949755859375,0.1746760457754135,9.45045280456543,2.5567309856414795
1707006809641457400,1.78845751953125,0.25244277715682983,9.383454322814941,2.56510591506958
1707006809660417000,1.8074169921875,0.28953152894973755,9.373882293701172,2.4921247959136963
1707006809679376600,1.826376708984375,0.2715853750705719,9.433703422546387,2.4502503871917725
1707006809698336300,1.845336181640625,0.23449662327766418,9.424132347106934,2.358126640319824
1707006809717295900,1.8642958984375,0.24406790733337402,9.45763111114502,2.2432711124420166
1707006809736255700,1.883255859375,0.20338992774486542,9.468399047851562,2.148754835128784
1707006809755215000,1.902215087890625,0.13280165195465088,9.456435203552246,2.1403799057006836
1707006809774175000,1.921175048828125,0.09451649338006973,9.452845573425293,2.1643080711364746
1707006809793134600,1.940134521484375,0.08135596662759781,9.402596473693848,2.2241287231445312
1707006809812094200,1.95909423828125,0.15074782073497772,9.408578872680664,2.282752752304077
1707006809831053800,1.9780537109375,0.17587246000766754,9.409774780273438,2.3880369663238525
1707006809850013400,1.997013427734375,0.19980068504810333,9.369096755981445,2.4335005283355713
1707006809868973300,2.015973388671875,0.20817556977272034,9.424132347106934,2.3784656524658203
1707006809887933000,2.034932861328125,0.18424734473228455,9.470791816711426,2.4011974334716797
1707006809906892500,2.053892578125,0.18424734473228455,9.547362327575684,2.416750907897949
1707006809925852200,2.07285205078125,0.15314064919948578,9.53659439086914,2.4155545234680176
1707006809944811800,2.091811767578125,0.22612173855304718,9.598808288574219,2.3533411026000977
1707006809963771400,2.110771484375,0.24406790733337402,9.45045280456543,2.313859462738037
1707006809982731300,2.129731201171875,0.09810572862625122,9.360722541809082,2.33180570602417
1707006810001691000,2.14869091796875,-0.02751746028661728,9.600004196166992,2.2983062267303467
1707006810020650500,2.167650390625,0.040677983313798904,9.56650447845459,2.2576282024383545
1707006810039610000,2.186610107421875,0.137587308883667,9.408578872680664,2.3150558471679688
1707006810058569700,2.20556982421875,0.2584248483181,9.370293617248535,2.307877540588379
1707006810077529600,2.224529541015625,0.31345975399017334,9.419346809387207,2.3258235454559326
1707006810096489200,2.2434892578125,0.25244277715682983,9.433703422546387,2.3772692680358887
1707006810115448800,2.26244873046875,0.16151553392410278,9.377471923828125,2.3784656524658203
1707006810134408400,2.281408447265625,0.10169496387243271,9.388239860534668,2.3509483337402344
1707006810153368300,2.300368408203125,0.06340979784727097,9.445667266845703,2.379662036895752
1707006810172328000,2.319327880859375,0.1136590763926506,9.505488395690918,2.4047868251800537
1707006810191287600,2.33828759765625,0.14835500717163086,9.487542152404785,2.4670002460479736
1707006810210247200,2.3572470703125,0.22851456701755524,9.461220741271973,2.416750907897949
1707006810229206800,2.376206787109375,0.22971096634864807,9.487542152404785,2.389233350753784
1707006810248166700,2.395166748046875,0.3038884699344635,9.515059471130371,2.4095723628997803
1707006810267126300,2.414126220703125,0.27756741642951965,9.442078590393066,2.449054002761841
1707006810286086000,2.4330859375,0.2356930375099182,9.354740142822266,2.4574289321899414
1707006810305045500,2.45204541015625,0.16031911969184875,9.371489524841309,2.3676979541778564
1707006810324005000,2.471005126953125,0.1136590763926506,9.42173957824707,2.307877540588379
1707006810342965000,2.489965087890625,0.137587308883667,9.4660062789917,2.3054845333099365
1707006810361924600,2.508924560546875,0.21296121180057526,9.41336441040039,2.3509483337402344
1707006810380884200,2.52788427734375,0.2392822653055191,9.357132911682129,2.3820550441741943
1707006810399843800,2.54684375,0.22013968229293823,9.393025398254395,2.3808584213256836
1707006810418803700,2.5658037109375,0.23449662327766418,9.442078590393066,2.39401912689209
1707006810437763300,2.584763427734375,0.2189432680606842,9.504291534423828,2.3952155113220215
1707006810456723000,2.603722900390625,0.22133609652519226,9.533005714416504,2.4131617546081543
1707006810475682800,2.622682861328125,0.1818545162677765,9.492327690124512,2.321038007736206
1707006810494642200,2.64164208984375,0.1543370634317398,9.464810371398926,2.194218397140503
1707006810513602000,2.66060205078125,0.21296121180057526,9.4660062789917,2.1619153022766113
1707006810532561700,2.679561767578125,0.11844471842050552,9.330811500549316,2.2229323387145996
1707006810551521300,2.698521240234375,0.035892341285943985,9.509077072143555,2.2432711124420166
1707006810570481200,2.717481201171875,0.08614161610603333,9.622735977172852,2.2636101245880127
1707006810589440800,2.736440673828125,0.18544375896453857,9.446864128112793,2.3330020904541016
1707006810608400400,2.755400390625,0.32662028074264526,9.324830055236816,2.2755744457244873
1707006810627360000,2.774360107421875,0.35054850578308105,9.433703422546387,2.203789710998535
1707006810646319900,2.79331982421875,0.2476571500301361,9.598808288574219,2.194218397140503
1707006810665279500,2.812279541015625,0.1495514214038849,9.603593826293945,2.194218397140503
1707006810684239000,2.831239013671875,0.15672987699508667,9.467203140258789,2.1236300468444824
1707006810703199000,2.850198974609375,0.14835500717163086,9.448060035705566,2.043470621109009
1707006810722158600,2.86915869140625,0.13639089465141296,9.527023315429688,2.1032910346984863
1707006810741118200,2.8881181640625,0.06939185410737991,9.534201622009277,2.1846470832824707
1707006810760077800,2.907077880859375,0.13160525262355804,9.511469841003418,2.179861545562744
1707006810779037700,2.92603759765625,0.21655045449733734,9.468399047851562,2.194218397140503
1707006810797997300,2.944997314453125,0.26201409101486206,9.491130828857422,2.252842426300049
1707006810816957000,2.96395703125,0.29312077164649963,9.504291534423828,2.3808584213256836
1707006810835916800,2.982916748046875,0.24646073579788208,9.53061294555664,2.447857618331909
1707006810854876400,3.00187646484375,0.2548356056213379,9.53659439086914,2.469393014907837
1707006810873836000,3.0208359375,0.2189432680606842,9.489934921264648,2.423929452896118
1707006810892795600,3.039795654296875,0.18783657252788544,9.462417602539062,2.3844478130340576
1707006810911755500,3.058755615234375,0.18065811693668365,9.404989242553711,2.3700907230377197
1707006810930715100,3.077715087890625,0.1663011759519577,9.305686950683594,2.417947292327881
1707006810949674800,3.0966748046875,0.1543370634317398,9.391828536987305,2.4299113750457764
1707006810968634400,3.11563427734375,0.12323036789894104,9.448060035705566,2.389233350753784
1707006810987594200,3.13459423828125,0.14835500717163086,9.500701904296875,2.3461625576019287
1707006811006553900,3.153553955078125,0.1495514214038849,9.45763111114502,2.3437697887420654
1707006811025513500,3.172513427734375,0.16869398951530457,9.403793334960938,2.289931297302246
1707006811044473000,3.19147314453125,0.12083754688501358,9.474381446838379,2.2085752487182617
1707006811063432700,3.2104326171875,0.1579262912273407,9.600004196166992,2.2576282024383545
1707006811082392600,3.229392578125,0.17347964644432068,9.388239860534668,2.3234307765960693
1707006811101352200,3.248352294921875,0.13519448041915894,9.365508079528809,2.359323024749756
1707006811120312000,3.26731201171875,0.11485548317432404,9.45763111114502,2.3605196475982666
1707006811139271700,3.286271728515625,0.13878370821475983,9.54377269744873,2.427518606185913
1707006811158231300,3.305231201171875,0.1663011759519577,9.4660062789917,2.455035924911499
1707006811177191200,3.324191162109375,0.25722843408584595,9.371489524841309,2.420340061187744
1707006811196150800,3.34315087890625,0.2153540402650833,9.33320426940918,2.414358139038086
1707006811215110400,3.3621103515625,0.09690931439399719,9.401400566101074,2.3784656524658203
1707006811234070000,3.381070068359375,-0.0011964113218709826,9.418149948120117,2.256431818008423
1707006811253030000,3.40002978515625,0.040677983313798904,9.407382011413574,2.179861545562744
1707006811271989500,3.418989501953125,0.08733802288770676,9.45164966583252,2.2372891902923584
1707006811290949000,3.43794921875,0.11964113265275955,9.491130828857422,2.2791635990142822
1707006811309908700,3.45690869140625,0.18065811693668365,9.608379364013672,2.258824586868286
1707006811328868600,3.47586865234375,0.2309073805809021,9.629914283752441,2.1619153022766113
1707006811347828200,3.494828125,0.2153540402650833,9.649057388305664,2.0985054969787598
1707006811366787800,3.513787841796875,0.12083754688501358,9.650253295898438,2.0985054969787598
1707006811385747700,3.532747802734375,0.09571290761232376,9.633503913879395,2.2085752487182617
1707006811404707000,3.55170703125,0.11605189740657806,9.525827407836914,2.26959228515625
1707006811423667000,3.5706669921875,0.17587246000766754,9.473184585571289,2.344966173171997
1707006811442626600,3.58962646484375,0.17587246000766754,9.448060035705566,2.389233350753784
1707006811461586400,3.60858642578125,0.13040883839130402,9.45045280456543,2.42512583732605
1707006811480546000,3.627546142578125,0.10887342691421509,9.403793334960938,2.451446771621704
1707006811499505700,3.646505615234375,0.16869398951530457,9.433703422546387,2.3808584213256836
1707006811518465300,3.66546533203125,0.22851456701755524,9.477970123291016,2.3054845333099365
1707006811537425000,3.6844248046875,0.26560330390930176,9.463613510131836,2.2911276817321777
1707006811556384800,3.703384765625,0.2273181527853012,9.499505996704102,2.328216314315796
1707006811575344400,3.722344482421875,0.12921242415905,9.519845008850098,2.3641088008880615
1707006811594304000,3.741303955078125,0.10049854964017868,9.517452239990234,2.3330020904541016
1707006811613264000,3.760263916015625,0.21774685382843018,9.534201622009277,2.3676979541778564
1707006811632223500,3.779223388671875,0.2679961323738098,9.31884765625,2.3748764991760254
1707006811651183000,3.79818310546875,0.1579262912273407,9.32602596282959,2.342573404312134
1707006811670142700,3.817142822265625,0.05024927482008934,9.538987159729004,2.2719850540161133
1707006811689102600,3.8361025390625,0.09810572862625122,9.546165466308594,2.2671995162963867
1707006811708062200,3.855062255859375,0.2021935135126114,9.426525115966797,2.3090739250183105
1707006811727021800,3.874021728515625,0.36251261830329895,9.431310653686523,2.2947168350219727
1707006811745981700,3.892981689453125,0.3840480446815491,9.394221305847168,2.2671995162963867
1707006811764941300,3.91194140625,0.25244277715682983,9.400203704833984,2.252842426300049
1707006811783901000,3.93090087890625,0.18424734473228455,9.384650230407715,2.2157537937164307
1707006811802860500,3.949860595703125,0.07178468257188797,9.34277629852295,2.2097716331481934
1707006811821820400,3.9688203125,0.02632104977965355,9.382257461547852,2.1655044555664062
1707006811840780000,3.987780029296875,-0.04187439754605293,9.488738059997559,2.1403799057006836
1707006811859739600,4.00673974609375,0.039481572806835175,9.558130264282227,2.2085752487182617
1707006811878699300,4.02569921875,0.20937198400497437,9.469595909118652,2.2540390491485596
1707006811897659100,4.0446591796875,0.363709032535553,9.358329772949219,2.3126630783081055
1707006811916618800,4.06361865234375,0.349352091550827,9.404989242553711,2.3306093215942383
1707006811935578400,4.082578369140625,0.25244277715682983,9.476774215698242,2.313859462738037
1707006811954538000,4.1015380859375,0.16749759018421173,9.611968994140625,2.251646041870117
1707006811973497600,4.12049755859375,0.10648060590028763,9.56650447845459,2.196611166000366
1707006811992457500,4.13945751953125,0.038285162299871445,9.473184585571289,2.1128623485565186
1707006812011417000,4.1584169921875,-0.005982056725770235,9.476774215698242,2.087737798690796
1707006812030376700,4.177376708984375,0.04666004329919815,9.448060035705566,2.149951219558716
1707006812049336600,4.196336669921875,0.1495514214038849,9.424132347106934,2.3030917644500732
1707006812068296200,4.215296142578125,0.22492532432079315,9.410971641540527,2.5148565769195557
1707006812087255800,4.234255859375,0.26560330390930176,9.4660062789917,2.6141586303710938
1707006812106215400,4.25321533203125,0.28594231605529785,9.463613510131836,2.5567309856414795
1707006812125175300,4.27217529296875,0.34695929288864136,9.409774780273438,2.4406790733337402
1707006812144135000,4.291135009765625,0.37806597352027893,9.433703422546387,2.337787628173828
1707006812163094500,4.310094482421875,0.33738797903060913,9.462417602539062,2.2444677352905273
1707006812182054100,4.32905419921875,0.13280165195465088,9.365508079528809,2.181057929992676
1707006812201013800,4.348013671875,-0.061016976833343506,9.516255378723145,2.1571295261383057
1707006812219973600,4.3669736328125,-0.06340979784727097,9.616754531860352,2.169093608856201
1707006812238933200,4.385933349609375,0.010767702013254166,9.516255378723145,2.352144718170166
1707006812257892900,4.404892822265625,0.24287149310112,9.332008361816406,2.3808584213256836
1707006812276852500,4.4238525390625,0.3756731450557709,9.393025398254395,2.334198474884033
1707006812295812000,4.44281201171875,0.26560330390930176,9.479166984558105,2.3473589420318604
1707006812314772000,4.46177197265625,0.09212367236614227,9.507881164550781,2.2707886695861816
1707006812333731600,4.480731689453125,0.020338991656899452,9.407382011413574,2.1571295261383057
1707006812352691200,4.499691162109375,0.02632104977965355,9.409774780273438,2.049452543258667
1707006812371651000,4.518651123046875,-0.040677983313798904,9.499505996704102,2.1200408935546875
1707006812390610700,4.537610595703125,-0.004785645287483931,9.586843490600586,2.227717876434326
1707006812409570300,4.5565703125,0.061016976833343506,9.573683738708496,2.324627161026001
1707006812428530000,4.575530029296875,0.19381862878799438,9.500701904296875,2.33180570602417
1707006812447489500,4.594489501953125,0.26919254660606384,9.488738059997559,2.383251428604126
1707006812466449200,4.61344921875,0.26919254660606384,9.464810371398926,2.4430718421936035
1707006812485409000,4.632408935546875,0.1663011759519577,9.432506561279297,2.458625316619873
1707006812504368600,4.65136865234375,0.13639089465141296,9.462417602539062,2.4083759784698486
1707006812523328300,4.670328369140625,0.1459621787071228,9.452845573425293,2.3509483337402344
1707006812542288000,4.689287841796875,0.0849452018737793,9.482755661010742,2.3294129371643066
1707006812561247500,4.70824755859375,0.040677983313798904,9.507881164550781,2.266003131866455
1707006812580207400,4.727207275390625,0.007178467698395252,9.573683738708496,2.093719720840454
1707006812599167000,4.7461669921875,0.038285162299871445,9.625128746032715,1.9417755603790283
1707006812618126600,4.765126708984375,0.02392822690308094,9.591629981994629,1.8711873292922974
1707006812637086200,4.784086181640625,0.02751746028661728,9.516255378723145,1.8771693706512451
1707006812656045800,4.8030458984375,-0.020338991656899452,9.485149383544922,1.8867406845092773
1707006812675005400,4.82200537109375,-0.02273181453347206,9.550951957702637,1.9334007501602173
1707006812693965300,4.84096533203125,0.07657032459974289,9.407382011413574,2.053041934967041
1707006812712925000,4.859925048828125,0.10648060590028763,9.384650230407715,2.1714866161346436
1707006812731884500,4.878884521484375,0.12442677468061447,9.66102123260498,2.3258235454559326
1707006812750844200,4.89784423828125,0.20458634197711945,9.667003631591797,2.390429735183716
1707006812769803800,4.9168037109375,0.27756741642951965,9.498309135437012,2.33180570602417
1707006812788763600,4.935763671875,0.33379876613616943,9.522237777709961,2.097309112548828
1707006812807723300,4.95472314453125,0.19621145725250244,9.66102123260498,1.994417667388916
1707006812826683000,4.973682861328125,0.010767702013254166,9.7064847946167,1.9094724655151367
1707006812845642500,4.992642578125,-0.008374879136681557,9.56052303314209,1.7826528549194336
1707006812864602000,5.01160205078125,0.03469592705368996,9.42173957824707,1.6474584341049194
1707006812883562000,5.03056201171875,0.02632104977965355,9.449256896972656,1.786242127418518
1707006812902521600,5.049521484375,-0.020338991656899452,9.507881164550781,1.9812572002410889
1707006812921481200,5.068481201171875,0.029910283163189888,9.559326171875,2.152343988418579
1707006812940440800,5.08744091796875,0.17347964644432068,9.542576789855957,2.287538528442383
1707006812959400400,5.106400390625,0.32303106784820557,9.479166984558105,2.3617160320281982
1707006812978360300,5.1253603515625,0.3577269911766052,9.492327690124512,2.441875457763672
1707006812997320000,5.14431982421875,0.31345975399017334,9.489934921264648,2.50289249420166
1707006813016279600,5.163279541015625,0.22612173855304718,9.483952522277832,2.4526431560516357
1707006813035239200,5.1822392578125,0.16510476171970367,9.485149383544922,2.366501569747925
1707006813054198800,5.20119873046875,0.07776673883199692,9.53779125213623,2.2671995162963867
1707006813073158700,5.22015869140625,0.038285162299871445,9.592825889587402,2.210968017578125
1707006813092118300,5.2391181640625,-0.013160524889826775,9.586843490600586,2.2301106452941895
1707006813111078000,5.258077880859375,0.007178467698395252,9.522237777709961,2.214557409286499
1707006813130037500,5.27703759765625,0.04426721855998039,9.495916366577148,2.1774685382843018
1707006813148997000,5.2959970703125,0.05144568532705307,9.487542152404785,2.173879384994507
1707006813167957000,5.31495703125,0.09571290761232376,9.477970123291016,2.1858434677124023
1707006813186916600,5.33391650390625,0.13280165195465088,9.462417602539062,2.1750757694244385
1707006813205876200,5.352876220703125,0.1950150430202484,9.395418167114258,2.2360928058624268
1707006813224835800,5.3718359375,0.06939185410737991,9.221938133239746,2.2301106452941895
1707006813243795700,5.390795654296875,-0.014356935396790504,9.456435203552246,2.181057929992676
1707006813262755300,5.40975537109375,-0.02512463741004467,9.665806770324707,2.094916343688965
1707006813281715000,5.42871484375,0,9.533005714416504,2.097309112548828
1707006813300674600,5.447674560546875,0.1256231814622879,9.358329772949219,1.9968105554580688
1707006813319634200,5.46663427734375,0.1746760457754135,9.346364974975586,1.9310078620910645
1707006813338594000,5.485593994140625,0.1495514214038849,9.43489933013916,1.9992033243179321
1707006813357553700,5.5045537109375,0.040677983313798904,9.494720458984375,2.181057929992676
1707006813376513300,5.52351318359375,0.06580262631177902,9.33320426940918,2.2205393314361572
1707006813395473200,5.54247314453125,0.1256231814622879,9.30449104309082,2.204986095428467
1707006813414432800,5.561432861328125,0.05623133108019829,9.422935485839844,2.255235433578491
1707006813433392400,5.580392333984375,0,9.555737495422363,2.2468605041503906
1707006813452352000,5.59935205078125,0.07776673883199692,9.590433120727539,2.1858434677124023
1707006813471311600,5.6183115234375,0.1579262912273407,9.500701904296875,2.108076810836792
1707006813490271500,5.637271484375,0.14476576447486877,9.471988677978516,2.093719720840454
1707006813509231000,5.656231201171875,0.08015955984592438,9.510273933410645,2.1164517402648926
1707006813528190700,5.675190673828125,0.02153540402650833,9.579665184020996,2.172683000564575
1707006813547150300,5.694150390625,0.020338991656899452,9.534201622009277,2.245664119720459
1707006813566110200,5.713110107421875,0.0011964113218709826,9.499505996704102,2.2779672145843506
1707006813585069800,5.73206982421875,0.019142581149935722,9.56650447845459,2.276770830154419
1707006813604029400,5.751029541015625,0.05383851006627083,9.52941608428955,2.251646041870117
1707006813622989000,5.769989013671875,0.09451649338006973,9.53779125213623,2.181057929992676
1707006813641949000,5.788948974609375,0.09690931439399719,9.522237777709961,2.218146562576294
1707006813660908500,5.807908447265625,0.061016976833343506,9.480362892150879,2.2636101245880127
1707006813679868200,5.8268681640625,0.014356935396790504,9.463613510131836,2.273181438446045
1707006813698828000,5.845828125,0.02632104977965355,9.506684303283691,2.252842426300049
1707006813717787600,5.86478759765625,0.1746760457754135,9.548559188842773,2.2671995162963867
1707006813736747300,5.883747314453125,0.23449662327766418,9.381061553955078,2.2648067474365234
1707006813755707000,5.902706787109375,0.1495514214038849,9.414560317993164,2.348555326461792
1707006813774666800,5.921666748046875,0.05503492057323456,9.629914283752441,2.3054845333099365
1707006813793626400,5.94062646484375,0.0933200865983963,9.67777156829834,2.245664119720459
1707006813812586000,5.9595859375,0.20937198400497437,9.57487964630127,2.214557409286499
1707006813831545900,5.9785458984375,0.3601198196411133,9.512666702270508,2.1475582122802734
1707006813850505500,5.99750537109375,0.36729827523231506,9.491130828857422,2.2133610248565674
1707006813869465000,6.016465087890625,0.2871387302875519,9.449256896972656,2.266003131866455
1707006813888424700,6.0354248046875,0.2273181527853012,9.402596473693848,2.2157537937164307
1707006813907384600,6.054384521484375,0.20458634197711945,9.387042999267578,2.181057929992676
1707006813926344200,6.07334423828125,0.12681959569454193,9.482755661010742,2.225325107574463
1707006813945304000,6.092303955078125,0.05024927482008934,9.546165466308594,2.225325107574463
1707006813964263700,6.111263671875,0.08853443711996078,9.507881164550781,2.1308085918426514
1707006813983223300,6.130223388671875,0.19621145725250244,9.438488960266113,2.042274236679077
1707006814002183000,6.149182861328125,0.2512463629245758,9.376275062561035,2.032702922821045
1707006814021142800,6.168142822265625,0.23210379481315613,9.477970123291016,2.093719720840454
1707006814040102400,6.187102294921875,0.13639089465141296,9.57607650756836,2.094916343688965
1707006814059062000,6.20606201171875,0.06819544732570648,9.625128746032715,2.0614166259765625
1707006814078022000,6.22502197265625,0.07058826833963394,9.617950439453125,2.001596212387085
1707006814096981500,6.2439814453125,0.10049854964017868,9.626325607299805,2.0003998279571533
1707006814115941400,6.26294140625,0.15553347766399384,9.578469276428223,1.9680966138839722
1707006814134901000,6.28190087890625,0.20937198400497437,9.488738059997559,1.923829436302185
1707006814153860600,6.300860595703125,0.16031911969184875,9.45164966583252,1.9166508913040161
1707006814172820200,6.3198203125,0.09451649338006973,9.53061294555664,1.9166508913040161
1707006814191780000,6.338780029296875,0.06340979784727097,9.623932838439941,1.9980069398880005
1707006814210739700,6.35773974609375,0.06340979784727097,9.594022750854492,1.9884356260299683
1707006814229699600,6.376699462890625,0.15672987699508667,9.571290969848633,2.0159530639648438
1707006814248659200,6.3956591796875,0.16151553392410278,9.354740142822266,2.0506489276885986
1707006814267618800,6.414618896484375,0.11485548317432404,9.42772102355957,2.115255117416382
1707006814286578400,6.433578369140625,0.18783657252788544,9.620343208312988,2.2025933265686035
1707006814305538300,6.452538330078125,0.2512463629245758,9.638289451599121,2.231307029724121
1707006814324498000,6.471497802734375,0.33858439326286316,9.549755096435547,2.1296122074127197
1707006814343457800,6.490457763671875,0.397208571434021,9.452845573425293,2.00518536567688
1707006814362417400,6.50941748046875,0.2763710021972656,9.509077072143555,1.9956140518188477
1707006814381377000,6.528376953125,0.13998012244701385,9.603593826293945,2.0063817501068115
1707006814400337000,6.5473369140625,0.12083754688501358,9.605986595153809,1.9573289155960083
1707006814419296500,6.566296630859375,0.19262222945690155,9.631111145019531,1.9154545068740845
1707006814438256400,6.58525634765625,0.19381862878799438,9.613164901733398,1.919043779373169
1707006814457216000,6.604216064453125,0.20817556977272034,9.742377281188965,1.8771693706512451
1707006814476175600,6.623175537109375,0.2069791555404663,9.927821159362793,1.7874385118484497
1707006814495135500,6.642135498046875,0.25722843408584595,9.972088813781738,1.643869161605835
1707006814514095000,6.66109521484375,0.32542386651039124,9.844072341918945,1.6845471858978271
1707006814533054700,6.6800546875,0.3445664644241333,9.774680137634277,1.805384635925293
1707006814552014600,6.6990146484375,0.44386860728263855,9.600004196166992,1.9728822708129883
1707006814570974200,6.71797412109375,0.623330295085907,9.253045082092285,2.0685951709747314
1707006814589934000,6.73693408203125,0.8099704384803772,9.002995491027832,2.179861545562744
1707006814608893700,6.755893798828125,0.8973084688186646,9.110671997070312,2.234896421432495
1707006814627853600,6.774853515625,0.6867401003837585,9.663414001464844,2.242074728012085
1707006814646813200,6.793813232421875,0.28115665912628174,10.395618438720703,2.2648067474365234
1707006814665772800,6.812772705078125,0.0023928226437419653,10.920842170715332,2.1535403728485107
1707006814684732700,6.831732666015625,0.019142581149935722,10.389636039733887,1.7766708135604858
1707006814703692300,6.8506923828125,0.20099709928035736,9.139386177062988,1.077966570854187
1707006814722652000,6.86965185546875,0.275174617767334,8.359326362609863,0.6927221417427063
1707006814741611800,6.88861181640625,0.15314064919948578,8.543573379516602,0.6532405614852905
1707006814760571400,6.9075712890625,-0.18903298676013947,9.498309135437012,0.885344386100769
1707006814779531300,6.92653125,-0.4259224236011505,10.644471168518066,1.2251251935958862
1707006814798491000,6.945490966796875,-0.18544375896453857,11.438888549804688,1.5649060010910034
1707006814817450800,6.96445068359375,0.5659025311470032,10.901700019836426,1.8317056894302368
1707006814836410400,6.983410400390625,1.6103696823120117,9.629914283752441,2.0757737159729004
1707006814855370000,7.002369873046875,2.3569302558898926,8.498109817504883,2.225325107574463
1707006814874329600,7.02132958984375,2.427518606185913,7.944170951843262,2.4574289321899414
1707006814893289500,7.04028955078125,1.7982062101364136,7.844869136810303,2.6153552532196045
1707006814912249000,7.0592490234375,1.0097711086273193,7.988438606262207,2.496910333633423
1707006814931209000,7.078208984375,0.46779683232307434,8.343772888183594,2.1104695796966553
1707006814950168600,7.09716845703125,-0.04187439754605293,8.761320114135742,1.7419748306274414
1707006814969128400,7.11612841796875,-0.4342973232269287,8.914461135864258,1.4919248819351196
1707006814988088000,7.135088134765625,-0.6436693072319031,9.128618240356445,1.5278172492980957
1707006815007047700,7.154047607421875,-0.672383189201355,9.561718940734863,1.867598056793213
1707006815026007600,7.173007568359375,-0.49292147159576416,10.007980346679688,2.3545374870300293
1707006815044967200,7.19196728515625,-0.003589233849197626,10.292726516723633,2.8426733016967773
1707006815063926800,7.2109267578125,0.6269195079803467,10.331011772155762,3.239881753921509
1707006815082886700,7.22988671875,1.2861422300338745,10.240084648132324,3.425325632095337
1707006815101846300,7.24884619140625,1.6378871202468872,10.001998901367188,3.5641093254089355
1707006815120806100,7.26780615234375,1.7611174583435059,9.839286804199219,3.2650065422058105
1707006815139765800,7.286765869140625,1.5242279767990112,9.671789169311523,2.8833513259887695
1707006815158725400,7.305725341796875,1.1629117727279663,9.376275062561035,2.341377019882202
1707006815177685200,7.324685302734375,0.8327022790908813,9.061619758605957,1.786242127418518
1707006815196644900,7.343644775390625,0.5826523303985596,9.034101486206055,1.454836130142212
1707006815215604500,7.3626044921875,0.39122650027275085,8.970691680908203,1.2945170402526855
1707006815234564400,7.381564453125,0.29790642857551575,8.891729354858398,1.2658032178878784
1707006815253524000,7.40052392578125,0.32662028074264526,8.833105087280273,1.1509476900100708
1707006815272483800,7.41948388671875,0.31465616822242737,9.044869422912598,1.1066805124282837
1707006815291443500,7.438443359375,0.397208571434021,9.408578872680664,1.140179991722107
1707006815310403000,7.457403076171875,0.5635097622871399,9.751948356628418,1.1102696657180786
1707006815329363000,7.476363037109375,0.6029912829399109,10.118050575256348,1.0037890672683716
1707006815348322600,7.495322509765625,0.6532405614852905,10.585846900939941,0.9930213689804077
1707006815367282200,7.5142822265625,0.8913264274597168,10.63370418548584,1.2011969089508057
1707006815386242000,7.533241943359375,1.301695466041565,10.442277908325195,1.290927767753601
1707006815405201700,7.55220166015625,1.5912270545959473,10.246066093444824,1.1509476900100708
1707006815424161500,7.57116162109375,1.698904037475586,10.054640769958496,0.7130611538887024
1707006815443121200,7.59012109375,1.6259230375289917,9.961320877075195,0.39840495586395264
1707006815462080800,7.609080810546875,1.6689938306808472,9.854840278625488,0.13040883839130402
1707006815481040600,7.62804052734375,1.832902193069458,9.637093544006348,-0.09930214285850525
1707006815500000300,7.647000244140625,2.0650060176849365,9.122636795043945,-0.04426721855998039
1707006815518960000,7.665960205078125,2.3018953800201416,8.561519622802734,0.18903298676013947
1707006815537919700,7.684919677734375,2.4741785526275635,8.276773452758789,0.6735795736312866
1707006815556879400,7.70387939453125,2.609373092651367,8.86062240600586,1.2035897970199585
1707006815575839000,7.7228388671875,2.526820659637451,9.749555587768555,1.6534404754638672
1707006815594798800,7.741798828125,2.2791635990142822,10.683953285217285,2.0003998279571533
1707006815613758500,7.760758544921875,2.0231316089630127,11.194820404052734,2.3222343921661377
1707006815632718300,7.77971826171875,2.118844509124756,10.911271095275879,2.6464617252349854
1707006815651678000,7.798677978515625,2.4023938179016113,10.065408706665039,2.589034080505371
1707006815670637600,7.817637451171875,2.3976082801818848,9.247062683105469,2.423929452896118
1707006815689597200,7.83659716796875,2.111665964126587,8.551948547363281,2.2719850540161133
1707006815708557000,7.85555712890625,1.6773686408996582,8.015955924987793,2.2743778228759766
1707006815727516700,7.8745166015625,1.34476637840271,7.818548202514648,2.251646041870117
1707006815746476300,7.893476318359375,1.25144624710083,7.911868095397949,2.201396942138672
1707006815765436200,7.912436279296875,1.1629117727279663,7.944170951843262,2.117648124694824
1707006815784395800,7.931395751953125,1.1162517070770264,8.124829292297363,2.14516544342041
1707006815803355600,7.950355712890625,1.2849457263946533,8.365307807922363,2.1882362365722656
1707006815822315300,7.969315185546875,1.3710874319076538,8.182256698608398,2.3533411026000977
1707006815841275000,7.98827490234375,1.5242279767990112,8.051848411560059,2.3700907230377197
1707006815860234500,8.007234375,1.5804593563079834,8.467002868652344,2.2468605041503906
1707006815879194400,8.0261943359375,1.5780665874481201,9.121439933776855,2.181057929992676
1707006815898154000,8.045154052734375,1.6785650253295898,9.56889820098877,1.9716858863830566
1707006815917113600,8.064113525390624,1.6630117893218994,9.284152030944824,1.8831514120101929
1707006815936073200,8.0830732421875,1.7228323221206665,8.979066848754883,1.6007983684539795
1707006815955033000,8.102033203125,1.695314884185791,9.050851821899414,1.2801600694656372
1707006815973992700,8.12099267578125,1.384247899055481,9.18843936920166,1.301695466041565
1707006815992952600,8.13995263671875,0.98703932762146,9.594022750854492,1.5002998113632202
1707006816011912200,8.158912109375,0.7884350419044495,10.084550857543945,1.679761528968811
1707006816030871800,8.177871826171875,0.7752745151519775,10.243673324584961,1.7216359376907349
1707006816049831700,8.196831787109375,0.9619147181510925,10.04985523223877,1.836491346359253
1707006816068791300,8.215791259765625,1.1066805124282837,9.951749801635742,2.029113531112671
1707006816087751000,8.2347509765625,1.1509476900100708,10.278369903564453,2.3605196475982666
1707006816106710500,8.25371044921875,1.1054840087890625,11.089536666870117,2.825923442840576
1707006816125670400,8.27267041015625,0.9918249845504761,11.886346817016602,3.346362352371216
1707006816144630000,8.291630126953125,0.8877372145652771,11.877971649169922,3.8500516414642334
1707006816163589600,8.310589599609376,0.9798609018325806,11.206785202026367,4.022335052490234
1707006816182549500,8.329549560546875,1.171286702156067,10.445867538452148,3.906282901763916
1707006816201509000,8.348509033203126,1.3076776266098022,9.516255378723145,3.4205398559570312
1707006816220468700,8.36746875,1.2837493419647217,8.973084449768066,2.5734808444976807
1707006816239428400,8.386428466796875,0.7166503667831421,9.353543281555176,1.9262222051620483
1707006816258388200,8.40538818359375,-0.35054850578308105,10.29870891571045,1.6630117893218994
1707006816277347800,8.424347900390625,-1.3627125024795532,11.661420822143555,1.8819550275802612
1707006816296307500,8.443307373046874,-1.7371892929077148,12.437891960144043,2.26959228515625
1707006816315267000,8.46226708984375,-1.397408366203308,11.407781600952148,1.6773686408996582
1707006816334226700,8.481226806640626,-0.5060819983482361,9.523433685302734,0.6221339106559753
1707006816353186600,8.5001865234375,0.1663011759519577,8.212167739868164,0.23449662327766418
1707006816372146200,8.519146240234376,0.2763710021972656,7.57806921005249,0.4630111753940582
1707006816391105800,8.538105712890625,0.0011964113218709826,7.53858757019043,0.9415757060050964
1707006816410065400,8.5570654296875,-0.4127618968486786,7.777870178222656,1.1856436729431152
1707006816429025300,8.576025390625,-0.7082754969596863,7.983652591705322,1.0791629552841187
1707006816447985000,8.59498486328125,-0.849452018737793,8.030312538146973,0.8015955686569214
1707006816466944500,8.613944580078124,-0.8961120843887329,8.128418922424316,0.4905286431312561
1707006816485904400,8.632904296875,-0.9798609018325806,8.417949676513672,0.39122650027275085
1707006816504864000,8.651864013671876,-1.0971091985702515,8.773283958435059,0.6556333899497986
1707006816523823600,8.67082373046875,-1.1425727605819702,9.053244590759277,0.9930213689804077
1707006816542783200,8.689783203125,-1.0241280794143677,9.1716890335083,1.1772687435150146
1707006816561742800,8.708742919921875,-0.8626125454902649,9.340383529663086,1.210768222808838
1707006816580702700,8.72770263671875,-0.7429714202880859,10.023533821105957,1.456032633781433
1707006816599662300,8.746662353515624,-0.6915257573127747,11.072786331176758,2.3330020904541016
1707006816618622000,8.7656220703125,-0.6652047038078308,11.874382019042969,3.4887354373931885
1707006816637581600,8.78458154296875,-0.019142581149935722,11.59561824798584,4.208974838256836
1707006816656541200,8.803541259765625,1.0169496536254883,10.660024642944336,4.193421840667725
1707006816675501000,8.8225009765625,1.6211373805999756,9.952945709228516,4.076173305511475
1707006816694460700,8.841460693359375,1.4321043491363525,9.804591178894043,3.9828531742095947
1707006816713420300,8.860420166015626,0.9523434042930603,9.938589096069336,3.6394832134246826
1707006816732380000,8.8793798828125,0.7956135272979736,9.903892517089844,2.8582265377044678
1707006816751339500,8.898339599609375,0.6915257573127747,9.748359680175781,1.8029918670654297
1707006816770299400,8.91729931640625,0.39960137009620667,10.01994514465332,0.7489534616470337
1707006816789259000,8.936259033203125,-0.27038896083831787,11.126625061035156,0.1339980661869049
1707006816808218600,8.955218505859374,-0.6424728631973267,12.155538558959961,0.16151553392410278
1707006816827178200,8.97417822265625,0.2835494875907898,11.26062297821045,-0.3158525824546814
1707006816846137900,8.993137939453124,2.0338993072509766,9.243474006652832,-0.9954141974449158
1707006816865097700,9.01209765625,2.9216363430023193,7.763513088226318,-1.1186445951461792
1707006816884057300,9.031057373046876,2.8390841484069824,7.289734363555908,-0.711864709854126
1707006816903017000,9.050016845703125,2.5184457302093506,7.728816986083984,-0.3242274820804596
1707006816921976600,9.0689765625,2.4287149906158447,8.5100736618042,0.02153540402650833
1707006816940936200,9.087936279296875,2.3270199298858643,9.372686386108398,0.5312066078186035
1707006816959895800,9.106895751953125,2.0542383193969727,10.451848983764648,1.1784651279449463
1707006816978855400,9.12585546875,1.7204394340515137,11.436495780944824,1.820937991142273
1707006816997815300,9.144815185546875,1.7479569911956787,11.097911834716797,2.0267207622528076
1707006817016775000,9.16377490234375,2.3473589420318604,9.842875480651855,1.9369899034500122
1707006817035734500,9.182734619140625,2.6632115840911865,8.912068367004395,1.9872392416000366
1707006817054694100,9.201694091796876,2.616551637649536,8.197810173034668,2.2947168350219727
1707006817073653800,9.22065380859375,2.475374937057495,7.901100158691406,2.513660192489624
1707006817092613400,9.23961328125,2.1894326210021973,7.715656757354736,2.441875457763672
1707006817111573200,9.2585732421875,1.8640087842941284,7.698906898498535,2.2636101245880127
1707006817130532900,9.277532958984375,1.604387640953064,7.441678524017334,2.3198416233062744
1707006817149492500,9.296492431640624,1.293320655822754,7.272984504699707,2.4335005283355713
1707006817168452000,9.3154521484375,1.054038405418396,7.272984504699707,2.544766902923584
1707006817187411700,9.33441162109375,1.0289137363433838,7.33759069442749,2.65842604637146
1707006817206371300,9.353371337890625,1.1772687435150146,7.523034572601318,2.715853691101074
1707006817225331000,9.3723310546875,1.4213366508483887,7.8041911125183105,2.946761131286621
1707006817244290600,9.39129052734375,1.856830358505249,8.164310455322266,3.214757204055786
1707006817263250400,9.41025048828125,2.1858434677124023,8.344968795776367,3.304488182067871
1707006817282209800,9.429209716796874,2.3784656524658203,8.568697929382324,3.3308091163635254
1707006817301169700,9.448169677734375,2.3748764991760254,8.937192916870117,3.2757742404937744
1707006817320129300,9.46712939453125,2.337787628173828,9.215956687927246,3.1345977783203125
1707006817339089000,9.4860888671875,2.3736801147460938,9.44447135925293,2.9204399585723877
1707006817358048500,9.505048583984374,2.2504496574401855,9.81535816192627,2.7936203479766846
1707006817377008000,9.524008056640625,1.9968105554580688,10.046265602111816,2.7457640171051025
1707006817395967700,9.5429677734375,1.8113667964935303,9.958928108215332,2.6632115840911865
1707006817414927400,9.56192724609375,1.7060825824737549,10.04865837097168,2.6967110633850098
1707006817433887000,9.580886962890625,1.5996019840240479,11.127821922302246,2.9252257347106934
1707006817452846600,9.5998466796875,1.0456634759902954,12.867403984069824,3.4995031356811523
1707006817471806500,9.618806396484375,0.17587246000766754,13.420145988464355,4.157529354095459
1707006817490765800,9.637765869140624,0.1782652884721756,12.589836120605469,3.737588882446289
1707006817509725700,9.6567255859375,0.6711867451667786,11.296515464782715,2.7972097396850586
1707006817528685300,9.675685302734376,1.3232308626174927,10.043872833251953,2.0243279933929443
1707006817547645000,9.69464501953125,1.4632110595703125,9.608379364013672,1.628315806388855
1707006817566604500,9.7136044921875,0.9415757060050964,10.216156005859375,1.561316728591919
1707006817585564200,9.732564208984375,0.12083754688501358,11.460424423217773,1.7754744291305542
1707006817604523800,9.751523681640625,-0.50129634141922,12.159128189086914,2.042274236679077
1707006817623483400,9.7704833984375,-0.6185446381568909,11.649456977844238,1.7694923877716064
1707006817642443000,9.789443115234375,-0.3074777126312256,10.152746200561523,0.9942178130149841
1707006817661402600,9.808402587890624,0.07896314561367035,8.657232284545898,0.46899324655532837
1707006817680362200,9.8273623046875,0.2392822653055191,7.8388872146606445,0.3684946894645691
1707006817699321900,9.84632177734375,0.1136590763926506,7.554141044616699,0.6149554252624512
1707006817718281500,9.865281494140625,0.007178467698395252,7.4225358963012695,0.9415757060050964
1707006817737241000,9.884240966796876,0.11844471842050552,7.246663570404053,1.0995019674301147
1707006817756200700,9.90320068359375,0.3242274820804596,6.937989234924316,0.9930213689804077
1707006817775160300,9.922160400390625,0.36610186100006104,6.733402729034424,0.8123632669448853
1707006817794120000,9.941119873046874,0.26201409101486206,6.830312252044678,0.6975077986717224
1707006817813079800,9.960079833984375,-0.10408778488636017,7.22871732711792,0.6675975322723389
1707006817832039200,9.9790390625,-0.45583271980285645,7.787441253662109,0.8315058946609497
1707006817850998800,9.997998779296875,-0.7465606927871704,8.554341316223145,1.155733346939087
1707006817869958700,10.016958740234376,-0.8697910308837891,9.42173957824707,1.4715858697891235
1707006817888918000,10.03591796875,-0.8279166221618652,10.109675407409668,1.690529227256775
1707006817907877600,10.054877685546876,-0.6879364848136902,10.388439178466797,1.794616937637329
1707006817926837500,10.07383740234375,-0.31824541091918945,10.570294380187988,1.939382791519165
1707006817945796900,10.092796875,0.08853443711996078,11.039287567138672,2.2444677352905273
1707006817964756500,10.111756591796874,0.4905286431312561,11.753544807434082,2.8079774379730225
1707006817983716400,10.13071630859375,0.8542376756668091,12.181859970092773,3.087937593460083
1707006818002676000,10.149676025390624,1.3304094076156616,11.796615600585938,2.6117658615112305
1707006818021635300,10.16863525390625,1.6893328428268433,11.621939659118652,1.6869399547576904
1707006818040595200,10.18759521484375,1.5302101373672485,12.174681663513184,1.2861422300338745
1707006818059554800,10.206554931640625,1.1820544004440308,12.635299682617188,1.3567304611206055
1707006818078514200,10.22551416015625,1.3866406679153442,11.539386749267578,0.9463613629341125
1707006818097473800,10.244473876953125,2.3461625576019287,9.860821723937988,0.2919243574142456
1707006818116433700,10.26343359375,3.012563705444336,8.58903694152832,0.07657032459974289
1707006818135393000,10.28239306640625,2.9048867225646973,7.87358283996582,0.14835500717163086
1707006818154352600,10.3013525390625,2.7218358516693115,8.226524353027344,0.36729827523231506
1707006818173312300,10.320312255859376,2.3736801147460938,9.353543281555176,0.8877372145652771
1707006818192272000,10.33927197265625,1.9716858863830566,10.465009689331055,1.3746765851974487
1707006818211231500,10.3582314453125,1.8113667964935303,11.138589859008789,1.719243049621582
1707006818230191000,10.377191162109375,1.6307085752487183,10.855039596557617,1.8388842344284058
1707006818249150700,10.396150634765625,1.8915263414382935,9.91705322265625,1.7611174583435059
1707006818268110300,10.4151103515625,2.2791635990142822,8.660821914672852,1.6079767942428589
1707006818287070000,10.434070068359375,2.33180570602417,7.724031448364258,1.3710874319076538
1707006818306029600,10.453029541015624,1.978864312171936,7.395018577575684,1.210768222808838
1707006818324989200,10.4719892578125,1.5948163270950317,7.395018577575684,1.4883357286453247
1707006818343948800,10.49094873046875,1.3351950645446777,7.514659404754639,1.9657038450241089
1707006818362908400,10.509908447265625,1.3112667798995972,7.661818027496338,2.183450698852539
1707006818381868000,10.528867919921876,1.3004990816116333,7.613961696624756,2.1535403728485107
1707006818400827600,10.54782763671875,1.353141188621521,7.436892986297607,1.9980069398880005
1707006818419787300,10.566787353515625,1.5194423198699951,7.197610378265381,1.7850457429885864
1707006818438747000,10.585746826171874,1.6474584341049194,7.2335028648376465,1.698904037475586
1707006818457706200,10.604706298828125,1.6630117893218994,7.429714202880859,1.750349760055542
1707006818476665900,10.623665771484376,1.7754744291305542,7.690532207489014,1.789831280708313
1707006818495625500,10.64262548828125,1.9800606966018677,7.875975608825684,1.7132610082626343
1707006818514585000,10.661585205078126,2.0817556381225586,8.249256134033203,1.588834285736084
1707006818533544700,10.680544677734375,1.934597134590149,8.837890625,1.674975872039795
1707006818552504300,10.69950439453125,1.7994025945663452,9.455238342285156,1.8436698913574219
1707006818571464000,10.7184638671875,1.825723648071289,10.055837631225586,2.0039889812469482
1707006818590423600,10.737423583984375,1.9645073413848877,10.565508842468262,2.2025933265686035
1707006818609383200,10.756383056640624,2.128415822982788,11.135000228881836,2.3533411026000977
1707006818628342800,10.7753427734375,2.1511476039886475,12.731013298034668,2.699103832244873
1707006818647302400,10.794302490234376,1.4572290182113647,14.69671630859375,3.5808591842651367
1707006818666261800,10.81326171875,0.6628118753433228,14.949159622192383,4.108476638793945
1707006818685221400,10.832221435546876,0.97148597240448,13.101900100708008,3.4707891941070557
1707006818704181200,10.85118115234375,1.825723648071289,10.841879844665527,2.4394826889038086
1707006818723140900,10.870140869140625,2.069791555404663,9.324830055236816,1.6426727771759033
1707006818742100200,10.889100341796874,1.3603196144104004,9.34875774383545,1.4117653369903564
1707006818761059800,10.908059814453125,0.10767702013254166,10.62532901763916,1.5840486288070679
1707006818780019500,10.92701953125,-0.898504912853241,12.09212875366211,1.8352949619293213
1707006818798979000,10.94597900390625,-1.184447169303894,13.086346626281738,2.035095691680908
1707006818817938700,10.964938720703126,-0.8458628058433533,12.600604057312012,1.7479569911956787
1707006818836898300,10.983898193359375,-0.17228323221206665,10.936395645141602,0.8709874153137207
1707006818855858000,11.00285791015625,0.4486542344093323,9.21117115020752,0.0729810893535614
1707006818874817500,11.021817626953125,0.6999006271362305,8.066205024719238,-0.3290131092071533
1707006818893777200,11.040777099609375,0.6448656916618347,7.3746795654296875,-0.29790642857551575
1707006818912736800,11.05973681640625,0.5108676552772522,6.807580471038818,-0.12681959569454193
1707006818931696400,11.0786962890625,0.4701896607875824,6.440282344818115,0
1707006818950655700,11.09765576171875,0.40319061279296875,5.921039581298828,-0.014356935396790504
1707006818969615400,11.116615478515625,0.4701896607875824,5.43290376663208,-0.1818545162677765
1707006818988575000,11.135574951171876,0.5802595019340515,4.865804672241211,-0.3936193287372589
1707006819007534600,11.15453466796875,0.18544375896453857,4.475774765014648,-0.11844471842050552
1707006819026494200,11.173494140625,-0.37926238775253296,5.119443893432617,0.35892340540885925
1707006819045453800,11.192453857421874,-0.9224331378936768,6.589833736419678,0.8291130661964417
1707006819064413400,11.211413330078125,-1.423729419708252,8.486145973205566,1.5182459354400635
1707006819083373000,11.230373046875,-1.6342978477478027,10.5152587890625,2.1571295261383057
1707006819102332700,11.249332763671875,-1.7383856773376465,11.93779182434082,2.386840581893921
1707006819121292300,11.268292236328126,-1.3232308626174927,12.619746208190918,2.610569477081299
1707006819140252000,11.287251953125,-0.4307080805301666,13.59362506866455,3.1932218074798584
1707006819159211300,11.306211181640625,0.3852444589138031,14.304293632507324,3.9158542156219482
1707006819178171000,11.3251708984375,1.0552347898483276,14.242080688476562,3.87876558303833
1707006819197130500,11.344130615234375,1.5744773149490356,13.780265808105469,3.5437703132629395
1707006819216090000,11.363090087890624,2.060220241546631,13.310075759887695,3.2590243816375732
1707006819235049700,11.3820498046875,2.89172625541687,12.116057395935059,2.589034080505371
1707006819254009300,11.40100927734375,3.6394832134246826,10.028319358825684,1.5158531665802002
1707006819272969000,11.419968994140625,3.744767427444458,8.104490280151367,0.8123632669448853
1707006819291928600,11.438928466796876,3.4085757732391357,7.168896675109863,0.35413774847984314
1707006819310888200,11.45788818359375,3.212364435195923,7.733603000640869,-0.06580262631177902
1707006819329847800,11.476847900390625,2.5938198566436768,9.878767967224121,0.035892341285943985
1707006819348807400,11.495807373046874,1.5804593563079834,12.370893478393555,0.576670229434967
1707006819367767000,11.51476708984375,0.9690931439399719,13.11984634399414,1.0265209674835205
1707006819386726700,11.5337265625,1.1988041400909424,11.903096199035645,0.6472585201263428
1707006819405686300,11.552686279296875,1.5337992906570435,9.906285285949707,0.38763725757598877
1707006819424645600,11.571645751953126,1.664208173751831,8.237292289733887,0.8614161610603333
1707006819443605500,11.59060546875,1.581655740737915,7.258627414703369,1.657029628753662
1707006819462565000,11.609565185546876,1.5409778356552124,7.015756130218506,2.2540390491485596
1707006819481524500,11.6285244140625,1.4775680303573608,6.975078105926514,2.5435705184936523
1707006819500484000,11.647484130859375,1.537388563156128,6.839883327484131,2.695514678955078
1707006819519443700,11.666443603515624,1.6103696823120117,6.543173313140869,2.833101987838745
1707006819538403300,11.6854033203125,1.7072789669036865,6.356533527374268,3.019742250442505
1707006819557363000,11.704363037109376,1.690529227256775,6.446264266967773,3.136990547180176
1707006819576322600,11.723322509765625,1.6307085752487183,6.745367050170898,3.1489546298980713
1707006819595282200,11.7422822265625,1.495514154434204,7.347161769866943,3.201596736907959
1707006819614241800,11.76124169921875,1.628315806388855,7.514659404754639,3.359523057937622
1707006819633201400,11.780201416015625,2.029113531112671,7.445267677307129,3.3678979873657227
1707006819652161000,11.7991611328125,2.5734808444976807,7.641479015350342,3.2925238609313965
1707006819671120600,11.81812060546875,2.8414769172668457,8.212167739868164,3.1800613403320312
1707006819690080300,11.837080322265624,2.7625136375427246,8.895318031311035,3.2099716663360596
1707006819709039900,11.856039794921875,2.654836654663086,9.360722541809082,3.449253797531128
1707006819727999500,11.87499951171875,2.5914268493652344,9.836894035339355,3.434896945953369
1707006819746959000,11.893958984375,2.586641311645508,10.094121932983398,3.22552490234375
1707006819765918700,11.912918701171876,2.4430718421936035,10.25922679901123,2.8594231605529785
1707006819784878300,11.93187841796875,2.289931297302246,11.23190975189209,2.909672260284424
1707006819803838000,11.950837890625,1.8771693706512451,12.685548782348633,3.500699520111084
1707006819822797600,11.969797607421874,1.1928220987319946,13.277772903442383,4.18145751953125
1707006819841757200,11.988757080078125,0.9966106414794922,12.689138412475586,3.9768712520599365
1707006819860716800,12.007716796875,1.3603196144104004,11.408978462219238,3.3020951747894287
1707006819879676400,12.026676513671875,1.820937991142273,9.93978500366211,2.445464849472046
1707006819898636000,12.045635986328126,1.8735800981521606,9.105886459350586,1.8448662757873535
1707006819917595600,12.064595703125,1.2370892763137817,9.452845573425293,1.7336000204086304
1707006819936555300,12.08355517578125,0.1818545162677765,10.61695384979248,2.0231316089630127
1707006819955515000,12.102514892578125,-0.672383189201355,11.764312744140625,2.286342144012451
1707006819974474500,12.121474609375,-0.98703932762146,12.155538558959961,2.2648067474365234
1707006819993434000,12.14043408203125,-0.836291491985321,11.496315956115723,1.6402798891067505
1707006820012393700,12.159393798828125,-0.43908295035362244,10.247262954711914,0.833898663520813
1707006820031353300,12.178353271484376,-0.12921242415905,8.912068367004395,0.381655216217041
1707006820050313000,12.19731298828125,-0.05623133108019829,8.068597793579102,0.31345975399017334
1707006820069272600,12.2162724609375,-0.13639089465141296,7.445267677307129,0.41156548261642456
1707006820088232200,12.235232177734375,-0.28953152894973755,7.039684295654297,0.5706881880760193
1707006820107191600,12.254191650390625,-0.4630111753940582,7.10429048538208,0.6879364848136902
1707006820126151400,12.2731513671875,-0.44745782017707825,6.829115867614746,0.7405785918235779
1707006820145111000,12.292111083984375,-0.5838487148284912,6.510870456695557,0.9463613629341125
1707006820164070400,12.3110703125,-0.9308080077171326,6.664011001586914,0.98703932762146
1707006820183030300,12.3300302734375,-1.1928220987319946,7.019345283508301,0.9260223507881165
1707006820201990000,12.348989990234376,-1.4333007335662842,7.740781307220459,1.0301101207733154
1707006820220949500,12.367949462890625,-1.5361921787261963,8.883354187011719,1.357926845550537
1707006820239908900,12.386908935546876,-1.6235301494598389,10.102497100830078,1.6522440910339355
1707006820258868700,12.40586865234375,-1.4297115802764893,11.081161499023438,1.8460626602172852
1707006820277828400,12.424828369140625,-0.9152546525001526,11.57288646697998,2.038684844970703
1707006820296787700,12.44378759765625,-0.23449662327766418,11.639885902404785,2.3712873458862305
1707006820315747600,12.46274755859375,0.32542386651039124,11.412567138671875,2.5770699977874756
1707006820334707200,12.481707275390624,0.6664010882377625,11.352746963500977,2.6524438858032227
1707006820353666600,12.50066650390625,0.8937192559242249,11.444870948791504,2.6811578273773193
1707006820372626200,12.519626220703126,0.7932206988334656,12.061022758483887,2.7804598808288574
1707006820391586000,12.5385859375,0.4211367964744568,13.588839530944824,3.5988051891326904
1707006820410545400,12.55754541015625,0.4977070987224579,14.087743759155273,4.212564468383789
1707006820429505000,12.576505126953125,1.6414763927459717,12.177074432373047,3.31884503364563
1707006820448465000,12.59546484375,2.8342983722686768,9.91107177734375,2.183450698852539
1707006820467424300,12.61442431640625,3.4612178802490234,8.475378036499023,1.7359927892684937
1707006820486383900,12.6333837890625,2.964707374572754,7.978867053985596,1.6342978477478027
1707006820505343500,12.652343505859376,2.0398812294006348,8.606983184814453,1.5744773149490356
1707006820524303400,12.671303466796875,1.3052847385406494,9.448060035705566,1.5649060010910034
1707006820543262700,12.6902626953125,0.7345965504646301,9.91825008392334,1.6713865995407104
1707006820562222300,12.709222412109375,0.5455635786056519,9.743574142456055,1.9800606966018677
1707006820581182000,12.728181884765625,0.7046862840652466,8.949156761169434,2.2085752487182617
1707006820600141600,12.7471416015625,0.9343972206115723,7.921439170837402,2.337787628173828
1707006820619101200,12.76610107421875,1.1150553226470947,7.15812873840332,2.5639095306396484
1707006820638060800,12.785060791015624,1.2586246728897095,6.796812534332275,2.8211379051208496
1707006820657020400,12.8040205078125,1.3758729696273804,6.667600154876709,3.184846878051758
1707006820675980000,12.82297998046875,1.4835500717163086,6.721438884735107,3.5090744495391846
1707006820694939600,12.841939697265625,1.5649060010910034,7.038487911224365,3.717249870300293
1707006820713899300,12.860899169921876,1.568495273590088,7.390232563018799,3.8763725757598877
1707006820732859000,12.87985888671875,1.5541383028030396,7.802994728088379,4.048655986785889
1707006820751818500,12.898818603515625,1.4763715267181396,8.23250675201416,4.131208419799805
1707006820770778000,12.917778076171874,1.470389485359192,8.555537223815918,4.097708702087402
1707006820789737700,12.93673779296875,1.561316728591919,8.519644737243652,3.9744784832000732
1707006820808697300,12.955697265625,1.8089739084243774,8.316255569458008,3.662214994430542
1707006820827657000,12.974656982421875,2.053041934967041,8.171489715576172,3.377469062805176
1707006820846616600,12.993616455078126,2.152343988418579,8.26839828491211,3.177668571472168
1707006820865576200,13.012576171875,2.124826431274414,8.755337715148926,3.084348440170288
1707006820884535800,13.031535888671876,2.0961127281188965,9.460023880004883,2.9718856811523438
1707006820903495400,13.050495361328124,1.9896320104599,10.187442779541016,2.7936203479766846
1707006820922455000,13.069455078125,1.7802600860595703,10.729416847229004,2.561516523361206
1707006820941414700,13.08841455078125,1.633101463317871,11.639885902404785,2.4191436767578125
1707006820960374300,13.107374267578125,1.404586911201477,13.209577560424805,2.7672994136810303
1707006820979333600,13.126333740234376,1.1700903177261353,14.048261642456055,3.267399311065674
1707006820998293200,13.145293212890625,1.3124631643295288,13.568500518798828,3.139383316040039
1707006821017252900,13.1642529296875,1.6965112686157227,12.431910514831543,2.5782663822174072
1707006821036212700,13.183212646484375,1.841277003288269,10.700702667236328,2.053041934967041
1707006821055172000,13.202172119140625,1.7467604875564575,9.010173797607422,1.397408366203308
1707006821074131700,13.221131591796874,1.179661512374878,8.330612182617188,1.1330015659332275
1707006821093091300,13.24009130859375,0.30628129839897156,8.605786323547363,1.4344971179962158
1707006821112051000,13.259051025390624,-0.4331009089946747,9.812965393066406,1.8113667964935303
1707006821131010600,13.278010498046875,-0.914058268070221,11.182856559753418,2.0171494483947754
1707006821149970200,13.29697021484375,-1.0121639966964722,11.642278671264648,1.6893328428268433
1707006821168929800,13.3159296875,-0.7848458290100098,10.85025405883789,1.0085747241973877
1707006821187889400,13.334889404296876,-0.4630111753940582,9.347561836242676,0.3445664644241333
1707006821206849000,13.35384912109375,-0.35533416271209717,7.9968132972717285,-0.003589233849197626
1707006821225808600,13.37280859375,-0.4713860750198364,7.039684295654297,-0.04666004329919815
1707006821244768300,13.391768310546874,-0.550349235534668,6.453442573547363,-0.0011964113218709826
1707006821263727600,13.4107275390625,-0.5204389095306396,6.117250919342041,0.07896314561367035
1707006821282687200,13.429687255859376,-0.3517449200153351,5.9676995277404785,0.14835500717163086
1707006821301647000,13.448647216796875,-0.2189432680606842,6.16271448135376,0.18544375896453857
1707006821320606500,13.4676064453125,-0.26201409101486206,6.413960933685303,0.1902294009923935
1707006821339566000,13.486566162109375,-0.4701896607875824,6.728617191314697,0.3840480446815491
1707006821358525700,13.505525634765625,-0.8626125454902649,7.6869425773620605,0.6436693072319031
1707006821377485300,13.5244853515625,-1.3399807214736938,9.292527198791504,1.0803594589233398
1707006821396445000,13.54344482421875,-1.6965112686157227,11.268998146057129,1.7563318014144897
1707006821415404500,13.562404541015624,-1.6689938306808472,12.564711570739746,2.478964328765869
1707006821434364200,13.5813642578125,-0.6364908218383789,12.376874923706055,2.366501569747925
1707006821453323800,13.60032373046875,0.29431718587875366,11.789437294006348,2.084148406982422
1707006821472283100,13.619283203125,0.6448656916618347,11.528619766235352,2.3700907230377197
1707006821491242800,13.63824267578125,1.0097711086273193,11.469995498657227,2.585444927215576
1707006821510202400,13.657202392578125,1.144965648651123,12.178271293640137,2.909672260284424
1707006821529162000,13.676161865234375,0.9595218896865845,13.030116081237793,3.531806230545044
1707006821548121600,13.69512158203125,1.2993026971817017,12.906885147094727,3.827319860458374
1707006821567081200,13.714081298828125,1.8903298377990723,11.965310096740723,3.4408788681030273
1707006821586040800,13.733040771484376,2.585444927215576,10.72582721710205,2.8354947566986084
1707006821605000400,13.75200048828125,3.0556344985961914,9.523433685302734,2.234896421432495
1707006821623960000,13.7709599609375,2.9862427711486816,8.919246673583984,1.8113667964935303
1707006821642919700,13.789919677734375,2.4885356426239014,9.279366493225098,1.4572290182113647
1707006821661879300,13.80887939453125,1.7910277843475342,9.931410789489746,1.2263215780258179
1707006821680838700,13.827838623046874,1.1330015659332275,10.4219388961792,1.129412293434143
1707006821699798300,13.84679833984375,0.6915257573127747,10.490134239196777,1.2550355195999146
1707006821718758000,13.8657578125,0.6711867451667786,9.810572624206543,1.399801254272461
1707006821737717500,13.884717529296875,0.8709874153137207,8.660821914672852,1.3674981594085693
1707006821756677000,13.903677001953126,1.022931694984436,7.622336387634277,1.3818551301956177
1707006821775636700,13.92263671875,1.0755738019943237,6.981060028076172,1.545763373374939
1707006821794596000,13.94159619140625,1.0444670915603638,6.68435001373291,1.8340985774993896
1707006821813555700,13.9605556640625,1.031306505203247,6.736992359161377,2.1092731952667236
1707006821832515300,13.979515380859375,1.0564311742782593,6.9690961837768555,2.4263222217559814
1707006821851475000,13.998474853515624,1.0767701864242554,7.342376232147217,2.68953275680542
1707006821870434600,14.0174345703125,1.2335001230239868,7.7455668449401855,2.9970104694366455
1707006821889394200,14.036394287109376,1.3603196144104004,8.159524917602539,3.3164522647857666
1707006821908353500,14.055353515625,1.4177473783493042,8.398807525634766,3.617947816848755
1707006821927313200,14.074313232421876,1.6546368598937988,8.636893272399902,3.7710886001586914
1707006821946272800,14.093272705078125,1.8867406845092773,8.746963500976562,3.6993038654327393
1707006821965232400,14.112232421875,2.0554347038269043,8.63330364227295,3.524627685546875
1707006821984192000,14.13119189453125,2.225325107574463,8.496912956237793,3.181257724761963
1707006822003151600,14.150151611328125,2.2636101245880127,8.443074226379395,2.7457640171051025
1707006822022111200,14.169111328125,2.1403799057006836,8.659625053405762,2.3126630783081055
1707006822041070600,14.188070556640625,1.7575281858444214,9.232706069946289,2.0243279933929443
1707006822060030200,14.2070302734375,1.3435698747634888,9.949356079101562,1.9645073413848877
1707006822078989800,14.22598974609375,0.9930213689804077,10.433902740478516,1.9824535846710205
1707006822097949400,14.244949462890625,0.914058268070221,11.02014446258545,1.9657038450241089
1707006822116909000,14.263908935546874,0.9224331378936768,12.407981872558594,2.2743778228759766
1707006822135868700,14.28286865234375,0.6819544434547424,13.739587783813477,3.0975089073181152
1707006822154828000,14.301828125,0.49651068449020386,14.167902946472168,3.961317777633667
1707006822173787600,14.32078759765625,0.7190431952476501,13.3770751953125,3.926621913909912
1707006822192747300,14.339747314453126,1.2849457263946533,11.496315956115723,3.3343982696533203
1707006822211707000,14.358706787109375,1.7419748306274414,9.487542152404785,2.6632115840911865
1707006822230666200,14.377666259765626,1.6019947528839111,8.506484031677246,2.3700907230377197
1707006822249625900,14.3966259765625,0.7956135272979736,8.555537223815918,2.3772692680358887
1707006822268585500,14.41558544921875,-0.12921242415905,9.542576789855957,2.5052852630615234
1707006822287545000,14.434545166015624,-0.9343972206115723,10.723434448242188,2.4538395404815674
1707006822306504700,14.453504638671875,-1.4249259233474731,11.296515464782715,2.2372891902923584
1707006822325464000,14.472464111328126,-1.3854442834854126,10.828719139099121,1.5026925802230835
1707006822344423700,14.491423583984375,-0.9930213689804077,9.586843490600586,0.5084748268127441
1707006822363383300,14.51038330078125,-0.5790630578994751,8.26839828491211,-0.17946170270442963
1707006822382343000,14.529343017578125,-0.4414757788181305,7.380661487579346,-0.3900300860404968
1707006822401302500,14.548302490234375,-0.5156532526016235,6.920042991638184,-0.39840495586395264
1707006822420262000,14.567261962890624,-0.6975077986717224,6.866204738616943,-0.15672987699508667
1707006822439221500,14.586221435546875,-0.8303094506263733,6.985845565795898,0.15672987699508667
1707006822458181000,14.60518115234375,-0.9355936646461487,7.2095746994018555,0.32183465361595154
1707006822477140700,14.624140625,-0.8662018179893494,7.405786037445068,0.3936193287372589
1707006822496100000,14.64310009765625,-0.6951149702072144,7.554141044616699,0.4426721930503845
1707006822515059700,14.662059814453125,-0.5850451588630676,7.847261905670166,0.6699903607368469
1707006822534019300,14.681019287109375,-0.5252245664596558,8.275577545166016,1.2143574953079224
1707006822552979000,14.69997900390625,-0.7010970115661621,9.134600639343262,1.794616937637329
1707006822571938600,14.7189384765625,-0.9762716293334961,10.241280555725098,2.3461625576019287
1707006822590898000,14.73789794921875,-0.8602197170257568,10.929217338562012,2.651247501373291
1707006822609857500,14.756857421875,-0.4007977843284607,11.322836875915527,2.7637102603912354
1707006822628817200,14.775817138671876,0.13160525262355804,11.519047737121582,2.748156785964966
1707006822647776800,14.79477685546875,0.6101697683334351,11.422139167785645,2.723032236099243
1707006822666736000,14.813736083984375,0.9032905697822571,11.271390914916992,2.713460922241211
1707006822685695700,14.83269580078125,0.9284151792526245,11.284551620483398,2.5423741340637207
1707006822704655400,14.8516552734375,0.6999006271362305,11.710474014282227,2.4646072387695312
1707006822723614700,14.87061474609375,0.46061834692955017,12.418749809265137,2.6536402702331543
1707006822742574300,14.88957421875,0.6017948985099792,12.28116226196289,2.764906644821167
1707006822761534000,14.908533935546876,1.3411771059036255,10.904092788696289,2.076970100402832
1707006822780493600,14.92749365234375,2.032702922821045,9.509077072143555,1.2083754539489746
1707006822799453000,14.946452880859376,2.2947168350219727,8.700303077697754,0.6711867451667786
1707006822818412500,14.96541259765625,1.911865234375,8.82114028930664,0.3601198196411133
1707006822837372200,14.9843720703125,1.2454642057418823,9.90149974822998,0.3242274820804596
1707006822856331800,15.003331787109374,0.7046862840652466,11.138589859008789,0.7022934556007385
1707006822875291100,15.022291015625,0.3601198196411133,11.894721031188965,1.2251251935958862
1707006822894250800,15.041250732421876,0.31824541091918945,11.680563926696777,1.667797327041626
1707006822913210400,15.06021044921875,0.6927221417427063,10.423135757446289,1.8352949619293213
1707006822932169700,15.079169677734376,1.1162517070770264,9.029315948486328,1.9022940397262573
1707006822951129300,15.09812939453125,1.2035897970199585,8.11525821685791,2.190629243850708
1707006822970089000,15.1170888671875,1.0456634759902954,7.596015453338623,2.537588357925415
1707006822989048300,15.13604833984375,0.9726824164390564,7.299305438995361,2.757728099822998
1707006823008008000,15.155008056640625,1.0085747241973877,7.197610378265381,2.840280532836914
1707006823026967600,15.173967529296876,1.062413215637207,7.289734363555908,2.884547710418701
1707006823045927200,15.19292724609375,1.0444670915603638,7.4500532150268555,2.915654420852661
1707006823064886500,15.211886474609376,1.0863415002822876,7.533802032470703,2.93001127243042
1707006823083846100,15.23084619140625,1.1868400573730469,7.5637125968933105,2.792423963546753
1707006823102805500,15.249805419921875,1.1880364418029785,7.750352382659912,2.550748825073242
1707006823121765000,15.26876513671875,1.0827522277832031,8.10688304901123,2.486142635345459
1707006823140724700,15.287724853515625,1.022931694984436,8.435895919799805,2.6428725719451904
1707006823159684400,15.306684326171874,1.0839486122131348,8.537590980529785,3.005385160446167
1707006823178643700,15.325643798828125,1.4141582250595093,8.467002868652344,3.3272199630737305
1707006823197603300,15.344603271484376,1.9022940397262573,8.312665939331055,3.586841106414795
1707006823216563000,15.36356298828125,2.2959132194519043,8.175078392028809,3.9385859966278076
1707006823235522300,15.382522216796875,2.392822742462158,8.537590980529785,4.34536600112915
1707006823254482000,15.40148193359375,2.242074728012085,9.305686950683594,4.656432628631592
1707006823273441500,15.420441650390625,1.9680966138839722,9.7005033493042,4.645665168762207
1707006823292401000,15.43940087890625,1.8687944412231445,9.948160171508789,4.247260093688965
1707006823311360500,15.458360595703125,1.545763373374939,10.978270530700684,3.8213376998901367
1707006823330320100,15.477320068359376,0.9068797826766968,12.490533828735352,3.6394832134246826
1707006823349279500,15.496279541015625,0.05742774158716202,13.186845779418945,3.263810157775879
1707006823368239000,15.515239013671875,-0.15553347766399384,12.696316719055176,2.451446771621704
1707006823387198700,15.53419873046875,0.18065811693668365,11.796615600585938,1.664208173751831
1707006823406158000,15.553157958984375,0.6173482537269592,10.51645565032959,1.2191431522369385
1707006823425117700,15.57211767578125,0.8039883971214294,9.745966911315918,1.046859860420227
1707006823444077300,15.591077392578125,0.7573283910751343,9.92542839050293,1.2849457263946533
1707006823463036700,15.61003662109375,0.607776939868927,11.0835542678833,1.8376877307891846
1707006823481996300,15.628996337890625,-0.02751746028661728,12.087343215942383,2.3437697887420654
1707006823500955600,15.64795556640625,-0.20458634197711945,12.15793228149414,2.187039852142334
1707006823519915300,15.666915283203124,0.16390834748744965,11.388639450073242,1.428515076637268
1707006823538875000,15.685875,0.6149554252624512,9.885947227478027,0.6592226624488831
1707006823557834500,15.70483447265625,0.8027920126914978,8.258827209472656,0.33020952343940735
1707006823576793900,15.7237939453125,0.5718846321105957,7.0061845779418945,0.30149564146995544
1707006823595753500,15.74275341796875,0.24047867953777313,6.248856544494629,0.35054850578308105
1707006823614712800,15.761712890625,-0.029910283163189888,5.818148136138916,0.2907279431819916
1707006823633672400,15.78067236328125,-0.12442677468061447,5.8097734451293945,0.23449662327766418
1707006823652632000,15.799632080078124,-0.08015955984592438,6.1914286613464355,0.21655045449733734
1707006823671591400,15.81859130859375,-0.11246266216039658,6.2871413230896,0.29312077164649963
1707006823690551000,15.837551025390624,0.05144568532705307,6.254838466644287,0.6005984544754028
1707006823709510700,15.8565107421875,0.0933200865983963,6.714260101318359,0.6927221417427063
1707006823728470000,15.875469970703126,-0.0933200865983963,8.030312538146973,0.7573283910751343
1707006823747429600,15.8944296875,-0.5479564070701599,9.66819953918457,1.1665010452270508
1707006823766389000,15.913388916015625,-1.0995019674301147,11.267802238464355,1.5146567821502686
1707006823785348600,15.9323486328125,-1.290927767753601,12.553943634033203,1.4644074440002441
1707006823804308200,15.95130810546875,-0.7740781307220459,12.473784446716309,1.2741780281066895
1707006823823267800,15.970267822265624,0.41515472531318665,11.499905586242676,1.1306086778640747
1707006823842227200,15.989227294921875,1.337587833404541,10.736595153808594,1.1497513055801392
1707006823861186600,16.0081865234375,1.683350682258606,10.76530933380127,1.5170495510101318
1707006823880146200,16.027146240234377,1.389033555984497,11.934203147888184,2.2995026111602783
1707006823899105800,16.046105712890625,1.2143574953079224,12.882957458496094,2.9898319244384766
1707006823918065400,16.0650654296875,2.0039889812469482,12.265608787536621,2.6249263286590576
1707006823937024800,16.084024658203123,3.201596736907959,10.956734657287598,1.852044701576233
1707006823955984400,16.102984375,3.772284984588623,9.65384292602539,1.2957134246826172
1707006823974943700,16.12194384765625,3.4468610286712646,8.94556713104248,1.109073281288147
1707006823993903400,16.1409033203125,2.744567632675171,9.623932838439941,1.1365907192230225
1707006824012863000,16.159863037109375,1.9776679277420044,11.245070457458496,1.3674981594085693
1707006824031822300,16.178822265625,1.337587833404541,12.474981307983398,1.95852530002594
1707006824050782000,16.197781982421876,1.1078768968582153,12.540783882141113,2.5842485427856445
1707006824069741600,16.216741455078125,1.5852450132369995,11.158928871154785,2.561516523361206
1707006824088701000,16.235700927734374,2.059023857116699,9.414560317993164,2.183450698852539
1707006824107660500,16.25466064453125,2.118844509124756,7.9621171951293945,1.9010975360870361
1707006824126620200,16.2736201171875,1.939382791519165,6.991827964782715,1.832902193069458
1707006824145579500,16.29257958984375,1.7527425289154053,6.4079790115356445,1.9046868085861206
1707006824164539100,16.3115390625,1.5876377820968628,6.206982135772705,1.9872392416000366
1707006824183498800,16.330498779296875,1.3459627628326416,6.356533527374268,2.1750757694244385
1707006824202458000,16.3494580078125,1.144965648651123,6.740581512451172,2.3820550441741943
1707006824221417700,16.368417724609376,0.9702895879745483,6.960721015930176,2.500499725341797
1707006824240377300,16.38737744140625,0.9643075466156006,7.0648088455200195,2.53399920463562
1707006824259336700,16.406336669921874,1.1114661693572998,7.249056339263916,2.5220351219177246
1707006824278296300,16.42529638671875,1.1341979503631592,7.703692436218262,2.620140790939331
1707006824297256000,16.444255859375,1.129412293434143,8.240880966186523,2.796013355255127
1707006824316215300,16.46321533203125,1.3148560523986816,8.688339233398438,2.933600664138794
1707006824335175000,16.4821748046875,1.5876377820968628,9.153742790222168,3.1250264644622803
1707006824354134500,16.501134521484374,1.810170292854309,9.511469841003418,3.3020951747894287
1707006824373094000,16.520093994140623,1.8975083827972412,9.797411918640137,3.469592809677124
1707006824392053500,16.539053466796876,1.9298114776611328,9.938589096069336,3.562912940979004
1707006824411013000,16.55801318359375,1.9381862878799438,10.080962181091309,3.638286828994751
1707006824429972700,16.57697265625,1.8376877307891846,10.207781791687012,3.7112679481506348
1707006824448932000,16.59593212890625,1.683350682258606,10.579865455627441,3.7507495880126953
1707006824467891700,16.6148916015625,1.4428720474243164,11.977273941040039,3.946960926055908
1707006824486851000,16.63385107421875,0.9355936646461487,13.355539321899414,4.335794448852539
1707006824505810700,16.652810791015625,0.6520441770553589,13.281362533569336,4.342973232269287
1707006824524770300,16.671770263671874,0.6831508874893188,12.564711570739746,3.955335855484009
1707006824543730000,16.69072998046875,0.8099704384803772,11.337193489074707,3.3619158267974854
1707006824562689300,16.709689208984376,1.1569297313690186,9.774680137634277,2.53399920463562
1707006824581649000,16.72864892578125,1.3794622421264648,8.816354751586914,1.9298114776611328
1707006824600608500,16.7476083984375,0.9248259663581848,9.005388259887695,1.8771693706512451
1707006824619568000,16.766568115234374,-0.010767702013254166,9.899106979370117,2.03629207611084
1707006824638527500,16.785527587890623,-0.9547362327575684,11.11466121673584,1.9645073413848877
1707006824657487000,16.804487060546876,-1.4333007335662842,12.011969566345215,1.5720844268798828
1707006824676446500,16.823446533203125,-1.211964726448059,12.057433128356934,0.7812566161155701
1707006824695406000,16.842406005859374,-0.7058826684951782,10.669595718383789,-0.4486542344093323
1707006824714365700,16.86136572265625,-0.10648060590028763,8.752944946289062,-1.322034478187561
1707006824733325300,16.8803251953125,0.031106693670153618,7.452445983886719,-1.6175481081008911
1707006824752284700,16.89928466796875,-0.2727817893028259,6.8554368019104,-1.5900306701660156
1707006824771244300,16.918244384765625,-0.6472585201263428,6.602993965148926,-1.475175142288208
1707006824790204000,16.937203857421874,-0.7812566161155701,6.696314334869385,-1.222732424736023
1707006824809163500,16.95616357421875,-0.4426721930503845,6.617351055145264,-0.7166503667831421
1707006824828123000,16.975122802734376,-0.3361915946006775,6.433103561401367,0.2189432680606842
1707006824847082500,16.99408251953125,-0.5024927258491516,6.685546398162842,1.0336993932724
1707006824866042000,17.0130419921875,-0.5060819983482361,6.963113784790039,1.4727823734283447
1707006824885001500,17.03200146484375,-0.26440688967704773,7.311269760131836,1.8963119983673096
1707006824903961000,17.050961181640623,-0.06699903309345245,8.104490280151367,2.462214469909668
1707006824922920700,17.069920654296876,-0.13040883839130402,9.511469841003418,3.1561331748962402
1707006824941880300,17.08888037109375,-0.30987054109573364,11.125429153442383,3.838087558746338
1707006824960839700,17.107839599609374,-0.24406790733337402,12.28834056854248,4.143172264099121
1707006824979799300,17.12679931640625,0.22013968229293823,12.440284729003906,3.9804604053497314
1707006824998759000,17.145759033203124,0.8207381963729858,12.044272422790527,3.5641093254089355
1707006825017718500,17.164718505859376,1.1736794710159302,11.593225479125977,3.040081262588501
1707006825036678100,17.18367822265625,1.191625714302063,11.166107177734375,2.5902304649353027
1707006825055637500,17.202637451171874,1.0253244638442993,11.144571304321289,2.258824586868286
1707006825074597000,17.22159716796875,0.5120640397071838,11.983255386352539,2.4610180854797363
1707006825093556700,17.240556640625,0.28594231605529785,12.78604793548584,3.0723843574523926
1707006825112516400,17.259516357421877,1.1617153882980347,11.93898868560791,2.9419753551483154
1707006825131475700,17.278475830078126,2.3988046646118164,10.039087295532227,2.087737798690796
1707006825150435300,17.297435302734375,3.0592236518859863,8.652446746826172,1.6235301494598389
1707006825169395000,17.31639501953125,2.7361927032470703,8.343772888183594,1.5481562614440918
1707006825188354600,17.3353544921875,1.6689938306808472,9.192028045654297,1.6522440910339355
1707006825207314000,17.35431396484375,0.6269195079803467,10.107282638549805,1.817348837852478
1707006825226273500,17.3732734375,0.19740787148475647,10.200602531433105,1.92741858959198
1707006825245233200,17.392233154296875,0.3158525824546814,9.621540069580078,2.0482561588287354
1707006825264192500,17.411192626953124,0.6221339106559753,8.84506893157959,2.090130567550659
1707006825283152100,17.430152099609376,0.8530412912368774,8.154739379882812,2.2241287231445312
1707006825302111700,17.44911181640625,0.8961120843887329,7.674978733062744,2.562713146209717
1707006825321071400,17.4680712890625,0.8087740540504456,7.3160552978515625,2.9168508052825928
1707006825340030700,17.48703076171875,0.8410771489143372,7.140182971954346,3.236292600631714
1707006825358990300,17.505990234375,0.8937192559242249,7.146164894104004,3.4444682598114014
1707006825377950000,17.524949951171877,0.9020941257476807,7.1509504318237305,3.6574294567108154
1707006825396909600,17.54390966796875,0.8841479420661926,7.23589563369751,3.9146578311920166
1707006825415869200,17.562869140625,0.8662018179893494,7.354340553283691,4.1659040451049805
1707006825434828500,17.58182861328125,0.9212366938591003,7.592426300048828,4.479363918304443
1707006825453788200,17.6007880859375,0.8889335989952087,7.761120319366455,4.711467742919922
1707006825472747800,17.619747802734373,0.8602197170257568,7.737192153930664,4.833501815795898
1707006825491707400,17.638707275390626,0.9978070259094238,7.801798343658447,4.84187650680542
1707006825510667000,17.6576669921875,1.0600204467773438,8.056633949279785,4.797609329223633
1707006825529626400,17.67662646484375,1.0001999139785767,8.352147102355957,4.782055854797363
1707006825548586000,17.6955859375,0.885344386100769,8.825926780700684,4.572684288024902
1707006825567545600,17.714545654296874,0.7393822073936462,9.354740142822266,4.271188259124756
1707006825586505000,17.7335048828125,0.6017948985099792,9.730413436889648,4.019941806793213
1707006825605464600,17.752464599609375,0.5694918036460876,10.016355514526367,3.741178274154663
1707006825624424200,17.771424072265624,0.6041877269744873,10.360921859741211,3.649054527282715
1707006825643383600,17.790383544921873,0.714257538318634,11.155339241027832,3.713660717010498
1707006825662343200,17.80934326171875,0.7728816866874695,12.543176651000977,4.1347975730896
1707006825681302800,17.828302734375,0.6005984544754028,13.366307258605957,4.577469825744629
1707006825700262400,17.847262451171876,0.6652047038078308,12.935599327087402,4.315455436706543
1707006825719221800,17.8662216796875,0.9403793215751648,11.93898868560791,3.6406795978546143
1707006825738181400,17.885181396484374,1.196411371231079,10.956734657287598,2.9838497638702393
1707006825757141000,17.90414111328125,1.1126625537872314,10.198209762573242,2.6500511169433594
1707006825776100600,17.9231005859375,0.5647061467170715,9.868000984191895,2.5842485427856445
1707006825795060200,17.942060302734376,-0.13878370821475983,10.017552375793457,2.6500511169433594
1707006825814019600,17.96101953125,-0.7645068168640137,10.717453002929688,2.7553353309631348
1707006825832979200,17.979979248046874,-1.2023934125900269,11.391032218933105,2.994617462158203
1707006825851938800,17.998938720703126,-1.207179069519043,11.848061561584473,3.012563705444336
1707006825870898400,18.0178984375,-0.833898663520813,11.09073257446289,2.128415822982788
1707006825889857800,18.03685791015625,-0.2548356056213379,9.43489933013916,1.1150553226470947
1707006825908817400,18.0558173828125,-0.020338991656899452,7.909475326538086,0.592223584651947
1707006825927776800,18.07477685546875,-0.20937198400497437,6.999006271362305,0.5970092415809631
1707006825946736400,18.093736328125,-0.5120640397071838,6.512066841125488,0.7836494445800781
1707006825965696000,18.112696044921876,-0.5970092415809631,6.1675004959106445,0.7549355626106262
1707006825984655600,18.131655517578125,-0.50129634141922,5.9306111335754395,0.5850451588630676
1707006826003615200,18.150615234375,-0.3170489966869354,5.965306758880615,0.44027936458587646
1707006826022574600,18.16957470703125,-0.28235307335853577,6.2105712890625,0.519242525100708
1707006826041534200,18.1885341796875,-0.4211367964744568,5.936593055725098,0.8817551732063293
1707006826060493800,18.207493896484376,-0.7537391185760498,6.337390899658203,1.0875378847122192
1707006826079453400,18.226453369140625,-1.0085747241973877,7.53140926361084,1.2323036193847656
1707006826098412800,18.245412841796874,-1.389033555984497,9.373882293701172,1.3770694732666016
1707006826117372400,18.264372314453126,-1.5146567821502686,11.56570816040039,1.4584254026412964
1707006826136331800,18.283331787109375,-1.1425727605819702,13.293326377868652,1.3591232299804688
1707006826155291400,18.30229150390625,-0.03469592705368996,12.975080490112305,0.5479564070701599
1707006826174251000,18.3212509765625,1.0528420209884644,12.230913162231445,-0.020338991656899452
1707006826193210600,18.340210693359374,1.1306086778640747,13.365111351013184,0.6149554252624512
1707006826212170200,18.359170166015623,1.1018948554992676,15.128621101379395,2.149951219558716
1707006826231129600,18.378129638671876,2.122433662414551,15.346367835998535,2.827120065689087
1707006826250089200,18.397089111328125,3.865604877471924,13.822139739990234,2.761317253112793
1707006826269048800,18.416048828125,4.246063709259033,11.248659133911133,2.2959132194519043
1707006826288008200,18.43500830078125,3.820141315460205,9.256634712219238,1.5230315923690796
1707006826306967800,18.4539677734375,3.043670415878296,8.37846851348877,0.4091726839542389
1707006826325927400,18.472927490234376,2.1056840419769287,8.336593627929688,-0.26560330390930176
1707006826344886800,18.49188671875,1.2789636850357056,8.924032211303711,-0.17706887423992157
1707006826363846400,18.510846435546874,0.7345965504646301,9.743574142456055,0.38285163044929504
1707006826382806000,18.529805908203127,0.49292147159576416,9.80219841003418,0.9032905697822571
1707006826401765600,18.548765625,0.7058826684951782,8.858229637145996,1.0408778190612793
1707006826420725000,18.56772509765625,1.0109676122665405,7.739584922790527,0.9499505758285522
1707006826439684600,18.5866845703125,1.2023934125900269,7.129415035247803,1.0636097192764282
1707006826458644000,18.60564404296875,1.1892328262329102,7.043273448944092,1.4344971179962158
1707006826477603600,18.624603515625,1.1030912399291992,7.249056339263916,1.9022940397262573
1707006826496563200,18.643563232421876,1.062413215637207,7.458428382873535,2.2265214920043945
1707006826515522800,18.662522705078125,1.0636097192764282,7.549355506896973,2.444268226623535
1707006826534482200,18.681482177734374,1.2502498626708984,7.530212879180908,2.6189444065093994
1707006826553441800,18.70044189453125,1.4931213855743408,7.52423095703125,2.778067111968994
1707006826572401200,18.719401123046875,1.6055840253829956,7.625925540924072,2.9252257347106934
1707006826591360800,18.73836083984375,1.5625132322311401,7.883154392242432,3.019742250442505
1707006826610320400,18.7573203125,1.5960127115249634,8.14397144317627,3.0664021968841553
1707006826629280000,18.776280029296874,1.7395820617675781,8.338987350463867,3.104687452316284
1707006826648239400,18.7952392578125,1.7599210739135742,8.58066177368164,2.9970104694366455
1707006826667199000,18.814198974609376,1.6223337650299072,8.925228118896484,2.7110681533813477
1707006826686158300,18.833158447265625,1.3866406679153442,9.339186668395996,2.469393014907837
1707006826705118000,18.852117919921874,1.144965648651123,9.856036186218262,2.334198474884033
1707006826724077600,18.87107763671875,0.9427721500396729,10.540383338928223,2.4526431560516357
1707006826743037200,18.890037109375,0.7334001660346985,11.25344467163086,2.861815929412842
1707006826761996500,18.90899658203125,0.6364908218383789,12.001201629638672,3.4193434715270996
1707006826780956200,18.9279560546875,0.6915257573127747,12.783655166625977,4.091726779937744
1707006826799915500,18.94691552734375,0.7956135272979736,13.389039039611816,4.731806755065918
1707006826818875100,18.965875244140626,0.867398202419281,13.39262866973877,4.968696117401123
1707006826837834800,18.984834716796875,0.9200403094291687,12.701102256774902,4.494917392730713
1707006826856794000,19.003794189453124,1.1485549211502075,11.394621849060059,3.761517286300659
1707006826875753700,19.022753662109373,1.144965648651123,9.686145782470703,2.908475875854492
1707006826894713300,19.04171337890625,1.0205388069152832,8.45743179321289,2.1200408935546875
1707006826913672700,19.060672607421875,0.6580262184143066,8.391629219055176,1.828116536140442
1707006826932632300,19.07963232421875,-0.004785645287483931,9.21117115020752,2.087737798690796
1707006826951591700,19.098591796875,-0.46061834692955017,10.405189514160156,2.3880369663238525
1707006826970551300,19.11755126953125,-0.7058826684951782,11.564512252807617,2.4777679443359375
1707006826989511000,19.136510986328126,-0.8482556343078613,11.793025970458984,2.1475582122802734
1707006827008470500,19.155470458984375,-0.6352944374084473,10.673185348510742,1.1198409795761108
1707006827027430000,19.174429931640624,-0.27397820353507996,8.903693199157715,0.0849452018737793
1707006827046389500,19.193389404296877,-0.12083754688501358,7.4500532150268555,-0.4977070987224579
1707006827065348900,19.212348876953126,-0.3278166949748993,6.770491600036621,-0.6592226624488831
1707006827084308500,19.23130859375,-0.6125625967979431,6.419943332672119,-0.6089733839035034
1707006827103268000,19.25026806640625,-0.763310432434082,6.333801746368408,-0.3206382393836975
1707006827122227500,19.2692275390625,-0.8015955686569214,6.34217643737793,-0.03469592705368996
1707006827141187000,19.28818701171875,-0.6376872062683105,6.613761901855469,0.22372891008853912
1707006827160146700,19.307146728515626,-0.48813581466674805,6.812366008758545,0.5790630578994751
1707006827179106000,19.32610595703125,-0.49292147159576416,7.269395351409912,1.069591760635376
1707006827198065400,19.3450654296875,-0.5874379873275757,8.067401885986328,1.5014961957931519
1707006827217025000,19.36402490234375,-0.8554341197013855,8.96112060546875,2.132004976272583
1707006827235984600,19.382984619140625,-0.7621139883995056,10.182656288146973,2.9599215984344482
1707006827254944000,19.401944091796874,-0.5850451588630676,11.404192924499512,3.680161237716675
1707006827273903600,19.420903564453123,-0.1136590763926506,11.794222831726074,3.786641836166382
1707006827292863200,19.43986328125,0.5024927258491516,11.557332992553711,3.436093330383301
1707006827311822600,19.458822509765625,0.5587241053581238,11.217552185058594,3.0855448246002197
1707006827330782200,19.4777822265625,0.49292147159576416,10.918449401855469,2.8558337688446045
1707006827349741600,19.496741455078126,0.46420758962631226,10.938788414001465,2.633301258087158
1707006827368701200,19.515701171875,0.47617170214653015,11.563315391540527,2.541177749633789
1707006827387660500,19.53466064453125,0.349352091550827,12.330215454101562,2.496910333633423
1707006827406620200,19.5536201171875,0.6604190468788147,12.205788612365723,2.431107759475708
1707006827425579800,19.572579833984374,1.3651052713394165,11.12183952331543,1.8628123998641968
1707006827444539100,19.5915390625,2.1032910346984863,10.194621086120605,1.2873386144638062
1707006827463498800,19.610498779296876,2.1750757694244385,9.708877563476562,0.8757730722427368
1707006827482458000,19.6294580078125,1.9441684484481812,9.797411918640137,0.5742774605751038
1707006827501417700,19.648417724609374,1.5433706045150757,10.549955368041992,0.5024927258491516
1707006827520377000,19.667377197265626,1.1102696657180786,11.179266929626465,0.5730810165405273
1707006827539336700,19.686336669921875,0.7812566161155701,11.230712890625,0.836291491985321
1707006827558296300,19.70529638671875,0.6640082597732544,10.443474769592285,1.057627558708191
1707006827577255700,19.724255615234377,0.7692924737930298,9.125029563903809,1.2478569746017456
1707006827596215300,19.74321533203125,0.8877372145652771,7.978867053985596,1.397408366203308
1707006827615174700,19.762174560546875,0.8769695162773132,7.359126091003418,1.5672988891601562
1707006827634134300,19.78113427734375,0.7429714202880859,7.186842918395996,1.8783657550811768
1707006827653093600,19.80009375,0.4773681163787842,7.0923261642456055,2.159522533416748
1707006827672053200,19.81905322265625,0.35054850578308105,7.356733322143555,2.5591237545013428
1707006827691012600,19.8380126953125,0.3684946894645691,7.611568927764893,3.0723843574523926
1707006827709972200,19.85697216796875,0.638883650302887,7.708477973937988,3.610769271850586
1707006827728931800,19.875931884765624,1.0600204467773438,7.69531774520874,4.168296813964844
1707006827747891200,19.89489111328125,1.4141582250595093,7.864011764526367,4.535595417022705
1707006827766850800,19.913850830078125,1.6785650253295898,8.074580192565918,4.510470867156982
1707006827785810200,19.93281005859375,1.9046868085861206,8.084151268005371,4.170690059661865
1707006827804769800,19.951769775390623,2.0063817501068115,8.0350980758667,3.6598222255706787
1707006827823729200,19.970729248046876,1.9010975360870361,8.128418922424316,2.9587252140045166
1707006827842688800,19.989688720703125,1.672582983970642,8.526823043823242,2.2671995162963867
1707006827861648100,20.008648193359374,1.412961721420288,9.041280746459961,1.7682958841323853
1707006827880607700,20.027607666015626,1.2693923711776733,9.622735977172852,1.4787644147872925
1707006827899567000,20.046567138671875,1.1904292106628418,10.26760196685791,1.537388563156128
1707006827918526700,20.065526611328124,1.1676974296569824,10.828719139099121,1.934597134590149
1707006827937486000,20.084486083984373,1.2418749332427979,11.314461708068848,2.531606435775757
1707006827956445700,20.10344580078125,1.566102385520935,12.433106422424316,3.4337005615234375
1707006827975405300,20.1224052734375,1.6307085752487183,13.39861011505127,4.515256404876709
1707006827994364700,20.14136474609375,1.7910277843475342,13.287343978881836,4.84187650680542
1707006828013324300,20.16032421875,1.8963119983673096,12.583854675292969,4.219742774963379
1707006828032283600,20.17928369140625,1.6378871202468872,11.533405303955078,3.314059257507324
1707006828051243000,20.198242919921874,1.332802176475525,10.003194808959961,2.4502503871917725
1707006828070202600,20.21720263671875,0.9355936646461487,8.778069496154785,1.7982062101364136
1707006828089162000,20.236161865234376,0.40319061279296875,8.39282512664795,1.3902299404144287
1707006828108121600,20.25512158203125,-0.1782652884721756,8.80798053741455,1.2801600694656372
1707006828127081000,20.2740810546875,-0.8279166221618652,9.829715728759766,1.5230315923690796
1707006828146040600,20.29304052734375,-1.1928220987319946,10.939985275268555,1.9369899034500122
1707006828165000000,20.312,-1.2705888748168945,11.45803165435791,2.121237277984619
1707006828183959600,20.33095947265625,-0.9260223507881165,10.950753211975098,1.6941183805465698
1707006828202919000,20.3499189453125,-0.33858439326286316,9.774680137634277,0.7226324677467346
1707006828221878500,20.36887841796875,0.02153540402650833,8.449056625366211,-0.1339980661869049
1707006828240838000,20.387837890625,0.038285162299871445,7.588837146759033,-0.47258245944976807
1707006828259797500,20.406797607421876,-0.21774685382843018,7.313662528991699,-0.39481574296951294
1707006828278756900,20.4257568359375,-0.39601215720176697,7.107879638671875,-0.13160525262355804
1707006828297716500,20.444716552734373,-0.4713860750198364,6.963113784790039,0.06819544732570648
1707006828316675800,20.46367578125,-0.4342973232269287,6.988238334655762,0.31345975399017334
1707006828335635500,20.482635498046875,-0.4247260093688965,6.985845565795898,0.8291130661964417
1707006828354594800,20.5015947265625,-0.5419743061065674,7.312466144561768,1.2693923711776733
1707006828373554400,20.520554443359377,-0.6221339106559753,7.6630144119262695,1.5194423198699951
1707006828392513800,20.539513671875,-0.5814558863639832,7.92861795425415,1.6773686408996582
1707006828411473400,20.558473388671874,-0.5120640397071838,8.401200294494629,1.7479569911956787
1707006828430432800,20.577432861328123,-0.5718846321105957,9.31884765625,1.978864312171936
1707006828449392400,20.596392333984376,-0.5587241053581238,10.284351348876953,2.3401806354522705
1707006828468351700,20.615351806640625,-0.41874396800994873,10.776076316833496,2.6943182945251465
1707006828487311400,20.634311279296874,-0.0023928226437419653,10.767702102661133,2.6213371753692627
1707006828506270700,20.653270751953126,0.41156548261642456,10.666007041931152,2.2983062267303467
1707006828525230300,20.672230224609375,0.6496513485908508,10.829915046691895,2.0099709033966064
1707006828544189700,20.691189697265624,0.5467599630355835,11.662617683410645,2.045863389968872
1707006828563149000,20.710149169921873,0.3361915946006775,13.130614280700684,2.592623233795166
1707006828582108700,20.729108642578126,0.4043870270252228,13.921442031860352,2.967100143432617
1707006828601068000,20.748068115234375,1.1724830865859985,13.17248821258545,2.730210542678833
1707006828620027400,20.76702734375,2.1990039348602295,11.639885902404785,2.0793628692626953
1707006828638987000,20.785987060546876,2.7122645378112793,10.289137840270996,1.734796404838562
1707006828657946400,20.8049462890625,2.6141586303710938,9.473184585571289,1.7886348962783813
1707006828676906000,20.823906005859374,2.2480568885803223,9.329615592956543,1.6666009426116943
1707006828695865300,20.842865234375,1.8915263414382935,9.665806770324707,1.5852450132369995
1707006828714825000,20.861824951171876,1.430907964706421,10.204192161560059,1.7276179790496826
1707006828733784300,20.880784423828125,0.8913264274597168,10.746166229248047,2.0039889812469482
1707006828752744000,20.899743896484374,0.6173482537269592,10.487741470336914,2.1535403728485107
1707006828771703300,20.918703369140626,0.7190431952476501,9.53779125213623,1.852044701576233
1707006828790663000,20.937662841796875,0.9367900490760803,8.417949676513672,1.495514154434204
1707006828809622300,20.956622314453124,1.007378339767456,7.582854747772217,1.4536397457122803
1707006828828582000,20.975581787109373,0.8997012972831726,7.15812873840332,1.7204394340515137
1707006828847541200,20.994541259765626,0.9272187948226929,6.9583282470703125,2.124826431274414
1707006828866500900,21.0135009765625,0.9774680733680725,7.073183536529541,2.313859462738037
1707006828885460200,21.032460205078124,0.7740781307220459,7.296912670135498,2.5591237545013428
1707006828904419600,21.051419677734376,0.5934200286865234,7.568498134613037,3.181257724761963
1707006828923379200,21.070379150390625,0.38763725757598877,7.829315662384033,3.9038901329040527
1707006828942338600,21.089338623046874,0.2632105052471161,7.947760581970215,4.565505504608154
1707006828961298200,21.108298095703127,0.42831525206565857,8.048258781433105,5.0464630126953125
1707006828980257500,21.127257568359376,0.8973084688186646,8.452646255493164,5.277370452880859
1707006828999217200,21.146217041015625,1.4057832956314087,8.732605934143066,5.264209747314453
1707006829018176500,21.165176513671874,1.8735800981521606,8.50289535522461,4.851448059082031
1707006829037136100,21.18413623046875,2.1439690589904785,8.408378601074219,4.113262176513672
1707006829056095500,21.203095458984375,2.012363910675049,8.9312105178833,3.456432342529297
1707006829075055000,21.22205517578125,1.6498512029647827,9.91705322265625,3.1621150970458984
1707006829094014500,21.241014404296877,1.2574282884597778,10.784451484680176,3.022135019302368
1707006829112974000,21.25997412109375,1.153340458869934,10.99860954284668,2.647658348083496
1707006829131933400,21.278933349609375,1.2011969089508057,11.163714408874512,2.1164517402648926
1707006829150892800,21.297892822265624,1.1174482107162476,12.129218101501465,2.1619153022766113
1707006829169852400,21.316852294921876,0.8482556343078613,13.233505249023438,2.750549554824829
1707006829188811800,21.335811767578125,0.7812566161155701,13.462019920349121,3.4121651649475098
1707006829207771400,21.354771484375,1.2047861814498901,12.496516227722168,3.5473594665527344
1707006829226730800,21.373730712890627,1.6151553392410278,10.884950637817383,3.0376882553100586
1707006829245690400,21.3926904296875,1.6175481081008911,9.34157943725586,2.420340061187744
1707006829264649700,21.411649658203125,1.1377872228622437,8.394021987915039,1.8999011516571045
1707006829283609300,21.430609375,0.3409772217273712,8.431110382080078,1.7467604875564575
1707006829302568700,21.449568603515626,-0.5359922647476196,9.404989242553711,1.9824535846710205
1707006829321528300,21.4685283203125,-1.3232308626174927,10.614561080932617,2.242074728012085
1707006829340488000,21.487488037109376,-1.648654818534851,11.241480827331543,2.366501569747925
1707006829359447300,21.506447265625,-1.4249259233474731,10.820343971252441,1.932204246520996
1707006829378406700,21.52540673828125,-0.8422735929489136,9.476774215698242,1.0336993932724
1707006829397366300,21.5443662109375,-0.19381862878799438,8.09970474243164,0.39122650027275085
1707006829416325600,21.56332568359375,0.038285162299871445,7.245467185974121,0.23808585107326508
1707006829435285200,21.58228515625,-0.019142581149935722,6.893722057342529,0.4175475537776947
1707006829454244600,21.60124462890625,-0.2069791555404663,6.790830612182617,0.6580262184143066
1707006829473204200,21.620204345703126,-0.4307080805301666,6.976274490356445,0.8231309652328491
1707006829492163600,21.63916357421875,-0.32183465361595154,7.227520942687988,0.9152546525001526
1707006829511123200,21.658123291015624,-0.15194423496723175,7.307680130004883,1.1210373640060425
1707006829530082800,21.677082763671876,-0.2189432680606842,7.314858913421631,1.3399807214736938
1707006829549042200,21.696042236328125,-0.3361915946006775,7.2335028648376465,1.4404792785644531
1707006829568001800,21.715001708984374,-0.44386860728263855,7.672585964202881,1.4859428405761719
1707006829586961200,21.733961181640623,-0.776470959186554,8.73619556427002,1.6271194219589233
1707006829605920500,21.75292041015625,-1.1258230209350586,10.130014419555664,1.8795621395111084
1707006829624880000,21.771880126953125,-1.1365907192230225,11.3180513381958,2.358126640319824
1707006829643839700,21.79083984375,-0.44027936458587646,11.839686393737793,2.7385854721069336
1707006829662799000,21.809799072265626,0.5120640397071838,11.887542724609375,2.908475875854492
1707006829681758700,21.8287587890625,1.0277173519134521,11.82293701171875,3.050848960876465
1707006829700718000,21.847718017578124,1.1724830865859985,12.020344734191895,2.99222469329834
1707006829719677700,21.866677734375,0.9343972206115723,12.478569984436035,2.7349963188171387
1707006829738637000,21.885636962890626,0.6699903607368469,12.235698699951172,2.214557409286499
1707006829757596700,21.9045966796875,0.5706881880760193,11.816954612731934,1.8999011516571045
1707006829776556000,21.92355615234375,0.9571290612220764,10.767702102661133,1.7084753513336182
1707006829795515600,21.942515625,1.7132610082626343,9.282955169677734,1.29810631275177
1707006829814475000,21.96147509765625,2.179861545562744,8.234899520874023,0.9846464991569519
1707006829833434600,21.9804345703125,2.124826431274414,8.414361000061035,0.8997012972831726
1707006829852394200,21.999394287109375,1.5314065217971802,9.866804122924805,1.3603196144104004
1707006829871353600,22.018353515625,0.8709874153137207,11.365907669067383,2.0303099155426025
1707006829890313200,22.037313232421877,0.5946164131164551,11.7990083694458,2.4323041439056396
1707006829909272600,22.0562724609375,0.885344386100769,11.066804885864258,2.3952155113220215
1707006829928232200,22.075232177734375,1.4117653369903564,9.723235130310059,2.142772674560547
1707006829947191600,22.094191650390623,1.537388563156128,8.616554260253906,1.95852530002594
1707006829966151200,22.113151123046876,1.2789636850357056,8.116454124450684,1.9884356260299683
1707006829985110500,22.132110595703125,0.898504912853241,7.947760581970215,2.166700839996338
1707006830004070100,22.151070068359374,0.6771687865257263,7.761120319366455,2.3497519493103027
1707006830023029800,22.17002978515625,0.6843472719192505,7.430910587310791,2.4945175647735596
1707006830041989000,22.188989013671875,0.7573283910751343,7.070790767669678,2.6225335597991943
1707006830060948700,22.20794873046875,0.8159525394439697,7.027719974517822,2.89890456199646
1707006830079908400,22.226908447265625,0.8638089895248413,7.296912670135498,3.2997024059295654
1707006830098867700,22.24586767578125,0.8662018179893494,7.677371501922607,3.6610186100006104
1707006830117827000,22.2648271484375,0.9798609018325806,7.919046401977539,3.951746702194214
1707006830136786700,22.28378662109375,1.2239288091659546,8.111668586730957,4.191029071807861
1707006830155746300,22.302746337890625,1.511067509651184,8.188239097595215,4.216153621673584
1707006830174705700,22.32170556640625,1.8185452222824097,8.103293418884277,4.035495281219482
1707006830193665300,22.340665283203126,2.117648124694824,8.187042236328125,3.7698919773101807
1707006830212624600,22.359624755859375,2.0673987865448,8.48853874206543,3.387040376663208
1707006830231584300,22.378584228515624,1.7395820617675781,8.979066848754883,3.0723843574523926
1707006830250543900,22.3975439453125,1.5074782371520996,9.559326171875,2.8797619342803955
1707006830269503200,22.416503173828126,1.337587833404541,10.009177207946777,2.733799934387207
1707006830288462800,22.435462890625,1.1509476900100708,10.264012336730957,2.7314071655273438
1707006830307422200,22.454422119140624,1.129412293434143,10.622936248779297,2.827120065689087
1707006830326381800,22.4733818359375,1.1282159090042114,11.734402656555176,3.153740167617798
1707006830345341200,22.492341064453125,0.7872386574745178,12.874582290649414,3.8488552570343018
1707006830364300800,22.51130078125,0.4833501875400543,13.129417419433594,4.376472473144531
1707006830383260400,22.530260498046875,0.5970092415809631,12.731013298034668,4.303491592407227
1707006830402219800,22.5492197265625,0.8051848411560059,11.650653839111328,3.7495529651641846
1707006830421179400,22.568179443359377,1.093519926071167,10.078569412231445,3.0556344985961914
1707006830440138800,22.587138671875,1.1234302520751953,8.673981666564941,2.3234307765960693
1707006830459098400,22.606098388671874,0.867398202419281,8.183453559875488,1.8891334533691406
1707006830478057700,22.6250576171875,0.20817556977272034,8.664410591125488,1.825723648071289
1707006830497017300,22.644017333984376,-0.5575276613235474,9.701699256896973,2.1056840419769287
1707006830515977000,22.66297705078125,-1.2251251935958862,10.766505241394043,2.403590440750122
1707006830534936300,22.681936279296874,-1.5517455339431763,11.233105659484863,2.3641088008880615
1707006830553896000,22.70089599609375,-1.3758729696273804,10.846665382385254,1.786242127418518
1707006830572855300,22.719855224609375,-0.900897741317749,9.943374633789062,1.0301101207733154
1707006830591815000,22.73881494140625,-0.46779683232307434,8.94556713104248,0.6352944374084473
1707006830610774300,22.757774169921873,-0.31345975399017334,8.085348129272461,0.6400800347328186
1707006830629734000,22.77673388671875,-0.4307080805301666,7.530212879180908,0.7872386574745178
1707006830648693500,22.795693603515623,-0.6209374666213989,7.262216567993164,0.882951557636261
1707006830667652900,22.81465283203125,-0.7202396392822266,7.141379356384277,0.9248259663581848
1707006830686612500,22.833612548828125,-0.7202396392822266,7.086344242095947,0.9403793215751648
1707006830705571800,22.85257177734375,-0.6640082597732544,7.056434154510498,0.9367900490760803
1707006830724531500,22.871531494140626,-0.576670229434967,7.146164894104004,1.0528420209884644
1707006830743491000,22.890490966796875,-0.4654040038585663,7.494320392608643,1.3423734903335571
1707006830762450400,22.909450439453124,-0.4737788736820221,8.13798999786377,1.730010747909546
1707006830781409800,22.928409912109377,-0.7429714202880859,8.947959899902344,2.2851455211639404
1707006830800369400,22.947369384765626,-0.9260223507881165,10.055837631225586,2.6847469806671143
1707006830819329000,22.9663291015625,-0.8925228714942932,10.907682418823242,3.0005996227264404
1707006830838288400,22.985288330078124,-0.4247260093688965,11.26062297821045,3.1274192333221436
1707006830857248000,23.004248046875,0.1136590763926506,10.992627143859863,3.050848960876465
1707006830876207600,23.02320751953125,0.41994038224220276,10.717453002929688,2.6835505962371826
1707006830895167000,23.0421669921875,0.4462614357471466,10.778470039367676,2.403590440750122
1707006830914126600,23.061126708984375,0.25244277715682983,11.079965591430664,2.2719850540161133
1707006830933086000,23.0800859375,0.10887342691421509,11.341979026794434,2.0542383193969727
1707006830952045300,23.09904541015625,0.08853443711996078,11.869596481323242,1.923829436302185
1707006830971005000,23.1180048828125,0.3122633695602417,12.854243278503418,2.3234307765960693
1707006830989964500,23.136964599609374,0.9104689955711365,12.873385429382324,2.6225335597991943
1707006831008924000,23.155923828125,1.8711873292922974,11.678171157836914,2.39401912689209
1707006831027883500,23.174883544921876,2.6153552532196045,10.450653076171875,1.9465612173080444
1707006831046843000,23.1938427734375,2.6907291412353516,9.69930648803711,1.404586911201477
1707006831065802500,23.212802490234374,2.4023938179016113,10.013962745666504,1.0707881450653076
1707006831084762000,23.23176220703125,1.919043779373169,10.649256706237793,1.3710874319076538
1707006831103721500,23.250721435546875,1.7527425289154053,10.681560516357422,1.8137595653533936
1707006831122680800,23.269680908203124,1.7515461444854736,10.269994735717773,2.0338993072509766
1707006831141640400,23.288640380859373,1.526620864868164,9.270991325378418,1.9453648328781128
1707006831160600000,23.30760009765625,1.2586246728897095,7.953742504119873,1.789831280708313
1707006831179559400,23.326559326171875,0.8973084688186646,7.100701332092285,1.7252250909805298
1707006831198519000,23.34551904296875,0.46420758962631226,6.750152587890625,1.6606189012527466
1707006831217478400,23.364478515625,0.16031911969184875,6.891329288482666,1.5445669889450073
1707006831236438000,23.38343798828125,-0.017946170642971992,7.196413993835449,1.5314065217971802
1707006831255397400,23.4023974609375,0.04905286431312561,7.540980339050293,1.8065811395645142
1707006831274357000,23.42135693359375,0.4019941985607147,7.731209754943848,2.2504496574401855
1707006831293316400,23.44031640625,0.9463613629341125,7.732406139373779,2.9036903381347656
1707006831312276000,23.45927587890625,1.5002998113632202,7.672585964202881,3.431307554244995
1707006831331235300,23.4782353515625,2.007578134536743,7.812565803527832,3.803391695022583
1707006831350195000,23.49719482421875,2.4083759784698486,8.155936241149902,3.955335855484009
1707006831369154300,23.516154296875,2.772084951400757,8.240880966186523,3.6370904445648193
1707006831388114000,23.535114013671876,3.0687949657440186,8.218149185180664,2.9347970485687256
1707006831407073500,23.554073486328125,2.9491539001464844,8.514859199523926,2.221735715866089
1707006831426033000,23.573032958984374,2.586641311645508,8.993423461914062,1.6223337650299072
1707006831444992500,23.591992431640627,2.1714866161346436,9.416953086853027,1.2275179624557495
1707006831463952000,23.610951904296876,1.7443677186965942,9.637093544006348,1.0564311742782593
1707006831482911500,23.629911376953125,1.4799607992172241,9.835697174072266,1.0408778190612793
1707006831501870800,23.648870849609374,1.357926845550537,10.438689231872559,1.3483555316925049
1707006831520830200,23.667830322265626,1.3830515146255493,11.527422904968262,2.0853450298309326
1707006831539789800,23.686789794921875,1.3244273662567139,12.671192169189453,2.915654420852661
1707006831558749400,23.70574951171875,1.0683952569961548,13.11386489868164,3.5581271648406982
1707006831577708800,23.724708740234377,1.1198409795761108,12.857832908630371,3.5234313011169434
1707006831596668400,23.74366845703125,1.3184453248977661,12.067004203796387,3.221935749053955
1707006831615627800,23.762627685546875,1.6582261323928833,10.528419494628906,2.7218358516693115
1707006831634587400,23.78158740234375,1.657029628753662,9.189635276794434,2.242074728012085
1707006831653546800,23.800546630859376,0.9702895879745483,8.891729354858398,2.0685951709747314
1707006831672506400,23.81950634765625,0.13040883839130402,9.578469276428223,2.3437697887420654
1707006831691465700,23.8384658203125,-0.5467599630355835,10.694721221923828,2.6213371753692627
1707006831710425000,23.857425048828127,-0.9786644577980042,11.577672004699707,2.6500511169433594
1707006831729384700,23.876384765625,-1.0372886657714844,11.515459060668945,2.359323024749756
1707006831748344000,23.895343994140624,-0.7417750358581543,10.469795227050781,1.6821542978286743
1707006831767303700,23.9143037109375,-0.3038884699344635,9.087940216064453,0.9678967595100403
1707006831786263000,23.933262939453126,-0.12323036789894104,7.853243827819824,0.5826523303985596
1707006831805222700,23.95222265625,-0.1986042857170105,6.990631580352783,0.47258245944976807
1707006831824182000,23.97118212890625,-0.2847459018230438,6.562315940856934,0.5204389095306396
1707006831843141600,23.9901416015625,-0.3768695592880249,6.478567123413086,0.7046862840652466
1707006831862101200,24.009101318359374,-0.50129634141922,6.674778938293457,0.9320043921470642
1707006831881060600,24.028060546875,-0.4989035129547119,7.0097737312316895,1.1868400573730469
1707006831900020200,24.047020263671875,-0.46899324655532837,7.2921271324157715,1.29810631275177
1707006831918979600,24.0659794921875,-0.46420758962631226,7.342376232147217,1.3818551301956177
1707006831937939000,24.08493896484375,-0.5132604837417603,7.527820110321045,1.495514154434204
1707006831956898600,24.103898681640626,-0.6616154313087463,8.283951759338379,1.7180466651916504
1707006831975858000,24.12285791015625,-0.914058268070221,9.20279598236084,2.0231316089630127
1707006831994817500,24.141817626953124,-1.1940184831619263,10.375279426574707,2.266003131866455
1707006832013777000,24.16077685546875,-1.1676974296569824,11.47119140625,2.307877540588379
1707006832032736500,24.179736572265625,-0.836291491985321,12.07179069519043,2.0195422172546387
1707006832051695900,24.19869580078125,-0.23688943684101105,12.143574714660645,1.8687944412231445
1707006832070655500,24.217655517578127,0.1902294009923935,11.962916374206543,1.9178473949432373
1707006832089614800,24.23661474609375,0.38285163044929504,12.233305931091309,2.007578134536743
1707006832108574200,24.25557421875,0.3206382393836975,12.979866027832031,2.2504496574401855
1707006832127533800,24.274533935546874,0.2476571500301361,13.52303695678711,2.555534601211548
1707006832146493200,24.2934931640625,0.519242525100708,13.320843696594238,2.994617462158203
1707006832165452800,24.312452880859375,1.3950155973434448,12.192627906799316,3.1214370727539062
1707006832184412200,24.331412109375,2.379662036895752,10.296316146850586,2.8103702068328857
