time,seconds_elapsed,z,y,x
1707006807915024100,0.062024169921875,0.001450803829357028,0.02542724646627903,0.004046979360282421
1707006807933983700,0.080983642578125,-0.004352411720901728,-0.044211339205503464,-0.009697478264570236
1707006807952943400,0.099943359375,0.014889828860759735,-0.10957387089729309,-0.016416991129517555
1707006807971903200,0.1189033203125,0.030772313475608826,-0.13920080661773682,-0.021609341725707054
1707006807990862600,0.137862548828125,0.03565923124551773,-0.14317142963409424,-0.016416991129517555
1707006808009822500,0.156822509765625,0.021609341725707054,-0.1245400533080101,-0.013668099418282509
1707006808028782000,0.175781982421875,0.009086613543331623,-0.10621411353349686,-0.014278964139521122
1707006808047741700,0.19474169921875,-0.0019089524867013097,-0.08697187155485153,-0.012140937149524689
1707006808066701300,0.213701416015625,-0.0009926552884280682,-0.058566659688949585,0.005268708802759647
1707006808085661000,0.232660888671875,0.011224640533328056,-0.02649625949561596,0.02023489587008953
1707006808104620500,0.25162060546875,0.014584396965801716,-0.00847574882209301,0.014126247726380825
1707006808123580200,0.270580078125,0.017333287745714188,-0.02741255611181259,-0.0029779658652842045
1707006808142539800,0.289539794921875,0.020998476073145866,-0.057955797761678696,-0.010613775812089443
1707006808161499400,0.30849951171875,0.023747367784380913,-0.08269581943750381,-0.013973532244563103
1707006808180459000,0.327458984375,0.02802342176437378,-0.09980003535747528,-0.015806125476956367
1707006808199418600,0.346418701171875,0.034437503665685654,-0.10682497918605804,-0.026190826669335365
1707006808218378200,0.365378173828125,0.02802342176437378,-0.1043815165758133,-0.04634936526417732
1707006808237337900,0.384337890625,0.013057234697043896,-0.08116865903139114,-0.05062541738152504
1707006808256297700,0.403297607421875,-0.004046979360282421,-0.025274530053138733,-0.022220205515623093
1707006808275257000,0.422257080078125,-0.014737112447619438,0.0550541877746582,0.0077121676877141
1707006808294216700,0.441216796875,-0.012904518283903599,0.08254310488700867,0.015042545273900032
1707006808313176600,0.460176513671875,-0.013209951110184193,0.03611737862229347,-0.004199695307761431
1707006808332136000,0.479135986328125,-0.025121813639998436,-0.0243582334369421,-0.023136503994464874
1707006808351095800,0.498095703125,-0.017486004158854485,-0.04909825697541237,-0.02130390889942646
1707006808370055400,0.517055419921875,-0.0006872228696011007,-0.028634287416934967,-0.011530072428286076
1707006808389014800,0.536014892578125,-0.004657844081521034,0.003741546766832471,-0.00022907429956831038
1707006808407974700,0.554974609375,-0.018402300775051117,0.02695440873503685,-0.0017562361899763346
1707006808426934300,0.573934326171875,-0.024510949850082397,0.05047270283102989,0.0034361144062131643
1707006808445893600,0.5928935546875,-0.021456625312566757,0.06482802331447601,0.02237292192876339
1707006808464853500,0.611853515625,-0.023594651371240616,0.05261072888970375,0.033368486911058426
1707006808483813000,0.630813232421875,-0.033368486911058426,0.03153589367866516,0.034895651042461395
1707006808502772700,0.649772705078125,-0.03153589367866516,0.013820815831422806,0.024205517023801804
1707006808521732400,0.668732421875,-0.02909243479371071,0.019624030217528343,0.024816380813717842
1707006808540692000,0.68769189453125,-0.031841326504945755,0.0449749194085598,0.04589121788740158
1707006808559651600,0.706651611328125,-0.033368486911058426,0.07338013499975204,0.060551971197128296
1707006808578611000,0.72561083984375,-0.041615162044763565,0.09506583213806152,0.05933023989200592
1707006808597570800,0.74457080078125,-0.04253146052360535,0.106366828083992,0.04528035223484039
1707006808616530400,0.763530517578125,-0.03672824427485466,0.11217004805803299,0.043142326176166534
1707006808635489800,0.78248974609375,-0.033979352563619614,0.11736239492893219,0.05474875494837761
1707006808654449700,0.80144970703125,-0.03611737862229347,0.10942115634679794,0.050778135657310486
1707006808673409300,0.8204091796875,-0.044669486582279205,0.09170607477426529,0.033979352563619614
1707006808692368600,0.83936865234375,-0.05047270283102989,0.08437569439411163,0.022983787581324577
1707006808711328500,0.85832861328125,-0.047723811119794846,0.08956804871559143,0.01565340906381607
1707006808730288000,0.8772880859375,-0.047723811119794846,0.09873101860284805,0.022983787581324577
1707006808749247500,0.89624755859375,-0.05566505342721939,0.11461350321769714,0.025732679292559624
1707006808768207400,0.915207275390625,-0.0602465383708477,0.12957969307899475,0.02756527252495289
1707006808787167000,0.9341669921875,-0.05413788929581642,0.1375209391117096,0.023594651371240616
1707006808806126600,0.953126708984375,-0.04711294546723366,0.1369100660085678,0.028176138177514076
1707006808825086200,0.972086181640625,-0.05474875494837761,0.11888955533504486,0.03611737862229347
1707006808844045800,0.9910458984375,-0.0550541877746582,0.1219438835978508,0.040088001638650894
1707006808863005400,1.01000537109375,-0.051389001309871674,0.1164461001753807,0.0345902182161808
1707006808881965000,1.028965087890625,-0.04344775900244713,0.07673988491296768,0.021456625312566757
1707006808900924700,1.047924560546875,-0.04650207981467247,0.05810851231217384,0.033979352563619614
1707006808919884300,1.06688427734375,-0.04069886729121208,0.07826705276966095,0.04711294546723366
1707006808938844000,1.085843994140625,-0.018402300775051117,0.11736239492893219,0.054443322122097015
1707006808957803500,1.104803466796875,-0.012293653562664986,0.13935352861881256,0.06330086290836334
1707006808976763100,1.12376318359375,-0.011988221667706966,0.12438733875751495,0.052916161715984344
1707006808995722800,1.14272265625,-0.005574141163378954,0.0965929925441742,0.047723811119794846
1707006809014682400,1.161682373046875,0.008170315995812416,0.08529199659824371,0.041615162044763565
1707006809033642000,1.18064208984375,0.020387612283229828,0.08834631741046906,0.04711294546723366
1707006809052601600,1.1996015625,0.02741255611181259,0.0862082913517952,0.05658135190606117
1707006809071561200,1.218561279296875,0.022525638341903687,0.08040507882833481,0.05871937796473503
1707006809090520800,1.237520751953125,0.022220205515623093,0.06207913160324097,0.047723811119794846
1707006809109480400,1.25648046875,0.026801692321896553,0.0345902182161808,0.03733910992741585
1707006809128440000,1.275440185546875,0.03657552972435951,0.01718057133257389,0.021151192486286163
1707006809147399700,1.294399658203125,0.03504836559295654,0.008933897130191326,0.01565340906381607
1707006809166359300,1.313359375,0.028634287416934967,-0.000839939049910754,0.010461059398949146
1707006809185319000,1.33231884765625,0.024663666263222694,-0.01000291109085083,0.0006872228696011007
1707006809204278500,1.351278564453125,0.01763872057199478,-0.0066431546583771706,-0.004505127668380737
1707006809223238100,1.370238037109375,0.013668099418282509,0.004963276442140341,-0.005421424750238657
1707006809242197800,1.38919775390625,0.003894262947142124,0.011682788841426373,-0.006337722297757864
1707006809261157600,1.40815771484375,-0.0006872228696011007,-0.0029779658652842045,-0.014889828860759735
1707006809280117000,1.427116943359375,0.0005345066892914474,-0.03871355578303337,-0.0319940410554409
1707006809299076900,1.446076904296875,-0.002825249684974551,-0.06589704006910324,-0.04909825697541237
1707006809318036500,1.465036376953125,-0.0025198173243552446,-0.07567087560892105,-0.04909825697541237
1707006809336996000,1.48399609375,-0.00038179047987796366,-0.0836121141910553,-0.04787652567028999
1707006809355955700,1.502955810546875,-0.002825249684974551,-0.09124792367219925,-0.047265663743019104
1707006809374915300,1.521915283203125,-0.0058795735239982605,-0.1242346242070198,-0.056428633630275726
1707006809393875000,1.540875,-0.016569707542657852,-0.13858994841575623,-0.06681333482265472
1707006809412834600,1.55983447265625,-0.014126247726380825,-0.1141553521156311,-0.055512335151433945
1707006809431794200,1.578794189453125,-0.002825249684974551,-0.10041090101003647,-0.047265663743019104
1707006809450753800,1.59775390625,-0.01718057133257389,-0.0985783040523529,-0.037491824477910995
1707006809469713700,1.616713623046875,-0.03214675933122635,-0.09124792367219925,-0.0371863916516304
1707006809488673000,1.635673095703125,-0.02176205813884735,-0.06681333482265472,-0.034437503665685654
1707006809507633000,1.6546328125,-0.0012980876490473747,-0.043600473552942276,-0.024663666263222694
1707006809526592500,1.673592529296875,0.006337722297757864,-0.04543306678533554,-0.0191658828407526
1707006809545552100,1.69255224609375,0.004505127668380737,-0.0631481483578682,-0.023441936820745468
1707006809564511700,1.71151171875,0.006948587018996477,-0.06711876392364502,-0.03657552972435951
1707006809583471400,1.730471435546875,0.018555017188191414,-0.06436987966299057,-0.0371863916516304
1707006809602431000,1.749430908203125,0.020693045109510422,-0.07658717036247253,-0.033826638013124466
1707006809621390600,1.768390625,0.012446369975805283,-0.07628174126148224,-0.03535379841923714
1707006809640350200,1.78735009765625,0.002672533504664898,-0.04848739132285118,-0.028328854590654373
1707006809659310000,1.80631005859375,0.0011453714687377214,-0.011530072428286076,-0.007254019379615784
1707006809678269700,1.825269775390625,-0.003741546766832471,0.02176205813884735,0.00679587060585618
1707006809697229300,1.844229248046875,-0.009850194677710533,0.04405862092971802,0.014126247726380825
1707006809716189000,1.86318896484375,-0.006490438245236874,0.04589121788740158,0.00923932995647192
1707006809735148500,1.8821484375,0.0035888305865228176,0.03520108386874199,0.007406735327094793
1707006809754108200,1.901108154296875,0.015500693581998348,0.01259908638894558,0.013515383005142212
1707006809773068000,1.920068115234375,0.025579962879419327,-0.022525638341903687,0.014431680552661419
1707006809792027600,1.939027587890625,0.029245151206851006,-0.051847148686647415,0.008017600513994694
1707006809810987300,1.9579873046875,0.03352120518684387,-0.06742420047521591,0.0006872228696011007
1707006809829947000,1.97694677734375,0.03504836559295654,-0.06192641705274582,0.0019089524867013097
1707006809848906500,1.995906494140625,0.030161447823047638,-0.04634936526417732,0.01565340906381607
1707006809867866400,2.014866455078125,0.025579962879419327,-0.03168861195445061,0.023594651371240616
1707006809886825700,2.03382568359375,0.02496909722685814,-0.020998476073145866,0.024205517023801804
1707006809905785600,2.05278564453125,0.021609341725707054,-0.006337722297757864,0.0193185992538929
1707006809924745200,2.0717451171875,0.012751801870763302,0.0034361144062131643,0.013820815831422806
1707006809943704800,2.090704833984375,0.0029779658652842045,-0.005421424750238657,0.00923932995647192
1707006809962664400,2.10966455078125,-0.006490438245236874,-0.00022907429956831038,0.006185005884617567
1707006809981624000,2.1286240234375,-0.0006872228696011007,0.017486004158854485,0.004352411720901728
1707006810000584000,2.147583984375,0.00755945174023509,-0.00847574882209301,-0.003283398225903511
1707006810019543600,2.16654345703125,-0.0006872228696011007,-0.05429060757160187,-0.011530072428286076
1707006810038503200,2.185503173828125,-0.00923932995647192,-0.0732274129986763,-0.017333287745714188
1707006810057462800,2.204462890625,0.005421424750238657,-0.06498073786497116,-0.022525638341903687
1707006810076422400,2.22342236328125,0.014278964139521122,-0.04482220485806465,-0.02649625949561596
1707006810095382300,2.24238232421875,-0.00007635809743078426,-0.0322994738817215,-0.027717988938093185
1707006810114342000,2.261341796875,-0.014126247726380825,-0.030772313475608826,-0.02893971838057041
1707006810133301500,2.280301513671875,-0.013820815831422806,-0.02802342176437378,-0.032910339534282684
1707006810152261400,2.299261474609375,-0.008628465235233307,-0.03535379841923714,-0.03413207083940506
1707006810171220700,2.318220703125,-0.008017600513994694,-0.05459604039788246,-0.03840812295675278
1707006810190180600,2.3371806640625,-0.018402300775051117,-0.05948295816779137,-0.03413207083940506
1707006810209140200,2.35614013671875,-0.03611737862229347,-0.05001455545425415,-0.022220205515623093
1707006810228099800,2.375099853515625,-0.04405862092971802,-0.0475710928440094,-0.021914774551987648
1707006810247059700,2.394059814453125,-0.044669486582279205,-0.0475710928440094,-0.02741255611181259
1707006810266019300,2.413019287109375,-0.04405862092971802,-0.027717988938093185,-0.027717988938093185
1707006810284979000,2.43197900390625,-0.04711294546723366,0.00038179047987796366,-0.01763872057199478
1707006810303938600,2.4509384765625,-0.04711294546723366,0.019013166427612305,-0.002061668550595641
1707006810322898200,2.469898193359375,-0.041615162044763565,0.02176205813884735,0.004657844081521034
1707006810341858000,2.488858154296875,-0.03000873140990734,0.0077121676877141,-0.00022907429956831038
1707006810360817700,2.507817626953125,-0.016569707542657852,0.0025198173243552446,-0.0035888305865228176
1707006810379777300,2.52677734375,-0.010461059398949146,0.012904518283903599,0.005268708802759647
1707006810398737000,2.54573681640625,-0.003741546766832471,0.019624030217528343,0.012293653562664986
1707006810417696800,2.56469677734375,-0.0009926552884280682,0.03275762498378754,0.01626427471637726
1707006810436656400,2.583656494140625,0.000839939049910754,0.052916161715984344,0.017486004158854485
1707006810455616000,2.602615966796875,0.0017562361899763346,0.07399099320173264,0.02237292192876339
1707006810474575600,2.62157568359375,-0.004046979360282421,0.09292780607938766,0.026038112118840218
1707006810493535200,2.64053515625,-0.004963276442140341,0.08773545175790787,0.023594651371240616
1707006810512495000,2.6594951171875,-0.005574141163378954,0.06635518372058868,0.013820815831422806
1707006810531454700,2.678454833984375,-0.0025198173243552446,0.05780307948589325,0.02176205813884735
1707006810550414300,2.697414306640625,0.002061668550595641,0.05627591907978058,0.02023489587008953
1707006810569374000,2.7163740234375,0.00603228947147727,0.03000873140990734,0.011682788841426373
1707006810588333800,2.735333740234375,-0.008933897130191326,0.02848157100379467,0.018096869811415672
1707006810607293400,2.75429345703125,-0.010461059398949146,0.05199986323714256,0.02848157100379467
1707006810626253000,2.773253173828125,0.003283398225903511,0.0910952091217041,0.04344775900244713
1707006810645213000,2.792212890625,0.01000291109085083,0.10972658544778824,0.050778135657310486
1707006810664172500,2.811172607421875,0.0005345066892914474,0.0965929925441742,0.04283689334988594
1707006810683132200,2.830132080078125,-0.0006872228696011007,0.08407026529312134,0.033979352563619614
1707006810702091800,2.849091796875,0.015500693581998348,0.08009964227676392,0.027259841561317444
1707006810721051600,2.8680517578125,0.03260490670800209,0.059024810791015625,0.019013166427612305
1707006810740011300,2.88701123046875,0.03413207083940506,0.03428478538990021,0.020540328696370125
1707006810758971000,2.905970947265625,0.026801692321896553,0.0077121676877141,0.011682788841426373
1707006810777930800,2.9249306640625,0.024052800610661507,-0.015806125476956367,0.003741546766832471
1707006810796890400,2.943890380859375,0.030772313475608826,-0.032910339534282684,-0.0011453714687377214
1707006810815850000,2.96285009765625,0.02496909722685814,-0.034437503665685654,-0.006948587018996477
1707006810834809600,2.9818095703125,0.009697478264570236,-0.019471315667033195,-0.006337722297757864
1707006810853769500,3.00076953125,-0.0025198173243552446,-0.002061668550595641,-0.011224640533328056
1707006810872729000,3.01972900390625,-0.01107192412018776,0.017486004158854485,-0.009392046369612217
1707006810891688700,3.038688720703125,-0.01626427471637726,0.022678354755043983,-0.011224640533328056
1707006810910648300,3.0576484375,-0.022678354755043983,0.02542724646627903,-0.017944153398275375
1707006810929608200,3.076608154296875,-0.025121813639998436,0.01870773360133171,-0.01030834298580885
1707006810948567800,3.09556787109375,-0.022983787581324577,0.016875140368938446,-0.007254019379615784
1707006810967527400,3.11452734375,-0.019013166427612305,0.016569707542657852,-0.0023671009112149477
1707006810986487300,3.1334873046875,-0.0193185992538929,0.028176138177514076,-0.0029779658652842045
1707006811005446700,3.15244677734375,-0.018096869811415672,0.04405862092971802,0.012904518283903599
1707006811024406500,3.171406494140625,-0.01718057133257389,0.05169443041086197,0.021151192486286163
1707006811043366100,3.1903662109375,-0.0012980876490473747,0.04650207981467247,0.01718057133257389
1707006811062325800,3.20932568359375,0.014278964139521122,0.0193185992538929,0.0019089524867013097
1707006811081285600,3.22828564453125,0.010613775812089443,0.016569707542657852,0.00679587060585618
1707006811100245200,3.247245361328125,0.016416991129517555,0.043142326176166534,0.013209951110184193
1707006811119205000,3.266205078125,0.02588539570569992,0.04955640435218811,0.016875140368938446
1707006811138164500,3.28516455078125,0.020998476073145866,0.05108356848359108,0.016875140368938446
1707006811157124400,3.304124267578125,0.007254019379615784,0.06177370250225067,0.018402300775051117
1707006811176084000,3.323083984375,0.0029779658652842045,0.08956804871559143,0.015042545273900032
1707006811195043800,3.3420439453125,-0.0034361144062131643,0.12255474925041199,0.028787001967430115
1707006811214003500,3.36100341796875,-0.02328922040760517,0.11461350321769714,0.0501672700047493
1707006811232963000,3.379963134765625,-0.04405862092971802,0.07154753804206848,0.05230529606342316
1707006811251923000,3.3989228515625,-0.049861837178468704,0.0345902182161808,0.04222602769732475
1707006811270882600,3.417882568359375,-0.034895651042461395,0.01259908638894558,0.0397825688123703
1707006811289842200,3.43684228515625,-0.016875140368938446,0.00954476185142994,0.041004300117492676
1707006811308801800,3.4558017578125,-0.011377356946468353,0.024816380813717842,0.03581194952130318
1707006811327761700,3.47476171875,-0.007101302966475487,0.040088001638650894,0.03520108386874199
1707006811346721300,3.49372119140625,0.006948587018996477,0.04528035223484039,0.03764454275369644
1707006811365681000,3.512680908203125,0.017944153398275375,0.04253146052360535,0.03153589367866516
1707006811384640500,3.531640625,0.025274530053138733,0.0193185992538929,0.004046979360282421
1707006811403600100,3.55060009765625,0.025274530053138733,-0.003283398225903511,-0.023747367784380913
1707006811422560000,3.56956005859375,0.03260490670800209,-0.01763872057199478,-0.03474293276667595
1707006811441519600,3.58851953125,0.03260490670800209,-0.015195261687040329,-0.028634287416934967
1707006811460479500,3.6074794921875,0.018860450014472008,0.007406735327094793,-0.01763872057199478
1707006811479439000,3.626439208984375,0.010919207707047462,0.02328922040760517,-0.014584396965801716
1707006811498398700,3.645398681640625,0.00511599238961935,0.02542724646627903,-0.024663666263222694
1707006811517358300,3.6643583984375,0.0023671009112149477,0.02023489587008953,-0.03260490670800209
1707006811536318000,3.68331787109375,-0.0012980876490473747,0.011682788841426373,-0.03413207083940506
1707006811555277800,3.70227783203125,-0.0019089524867013097,0.01626427471637726,-0.027107125148177147
1707006811574237400,3.721237548828125,-0.005268708802759647,0.02542724646627903,-0.027107125148177147
1707006811593197000,3.740197021484375,-0.010155626572668552,0.03550651669502258,-0.03932442143559456
1707006811612156700,3.75915673828125,-0.011682788841426373,0.03153589367866516,-0.05123628303408623
1707006811631116500,3.778116455078125,-0.018096869811415672,0.04222602769732475,-0.04451677203178406
1707006811650076200,3.797076171875,-0.02023489587008953,0.07002037763595581,-0.023441936820745468
1707006811669035800,3.816035888671875,-0.019624030217528343,0.060551971197128296,-0.016416991129517555
1707006811687995600,3.83499560546875,-0.02176205813884735,0.031230462715029716,-0.020387612283229828
1707006811706955300,3.853955322265625,-0.016875140368938446,0.02237292192876339,-0.0191658828407526
1707006811725915000,3.872914794921875,-0.0006872228696011007,0.03825540840625763,-0.014889828860759735
1707006811744874500,3.89187451171875,-0.0022143847309052944,0.06666062027215958,0.004046979360282421
1707006811763834400,3.91083447265625,-0.018402300775051117,0.08468113094568253,0.013209951110184193
1707006811782794000,3.9297939453125,-0.02542724646627903,0.09017891436815262,0.009850194677710533
1707006811801753600,3.948753662109375,-0.014126247726380825,0.08895718306303024,0.007406735327094793
1707006811820713200,3.967713134765625,-0.0016035200096666813,0.06207913160324097,0.013515383005142212
1707006811839673000,3.986673095703125,0.014278964139521122,0.011682788841426373,0.0193185992538929
1707006811858632700,4.0056328125,0.02130390889942646,-0.03321577236056328,0.011988221667706966
1707006811877592300,4.02459228515625,0.014584396965801716,-0.0423787422478199,0.004352411720901728
1707006811896552200,4.04355224609375,0.009392046369612217,-0.020998476073145866,0.011377356946468353
1707006811915511800,4.06251171875,0.006337722297757864,0.022067490965127945,0.024205517023801804
1707006811934471400,4.081471435546875,0.008781181648373604,0.0501672700047493,0.026038112118840218
1707006811953431000,4.10043115234375,0.014889828860759735,0.060551971197128296,0.018402300775051117
1707006811972390700,4.119390625,0.01030834298580885,0.06635518372058868,0.016569707542657852
1707006811991350500,4.1383505859375,0.004199695307761431,0.054443322122097015,0.021151192486286163
1707006812010310100,4.15731005859375,0.0066431546583771706,0.0031306820455938578,0.011988221667706966
1707006812029269800,4.176269775390625,0.01030834298580885,-0.06223184987902641,-0.009086613543331623
1707006812048229400,4.1952294921875,0.017333287745714188,-0.11232276260852814,-0.02802342176437378
1707006812067189200,4.214189208984375,0.01183550525456667,-0.12301289290189743,-0.020387612283229828
1707006812086148900,4.23314892578125,-0.006490438245236874,-0.08422297984361649,-0.0005345066892914474
1707006812105108500,4.2521083984375,-0.02390008419752121,-0.024052800610661507,0.010155626572668552
1707006812124068400,4.271068359375,-0.03581194952130318,0.03917170315980911,0.011682788841426373
1707006812143027700,4.29002783203125,-0.03275762498378754,0.08040507882833481,0.016875140368938446
1707006812161987600,4.308987548828125,-0.02848157100379467,0.10606139898300171,0.02084576152265072
1707006812180947200,4.327947265625,-0.033368486911058426,0.11766783148050308,0.021151192486286163
1707006812199906800,4.34690673828125,-0.02909243479371071,0.07612902671098709,0.021456625312566757
1707006812218866700,4.36586669921875,-0.022678354755043983,-0.012140937149524689,0.01107192412018776
1707006812237826300,4.384826416015625,-0.022983787581324577,-0.06345357745885849,0.0022143847309052944
1707006812256786000,4.403785888671875,-0.019929463043808937,-0.06192641705274582,-0.002061668550595641
1707006812275745500,4.42274560546875,-0.00954476185142994,-0.01763872057199478,0.00954476185142994
1707006812294705200,4.441705078125,-0.010155626572668552,0.02848157100379467,0.03886627033352852
1707006812313665000,4.4606650390625,-0.02023489587008953,0.05108356848359108,0.04436405375599861
1707006812332624600,4.479624755859375,-0.02237292192876339,0.053832460194826126,0.023594651371240616
1707006812351584300,4.498584228515625,-0.008017600513994694,0.0449749194085598,0.011377356946468353
1707006812370543900,4.5175439453125,0.01763872057199478,0.006185005884617567,0.010766491293907166
1707006812389503700,4.536503662109375,0.030161447823047638,-0.042684175074100494,0.008628465235233307
1707006812408463400,4.55546337890625,0.020387612283229828,-0.06589704006910324,0.005268708802759647
1707006812427423000,4.574423095703125,0.0035888305865228176,-0.0628427118062973,0.003741546766832471
1707006812446382600,4.593382568359375,-0.005268708802759647,-0.04176788032054901,0.012293653562664986
1707006812465342200,4.61234228515625,-0.014431680552661419,-0.00603228947147727,0.015958841890096664
1707006812484302000,4.631302001953125,-0.026343543082475662,0.022983787581324577,0.019013166427612305
1707006812503261700,4.65026171875,-0.041004300117492676,0.03550651669502258,0.01718057133257389
1707006812522221300,4.66922119140625,-0.04711294546723366,0.04039343446493149,0.018096869811415672
1707006812541181000,4.688180908203125,-0.043142326176166534,0.06330086290836334,0.024205517023801804
1707006812560140500,4.707140625,-0.047723811119794846,0.09445496648550034,0.03245219215750694
1707006812579100400,4.726100341796875,-0.0550541877746582,0.10728313028812408,0.029703300446271896
1707006812598059800,4.745059814453125,-0.0501672700047493,0.08529199659824371,0.019929463043808937
1707006812617019600,4.76401953125,-0.033368486911058426,0.04589121788740158,0.011682788841426373
1707006812635979300,4.782979248046875,-0.01565340906381607,0.006185005884617567,-0.002672533504664898
1707006812654939000,4.80193896484375,-0.0012980876490473747,-0.029245151206851006,-0.004505127668380737
1707006812673898500,4.8208984375,0.0035888305865228176,-0.08055779337882996,-0.0191658828407526
1707006812692858000,4.839858154296875,-0.003741546766832471,-0.12820523977279663,-0.022525638341903687
1707006812711818000,4.85881787109375,0.00603228947147727,-0.12820523977279663,-0.020082179456949234
1707006812730777600,4.877777587890625,0.022220205515623093,-0.11720968037843704,-0.01824958436191082
1707006812749737200,4.8967373046875,0.00022907429956831038,-0.09246965497732162,-0.009086613543331623
1707006812768696800,4.91569677734375,-0.030314164236187935,-0.04604393243789673,0.0025198173243552446
1707006812787656400,4.934656494140625,-0.031230462715029716,0.021456625312566757,0.011377356946468353
1707006812806616300,4.9536162109375,-0.01259908638894558,0.06635518372058868,0.017486004158854485
1707006812825576000,4.972575927734375,-0.00954476185142994,0.04955640435218811,0.015042545273900032
1707006812844535600,4.99153564453125,-0.01259908638894558,-0.021914774551987648,-0.005421424750238657
1707006812863495200,5.0104951171875,0.002672533504664898,-0.083306685090065,-0.023747367784380913
1707006812882454800,5.029454833984375,0.03810269013047218,-0.13064870238304138,-0.03138317912817001
1707006812901414700,5.04841455078125,0.05123628303408623,-0.1758527010679245,-0.033826638013124466
1707006812920374300,5.067374267578125,0.03504836559295654,-0.22014039754867554,-0.04146244749426842
1707006812939334000,5.086333984375,0.023747367784380913,-0.24701844155788422,-0.0475710928440094
1707006812958293500,5.10529345703125,0.01824958436191082,-0.2427423894405365,-0.044211339205503464
1707006812977253000,5.124253173828125,0.01030834298580885,-0.19967642426490784,-0.03504836559295654
1707006812996213000,5.143212890625,-0.005574141163378954,-0.1352301836013794,-0.02588539570569992
1707006813015172600,5.162172607421875,-0.02542724646627903,-0.07261654734611511,-0.024052800610661507
1707006813034132200,5.18113232421875,-0.03581194952130318,-0.032910339534282684,-0.02802342176437378
1707006813053091800,5.200091796875,-0.03550651669502258,-0.020693045109510422,-0.029245151206851006
1707006813072051500,5.219051513671875,-0.03367391973733902,-0.030772313475608826,-0.03352120518684387
1707006813091011300,5.23801123046875,-0.03214675933122635,-0.05215258151292801,-0.03810269013047218
1707006813109971000,5.256970947265625,-0.029703300446271896,-0.0680350661277771,-0.04085158184170723
1707006813128930600,5.2759306640625,-0.028176138177514076,-0.07506000995635986,-0.04451677203178406
1707006813147890200,5.29489013671875,-0.024816380813717842,-0.07628174126148224,-0.04604393243789673
1707006813166849800,5.313849853515625,-0.015958841890096664,-0.06742420047521591,-0.05154171586036682
1707006813185809700,5.3328095703125,-0.006185005884617567,-0.046654798090457916,-0.051847148686647415
1707006813204769300,5.351769287109375,-0.005268708802759647,-0.026190826669335365,-0.04482220485806465
1707006813223729000,5.37072900390625,-0.004352411720901728,0.016875140368938446,-0.03260490670800209
1707006813242688800,5.389688720703125,0.009086613543331623,0.041615162044763565,-0.034437503665685654
1707006813261648400,5.4086484375,0.01611155830323696,0.022983787581324577,-0.03565923124551773
1707006813280608000,5.42760791015625,-0.00007635809743078426,-0.0035888305865228176,-0.0295505840331316
1707006813299567600,5.446567626953125,0.0017562361899763346,-0.014278964139521122,-0.023136503994464874
1707006813318527200,5.46552734375,0.027107125148177147,-0.02283107116818428,-0.017027854919433594
1707006813337487000,5.484487060546875,0.04085158184170723,-0.03565923124551773,-0.009697478264570236
1707006813356446700,5.50344677734375,0.034437503665685654,-0.056428633630275726,-0.014278964139521122
1707006813375406300,5.52240625,0.017944153398275375,-0.057039499282836914,-0.017944153398275375
1707006813394366000,5.541365966796875,0.019471315667033195,-0.02802342176437378,-0.007864884100854397
1707006813413325800,5.560325927734375,0.030772313475608826,0.0012980876490473747,0.014431680552661419
1707006813432285400,5.579285400390625,0.02802342176437378,0.0058795735239982605,0.028787001967430115
1707006813451245000,5.5982451171875,0.010613775812089443,-0.004810560029000044,0.02542724646627903
1707006813470204700,5.61720458984375,0.0029779658652842045,0.003741546766832471,0.02909243479371071
1707006813489164300,5.636164306640625,0.012751801870763302,0.013209951110184193,0.03550651669502258
1707006813508124200,5.655124267578125,0.020998476073145866,0.01259908638894558,0.03428478538990021
1707006813527083800,5.674083740234375,0.024663666263222694,0.0012980876490473747,0.02176205813884735
1707006813546043400,5.69304345703125,0.020082179456949234,-0.0057268571108579636,0.015347977168858051
1707006813565003000,5.7120029296875,0.01611155830323696,0.0009926552884280682,0.024510949850082397
1707006813583963000,5.730962890625,0.01183550525456667,0.011988221667706966,0.026648975908756256
1707006813602922500,5.749922607421875,0.004505127668380737,0.014431680552661419,0.024205517023801804
1707006813621882000,5.768882080078125,0.001450803829357028,0.015347977168858051,0.01565340906381607
1707006813640842000,5.787842041015625,0.0017562361899763346,0.011988221667706966,0.006490438245236874
1707006813659801600,5.806801513671875,-0.005268708802759647,0.011377356946468353,0.005574141163378954
1707006813678761200,5.82576123046875,-0.016875140368938446,0.014737112447619438,0.0058795735239982605
1707006813697720800,5.844720947265625,-0.022678354755043983,0.0058795735239982605,-0.0029779658652842045
1707006813716680700,5.8636806640625,-0.029397867619991302,-0.010613775812089443,-0.01030834298580885
1707006813735640300,5.882640380859375,-0.041615162044763565,0.005574141163378954,-0.014584396965801716
1707006813754600000,5.901599853515625,-0.03520108386874199,0.03275762498378754,-0.007864884100854397
1707006813773559800,5.920559814453125,-0.03275762498378754,0.03611737862229347,0.004657844081521034
1707006813792519400,5.93951953125,-0.052916161715984344,0.01870773360133171,0.002825249684974551
1707006813811479000,5.95847900390625,-0.05810851231217384,0.01107192412018776,-0.0057268571108579636
1707006813830438700,5.977438720703125,-0.043142326176166534,0.011988221667706966,-0.01030834298580885
1707006813849398500,5.9963984375,-0.03611737862229347,0.015958841890096664,0.0019089524867013097
1707006813868358100,6.015358154296875,-0.0449749194085598,0.014737112447619438,0.016569707542657852
1707006813887317800,6.03431787109375,-0.05199986323714256,0.024816380813717842,0.011682788841426373
1707006813906277600,6.053277587890625,-0.03917170315980911,0.06268999725580215,-0.0017562361899763346
1707006813925237200,6.0722373046875,-0.019013166427612305,0.08804088830947876,-0.0023671009112149477
1707006813944196900,6.09119677734375,-0.013515383005142212,0.08437569439411163,0.005574141163378954
1707006813963156700,6.11015673828125,-0.020540328696370125,0.06757691502571106,0.006490438245236874
1707006813982116400,6.129116455078125,-0.01626427471637726,0.05780307948589325,0.0019089524867013097
1707006814001076000,6.148075927734375,0.00022907429956831038,0.06788235157728195,-0.000839939049910754
1707006814020035800,6.167035888671875,0.014584396965801716,0.08193223923444748,-0.003894262947142124
1707006814038995500,6.185995361328125,0.01824958436191082,0.09170607477426529,-0.0023671009112149477
1707006814057955000,6.204955078125,0.016416991129517555,0.081015944480896,-0.001450803829357028
1707006814076914700,6.223914794921875,0.01763872057199478,0.06482802331447601,0.00007635809743078426
1707006814095874600,6.24287451171875,0.02496909722685814,0.04528035223484039,-0.00022907429956831038
1707006814114834200,6.261834228515625,0.027717988938093185,0.03825540840625763,-0.005421424750238657
1707006814133794000,6.2807939453125,0.02588539570569992,0.043753188103437424,-0.006948587018996477
1707006814152753700,6.299753662109375,0.0322994738817215,0.04833467677235603,-0.0011453714687377214
1707006814171713300,6.31871337890625,0.040546149015426636,0.041004300117492676,-0.004505127668380737
1707006814190673200,6.337673095703125,0.04176788032054901,0.015347977168858051,-0.01763872057199478
1707006814209632800,6.3566328125,0.0319940410554409,-0.02130390889942646,-0.021914774551987648
1707006814228592400,6.37559228515625,0.015500693581998348,-0.060093823820352554,-0.022525638341903687
1707006814247552300,6.39455224609375,-0.0016035200096666813,-0.07200568914413452,-0.013973532244563103
1707006814266512000,6.413511962890625,-0.004657844081521034,-0.05673406645655632,-0.0243582334369421
1707006814285471500,6.432471435546875,-0.0009926552884280682,-0.04848739132285118,-0.03565923124551773
1707006814304431400,6.451431396484375,-0.02756527252495289,-0.043600473552942276,-0.029856016859412193
1707006814323391000,6.470390869140625,-0.05169443041086197,-0.0295505840331316,-0.020693045109510422
1707006814342350800,6.489350830078125,-0.05230529606342316,0.0031306820455938578,-0.015195261687040329
1707006814361310500,6.508310546875,-0.04589121788740158,0.01779143698513508,-0.008170315995812416
1707006814380270000,6.52727001953125,-0.054443322122097015,-0.004810560029000044,-0.013668099418282509
1707006814399230000,6.54622998046875,-0.06452259421348572,-0.05062541738152504,-0.028634287416934967
1707006814418189600,6.565189453125,-0.05566505342721939,-0.07750347256660461,-0.03321577236056328
1707006814437149200,6.584149169921875,-0.046807512640953064,-0.08269581943750381,-0.022220205515623093
1707006814456109000,6.603109130859375,-0.04130972921848297,-0.08208495378494263,-0.018860450014472008
1707006814475068700,6.622068603515625,-0.028787001967430115,-0.06467530876398087,-0.029856016859412193
1707006814494028500,6.641028564453125,-0.019013166427612305,-0.04482220485806465,-0.06467530876398087
1707006814512988200,6.65998828125,-0.013209951110184193,-0.0576503649353981,-0.08941533416509628
1707006814531947800,6.67894775390625,-0.0031306820455938578,-0.0988837331533432,-0.10346522182226181
1707006814550907600,6.69790771484375,-0.013209951110184193,-0.14592032134532928,-0.12270746380090714
1707006814569867300,6.7168671875,-0.03550651669502258,-0.16668972373008728,-0.12851068377494812
1707006814588827000,6.735826904296875,-0.041004300117492676,-0.1092684343457222,-0.11201732605695724
1707006814607786800,6.754786865234375,-0.028176138177514076,0.037949975579977036,-0.07383827865123749
1707006814626746400,6.773746337890625,0.004505127668380737,0.2606101930141449,-0.024663666263222694
1707006814645706200,6.792706298828125,0.030466880649328232,0.48479756712913513,-0.00511599238961935
1707006814664665900,6.811665771484375,0.009392046369612217,0.6323214173316956,-0.041157014667987823
1707006814683625700,6.830625732421875,-0.07979421317577362,0.6683624386787415,-0.12118030339479446
1707006814702585300,6.84958544921875,-0.16073378920555115,0.6469821333885193,-0.17982332408428192
1707006814721545000,6.868544921875,-0.15859577059745789,0.6521745324134827,-0.20609050989151
1707006814740504600,6.887504638671875,-0.06177370250225067,0.6094139814376831,-0.20242531597614288
1707006814759464400,6.90646435546875,0.07903063297271729,0.47349655628204346,-0.18959715962409973
1707006814778424000,6.925424072265625,0.15844304859638214,0.21571162343025208,-0.17188207805156708
1707006814797384000,6.944384033203125,0.13125957548618317,-0.17768529057502747,-0.1453094631433487
1707006814816343600,6.963343505859375,-0.005574141163378954,-0.6172025203704834,-0.10132719576358795
1707006814835303400,6.982303466796875,-0.12896881997585297,-0.8774309158325195,-0.0527634471654892
1707006814854263000,7.001262939453125,-0.1787542998790741,-0.8212313652038574,-0.01030834298580885
1707006814873222700,7.02022265625,-0.17722713947296143,-0.5420661568641663,0.029397867619991302
1707006814892182500,7.0391826171875,-0.16134466230869293,-0.18532110750675201,0.03672824427485466
1707006814911142100,7.05814208984375,-0.14576761424541473,0.1265253722667694,-0.012446369975805283
1707006814930101800,7.077101806640625,-0.1066722646355629,0.31955865025520325,-0.06375901401042938
1707006814949061600,7.0960615234375,-0.07154753804206848,0.31528258323669434,-0.09491311758756638
1707006814968021200,7.115021240234375,-0.05719221383333206,0.11278090626001358,-0.13156500458717346
1707006814986981000,7.133981201171875,-0.03520108386874199,-0.16974404454231262,-0.17860159277915955
1707006815005940700,7.152940673828125,0.0023671009112149477,-0.4174497127532959,-0.22105668485164642
1707006815024900600,7.171900634765625,0.03779725730419159,-0.5765799880027771,-0.24549128115177155
1707006815043860200,7.190860107421875,0.04085158184170723,-0.6281980872154236,-0.23999349772930145
1707006815062819800,7.20981982421875,0.0011453714687377214,-0.5622246861457825,-0.191735178232193
1707006815081779700,7.22877978515625,-0.06268999725580215,-0.3710239827632904,-0.1242346242070198
1707006815100739300,7.2477392578125,-0.13629920780658722,-0.1193477064371109,-0.055512335151433945
1707006815119699000,7.266698974609375,-0.20074543356895447,0.16928590834140778,-0.01611155830323696
1707006815138658800,7.285658935546875,-0.2395353466272354,0.37636905908584595,-0.0243582334369421
1707006815157618400,7.304618408203125,-0.2807687222957611,0.45730865001678467,-0.06436987966299057
1707006815176578300,7.323578369140625,-0.29848378896713257,0.4313468933105469,-0.13064870238304138
1707006815195538000,7.342537841796875,-0.2859610617160797,0.3436878025531769,-0.2216675579547882
1707006815214497500,7.36149755859375,-0.261526495218277,0.21143557131290436,-0.2998582422733307
1707006815233457400,7.38045751953125,-0.2196822464466095,0.05810851231217384,-0.335288405418396
1707006815252417000,7.3994169921875,-0.18669554591178894,-0.058566659688949585,-0.3310123383998871
1707006815271377000,7.418376953125,-0.1628718227148056,-0.1190422773361206,-0.32123851776123047
1707006815290336500,7.43733642578125,-0.15493057668209076,-0.21036656200885773,-0.32276567816734314
1707006815309296000,7.456296142578125,-0.13416117429733276,-0.34872743487358093,-0.29710936546325684
1707006815328256000,7.475256103515625,-0.13446660339832306,-0.47212210297584534,-0.26656612753868103
1707006815347215600,7.494215576171875,-0.1472947746515274,-0.567111611366272,-0.2720639109611511
1707006815366175200,7.51317529296875,-0.15004366636276245,-0.6260600686073303,-0.3093266487121582
1707006815385135000,7.532135009765625,-0.14607304334640503,-0.5747473835945129,-0.33712100982666016
1707006815404094700,7.5510947265625,-0.12255474925041199,-0.4269181191921234,-0.30688318610191345
1707006815423054600,7.5700546875,-0.09048434346914291,-0.22899793088436127,-0.25465425848960876
1707006815442014200,7.58901416015625,-0.033368486911058426,-0.10590868443250656,-0.21067199110984802
1707006815460973800,7.607973876953125,0.00511599238961935,-0.17799071967601776,-0.20364704728126526
1707006815479933400,7.626933349609375,-0.0025198173243552446,-0.432721346616745,-0.21067199110984802
1707006815498893300,7.645893310546875,-0.02756527252495289,-0.7430406212806702,-0.212504580616951
1707006815517853000,7.66485302734375,-0.043753188103437424,-0.9287435412406921,-0.2070067971944809
1707006815536812800,7.683812744140625,-0.030314164236187935,-0.9907463192939758,-0.16180281341075897
1707006815555772400,7.7027724609375,-0.021151192486286163,-0.9589813351631165,-0.07536543905735016
1707006815574732000,7.72173193359375,-0.02328922040760517,-0.9345467686653137,0.02909243479371071
1707006815593692000,7.74069189453125,-0.04069886729121208,-0.8957568407058716,0.12163844704627991
1707006815612651500,7.759651611328125,-0.037033677101135254,-0.8218421936035156,0.1274416595697403
1707006815631611100,7.778611083984375,-0.010461059398949146,-0.7183006405830383,0.05413788929581642
1707006815650571000,7.797571044921875,0.003283398225903511,-0.5518399477005005,0.0019089524867013097
1707006815669530600,7.816530517578125,-0.0006872228696011007,-0.3294851779937744,0.00679587060585618
1707006815688490200,7.835490234375,0.001450803829357028,-0.09308052062988281,0.015347977168858051
1707006815707450000,7.8544501953125,0.02649625949561596,0.07521272450685501,0.02756527252495289
1707006815726409700,7.87340966796875,0.08605557680130005,0.15584687888622284,0.016569707542657852
1707006815745369300,7.892369384765625,0.14194969832897186,0.16378812491893768,0.015347977168858051
1707006815764329200,7.9113291015625,0.16332997381687164,0.13599377870559692,0.02328922040760517
1707006815783288800,7.930288818359375,0.1602756530046463,0.08009964227676392,0.031841326504945755
1707006815802248400,7.94924853515625,0.12667807936668396,0.017486004158854485,0.029703300446271896
1707006815821208300,7.968208251953125,0.09918916970491409,0.0034361144062131643,0.05841394513845444
1707006815840168000,7.98716796875,0.12270746380090714,0.07765618711709976,0.11766783148050308
1707006815859127600,8.00612744140625,0.19387321174144745,0.2144898921251297,0.18241949379444122
1707006815878087400,8.02508740234375,0.2473238706588745,0.3430769443511963,0.23709189891815186
1707006815897047000,8.044047119140625,0.2375500351190567,0.41271552443504333,0.2551124095916748
1707006815916006700,8.063006591796874,0.2015090137720108,0.4139372408390045,0.2697731554508209
1707006815934966300,8.08196630859375,0.19326233863830566,0.38247770071029663,0.28412848711013794
1707006815953926100,8.100926025390624,0.2121991515159607,0.35987570881843567,0.2709949016571045
1707006815972885800,8.1198857421875,0.2424369603395462,0.30489787459373474,0.27801984548568726
1707006815991845600,8.138845703125,0.2580140233039856,0.20502148568630219,0.27404922246932983
1707006816010805200,8.15780517578125,0.21006113290786743,0.03825540840625763,0.22243113815784454
1707006816029764900,8.176764892578126,0.10835213959217072,-0.17921245098114014,0.1579848974943161
1707006816048724500,8.195724365234375,0.004505127668380737,-0.4287507236003876,0.11369720846414566
1707006816067684400,8.214684326171875,-0.059024810791015625,-0.6627119183540344,0.09873101860284805
1707006816086644000,8.23364404296875,-0.0755181610584259,-0.8285617232322693,0.10209077596664429
1707006816105603600,8.252603515625,-0.04833467677235603,-0.8734602928161621,0.13110685348510742
1707006816124563500,8.2715634765625,-0.03275762498378754,-0.7683915495872498,0.16042836010456085
1707006816143523000,8.290523193359375,-0.08223766833543777,-0.5359575152397156,0.16012293100357056
1707006816162482700,8.309482666015626,-0.16439898312091827,-0.24121522903442383,0.152487114071846
1707006816181442300,8.3284423828125,-0.2456440031528473,0.07246383279561996,0.18639011681079865
1707006816200402200,8.347402099609376,-0.35957029461860657,0.38614290952682495,0.22548545897006989
1707006816219361800,8.36636181640625,-0.40752315521240234,0.7306706309318542,0.2914588451385498
1707006816238321400,8.3853212890625,-0.28321218490600586,1.1472804546356201,0.34979644417762756
1707006816257281300,8.40428125,-0.06604975461959839,1.5095232725143433,0.3522399067878723
1707006816276241000,8.423240966796875,0.12759438157081604,1.6604068279266357,0.28809911012649536
1707006816295200500,8.442200439453124,0.10835213959217072,1.4484367370605469,0.2199876755475998
1707006816314160000,8.46116015625,-0.14973822236061096,0.9114866256713867,0.19097159802913666
1707006816333119700,8.48011962890625,-0.31955865025520325,0.3989710509777069,0.19738568365573883
1707006816352079400,8.499079345703125,-0.2774089574813843,0.1534034162759781,0.2346484363079071
1707006816371039200,8.518039306640626,-0.1375209391117096,0.20288346707820892,0.2709949016571045
1707006816389998800,8.536998779296875,-0.0034361144062131643,0.43806639313697815,0.2557232677936554
1707006816408958500,8.55595849609375,0.08941533416509628,0.6860775351524353,0.1842520833015442
1707006816427918300,8.57491845703125,0.14133884012699127,0.8357393741607666,0.10239620506763458
1707006816446878000,8.5938779296875,0.18929173052310944,0.8873574733734131,0.05261072888970375
1707006816465837600,8.612837646484374,0.28550294041633606,0.8757510185241699,0.04955640435218811
1707006816484797200,8.631797119140625,0.4366919696331024,0.8491783738136292,0.07460185885429382
1707006816503757000,8.650757080078124,0.5802451968193054,0.8085559010505676,0.09445496648550034
1707006816522716700,8.669716552734375,0.640720784664154,0.7019599676132202,0.08651372790336609
1707006816541676300,8.68867626953125,0.6199513673782349,0.5031235218048096,0.0553596206009388
1707006816560636000,8.707635986328125,0.5613083839416504,0.21754421293735504,0.03367391973733902
1707006816579595500,8.726595458984375,0.5408443808555603,-0.09644027799367905,0.033368486911058426
1707006816598555400,8.745555419921875,0.5206858515739441,-0.3340666890144348,0.0345902182161808
1707006816617515000,8.764514892578125,0.4027889668941498,-0.4782307744026184,-0.013668099418282509
1707006816636474600,8.783474609375,0.1352301836013794,-0.488004595041275,-0.13339759409427643
1707006816655434200,8.802434326171875,-0.12621992826461792,-0.29588761925697327,-0.2378554791212082
1707006816674393900,8.821393798828124,-0.23312127590179443,0.04283689334988594,-0.26167920231819153
1707006816693353700,8.840353759765625,-0.25877758860588074,0.42279478907585144,-0.24426954984664917
1707006816712313300,8.859313232421876,-0.297872930765152,0.7517454624176025,-0.27023130655288696
1707006816731273000,8.87827294921875,-0.36140286922454834,0.9826523661613464,-0.3505600392818451
1707006816750232600,8.897232666015626,-0.3723984360694885,1.1002438068389893,-0.43424850702285767
1707006816769192200,8.916192138671875,-0.27374377846717834,1.1130720376968384,-0.4571559429168701
1707006816788152000,8.935152099609375,-0.09476039558649063,0.9667698740959167,-0.41958773136138916
1707006816807111700,8.954111572265624,-0.029703300446271896,0.6124683022499084,-0.43577566742897034
1707006816826071300,8.9730712890625,-0.15401428937911987,0.1222493126988411,-0.5255727767944336
1707006816845031000,8.992031005859374,-0.22579088807106018,-0.2570977210998535,-0.5500074028968811
1707006816863990500,9.010990478515625,-0.18028147518634796,-0.48647743463516235,-0.427528977394104
1707006816882950400,9.029950439453126,-0.09476039558649063,-0.6410261988639832,-0.32612544298171997
1707006816901910000,9.048909912109375,0.013057234697043896,-0.7366265654563904,-0.36858054995536804
1707006816920869600,9.06786962890625,0.11629338562488556,-0.7622829079627991,-0.46173742413520813
1707006816939829200,9.086829345703125,0.1550832986831665,-0.7842740416526794,-0.4904480576515198
1707006816958788900,9.105788818359375,0.11476621776819229,-0.8569669127464294,-0.4232529401779175
1707006816977748500,9.12474853515625,0.015500693581998348,-0.9629519581794739,-0.3404807448387146
1707006816996708400,9.143708251953125,-0.13874267041683197,-1.0567196607589722,-0.303523451089859
1707006817015668000,9.16266796875,-0.21784965693950653,-1.1010074615478516,-0.25129449367523193
1707006817034627600,9.181627685546875,-0.1781434416770935,-1.0768781900405884,-0.191735178232193
1707006817053587200,9.200587158203126,-0.12957969307899475,-1.039310097694397,-0.15844304859638214
1707006817072546800,9.219546875,-0.15676318109035492,-0.9568433165550232,-0.1349247545003891
1707006817091506400,9.23850634765625,-0.24228423833847046,-0.8358920812606812,-0.1251509189605713
1707006817110466000,9.257466064453125,-0.3125337064266205,-0.6657662391662598,-0.13706278800964355
1707006817129426000,9.276426025390625,-0.3375791609287262,-0.5365683436393738,-0.13095413148403168
1707006817148385500,9.295385498046874,-0.3155880272388458,-0.48189595341682434,-0.10682497918605804
1707006817167345200,9.31434521484375,-0.26916229724884033,-0.5170207023620605,-0.06956222653388977
1707006817186304800,9.3333046875,-0.23067781329154968,-0.5909352898597717,-0.042073313146829605
1707006817205264400,9.352264404296875,-0.21632249653339386,-0.6697368621826172,-0.008781181648373604
1707006817224224000,9.37122412109375,-0.21204642951488495,-0.6914225816726685,0.022983787581324577
1707006817243183600,9.39018359375,-0.21021384000778198,-0.6196459531784058,0.04039343446493149
1707006817262143200,9.409143310546876,-0.20807582139968872,-0.4641808867454529,0.09231694042682648
1707006817281102800,9.428102783203125,-0.17661628127098083,-0.26106834411621094,0.189444437623024
1707006817300062700,9.447062744140625,-0.11766783148050308,-0.07414371520280838,0.26824599504470825
1707006817319022000,9.46602197265625,-0.052916161715984344,0.03611737862229347,0.2914588451385498
1707006817337982000,9.48498193359375,0.004810560029000044,0.0703258067369461,0.29390230774879456
1707006817356941600,9.503941650390624,0.0475710928440094,0.040088001638650894,0.3009272515773773
1707006817375901200,9.522901123046875,0.06620246917009354,-0.03871355578303337,0.2957349121570587
1707006817394860800,9.54186083984375,0.06223184987902641,-0.1404225379228592,0.2667188346385956
1707006817413820400,9.5608203125,0.09613484144210815,-0.2323576956987381,0.2545015513896942
1707006817432780000,9.579780029296876,0.2219729870557785,-0.21555891633033752,0.32047492265701294
1707006817451739600,9.59873974609375,0.3554469347000122,0.01259908638894558,0.44264790415763855
1707006817470699300,9.61769921875,0.261984646320343,0.21540619432926178,0.49854201078414917
1707006817489659000,9.636658935546874,-0.008017600513994694,0.27863070368766785,0.4365392327308655
1707006817508618800,9.65561865234375,-0.183030366897583,0.29848378896713257,0.3110065162181854
1707006817527578000,9.674578125,-0.21784965693950653,0.3577376902103424,0.20777037739753723
1707006817546538000,9.6935380859375,-0.08651372790336609,0.5807033181190491,0.1628718227148056
1707006817565497600,9.71249755859375,0.13889537751674652,0.9359211921691895,0.14088068902492523
1707006817584457200,9.731457275390625,0.30688318610191345,1.2321906089782715,0.12713623046875
1707006817603416800,9.750416748046876,0.3191004991531372,1.3112976551055908,0.13416117429733276
1707006817622376400,9.76937646484375,0.1553887277841568,1.1393392086029053,0.15890119969844818
1707006817641336000,9.788336181640625,-0.014431680552661419,0.8155808448791504,0.19188790023326874
1707006817660295700,9.807295654296874,-0.07307469844818115,0.4902953505516052,0.22884522378444672
1707006817679255300,9.82625537109375,-0.039477135986089706,0.27313292026519775,0.25786128640174866
1707006817698215000,9.84521484375,0.04024071618914604,0.2196822464466095,0.22853977978229523
1707006817717174500,9.864174560546875,0.08269581943750381,0.2908479869365692,0.13813179731369019
1707006817736134100,9.883134033203126,0.08758273720741272,0.4344012141227722,0.03275762498378754
1707006817755093800,9.90209375,0.08727730810642242,0.5574904680252075,-0.0023671009112149477
1707006817774053400,9.921053466796875,0.09277509152889252,0.6277399063110352,0.03764454275369644
1707006817793013000,9.940012939453124,0.11354449391365051,0.6662244200706482,0.09537126123905182
1707006817811972600,9.95897265625,0.17463096976280212,0.699821949005127,0.11033745110034943
1707006817830932200,9.97793212890625,0.2540434002876282,0.7050142884254456,0.07918334752321243
1707006817849891800,9.996891845703125,0.3285689055919647,0.6744710803031921,0.026648975908756256
1707006817868851500,10.0158515625,0.3139081299304962,0.5235874652862549,-0.020387612283229828
1707006817887811000,10.03481103515625,0.17737986147403717,0.2202931046485901,-0.06101011857390404
1707006817906770700,10.053770751953126,-0.015347977168858051,-0.16791145503520966,-0.10651954263448715
1707006817925730300,10.072730224609375,-0.12927426397800446,-0.4699840843677521,-0.1559995859861374
1707006817944690000,10.09168994140625,-0.1430187225341797,-0.576274573802948,-0.18776455521583557
1707006817963649500,10.1106494140625,-0.15981750190258026,-0.46540260314941406,-0.22594361007213593
1707006817982609200,10.129609130859375,-0.2758817970752716,-0.2723693251609802,-0.2781725525856018
1707006818001568800,10.14856884765625,-0.4108829200267792,-0.10865757614374161,-0.3142135739326477
1707006818020528400,10.1675283203125,-0.4606684148311615,-0.013668099418282509,-0.3151298761367798
1707006818039488300,10.18648828125,-0.4209621846675873,-0.03810269013047218,-0.2723693251609802
1707006818058447600,10.205447509765625,-0.4707476794719696,-0.24426954984664917,-0.2592357397079468
1707006818077407200,10.2244072265625,-0.5978075265884399,-0.5768854022026062,-0.32307112216949463
1707006818096366800,10.243366943359375,-0.6653081178665161,-0.8401681184768677,-0.39423686265945435
1707006818115326500,10.262326416015625,-0.6304888129234314,-0.9174425601959229,-0.4058432877063751
1707006818134286000,10.2812861328125,-0.4670824706554413,-0.9293544292449951,-0.40950846672058105
1707006818153245700,10.30024560546875,-0.19005531072616577,-0.8190932869911194,-0.4489092528820038
1707006818172205300,10.319205322265624,0.024052800610661507,-0.6514109373092651,-0.45043641328811646
1707006818191165000,10.3381650390625,0.053374309092760086,-0.5946004986763,-0.38934993743896484
1707006818210124500,10.35712451171875,-0.025121813639998436,-0.6275871992111206,-0.28092142939567566
1707006818229084200,10.376084228515625,-0.1219438835978508,-0.6853139400482178,-0.1764635592699051
1707006818248043800,10.395043701171875,-0.18974986672401428,-0.7030289769172668,-0.17951788008213043
1707006818267003400,10.41400341796875,-0.21784965693950653,-0.6486620306968689,-0.2369391769170761
1707006818285963000,10.432962890625,-0.22182027995586395,-0.5548942685127258,-0.22960880398750305
1707006818304922600,10.451922607421874,-0.2496146261692047,-0.4476875364780426,-0.18684826791286469
1707006818323882200,10.47088232421875,-0.2599993348121643,-0.34781113266944885,-0.18959715962409973
1707006818342841900,10.489841796875,-0.1992182731628418,-0.24671301245689392,-0.2067013680934906
1707006818361801500,10.508801513671875,-0.12163844704627991,-0.1291215419769287,-0.20273074507713318
1707006818380760800,10.5277607421875,-0.11980585753917694,-0.04024071618914604,-0.1599702090024948
1707006818399720700,10.546720703125,-0.18058690428733826,-0.019471315667033195,-0.09613484144210815
1707006818418680300,10.565680419921875,-0.22823435068130493,-0.011224640533328056,-0.00847574882209301
1707006818437639700,10.5846396484375,-0.2047160565853119,0.019624030217528343,0.08040507882833481
1707006818456599300,10.603599365234375,-0.13049599528312683,0.0397825688123703,0.14637847244739532
1707006818475559000,10.622558837890624,-0.04589121788740158,0.029397867619991302,0.19158247113227844
1707006818494518500,10.6415185546875,0.035964664071798325,0.01626427471637726,0.24258968234062195
1707006818513478100,10.66047802734375,0.13736821711063385,0.010155626572668552,0.3216966688632965
1707006818532437800,10.679437744140625,0.2375500351190567,-0.00755945174023509,0.3785070776939392
1707006818551397400,10.6983974609375,0.28611379861831665,-0.08697187155485153,0.3794233798980713
1707006818570357000,10.71735693359375,0.2894735336303711,-0.21891866624355316,0.3488801419734955
1707006818589316600,10.736316650390625,0.25007277727127075,-0.37835437059402466,0.3021489977836609
1707006818608276200,10.755276123046874,0.20914483070373535,-0.5399280786514282,0.2651916742324829
1707006818627235800,10.77423583984375,0.26962044835090637,-0.5866592526435852,0.3131445646286011
1707006818646195200,10.7931953125,0.33315038681030273,-0.37407833337783813,0.3891972303390503
1707006818665154800,10.81215478515625,0.14805835485458374,-0.08605557680130005,0.34643667936325073
1707006818684114400,10.831114501953126,-0.1424078494310379,0.09201150387525558,0.23587016761302948
1707006818703074000,10.850073974609375,-0.3482692837715149,0.21479532122612,0.16562071442604065
1707006818722033700,10.86903369140625,-0.38064512610435486,0.38644832372665405,0.1882227063179016
1707006818740993300,10.8879931640625,-0.19463679194450378,0.6659189462661743,0.23739732801914215
1707006818759953000,10.906952880859375,0.08116865903139114,1.0428224802017212,0.23159411549568176
1707006818778912500,10.92591259765625,0.31238096952438354,1.4560725688934326,0.16684244573116302
1707006818797872000,10.9448720703125,0.4534907341003418,1.7816635370254517,0.12499820441007614
1707006818816831700,10.963831787109376,0.37285658717155457,1.8137339353561401,0.18974986672401428
1707006818835791400,10.982791259765625,0.20853395760059357,1.5721368789672852,0.3174206018447876
1707006818854750700,11.001750732421876,0.12545634806156158,1.2535709142684937,0.43348491191864014
1707006818873710600,11.020710693359375,0.1450040340423584,1.0052543878555298,0.5055669546127319
1707006818892670200,11.039670166015625,0.22319471836090088,0.9029344916343689,0.49487683176994324
1707006818911629600,11.058629638671874,0.28580835461616516,0.9096540212631226,0.40630143880844116
1707006818930589200,11.077589111328125,0.308104932308197,0.940808117389679,0.30428701639175415
1707006818949548800,11.096548828125,0.2992473840713501,0.9524145722389221,0.20288346707820892
1707006818968508400,11.11550830078125,0.3032180070877075,0.9273691177368164,0.09567669779062271
1707006818987468000,11.134468017578126,0.3655261993408203,0.9563851952552795,-0.04787652567028999
1707006819006427600,11.153427734375,0.5603920817375183,0.9679915904998779,-0.12209659814834595
1707006819025387300,11.17238720703125,0.7512873411178589,0.940808117389679,-0.11873684078454971
1707006819044347000,11.191346923828124,0.9137773513793945,0.9059888124465942,-0.14408773183822632
1707006819063306500,11.210306396484375,1.0304524898529053,0.8128319382667542,-0.20456334948539734
1707006819082266000,11.22926611328125,0.9543998837471008,0.5443568825721741,-0.289168119430542
1707006819101225700,11.248225830078125,0.6556869745254517,-0.00022907429956831038,-0.30077454447746277
1707006819120185300,11.267185302734376,0.38324129581451416,-0.6364447474479675,-0.25068363547325134
1707006819139144700,11.286144775390625,0.27572908997535706,-1.0075451135635376,-0.13797907531261444
1707006819158104300,11.305104248046876,0.13309216499328613,-1.0512219667434692,-0.12881611287593842
1707006819177064000,11.32406396484375,-0.12469277530908585,-0.9873865842819214,-0.1761581301689148
1707006819196023600,11.3430234375,-0.38095054030418396,-0.9256892204284668,-0.18318307399749756
1707006819214983200,11.361983154296874,-0.6384300589561462,-0.9015600681304932,-0.23021966218948364
1707006819233942800,11.38094287109375,-0.8549816012382507,-0.909501314163208,-0.34811657667160034
1707006819252902400,11.39990234375,-0.9576069116592407,-0.9217185974121094,-0.4519635736942291
1707006819271862000,11.418862060546875,-0.9707404971122742,-0.9134719371795654,-0.5219075679779053
1707006819290821600,11.437821533203126,-0.9179006814956665,-0.8187878727912903,-0.6190351247787476
1707006819309781200,11.45678125,-0.6973785161972046,-0.5735256671905518,-0.7091376781463623
1707006819328740900,11.475740966796875,-0.41179922223091125,-0.3954585790634155,-0.6905062794685364
1707006819347700500,11.494700439453124,-0.3329976499080658,-0.5176315307617188,-0.5924624800682068
1707006819366660000,11.51366015625,-0.5110647678375244,-0.8728494048118591,-0.5044979453086853
1707006819385619700,11.53261962890625,-0.6738601922988892,-1.2189042568206787,-0.5115228891372681
1707006819404579000,11.5515791015625,-0.6109411120414734,-1.5249475240707397,-0.5402335524559021
1707006819423538700,11.57053857421875,-0.4295142889022827,-1.8105268478393555,-0.6123155951499939
1707006819442498600,11.58949853515625,-0.26855143904685974,-1.9931753873825073,-0.6929497122764587
1707006819461458000,11.6084580078125,-0.21021384000778198,-1.9956188201904297,-0.761366605758667
1707006819480417500,11.62741748046875,-0.24808746576309204,-1.8199952840805054,-0.7961859107017517
1707006819499377200,11.646377197265625,-0.3009272515773773,-1.5359431505203247,-0.7925207018852234
1707006819518336800,11.665336669921874,-0.2859610617160797,-1.2347867488861084,-0.7390699982643127
1707006819537296400,11.68429638671875,-0.20593778789043427,-0.9800561666488647,-0.6651554107666016
1707006819556256000,11.703256103515624,-0.13141228258609772,-0.7735838890075684,-0.5515345335006714
1707006819575215600,11.722215576171875,-0.08254310488700867,-0.595211386680603,-0.395764023065567
1707006819594175200,11.74117529296875,-0.06421715766191483,-0.42966702580451965,-0.2680932879447937
1707006819613134800,11.760134765625,-0.11339177191257477,-0.3132972717285156,-0.20761767029762268
1707006819632094500,11.779094482421876,-0.16073378920555115,-0.25495967268943787,-0.15905392169952393
1707006819651054000,11.79805419921875,-0.1268308013677597,-0.23938263952732086,-0.04848739132285118
1707006819670013700,11.817013671875,-0.019929463043808937,-0.22319471836090088,0.12102758139371872
1707006819688973300,11.835973388671874,0.07689260691404343,-0.14866921305656433,0.2548069655895233
1707006819707933000,11.854932861328125,0.08208495378494263,-0.043600473552942276,0.34002259373664856
1707006819726892500,11.873892578125,0.04634936526417732,0.03733910992741585,0.3946950137615204
1707006819745852200,11.89285205078125,-0.0006872228696011007,0.06940951198339462,0.446007639169693
1707006819764811800,11.911811767578126,-0.022983787581324577,0.039477135986089706,0.5083158612251282
1707006819783771400,11.930771484375,0.040546149015426636,0.02237292192876339,0.6054433584213257
1707006819802731000,11.94973095703125,0.15935935080051422,0.14118611812591553,0.774042010307312
1707006819821690600,11.968690673828124,0.13828451931476593,0.3268890082836151,0.9169843792915344
1707006819840650200,11.987650146484375,0.003894262947142124,0.51564621925354,0.9783763289451599
1707006819859609900,12.00660986328125,-0.08345939964056015,0.7318923473358154,0.9933425188064575
1707006819878569500,12.025569580078125,-0.09750928729772568,0.9487493634223938,1.0199151039123535
1707006819897529000,12.044529052734376,-0.025121813639998436,1.2169189453125,1.071533203125
1707006819916488700,12.06348876953125,0.1553887277841568,1.6020692586898804,1.0904699563980103
1707006819935448300,12.0824482421875,0.36430448293685913,2.024176836013794,1.016860842704773
1707006819954408000,12.101407958984375,0.5090794563293457,2.3690099716186523,0.8867465853691101
1707006819973367300,12.1203671875,0.5310705900192261,2.532721757888794,0.7862593531608582
1707006819992327200,12.1393271484375,0.4336376488208771,2.412686824798584,0.7636573314666748
1707006820011286800,12.158286865234375,0.3453676700592041,2.1173336505889893,0.7801506519317627
1707006820030246100,12.17724609375,0.34842199087142944,1.8115959167480469,0.7828995585441589
1707006820049206000,12.1962060546875,0.4211149215698242,1.6112321615219116,0.7438042163848877
1707006820068165600,12.21516552734375,0.49228066205978394,1.5568652153015137,0.6463713049888611
1707006820087125000,12.234125,0.5585594773292542,1.5724422931671143,0.5022072196006775
1707006820106084600,12.253084716796875,0.5973494052886963,1.6039018630981445,0.3180314898490906
1707006820125044500,12.27204443359375,0.6300306916236877,1.670791506767273,0.07979421317577362
1707006820144003800,12.29100390625,0.7091376781463623,1.6320016384124756,-0.04482220485806465
1707006820162963500,12.30996337890625,0.732655942440033,1.4734822511672974,-0.06925679743289948
1707006820181923300,12.32892333984375,0.732655942440033,1.2578469514846802,-0.07170025259256363
1707006820200883000,12.347883056640624,0.7665589451789856,1.035492181777954,-0.09308052062988281
1707006820219842300,12.36684228515625,0.8209258913993835,0.8036689758300781,-0.10774127393960953
1707006820238802000,12.385802001953126,0.8322269320487976,0.5107592940330505,-0.11690424382686615
1707006820257761800,12.40476171875,0.7567850947380066,0.12438733875751495,-0.15202897787094116
1707006820276721200,12.42372119140625,0.593684196472168,-0.28092142939567566,-0.1611919403076172
1707006820295680800,12.4426806640625,0.4119519293308258,-0.5900190472602844,-0.15416699647903442
1707006820314640600,12.461640625,0.2170860767364502,-0.8334486484527588,-0.16821688413619995
1707006820333600000,12.48060009765625,0.014889828860759735,-1.0429753065109253,-0.23510658740997314
1707006820352559600,12.4995595703125,-0.13019055128097534,-1.1599558591842651,-0.3746891915798187
1707006820371519200,12.518519287109376,-0.19616395235061646,-1.1651482582092285,-0.5668061375617981
1707006820390478800,12.537478759765625,-0.28901541233062744,-1.1926370859146118,-0.6926442980766296
1707006820409438500,12.5564384765625,-0.5425242781639099,-1.3963605165481567,-0.7601448893547058
1707006820428398000,12.575398193359375,-0.7951168417930603,-1.5322779417037964,-0.8230639100074768
1707006820447357700,12.594357666015625,-0.8653663396835327,-1.4284309148788452,-0.7940478324890137
1707006820466317300,12.6133173828125,-0.867504358291626,-1.2109630107879639,-0.6822596192359924
1707006820485277000,12.63227685546875,-0.8042798638343811,-1.0496947765350342,-0.5698604583740234
1707006820504236500,12.651236572265624,-0.626518189907074,-0.9455423355102539,-0.5759690999984741
1707006820523196200,12.670196044921875,-0.4756345748901367,-0.9400445222854614,-0.6688205599784851
1707006820542155800,12.68915576171875,-0.4570032060146332,-1.1358267068862915,-0.743346095085144
1707006820561115400,12.708115478515625,-0.5339722037315369,-1.483408808708191,-0.7680860757827759
1707006820580075000,12.727074951171875,-0.6320159435272217,-1.7998367547988892,-0.7598394155502319
1707006820599034600,12.74603466796875,-0.6595048904418945,-1.9806526899337769,-0.7402917742729187
1707006820617994200,12.764994140625,-0.6133846044540405,-2.016693592071533,-0.7286853194236755
1707006820636953900,12.783953857421874,-0.5474112033843994,-1.9436954259872437,-0.7094430923461914
1707006820655913500,12.80291357421875,-0.4979311525821686,-1.776929259300232,-0.6816487312316895
1707006820674873000,12.821873046875,-0.4808269441127777,-1.5527418851852417,-0.6373610496520996
1707006820693832700,12.840832763671875,-0.4664716124534607,-1.2857940196990967,-0.5741365551948547
1707006820712792300,12.859792236328126,-0.45730865001678467,-0.9922734498977661,-0.5020545125007629
1707006820731752000,12.878751953125,-0.46219557523727417,-0.7002801299095154,-0.40431612730026245
1707006820750711600,12.897711669921875,-0.48510298132896423,-0.4672352075576782,-0.30657777190208435
1707006820769671200,12.916671142578124,-0.5416079759597778,-0.3313177824020386,-0.20792309939861298
1707006820788630800,12.935630859375,-0.6283507943153381,-0.2583194375038147,-0.11598794907331467
1707006820807590400,12.95459033203125,-0.6744710803031921,-0.21067199110984802,-0.03107774630188942
1707006820826550000,12.973550048828125,-0.6469821333885193,-0.13584105670452118,0.03733910992741585
1707006820845509600,12.992509521484376,-0.5694023370742798,-0.002672533504664898,0.09201150387525558
1707006820864469200,13.01146923828125,-0.4615846872329712,0.14882193505764008,0.13813179731369019
1707006820883428900,13.030428955078126,-0.3638463318347931,0.26794055104255676,0.18730641901493073
1707006820902388200,13.04938818359375,-0.29390230774879456,0.3268890082836151,0.26396992802619934
1707006820921348000,13.06834814453125,-0.2401462197303772,0.312228262424469,0.33574655652046204
1707006820940307700,13.0873076171875,-0.14912736415863037,0.2713003158569336,0.4087449014186859
1707006820959267000,13.10626708984375,-0.00679587060585618,0.28962627053260803,0.5235874652862549
1707006820978226700,13.125226806640624,0.04298960790038109,0.4301251769065857,0.6268236041069031
1707006820997186300,13.144186279296875,0.01030834298580885,0.6433169841766357,0.6753873825073242
1707006821016146000,13.16314599609375,-0.024205517023801804,0.8464295268058777,0.7108175158500671
1707006821035105500,13.18210546875,-0.07948877662420273,0.98631751537323,0.7044034600257874
1707006821054065200,13.201065185546875,-0.07490729540586472,1.0409899950027466,0.6430115103721619
1707006821073024800,13.220024658203124,0.08575014024972916,1.2147809267044067,0.5416079759597778
1707006821091984400,13.238984375,0.33284494280815125,1.5654174089431763,0.4081340432167053
1707006821110944000,13.257944091796874,0.5781071782112122,1.9716423749923706,0.26427537202835083
1707006821129903600,13.276903564453125,0.7375428676605225,2.3073127269744873,0.1573740392923355
1707006821148863200,13.29586328125,0.7390699982643127,2.3858087062835693,0.11888955533504486
1707006821167822800,13.31482275390625,0.6312524080276489,2.1674246788024902,0.14576761424541473
1707006821186782500,13.333782470703126,0.5512291193008423,1.7984622716903687,0.21784965693950653
1707006821205742000,13.3527421875,0.5399280786514282,1.4643192291259766,0.266107976436615
1707006821224701700,13.37170166015625,0.5497019290924072,1.2141700983047485,0.24320054054260254
1707006821243661000,13.3906611328125,0.5506182312965393,1.0525963306427002,0.15126539766788483
1707006821262620700,13.40962060546875,0.5603920817375183,0.9808197617530823,0.047723811119794846
1707006821281580300,13.428580322265624,0.6159807443618774,0.9799034595489502,-0.03321577236056328
1707006821300540000,13.447539794921875,0.7091376781463623,0.9942587614059448,-0.07139482349157333
1707006821319499500,13.46649951171875,0.799240231513977,0.9811251759529114,-0.08910989761352539
1707006821338459100,13.485459228515625,0.917747974395752,0.885219395160675,-0.03932442143559456
1707006821357418800,13.504418701171875,1.0402263402938843,0.7688496708869934,0.08865175396203995
1707006821376378400,13.52337841796875,1.1291072368621826,0.663475513458252,0.16745330393314362
1707006821395338000,13.542337890625,1.1278854608535767,0.5067886710166931,0.17447824776172638
1707006821414297600,13.561297607421874,0.9733366966247559,0.22548545897006989,0.14668390154838562
1707006821433257200,13.58025732421875,0.6465240120887756,-0.18806999921798706,0.1424078494310379
1707006821452216600,13.599216552734376,0.3340666890144348,-0.5744419693946838,0.16653701663017273
1707006821471176200,13.61817626953125,0.12667807936668396,-0.8383355736732483,0.10545053333044052
1707006821490135800,13.6371357421875,-0.006490438245236874,-0.9430988430976868,-0.017333287745714188
1707006821509095400,13.656095458984375,-0.13446660339832306,-0.955621600151062,-0.14622575044631958
1707006821528055000,13.675054931640625,-0.3174206018447876,-0.983415961265564,-0.3102429509162903
1707006821547014700,13.6940146484375,-0.5660426020622253,-1.0570251941680908,-0.4693732261657715
1707006821565974300,13.712974365234375,-0.755105197429657,-1.0750457048416138,-0.5255727767944336
1707006821584934000,13.731933837890624,-0.857119619846344,-0.984332263469696,-0.48678287863731384
1707006821603893500,13.7508935546875,-0.9389755129814148,-0.8303943276405334,-0.39851289987564087
1707006821622853000,13.76985302734375,-0.9252310395240784,-0.69722580909729,-0.2888626754283905
1707006821641812700,13.788812744140625,-0.7957277297973633,-0.5729147791862488,-0.25037819147109985
1707006821660772000,13.807772216796875,-0.6555342674255371,-0.5063305497169495,-0.2775616943836212
1707006821679731700,13.826731689453124,-0.5913934707641602,-0.5881864428520203,-0.3392590284347534
1707006821698691300,13.84569140625,-0.5965858101844788,-0.8169552683830261,-0.4024835228919983
1707006821717651000,13.86465087890625,-0.6579777002334595,-1.0979530811309814,-0.4522690176963806
1707006821736610600,13.883610595703125,-0.7157044410705566,-1.352072834968567,-0.4693732261657715
1707006821755570200,13.902570068359376,-0.727921724319458,-1.529529094696045,-0.4629591405391693
1707006821774529800,13.92152978515625,-0.6686678528785706,-1.5933644771575928,-0.4516581594944
1707006821793489200,13.9404892578125,-0.5602393746376038,-1.5292235612869263,-0.47609272599220276
1707006821812448800,13.95944873046875,-0.4444804787635803,-1.3792563676834106,-0.5283216834068298
1707006821831408400,13.978408447265625,-0.3568213880062103,-1.1825578212738037,-0.5503128170967102
1707006821850368000,13.997367919921874,-0.2816850244998932,-0.9953277707099915,-0.5124391913414001
1707006821869327600,14.01632763671875,-0.203799769282341,-0.8499419689178467,-0.4266127049922943
1707006821888287000,14.035286865234376,-0.15554144978523254,-0.6953932046890259,-0.3154352903366089
1707006821907246600,14.05424658203125,-0.17905974388122559,-0.5414552688598633,-0.20822852849960327
1707006821926206200,14.073206298828126,-0.24320054054260254,-0.39423686265945435,-0.11812597513198853
1707006821945165800,14.092165771484375,-0.3113119602203369,-0.2118937224149704,-0.037491824477910995
1707006821964125400,14.11112548828125,-0.35498878359794617,-0.0371863916516304,0.017486004158854485
1707006821983085000,14.1300849609375,-0.3693441152572632,0.08926261961460114,0.05719221383333206
1707006822002044700,14.149044677734375,-0.31955865025520325,0.18791727721691132,0.11217004805803299
1707006822021004300,14.16800439453125,-0.20318889617919922,0.2804632782936096,0.18486295640468597
1707006822039963600,14.186963623046875,-0.05933023989200592,0.3592648506164551,0.25816673040390015
1707006822058923300,14.20592333984375,0.05581776797771454,0.3635408878326416,0.30337071418762207
1707006822077883000,14.2248828125,0.11079560220241547,0.256334125995636,0.3116174042224884
1707006822096842500,14.243842529296876,0.1508072465658188,0.049250971525907516,0.32505643367767334
1707006822115802000,14.262802001953125,0.2699258625507355,-0.10804671049118042,0.404468834400177
1707006822134761500,14.281761474609375,0.3795761168003082,-0.05887209251523018,0.5205331444740295
1707006822153721000,14.30072119140625,0.30718863010406494,0.09048434346914291,0.5920043587684631
1707006822172680700,14.3196806640625,0.11843141168355942,0.19982914626598358,0.6222421526908875
1707006822191640300,14.338640380859376,-0.06299543380737305,0.35132360458374023,0.5843685269355774
1707006822210599700,14.357599609375,-0.17569997906684875,0.5764272809028625,0.5492438077926636
1707006822229559300,14.376559326171876,-0.14607304334640503,0.9374483823776245,0.5339722037315369
1707006822248519000,14.395518798828125,0.00847574882209301,1.4383574724197388,0.5141190886497498
1707006822267478500,14.414478515625,0.22044582664966583,2.0150139331817627,0.44356417655944824
1707006822286438100,14.433438232421874,0.42416924238204956,2.5119524002075195,0.36140286922454834
1707006822305397500,14.4523974609375,0.5142717957496643,2.7468297481536865,0.2856556475162506
1707006822324357000,14.471357177734374,0.4544070363044739,2.619158983230591,0.2502254843711853
1707006822343316700,14.490316650390625,0.3710239827632904,2.264246702194214,0.2853502035140991
1707006822362276400,14.5092763671875,0.36369362473487854,1.8742095232009888,0.34521496295928955
1707006822381236000,14.528236083984375,0.4122573733329773,1.5623630285263062,0.3745364546775818
1707006822400195300,14.5471953125,0.4831176698207855,1.3506983518600464,0.34643667936325073
1707006822419155000,14.566155029296874,0.5790234804153442,1.2413536310195923,0.25816673040390015
1707006822438114600,14.585114501953125,0.6645445227622986,1.191873550415039,0.12102758139371872
1707006822457074200,14.60407421875,0.7082213759422302,1.1136828660964966,-0.012751801870763302
1707006822476033500,14.623033447265625,0.7076104879379272,0.9511927962303162,-0.09308052062988281
1707006822494993200,14.6419931640625,0.6902008652687073,0.7294489145278931,-0.10041090101003647
1707006822513952800,14.660952880859375,0.6895899772644043,0.5214494466781616,-0.07567087560892105
1707006822532912400,14.679912353515626,0.7051670551300049,0.3687332570552826,-0.028328854590654373
1707006822551872000,14.6988720703125,0.7299070358276367,0.25877758860588074,0.0651334598660469
1707006822570831400,14.717831298828125,0.7091376781463623,0.16592614352703094,0.10178534686565399
1707006822589791000,14.736791015625,0.5799397230148315,0.04528035223484039,0.0709366723895073
1707006822608750600,14.75575048828125,0.3972911834716797,-0.11995857208967209,0.06482802331447601
1707006822627710200,14.774710205078126,0.20731224119663239,-0.3041343092918396,0.06268999725580215
1707006822646669600,14.793669677734375,0.03627009689807892,-0.4684569239616394,0.022983787581324577
1707006822665629200,14.812629150390626,-0.09781472384929657,-0.5735256671905518,-0.0423787422478199
1707006822684588800,14.8315888671875,-0.21723878383636475,-0.6168970465660095,-0.12392919510602951
1707006822703548400,14.85054833984375,-0.30337071418762207,-0.6621010899543762,-0.2170860767364502
1707006822722507800,14.8695078125,-0.3992764949798584,-0.7500655651092529,-0.3355938494205475
1707006822741467400,14.88846728515625,-0.5642099976539612,-0.880790650844574,-0.4693732261657715
1707006822760427000,14.907427001953126,-0.7233402729034424,-0.9956332445144653,-0.5411498546600342
1707006822779386400,14.926386474609375,-0.7700713872909546,-0.9864702820777893,-0.4983893036842346
1707006822798346000,14.945345947265626,-0.7120392322540283,-0.8933134078979492,-0.3875173330307007
1707006822817305600,14.9643056640625,-0.552603542804718,-0.8142064213752747,-0.2925278842449188
1707006822836265200,14.98326513671875,-0.30886849761009216,-0.7830522656440735,-0.27542364597320557
1707006822855224600,15.002224609375,-0.15126539766788483,-0.8896481990814209,-0.3206276595592499
1707006822874184200,15.02118408203125,-0.1726456582546234,-1.2002729177474976,-0.376827210187912
1707006822893143800,15.040143798828124,-0.2871828079223633,-1.5887829065322876,-0.4424951672554016
1707006822912103400,15.059103515625,-0.39072439074516296,-1.8774164915084839,-0.5356520414352417
1707006822931062800,15.078062744140626,-0.44386962056159973,-1.9968405961990356,-0.61201012134552
1707006822950022400,15.0970224609375,-0.44753479957580566,-1.9879831075668335,-0.6382773518562317
1707006822968981800,15.115981689453125,-0.4243219494819641,-1.8850523233413696,-0.6535489559173584
1707006822987941400,15.13494140625,-0.3934732675552368,-1.703320026397705,-0.6850084662437439
1707006823006901000,15.15390087890625,-0.33513569831848145,-1.4705805778503418,-0.6895899772644043
1707006823025860600,15.172860595703124,-0.2645808160305023,-1.2256238460540771,-0.6401099562644958
1707006823044820200,15.1918203125,-0.21113014221191406,-1.0008255243301392,-0.5448150038719177
1707006823063779600,15.210779541015626,-0.18516838550567627,-0.8041270971298218,-0.4366919696331024
1707006823082739200,15.2297392578125,-0.17600540816783905,-0.6456077098846436,-0.33315038681030273
1707006823101698600,15.248698486328125,-0.14118611812591553,-0.5170207023620605,-0.2375500351190567
1707006823120658200,15.267658203125,-0.0910952091217041,-0.4479929506778717,-0.1761581301689148
1707006823139617800,15.28661767578125,-0.07887791097164154,-0.4800633490085602,-0.14225514233112335
1707006823158577400,15.305577392578124,-0.11583523452281952,-0.5744419693946838,-0.13248129189014435
1707006823177536800,15.324536865234375,-0.16439898312091827,-0.6862302422523499,-0.13370302319526672
1707006823196496400,15.343496337890626,-0.18180863559246063,-0.7155517339706421,-0.13736821711063385
1707006823215455700,15.362455810546875,-0.183030366897583,-0.6202568411827087,-0.12270746380090714
1707006823234415400,15.381415283203125,-0.17569997906684875,-0.43424850702285767,-0.06986765563488007
1707006823253375000,15.400375,-0.1628718227148056,-0.1703549176454544,0.0058795735239982605
1707006823272334600,15.41933447265625,-0.2096029818058014,0.11339177191257477,0.06330086290836334
1707006823291294000,15.4382939453125,-0.2651916742324829,0.349185585975647,0.12866339087486267
1707006823310253600,15.457253662109375,-0.2248746007680893,0.5730675458908081,0.22823435068130493
1707006823329213000,15.476212890625,-0.13446660339832306,0.7963386178016663,0.3381900191307068
1707006823348172500,15.495172607421875,-0.11980585753917694,0.9441678524017334,0.4243219494819641
1707006823367132200,15.514132080078125,-0.20593778789043427,0.9527199864387512,0.4240165054798126
1707006823386091800,15.533091796875,-0.2658025324344635,0.8754456043243408,0.37545275688171387
1707006823405051100,15.552051025390625,-0.2450331300497055,0.7471640110015869,0.3125337064266205
1707006823424010800,15.5710107421875,-0.11950042098760605,0.6879100799560547,0.27374377846717834
1707006823442970000,15.58997021484375,0.08483384549617767,0.8256601095199585,0.24808746576309204
1707006823461929700,15.6089296875,0.2735910713672638,1.1231513023376465,0.261526495218277
1707006823480889300,15.627889404296875,0.3413970470428467,1.4798963069915771,0.29940009117126465
1707006823499848700,15.6468486328125,0.27603453397750854,1.6946152448654175,0.28260132670402527
1707006823518808300,15.665808349609375,0.12087486684322357,1.688812017440796,0.2801578640937805
1707006823537768000,15.684767822265625,-0.00923932995647192,1.5287654399871826,0.31039565801620483
1707006823556727300,15.703727294921874,-0.03061959706246853,1.3534473180770874,0.3174206018447876
1707006823575687000,15.72268701171875,0.028328854590654373,1.2053126096725464,0.28504478931427
1707006823594646500,15.741646484375,0.11049016565084457,1.0950515270233154,0.20349432528018951
1707006823613606000,15.76060595703125,0.20761767029762268,1.0302997827529907,0.09537126123905182
1707006823632565500,15.7795654296875,0.3453676700592041,0.98631751537323,-0.0017562361899763346
1707006823651525000,15.798525146484375,0.5044979453086853,0.9899827241897583,-0.08483384549617767
1707006823670484500,15.817484375,0.594295084476471,1.0357975959777832,-0.19998185336589813
1707006823689444000,15.836444091796874,0.6697368621826172,1.0568723678588867,-0.2677878439426422
1707006823708403500,15.855403564453125,0.7833577394485474,1.0764200687408447,-0.2225838601589203
1707006823727363000,15.874363037109376,0.9308815598487854,1.1133774518966675,-0.14103341102600098
1707006823746322700,15.89332275390625,1.0105993747711182,1.08100163936615,-0.07689260691404343
1707006823765282000,15.912281982421876,0.9641736745834351,0.8174134492874146,-0.026190826669335365
1707006823784241700,15.93124169921875,0.7354048490524292,0.3317759335041046,-0.03138317912817001
1707006823803201300,15.950201171875,0.44127345085144043,-0.27542364597320557,-0.07047852128744125
1707006823822160600,15.96916064453125,0.2372446060180664,-0.7567850947380066,-0.13095413148403168
1707006823841120300,15.988120361328125,0.12331832945346832,-1.0344231128692627,-0.191735178232193
1707006823860079600,16.00707958984375,0.07261654734611511,-1.159345030784607,-0.2531270980834961
1707006823879039200,16.026039306640627,0.07933606207370758,-1.1208604574203491,-0.3044397234916687
1707006823897998800,16.044998779296876,-0.046807512640953064,-1.0335068702697754,-0.39332056045532227
1707006823916958500,16.06395849609375,-0.30520331859588623,-1.0332014560699463,-0.4531853199005127
1707006823935917800,16.082917724609374,-0.49823659658432007,-1.0194569826126099,-0.39484772086143494
1707006823954877400,16.10187744140625,-0.6033053398132324,-0.9348521828651428,-0.2482401728630066
1707006823973836800,16.1208369140625,-0.591088056564331,-0.8737657070159912,-0.11537708342075348
1707006823992796400,16.13979638671875,-0.4554760456085205,-0.8597158193588257,-0.06956222653388977
1707006824011756000,16.158756103515625,-0.3079521954059601,-0.8942296504974365,-0.08025235682725906
1707006824030715400,16.17771533203125,-0.2294560819864273,-1.029536247253418,-0.083306685090065
1707006824049675000,16.196675048828126,-0.2658025324344635,-1.240895390510559,-0.09949459880590439
1707006824068634400,16.21563427734375,-0.38736462593078613,-1.409799575805664,-0.13339759409427643
1707006824087594000,16.234593994140624,-0.4857138693332672,-1.446146011352539,-0.1651625633239746
1707006824106553600,16.2535537109375,-0.5394699573516846,-1.4284309148788452,-0.19478951394557953
1707006824125513200,16.27251318359375,-0.5614610910415649,-1.3688715696334839,-0.2430478185415268
1707006824144472600,16.29147265625,-0.5632936954498291,-1.2305107116699219,-0.3203222155570984
1707006824163432200,16.31043212890625,-0.5315287113189697,-1.0420589447021484,-0.40370526909828186
1707006824182391600,16.3293916015625,-0.46341729164123535,-0.8600212335586548,-0.4516581594944
1707006824201351200,16.34835107421875,-0.4004982113838196,-0.7183006405830383,-0.44493862986564636
1707006824220310800,16.367310791015626,-0.3586539924144745,-0.6025417447090149,-0.39973464608192444
1707006824239270400,16.3862705078125,-0.3323867917060852,-0.5020545125007629,-0.32826346158981323
1707006824258229800,16.405229736328124,-0.3113119602203369,-0.3908770978450775,-0.22014039754867554
1707006824277189400,16.424189453125,-0.27893611788749695,-0.26534438133239746,-0.10651954263448715
1707006824296148700,16.443148681640626,-0.24136795103549957,-0.1700494885444641,-0.0322994738817215
1707006824315108400,16.4621083984375,-0.20349432528018951,-0.16302454471588135,0.015958841890096664
1707006824334068000,16.48106787109375,-0.17234022915363312,-0.21525347232818604,0.0657443255186081
1707006824353027600,16.500027587890624,-0.15401428937911987,-0.26503896713256836,0.10911571979522705
1707006824371987000,16.518987060546873,-0.14515674114227295,-0.28183773159980774,0.12255474925041199
1707006824390946600,16.537946533203126,-0.1573740392923355,-0.24946190416812897,0.10086904466152191
1707006824409906200,16.55690625,-0.16959133744239807,-0.20517420768737793,0.07918334752321243
1707006824428865500,16.575865478515624,-0.17753258347511292,-0.1446985900402069,0.07185296714305878
1707006824447825200,16.5948251953125,-0.17234022915363312,-0.0784197673201561,0.08529199659824371
1707006824466784800,16.61378466796875,-0.08529199659824371,0.07521272450685501,0.173256516456604
1707006824485744000,16.632744140625,0.01672242395579815,0.3021489977836609,0.3165042996406555
1707006824504703700,16.651703857421875,-0.006490438245236874,0.5590176582336426,0.4444804787635803
1707006824523663400,16.670663330078124,-0.07154753804206848,0.8281035423278809,0.5477166175842285
1707006824542622700,16.689622802734377,-0.13446660339832306,1.0232748985290527,0.5669588446617126
1707006824561582300,16.708582275390626,-0.18211406469345093,1.1839323043823242,0.5318341255187988
1707006824580542000,16.7275419921875,-0.09689842909574509,1.4808125495910645,0.5229766368865967
1707006824599501600,16.74650146484375,0.13889537751674652,1.941710114479065,0.5119810700416565
1707006824618461000,16.7654609375,0.4125627875328064,2.3977205753326416,0.4392881393432617
1707006824637420500,16.784420654296873,0.6474403142929077,2.762406826019287,0.3110065162181854
1707006824656380200,16.803380126953126,0.7934370040893555,2.963075876235962,0.1931096315383911
1707006824675339500,16.822339599609375,0.7842740416526794,2.8799984455108643,0.1375209391117096
1707006824694299100,16.841299072265624,0.6388881802558899,2.5287511348724365,0.17692171037197113
1707006824713258800,16.8602587890625,0.5594757795333862,2.1151957511901855,0.26274821162223816
1707006824732218000,16.879218017578125,0.583910346031189,1.7917428016662598,0.34582582116127014
1707006824751177700,16.898177734375,0.6617956161499023,1.524489402770996,0.3516290485858917
1707006824770137300,16.917137451171875,0.7827468514442444,1.2700642347335815,0.25205808877944946
1707006824789097000,16.936096923828124,0.9174425601959229,1.0235803127288818,0.08681915700435638
1707006824808056600,16.955056640625,1.0472513437271118,0.8433752059936523,-0.114460788667202
1707006824827016000,16.974015869140626,1.1941642761230469,0.6060542464256287,-0.18532110750675201
1707006824845975600,16.9929755859375,1.2201260328292847,0.3070359230041504,-0.10987929999828339
1707006824864935200,17.01193505859375,1.1168898344039917,0.06268999725580215,-0.040546149015426636
1707006824883894500,17.03089453125,1.0191515684127808,-0.0836121141910553,0.011377356946468353
1707006824902854100,17.049854248046874,1.0121265649795532,-0.07597630470991135,0.10942115634679794
1707006824921813800,17.068813720703126,1.0157917737960815,0.038560837507247925,0.20777037739753723
1707006824940773400,17.0877734375,0.9208022952079773,0.12286017835140228,0.2764926850795746
1707006824959732700,17.106732666015624,0.695698618888855,0.09231694042682648,0.2911534309387207
1707006824978692400,17.1256923828125,0.41011935472488403,-0.06131555140018463,0.28993168473243713
1707006824997652000,17.14465185546875,0.1495855152606964,-0.2729802131652832,0.27404922246932983
1707006825016611600,17.163611572265626,0.01000291109085083,-0.45654505491256714,0.19799654185771942
1707006825035571000,17.182571044921875,-0.04558578506112099,-0.5982657074928284,0.04558578506112099
1707006825054530600,17.201530517578124,-0.07704532146453857,-0.6969203352928162,-0.14683662354946136
1707006825073490200,17.220490234375,-0.10850485414266586,-0.7836631536483765,-0.36277732253074646
1707006825092449800,17.23944970703125,-0.2401462197303772,-0.9415717124938965,-0.5787180066108704
1707006825111409200,17.2584091796875,-0.4606684148311615,-1.1138355731964111,-0.7277690172195435
1707006825130368800,17.27736865234375,-0.6390409469604492,-1.1642318964004517,-0.7289907336235046
1707006825149328400,17.296328369140625,-0.719369649887085,-1.1242202520370483,-0.6031526327133179
1707006825168288000,17.3152880859375,-0.7080686092376709,-1.0695478916168213,-0.4379136860370636
1707006825187247600,17.33424755859375,-0.6042216420173645,-1.0151809453964233,-0.3975966274738312
1707006825206207000,17.35320703125,-0.5257254838943481,-1.0386991500854492,-0.5148826241493225
1707006825225166600,17.37216650390625,-0.5345830321311951,-1.2274564504623413,-0.6730966567993164
1707006825244126200,17.391126220703125,-0.5840631127357483,-1.5237258672714233,-0.7552579641342163
1707006825263085600,17.41008544921875,-0.6066650748252869,-1.8129702806472778,-0.752203643321991
1707006825282045200,17.429045166015626,-0.5883391499519348,-2.0084469318389893,-0.7097485065460205
1707006825301004800,17.4480048828125,-0.5376373529434204,-2.0991604328155518,-0.6614902019500732
1707006825319964400,17.46696435546875,-0.48998990654945374,-2.0961060523986816,-0.6318632364273071
1707006825338923800,17.485923828125,-0.451200008392334,-2.0228023529052734,-0.6123155951499939
1707006825357883400,17.50488330078125,-0.41668614745140076,-1.9149847030639648,-0.5774962902069092
1707006825376843000,17.523843017578123,-0.3840048611164093,-1.8044182062149048,-0.5237401723861694
1707006825395802600,17.542802734375,-0.34552037715911865,-1.6492584943771362,-0.48128509521484375
1707006825414762000,17.561761962890625,-0.31039565801620483,-1.4760783910751343,-0.46906778216362
1707006825433721600,17.5807216796875,-0.28504478931427,-1.3025927543640137,-0.45990481972694397
1707006825452681200,17.59968115234375,-0.3174206018447876,-1.1355212926864624,-0.4489092528820038
1707006825471640800,17.618640869140624,-0.3937787115573883,-0.9715040922164917,-0.43913543224334717
1707006825490600400,17.637600341796876,-0.4395935535430908,-0.7577013969421387,-0.4006509482860565
1707006825509559800,17.656559814453125,-0.4200458824634552,-0.46692976355552673,-0.33742642402648926
1707006825528519400,17.67551953125,-0.385532021522522,-0.1349247545003891,-0.2674824297428131
1707006825547479000,17.69447900390625,-0.3378845751285553,0.15431971848011017,-0.1810450553894043
1707006825566438700,17.713438720703124,-0.29878923296928406,0.3116174042224884,-0.06895136088132858
1707006825585398000,17.73239794921875,-0.2868773639202118,0.30398157238960266,0.044669486582279205
1707006825604357600,17.751357666015625,-0.28443390130996704,0.18150319159030914,0.13935352861881256
1707006825623317200,17.770317138671874,-0.26732969284057617,0.03245219215750694,0.2047160565853119
1707006825642276600,17.789276611328123,-0.21326816082000732,-0.05123628303408623,0.27832525968551636
1707006825661236200,17.808236328125,-0.11278090626001358,0.008628465235233307,0.4139372408390045
1707006825680195800,17.82719580078125,-0.091400645673275,0.1735619604587555,0.5599339008331299
1707006825699155200,17.8461552734375,-0.1726456582546234,0.3482692837715149,0.6304888129234314
1707006825718114800,17.86511474609375,-0.21021384000778198,0.5150353908538818,0.6378191709518433
1707006825737074400,17.884074462890624,-0.18761184811592102,0.6381246447563171,0.6341540217399597
1707006825756034000,17.903033935546876,-0.13507747650146484,0.7734311819076538,0.6530908346176147
1707006825774993700,17.92199365234375,-0.07948877662420273,0.9573014378547668,0.6381246447563171
1707006825793953000,17.940953125,-0.0034361144062131643,1.22944176197052,0.5425242781639099
1707006825812912600,17.95991259765625,0.13309216499328613,1.627725601196289,0.4035525321960449
1707006825831872300,17.978872314453124,0.3053560256958008,2.032423496246338,0.321391224861145
1707006825850832000,17.997831787109376,0.3606393039226532,2.244699001312256,0.29878923296928406
1707006825869791500,18.01679150390625,0.21952952444553375,2.146960735321045,0.33421939611434937
1707006825888750800,18.035750732421874,0.0781143307685852,1.89589524269104,0.40171995759010315
1707006825907710500,18.05471044921875,0.08147408813238144,1.6753729581832886,0.4395935535430908
1707006825926669800,18.073669921875,0.16699515283107758,1.560835838317871,0.3928624093532562
1707006825945629400,18.09262939453125,0.2421315312385559,1.5260165929794312,0.25877758860588074
1707006825964589000,18.111589111328126,0.2900844216346741,1.5183807611465454,0.07643445581197739
1707006825983548700,18.130548583984375,0.34658941626548767,1.5028036832809448,-0.08452841639518738
1707006826002508000,18.149508056640624,0.43088874220848083,1.4603486061096191,-0.20761767029762268
1707006826021467600,18.168467529296876,0.5200750231742859,1.4191151857376099,-0.3505600392818451
1707006826040427300,18.18742724609375,0.631557822227478,1.3436734676361084,-0.3817141354084015
1707006826059387000,18.206386962890626,0.7134137153625488,1.310686707496643,-0.2980256676673889
1707006826078346200,18.22534619140625,0.7628937363624573,1.3256529569625854,-0.2271653413772583
1707006826097305900,18.244305908203124,0.825507402420044,1.310381293296814,-0.19326233863830566
1707006826116265500,18.263265380859377,0.8667407631874084,1.1677443981170654,-0.15935935080051422
1707006826135224800,18.282224853515626,0.7375428676605225,0.8876628875732422,-0.14194969832897186
1707006826154184400,18.301184326171875,0.3817141354084015,0.3626246154308319,-0.09246965497732162
1707006826173144000,18.32014404296875,0.1193477064371109,-0.25465425848960876,-0.01977674663066864
1707006826192103400,18.339103515625,0.06589704006910324,-0.8090140223503113,0.010766491293907166
1707006826211063000,18.35806298828125,-0.049861837178468704,-1.2247074842453003,-0.08239039033651352
1707006826230022700,18.377022705078126,-0.30367615818977356,-1.4269037246704102,-0.20273074507713318
1707006826248982300,18.395982177734375,-0.6017781496047974,-1.3025927543640137,-0.17524182796478271
1707006826267942000,18.41494189453125,-0.8540652990341187,-0.9791398644447327,-0.07780890166759491
1707006826286901200,18.4339013671875,-0.9563851952552795,-0.7008909583091736,-0.07506000995635986
1707006826305860900,18.45286083984375,-0.9096540212631226,-0.5170207023620605,-0.15783219039440155
1707006826324820200,18.4718203125,-0.7758746147155762,-0.46570804715156555,-0.24701844155788422
1707006826343779800,18.49077978515625,-0.6521745324134827,-0.5976548194885254,-0.33162322640419006
1707006826362739500,18.509739501953124,-0.5975021123886108,-0.8722385764122009,-0.3762163519859314
1707006826381699000,18.528698974609377,-0.6307942271232605,-1.1969131231307983,-0.390571653842926
1707006826400658400,18.547658447265626,-0.6897426843643188,-1.491044521331787,-0.3804923892021179
1707006826419618000,18.5666181640625,-0.6802743077278137,-1.676747441291809,-0.34261879324913025
1707006826438577700,18.58557763671875,-0.6127737164497375,-1.749440312385559,-0.2833648920059204
1707006826457537000,18.604537109375,-0.5364156365394592,-1.7439426183700562,-0.2277761995792389
1707006826476496600,18.62349658203125,-0.48449212312698364,-1.6523128747940063,-0.19570580124855042
1707006826495456300,18.642456298828126,-0.47991064190864563,-1.4882956743240356,-0.17249293625354767
1707006826514415600,18.66141552734375,-0.4811323583126068,-1.2830450534820557,-0.15844304859638214
1707006826533375200,18.680375244140624,-0.42310020327568054,-1.1092541217803955,-0.1553887277841568
1707006826552334800,18.6993349609375,-0.32383468747138977,-0.9461531639099121,-0.1245400533080101
1707006826571294200,18.718294189453125,-0.22640176117420197,-0.7473167181015015,-0.06406444311141968
1707006826590253800,18.73725390625,-0.16531528532505035,-0.5500074028968811,-0.006948587018996477
1707006826609213400,18.75621337890625,-0.15676318109035492,-0.39393141865730286,0.037033677101135254
1707006826628172800,18.7751728515625,-0.15493057668209076,-0.2589302957057953,0.09262236952781677
1707006826647132400,18.79413232421875,-0.11003202199935913,-0.12851068377494812,0.16134466230869293
1707006826666092000,18.813092041015626,-0.03428478538990021,-0.014278964139521122,0.1986074149608612
1707006826685051400,18.832051513671875,0.03168861195445061,0.03428478538990021,0.20166173577308655
1707006826704011000,18.851010986328124,0.09827287495136261,-0.049709122627973557,0.1833357959985733
1707006826722970600,18.869970703125,0.15325069427490234,-0.2635118067264557,0.16073378920555115
1707006826741930000,18.888929931640625,0.1755472719669342,-0.5200750231742859,0.13813179731369019
1707006826760889600,18.9078896484375,0.16821688413619995,-0.7167734503746033,0.12286017835140228
1707006826779849200,18.92684912109375,0.17524182796478271,-0.6743183732032776,0.14943279325962067
1707006826798808600,18.94580859375,0.16455170512199402,-0.38843363523483276,0.22548545897006989
1707006826817768200,18.964768310546877,0.08697187155485153,-0.04085158184170723,0.3155880272388458
1707006826836727800,18.983727783203125,0.00847574882209301,0.2545015513896942,0.37667450308799744
1707006826855687200,19.002687255859374,-0.05841394513845444,0.4762454628944397,0.3833940029144287
1707006826874646800,19.021646728515623,-0.15187625586986542,0.6665298342704773,0.3473529815673828
1707006826893606100,19.040606201171876,-0.1735619604587555,0.8473458290100098,0.27985242009162903
1707006826912565800,19.059565673828125,-0.03214675933122635,1.1118502616882324,0.21326816082000732
1707006826931525400,19.078525390625,0.20273074507713318,1.497611403465271,0.15034909546375275
1707006826950484700,19.097484619140626,0.41408994793891907,1.9200243949890137,0.09170607477426529
1707006826969444400,19.1164443359375,0.5512291193008423,2.300898551940918,0.08712458610534668
1707006826988404000,19.135404052734376,0.5332086086273193,2.452393054962158,0.12438733875751495
1707006827007363300,19.15436328125,0.3963748812675476,2.3103668689727783,0.17417281866073608
1707006827026323000,19.173322998046874,0.308104932308197,2.013181209564209,0.23861905932426453
1707006827045282300,19.1922822265625,0.31848961114883423,1.6851468086242676,0.29329144954681396
1707006827064242000,19.211241943359376,0.36338818073272705,1.3806307315826416,0.3131445646286011
1707006827083201500,19.230201416015625,0.4134790897369385,1.164079189300537,0.25327980518341064
1707006827102161200,19.2491611328125,0.49197521805763245,1.0275509357452393,0.1320231556892395
1707006827121120500,19.26812060546875,0.5820778012275696,0.9081268310546875,0.00007635809743078426
1707006827140080000,19.287080078125,0.6804270148277283,0.7700713872909546,-0.09338594973087311
1707006827159039500,19.30603955078125,0.7833577394485474,0.6023890376091003,-0.09216422587633133
1707006827177999000,19.3249990234375,0.862770140171051,0.40263625979423523,0.015347977168858051
1707006827196958500,19.34395849609375,0.8737657070159912,0.23189954459667206,0.11736239492893219
1707006827215918000,19.36291796875,0.8578832149505615,0.10728313028812408,0.18180863559246063
1707006827234877700,19.381877685546876,0.8319214582443237,0.09903645515441895,0.24625486135482788
1707006827253837000,19.400837158203124,0.7473167181015015,0.17050762474536896,0.266107976436615
1707006827272796700,19.419796630859373,0.5445095896720886,0.18089233338832855,0.23800818622112274
1707006827291756000,19.438756103515626,0.2830594778060913,0.1066722646355629,0.24106250703334808
1707006827310715600,19.457715576171875,0.053985174745321274,-0.0191658828407526,0.23770275712013245
1707006827329675300,19.47667529296875,-0.10270164161920547,-0.17432554066181183,0.14332415163516998
1707006827348634600,19.495634521484376,-0.21113014221191406,-0.30169084668159485,-0.00511599238961935
1707006827367594200,19.51459423828125,-0.32078036665916443,-0.4006509482860565,-0.1602756530046463
1707006827386553600,19.5335537109375,-0.4307360351085663,-0.5154935121536255,-0.31696245074272156
1707006827405513200,19.55251318359375,-0.5538252592086792,-0.6749292016029358,-0.4223366379737854
1707006827424472800,19.571472900390624,-0.6674461364746094,-0.8047379851341248,-0.4467712342739105
1707006827443432200,19.59043212890625,-0.682412326335907,-0.7638100385665894,-0.39423686265945435
1707006827462391800,19.609391845703126,-0.6399571895599365,-0.6394990682601929,-0.3001636862754822
1707006827481351200,19.62835107421875,-0.5486329197883606,-0.5912407636642456,-0.2625955045223236
1707006827500310800,19.647310791015624,-0.4673879146575928,-0.6767618060112,-0.2738964855670929
1707006827519270100,19.666270263671876,-0.4722748398780823,-0.9238566160202026,-0.3294851779937744
1707006827538229800,19.685229736328125,-0.5193114280700684,-1.2555562257766724,-0.42600181698799133
1707006827557189400,19.704189453125,-0.5596284866333008,-1.5411354303359985,-0.5481747984886169
1707006827576148700,19.723148681640627,-0.6100248694419861,-1.7137048244476318,-0.6608793139457703
1707006827595108400,19.7421083984375,-0.6478984355926514,-1.834045171737671,-0.7280744314193726
1707006827614067700,19.761067626953125,-0.6497310400009155,-1.8859686851501465,-0.7683915495872498
1707006827633027300,19.78002734375,-0.6332377195358276,-1.845651626586914,-0.7955750226974487
1707006827651986700,19.798986572265626,-0.6201041340827942,-1.7561599016189575,-0.8059597015380859
1707006827670946300,19.8179462890625,-0.5904771685600281,-1.6248239278793335,-0.8065705895423889
1707006827689905700,19.83690576171875,-0.5461894869804382,-1.5374703407287598,-0.7851903438568115
1707006827708865300,19.855865234375,-0.48846274614334106,-1.4391210079193115,-0.7216603755950928
1707006827727825000,19.874824951171874,-0.4496728479862213,-1.2317324876785278,-0.5930733680725098
1707006827746784300,19.8937841796875,-0.43348491191864014,-0.9040035009384155,-0.40401068329811096
1707006827765743900,19.912743896484375,-0.441426157951355,-0.5182424187660217,-0.19876012206077576
1707006827784703200,19.931703125,-0.4405098557472229,-0.145614892244339,-0.01030834298580885
1707006827803662600,19.95066259765625,-0.3989710509777069,0.16562071442604065,0.13538290560245514
1707006827822622200,19.969622314453126,-0.3171151876449585,0.37636905908584595,0.22762349247932434
1707006827841581800,19.988581787109375,-0.19708025455474854,0.46036297082901,0.2709949016571045
1707006827860541200,20.007541259765624,-0.07338013499975204,0.41241008043289185,0.26885685324668884
1707006827879500800,20.026500732421876,0.0319940410554409,0.25327980518341064,0.23770275712013245
1707006827898460200,20.045460205078125,0.10835213959217072,0.017486004158854485,0.1995237022638321
1707006827917419800,20.064419677734374,0.13309216499328613,-0.26076290011405945,0.17050762474536896
1707006827936379100,20.083379150390623,0.11293362826108932,-0.5228238701820374,0.1534034162759781
1707006827955338800,20.1023388671875,0.12851068377494812,-0.5765799880027771,0.2044106274843216
1707006827974298000,20.121298095703125,0.16424626111984253,-0.2775616943836212,0.3216966688632965
1707006827993257700,20.1402578125,0.08025235682725906,0.20318889617919922,0.4289034307003021
1707006828012217000,20.159217041015626,-0.007406735327094793,0.7056251764297485,0.5694023370742798
1707006828031176700,20.1781767578125,0.00511599238961935,1.099327564239502,0.6811906099319458
1707006828050136000,20.197135986328124,0.02741255611181259,1.3506983518600464,0.7212022542953491
1707006828069095700,20.216095703125,0.06742420047521591,1.4911972284317017,0.700738251209259
1707006828088055000,20.235054931640626,0.1446985900402069,1.5919899940490723,0.6106356978416443
1707006828107014700,20.2540146484375,0.28641921281814575,1.7440953254699707,0.4866301417350769
1707006828125974000,20.27297412109375,0.5075522661209106,1.9215514659881592,0.36048656702041626
1707006828144933600,20.29193359375,0.6923388838768005,2.133521556854248,0.2709949016571045
1707006828163893000,20.31089306640625,0.7592285871505737,2.2779910564422607,0.2596938908100128
1707006828182852600,20.3298525390625,0.6816487312316895,2.228511095046997,0.30978479981422424
1707006828201812000,20.34881201171875,0.5616137981414795,2.033034324645996,0.39225155115127563
1707006828220771600,20.367771484375,0.520380437374115,1.7914372682571411,0.45333802700042725
1707006828239731000,20.38673095703125,0.5338194370269775,1.5446479320526123,0.45272716879844666
1707006828258690600,20.405690673828126,0.5466476082801819,1.321682333946228,0.3739255964756012
1707006828277650000,20.42464990234375,0.5148826241493225,1.14422607421875,0.2303723841905594
1707006828296609500,20.443609619140624,0.488004595041275,0.9631046652793884,0.07185296714305878
1707006828315569000,20.46256884765625,0.5017490386962891,0.8155808448791504,-0.10529781877994537
1707006828334528500,20.481528564453125,0.5845212340354919,0.663780927658081,-0.18379394710063934
1707006828353488000,20.50048779296875,0.6428588032722473,0.5095375776290894,-0.13584105670452118
1707006828372447500,20.519447509765627,0.6621010899543762,0.3995819091796875,-0.07383827865123749
1707006828391406800,20.53840673828125,0.650189220905304,0.3333030939102173,-0.0322994738817215
1707006828410366500,20.557366455078125,0.6486620306968689,0.29420775175094604,0.030925029888749123
1707006828429325800,20.576325927734374,0.6715694665908813,0.25266894698143005,0.09934188425540924
1707006828448285400,20.595285400390626,0.6581304669380188,0.19708025455474854,0.10209077596664429
1707006828467244800,20.614244873046875,0.5640572905540466,0.06818778067827225,0.07154753804206848
1707006828486204200,20.6332041015625,0.395764023065567,-0.10254892706871033,0.057497646659612656
1707006828505163800,20.652163818359377,0.2173915058374405,-0.26687154173851013,0.04405862092971802
1707006828524123100,20.671123046875,0.05978839099407196,-0.432721346616745,-0.0029779658652842045
1707006828543082800,20.690082763671874,-0.012904518283903599,-0.5698604583740234,-0.07261654734611511
1707006828562042000,20.7090419921875,-0.07979421317577362,-0.6914225816726685,-0.17951788008213043
1707006828581001500,20.72800146484375,-0.26794055104255676,-0.880790650844574,-0.2946659028530121
1707006828599961000,20.746961181640625,-0.5104538798332214,-1.1077269315719604,-0.36430448293685913
1707006828618920400,20.76592041015625,-0.6924915909767151,-1.251891016960144,-0.36369362473487854
1707006828637880000,20.784880126953126,-0.7850375771522522,-1.2888482809066772,-0.30107998847961426
1707006828656839400,20.80383935546875,-0.8079450130462646,-1.2357031106948853,-0.2564868628978729
1707006828675799000,20.822799072265624,-0.7416661977767944,-1.1074215173721313,-0.2931387424468994
1707006828694758400,20.84175830078125,-0.6029998660087585,-0.9278272390365601,-0.35941755771636963
1707006828713718000,20.860718017578126,-0.4902953505516052,-0.8157335519790649,-0.37865981459617615
1707006828732677400,20.879677490234375,-0.455781489610672,-0.8423061966896057,-0.3673588037490845
1707006828751637000,20.898636962890624,-0.514729917049408,-0.9721149206161499,-0.3920988440513611
1707006828770596400,20.917596435546876,-0.6039161682128906,-1.1599558591842651,-0.43974629044532776
1707006828789556000,20.936555908203125,-0.6326268315315247,-1.3239730596542358,-0.47151124477386475
1707006828808515300,20.955515380859374,-0.5975021123886108,-1.4317907094955444,-0.49197521805763245
1707006828827474700,20.974474609375,-0.526030957698822,-1.4742457866668701,-0.5332086086273193
1707006828846434300,20.993434326171876,-0.46952593326568604,-1.462639331817627,-0.5982657074928284
1707006828865393700,21.0123935546875,-0.4350120723247528,-1.389946460723877,-0.6559923887252808
1707006828884353300,21.031353271484374,-0.3879754841327667,-1.3154209852218628,-0.6654608249664307
1707006828903312600,21.050312744140626,-0.30917394161224365,-1.2579996585845947,-0.630641520023346
1707006828922272300,21.069272216796875,-0.23159411549568176,-1.1727839708328247,-0.5405389666557312
1707006828941231600,21.088231689453124,-0.18700097501277924,-1.0533599853515625,-0.4214203357696533
1707006828960191200,21.107191162109373,-0.16745330393314362,-0.8765146136283875,-0.320933073759079
1707006828979150600,21.126150634765626,-0.18058690428733826,-0.6486620306968689,-0.24885104596614838
1707006828998110200,21.145110107421875,-0.23861905932426453,-0.40370526909828186,-0.17737986147403717
1707006829017069600,21.164069580078124,-0.2963457703590393,-0.15447242558002472,-0.08147408813238144
1707006829036029200,21.183029296875,-0.30306529998779297,0.16134466230869293,0.03672824427485466
1707006829054988500,21.201988525390625,-0.22151483595371246,0.46769335865974426,0.17569997906684875
1707006829073948000,21.220947998046874,-0.09506583213806152,0.6650026440620422,0.30031639337539673
1707006829092907500,21.239907470703123,-0.00038179047987796366,0.7074577808380127,0.37178757786750793
1707006829111867000,21.258866943359376,0.01611155830323696,0.5959749221801758,0.39255696535110474
1707006829130826500,21.277826416015625,0.05826122686266899,0.4050796926021576,0.404468834400177
1707006829149785900,21.296785888671874,0.19387321174144745,0.2398407906293869,0.46830421686172485
1707006829168745500,21.315745361328126,0.31848961114883423,0.15004366636276245,0.544051468372345
1707006829187704800,21.334704833984375,0.32246023416519165,0.1937204897403717,0.5761218667030334
1707006829206664400,21.35366455078125,0.18806999921798706,0.37148213386535645,0.5727620720863342
1707006829225623800,21.372623779296877,0.07047852128744125,0.6268236041069031,0.5568795800209045
1707006829244583400,21.39158349609375,0.024663666263222694,0.8928552269935608,0.5214494466781616
1707006829263542800,21.410542724609375,0.05459604039788246,1.1689660549163818,0.46250098943710327
1707006829282502400,21.42950244140625,0.19753839075565338,1.4847831726074219,0.36201372742652893
1707006829301461800,21.448461669921876,0.4119519293308258,1.817399024963379,0.235564723610878
1707006829320421400,21.46742138671875,0.5918515920639038,2.0791547298431396,0.12377647310495377
1707006829339380700,21.486380615234374,0.6465240120887756,2.1658973693847656,0.07215840369462967
1707006829358340400,21.50534033203125,0.5524508357048035,2.022038698196411,0.10514509677886963
1707006829377299700,21.5242998046875,0.4330267608165741,1.7276020050048828,0.18974986672401428
1707006829396259300,21.54325927734375,0.4116465151309967,1.4313325881958008,0.28962627053260803
1707006829415218700,21.56221875,0.4699840843677521,1.218446135520935,0.37575820088386536
1707006829434178300,21.58117822265625,0.5411498546600342,1.1197915077209473,0.3849211633205414
1707006829453137700,21.6001376953125,0.5811614990234375,1.0929133892059326,0.33085963129997253
1707006829472097300,21.61909716796875,0.5836049318313599,1.0657299757003784,0.2502254843711853
1707006829491056600,21.638056640625,0.5701659321784973,1.0357975959777832,0.15187625586986542
1707006829510016300,21.657016357421874,0.5716930627822876,0.9979239702224731,0.08223766833543777
1707006829528975600,21.6759755859375,0.5445095896720886,0.9163735508918762,0.095982126891613
1707006829547935200,21.694935302734375,0.5115228891372681,0.8290198445320129,0.15676318109035492
1707006829566894600,21.71389453125,0.5200750231742859,0.7749583125114441,0.23281583189964294
1707006829585854200,21.732854248046873,0.548480212688446,0.7001274228096008,0.2545015513896942
1707006829604813600,21.7518134765625,0.5384009480476379,0.4902953505516052,0.17631085216999054
1707006829623773200,21.770773193359375,0.43944084644317627,0.1378263682126999,0.05688678100705147
1707006829642732800,21.78973291015625,0.26687154173851013,-0.2369391769170761,-0.01611155830323696
1707006829661692200,21.808692138671876,0.10071633011102676,-0.46631890535354614,-0.03657552972435951
1707006829680651800,21.82765185546875,-0.018402300775051117,-0.5069414377212524,-0.028328854590654373
1707006829699611100,21.846611083984374,-0.11400263756513596,-0.4595993757247925,-0.017944153398275375
1707006829718570800,21.86557080078125,-0.23709189891815186,-0.40950846672058105,-0.07506000995635986
1707006829737530000,21.884530029296876,-0.41210466623306274,-0.48617202043533325,-0.19753839075565338
1707006829756489700,21.90348974609375,-0.5217548608779907,-0.6902008652687073,-0.31299182772636414
1707006829775449000,21.922448974609374,-0.606970489025116,-0.9351575970649719,-0.4473820924758911
1707006829794408700,21.94140869140625,-0.6475930213928223,-1.0866520404815674,-0.5707767605781555
1707006829813368000,21.9603681640625,-0.6121628880500793,-1.0878738164901733,-0.6010146141052246
1707006829832327700,21.97932763671875,-0.5040398240089417,-1.0121265649795532,-0.5732202529907227
1707006829851287300,21.998287353515625,-0.31497713923454285,-0.973642110824585,-0.5090794563293457
1707006829870246700,22.01724658203125,-0.24106250703334808,-1.0356448888778687,-0.47090038657188416
1707006829889206300,22.036206298828127,-0.32444554567337036,-1.2353976964950562,-0.48036879301071167
1707006829908165600,22.05516552734375,-0.4359283745288849,-1.4498112201690674,-0.4876991808414459
1707006829927125200,22.074125244140625,-0.4909062087535858,-1.5350267887115479,-0.47700902819633484
1707006829946084600,22.093084716796874,-0.4869355857372284,-1.52158784866333,-0.441884309053421
1707006829965044200,22.112044189453126,-0.44173160195350647,-1.4867684841156006,-0.42080947756767273
1707006829984003600,22.131003662109375,-0.3934732675552368,-1.463861107826233,-0.44616037607192993
1707006830002963200,22.149963134765624,-0.3733147382736206,-1.4672207832336426,-0.5078576803207397
1707006830021922800,22.1689228515625,-0.3840048611164093,-1.4730240106582642,-0.5811614990234375
1707006830040882200,22.187882080078126,-0.39561131596565247,-1.4366775751113892,-0.6184242367744446
1707006830059841800,22.206841796875,-0.3635408878326416,-1.345353364944458,-0.5979602336883545
1707006830078801200,22.22580126953125,-0.31955865025520325,-1.1941642761230469,-0.5414552688598633
1707006830097760800,22.2447607421875,-0.2923751473426819,-1.0170135498046875,-0.4626537263393402
1707006830116720000,22.26372021484375,-0.3116174042224884,-0.8389464020729065,-0.3774380683898926
1707006830135679700,22.2826796875,-0.35651594400405884,-0.6514109373092651,-0.27695080637931824
1707006830154639400,22.301639404296875,-0.40202537178993225,-0.46112653613090515,-0.16760602593421936
1707006830173598700,22.3205986328125,-0.40110909938812256,-0.26687154173851013,-0.06681333482265472
1707006830192558300,22.339558349609376,-0.32963791489601135,-0.04940368980169296,0.028176138177514076
1707006830211517700,22.358517578125,-0.21723878383636475,0.17631085216999054,0.11797326058149338
1707006830230477300,22.377477294921874,-0.10331250727176666,0.3134499788284302,0.17905974388122559
1707006830249436700,22.396436767578123,-0.026343543082475662,0.3055087625980377,0.21723878383636475
1707006830268396300,22.415396240234376,0.01611155830323696,0.18486295640468597,0.24900375306606293
1707006830287356000,22.43435595703125,0.01824958436191082,-0.011224640533328056,0.25877758860588074
1707006830306315300,22.453315185546874,0.02130390889942646,-0.226859912276268,0.26274821162223816
1707006830325275000,22.47227490234375,0.09430225193500519,-0.32307112216949463,0.3381900191307068
1707006830344234200,22.491234130859375,0.18379394710063934,-0.17829616367816925,0.47319114208221436
1707006830363193900,22.51019384765625,0.14408773183822632,0.07338013499975204,0.5825359225273132
1707006830382153200,22.5291533203125,0.04146244749426842,0.3378845751285553,0.6711113452911377
1707006830401112800,22.54811279296875,-0.021151192486286163,0.5819250345230103,0.6995165348052979
1707006830420072200,22.567072265625,-0.07887791097164154,0.8058069944381714,0.6717221736907959
1707006830439031800,22.58603173828125,-0.10697769373655319,1.0312161445617676,0.6384300589561462
1707006830457991400,22.604991455078125,-0.02023489587008953,1.328707218170166,0.6057487726211548
1707006830476950800,22.62395068359375,0.17890702188014984,1.7309616804122925,0.5516872406005859
1707006830495910400,22.642910400390626,0.40523242950439453,2.122525930404663,0.4768563210964203
1707006830514870000,22.6618701171875,0.5683333277702332,2.370842456817627,0.40752315521240234
1707006830533829400,22.680829345703124,0.5964331030845642,2.3977205753326416,0.3720930218696594
1707006830552788700,22.699788818359377,0.5075522661209106,2.203160285949707,0.3934732675552368
1707006830571748400,22.718748291015626,0.44463321566581726,1.9120831489562988,0.4563923478126526
1707006830590708000,22.7377080078125,0.4574613571166992,1.651243805885315,0.5119810700416565
1707006830609667300,22.756667236328123,0.4901426136493683,1.4759256839752197,0.5196168422698975
1707006830628627000,22.775626953125,0.5048033595085144,1.3690242767333984,0.4655553102493286
1707006830647586600,22.794586669921873,0.5084685683250427,1.295109748840332,0.35590508580207825
1707006830666546000,22.8135458984375,0.5069414377212524,1.2153918743133545,0.21846051514148712
1707006830685505500,22.832505615234375,0.4938078224658966,1.0935243368148804,0.09842558950185776
1707006830704465000,22.85146484375,0.47700902819633484,0.9230930209159851,0.022983787581324577
1707006830723424500,22.870424560546876,0.4831176698207855,0.7477748394012451,0.0009926552884280682
1707006830742383900,22.8893837890625,0.5283216834068298,0.627129077911377,0.025121813639998436
1707006830761343500,22.908343505859374,0.6062069535255432,0.589560866355896,0.05841394513845444
1707006830780302800,22.927302734375,0.6645445227622986,0.5880337357521057,0.06849320977926254
1707006830799262500,22.946262451171876,0.6584358811378479,0.5489383339881897,0.07276926934719086
1707006830818222000,22.96522216796875,0.5408443808555603,0.45242172479629517,0.040088001638650894
1707006830837181400,22.984181396484374,0.32826346158981323,0.2966512143611908,0.010461059398949146
1707006830856141000,23.00314111328125,0.12209659814834595,0.1417969912290573,0.03733910992741585
1707006830875100400,23.022100341796875,-0.015042545273900032,0.020540328696370125,0.0709366723895073
1707006830894060000,23.04106005859375,-0.11125374585390091,-0.09491311758756638,0.02909243479371071
1707006830913019400,23.060019287109377,-0.21510076522827148,-0.2644280791282654,-0.06711876392364502
1707006830931979000,23.07897900390625,-0.3326922357082367,-0.4938078224658966,-0.23113596439361572
1707006830950938400,23.0979384765625,-0.39194610714912415,-0.7720566987991333,-0.39484772086143494
1707006830969898000,23.11689794921875,-0.4145480990409851,-1.0124319791793823,-0.4800633490085602
1707006830988857600,23.135857666015625,-0.5315287113189697,-1.1697297096252441,-0.49686214327812195
1707006831007817000,23.15481689453125,-0.663475513458252,-1.204243540763855,-0.43913543224334717
1707006831026776600,23.173776611328126,-0.7535780668258667,-1.0729076862335205,-0.3673588037490845
