time,seconds_elapsed,z,y,x
1707006807944570600,0.091570556640625,0.1698904037475586,9.424132347106934,2.1547367572784424
1707006807963530200,0.1105302734375,0.2727817893028259,9.498309135437012,2.2719850540161133
1707006807982489900,0.12948974609375,0.22851456701755524,9.42173957824707,2.5459632873535156
1707006808001449500,0.148449462890625,0.22971096634864807,9.364311218261719,2.6907291412353516
1707006808020409000,0.1674091796875,0.2356930375099182,9.418149948120117,2.688336133956909
1707006808039368700,0.18636865234375,0.2799602448940277,9.404989242553711,2.7278177738189697
1707006808058328300,0.205328369140625,0.30628129839897156,9.314062118530273,2.7122645378112793
1707006808077288000,0.224287841796875,0.30987054109573364,9.312865257263184,2.682354211807251
1707006808096247800,0.243247802734375,0.2632105052471161,9.390632629394531,2.554338216781616
1707006808115207400,0.26220751953125,0.22492532432079315,9.442078590393066,2.4394826889038086
1707006808134167000,0.2811669921875,0.2512463629245758,9.456435203552246,2.441875457763672
1707006808153126700,0.300126708984375,0.2309073805809021,9.4121675491333,2.4717857837677
1707006808172086300,0.319086181640625,0.19381862878799438,9.375079154968262,2.4993033409118652
1707006808191046000,0.3380458984375,0.17228323221206665,9.418149948120117,2.5734808444976807
1707006808210005500,0.357005615234375,0.18903298676013947,9.497113227844238,2.7218358516693115
1707006808228965000,0.375965087890625,0.2799602448940277,9.425328254699707,2.8582265377044678
1707006808247924700,0.3949248046875,0.4426721930503845,9.399007797241211,2.882154941558838
1707006808266884400,0.41388427734375,0.43190449476242065,9.251849174499512,2.7637102603912354
1707006808285844000,0.432843994140625,0.22372891008853912,9.337990760803223,2.6057839393615723
1707006808304803600,0.451803466796875,0.06699903309345245,9.524630546569824,2.4849462509155273
1707006808323763200,0.47076318359375,0.1663011759519577,9.562915802001953,2.4741785526275635
1707006808342722800,0.489722900390625,0.2847459018230438,9.322437286376953,2.537588357925415
1707006808361682400,0.508682373046875,0.380458801984787,9.253045082092285,2.557927370071411
1707006808380642000,0.52764208984375,0.35533416271209717,9.322437286376953,2.6297121047973633
1707006808399601700,0.5466015625,0.2667997181415558,9.332008361816406,2.662015199661255
1707006808418561300,0.565561279296875,0.2919243574142456,9.317651748657227,2.6285157203674316
1707006808437521000,0.58452099609375,0.2763710021972656,9.290133476257324,2.5986053943634033
1707006808456480500,0.60348046875,0.17228323221206665,9.358329772949219,2.5639095306396484
1707006808475440000,0.622440185546875,0.0933200865983963,9.389435768127441,2.589034080505371
1707006808494399700,0.641399658203125,0.1543370634317398,9.440881729125977,2.5387847423553467
1707006808513359400,0.660359375,0.3158525824546814,9.426525115966797,2.506481647491455
1707006808532319000,0.679319091796875,0.39481574296951294,9.328418731689453,2.5052852630615234
1707006808551278600,0.698278564453125,0.37447673082351685,9.322437286376953,2.5423741340637207
1707006808570238200,0.71723828125,0.2667997181415558,9.351150512695312,2.5328028202056885
1707006808589197800,0.73619775390625,0.2069791555404663,9.399007797241211,2.495713949203491
1707006808608157400,0.755157470703125,0.1866401731967926,9.395418167114258,2.496910333633423
1707006808627117000,0.774116943359375,0.17228323221206665,9.404989242553711,2.469393014907837
1707006808646076700,0.79307666015625,0.08015955984592438,9.45763111114502,2.475374937057495
1707006808665036300,0.812036376953125,0.10648060590028763,9.485149383544922,2.4358935356140137
1707006808683996000,0.830995849609375,0.20338992774486542,9.379864692687988,2.389233350753784
1707006808702955500,0.84995556640625,0.25363919138908386,9.34277629852295,2.3784656524658203
1707006808721915100,0.8689150390625,0.24167509377002716,9.4121675491333,2.447857618331909
1707006808740874800,0.887874755859375,0.16151553392410278,9.416953086853027,2.486142635345459
1707006808759834400,0.90683447265625,0.11605189740657806,9.383454322814941,2.4227328300476074
1707006808778794000,0.9257939453125,0.16390834748744965,9.419346809387207,2.348555326461792
1707006808797753600,0.944753662109375,0.16749759018421173,9.446864128112793,2.283949136734009
1707006808816713200,0.963713134765625,0.19381862878799438,9.503094673156738,2.2600209712982178
1707006808835672800,0.9826728515625,0.22492532432079315,9.438488960266113,2.2229323387145996
1707006808854632400,1.001632568359375,0.10049854964017868,9.491130828857422,2.2408783435821533
1707006808873592000,1.020592041015625,0.07178468257188797,9.656235694885254,2.194218397140503
1707006808892551700,1.0395517578125,0.11724831163883209,9.570094108581543,2.2648067474365234
1707006808911511300,1.05851123046875,0.18424734473228455,9.42772102355957,2.2791635990142822
1707006808930471200,1.07747119140625,0.2560320198535919,9.418149948120117,2.187039852142334
1707006808949430500,1.096430419921875,0.2069791555404663,9.501898765563965,2.170290231704712
1707006808968390100,1.11539013671875,0.137587308883667,9.541379928588867,2.1882362365722656
1707006808987350000,1.13435009765625,0.10049854964017868,9.511469841003418,2.190629243850708
1707006809006309400,1.153309326171875,0.12323036789894104,9.45882797241211,2.118844509124756
1707006809025269000,1.17226904296875,0.18783657252788544,9.493523597717285,2.132004976272583
1707006809044228900,1.191228759765625,0.1459621787071228,9.501898765563965,2.2193429470062256
1707006809063188200,1.210188232421875,0.15194423496723175,9.535398483276367,2.2205393314361572
1707006809082148000,1.229148193359375,0.14476576447486877,9.611968994140625,2.146361827850342
1707006809101107700,1.248107666015625,0.16869398951530457,9.578469276428223,2.1020946502685547
1707006809120067000,1.267067138671875,0.21176479756832123,9.594022750854492,2.115255117416382
1707006809139027000,1.28602685546875,0.18783657252788544,9.52941608428955,2.242074728012085
1707006809157986600,1.304986572265625,0.15194423496723175,9.509077072143555,2.287538528442383
1707006809176946200,1.3239462890625,0.13519448041915894,9.57487964630127,2.26959228515625
1707006809195905800,1.34290576171875,0.17587246000766754,9.549755096435547,2.293520450592041
1707006809214865400,1.361865478515625,0.1902294009923935,9.45882797241211,2.3234307765960693
1707006809233825000,1.380824951171875,0.16390834748744965,9.454042434692383,2.289931297302246
1707006809252784600,1.39978466796875,0.09810572862625122,9.495916366577148,2.2360928058624268
1707006809271744300,1.418744140625,0.03349951654672623,9.598808288574219,2.2097716331481934
1707006809290704000,1.437703857421875,0.11605189740657806,9.573683738708496,2.187039852142334
1707006809309663500,1.45666357421875,0.16151553392410278,9.468399047851562,2.2265214920043945
1707006809328623400,1.475623291015625,0.1663011759519577,9.414560317993164,2.245664119720459
1707006809347582700,1.494582763671875,0.15912270545959473,9.468399047851562,2.2671995162963867
1707006809366542600,1.51354248046875,0.11006984114646912,9.531808853149414,2.2671995162963867
1707006809385502200,1.532502197265625,0.24287149310112,9.516255378723145,2.311466693878174
1707006809404461800,1.5514619140625,0.25004997849464417,9.361918449401855,2.358126640319824
1707006809423421400,1.57042138671875,0.1782652884721756,9.437292098999023,2.4646072387695312
1707006809442381000,1.589381103515625,0.18305093050003052,9.608379364013672,2.4634108543395996
1707006809461340700,1.608340576171875,0.18783657252788544,9.515059471130371,2.493321180343628
1707006809480300300,1.62730029296875,0.2632105052471161,9.383454322814941,2.421536445617676
1707006809499260000,1.646260009765625,0.3278166949748993,9.381061553955078,2.3569302558898926
1707006809518219500,1.665219482421875,0.2883351147174835,9.461220741271973,2.3461625576019287
1707006809537179400,1.684179443359375,0.17347964644432068,9.432506561279297,2.3641088008880615
1707006809556138800,1.703138671875,0.1543370634317398,9.33440113067627,2.3306093215942383
1707006809575098600,1.7220986328125,0.1495514214038849,9.300901412963867,2.3700907230377197
1707006809594058200,1.741058349609375,0.13040883839130402,9.371489524841309,2.465803623199463
1707006809613017900,1.760017822265625,0.16151553392410278,9.45763111114502,2.5387847423553467
1707006809631977500,1.7789775390625,0.21774685382843018,9.419346809387207,2.555534601211548
1707006809650937000,1.79793701171875,0.2763710021972656,9.360722541809082,2.5363919734954834
1707006809669896700,1.816896728515625,0.2715853750705719,9.432506561279297,2.4813570976257324
1707006809688856600,1.835856689453125,0.27038896083831787,9.433703422546387,2.4083759784698486
1707006809707816200,1.854816162109375,0.23210379481315613,9.419346809387207,2.2995026111602783
1707006809726775800,1.87377587890625,0.22971096634864807,9.463613510131836,2.166700839996338
1707006809745735400,1.8927353515625,0.1746760457754135,9.45882797241211,2.1439690589904785
1707006809764695000,1.911695068359375,0.11126625537872314,9.456435203552246,2.146361827850342
1707006809783654700,1.930654541015625,0.07178468257188797,9.42891788482666,2.200200319290161
1707006809802614300,1.9496142578125,0.09930214285850525,9.381061553955078,2.2408783435821533
1707006809821574100,1.96857421875,0.1698904037475586,9.42173957824707,2.3258235454559326
1707006809840533800,1.98753369140625,0.19621145725250244,9.376275062561035,2.4155545234680176
1707006809859493400,2.006493408203125,0.20578274130821228,9.391828536987305,2.392822742462158
1707006809878453000,2.025452880859375,0.19621145725250244,9.474381446838379,2.392822742462158
1707006809897412600,2.04441259765625,0.17706887423992157,9.493523597717285,2.4155545234680176
1707006809916372500,2.06337255859375,0.1663011759519577,9.56889820098877,2.423929452896118
1707006809935332000,2.08233203125,0.1543370634317398,9.550951957702637,2.389233350753784
1707006809954291700,2.101291748046875,0.25363919138908386,9.57607650756836,2.321038007736206
1707006809973251300,2.120251220703125,0.17228323221206665,9.343972206115723,2.317448616027832
1707006809992211000,2.1392109375,0.0323031060397625,9.470791816711426,2.3090739250183105
1707006810011170600,2.158170654296875,-0.003589233849197626,9.628718376159668,2.26959228515625
1707006810030130400,2.17713037109375,0.07537391036748886,9.491130828857422,2.2959132194519043
1707006810049090000,2.196090087890625,0.1950150430202484,9.382257461547852,2.2995026111602783
1707006810068049700,2.215049560546875,0.2907279431819916,9.388239860534668,2.3054845333099365
1707006810087009300,2.23400927734375,0.3026920557022095,9.45164966583252,2.359323024749756
1707006810105969000,2.252968994140625,0.2021935135126114,9.393025398254395,2.3820550441741943
1707006810124928800,2.2719287109375,0.14356936514377594,9.390632629394531,2.3712873458862305
1707006810143888400,2.290888427734375,0.09571290761232376,9.399007797241211,2.368894338607788
1707006810162848000,2.309847900390625,0.08015955984592438,9.483952522277832,2.389233350753784
1707006810181807600,2.3288076171875,0.13040883839130402,9.511469841003418,2.447857618331909
1707006810200767500,2.347767578125,0.20338992774486542,9.469595909118652,2.449054002761841
1707006810219727000,2.36672705078125,0.20937198400497437,9.479166984558105,2.392822742462158
1707006810238686700,2.385686767578125,0.24287149310112,9.489934921264648,2.403590440750122
1707006810257646300,2.404646240234375,0.3086741268634796,9.474381446838379,2.4083759784698486
1707006810276606000,2.42360595703125,0.26081767678260803,9.394221305847168,2.478964328765869
1707006810295565800,2.44256591796875,0.20458634197711945,9.372686386108398,2.421536445617676
1707006810314525400,2.461525390625,0.12681959569454193,9.409774780273438,2.321038007736206
1707006810333485000,2.480485107421875,0.10169496387243271,9.45763111114502,2.2959132194519043
1707006810352444700,2.499444580078125,0.18424734473228455,9.454042434692383,2.3126630783081055
1707006810371404500,2.518404541015625,0.2309073805809021,9.365508079528809,2.365305185317993
1707006810390364200,2.5373642578125,0.2189432680606842,9.369096755981445,2.3676979541778564
1707006810409323800,2.55632373046875,0.21296121180057526,9.415757179260254,2.3844478130340576
1707006810428283400,2.575283447265625,0.22851456701755524,9.468399047851562,2.3820550441741943
1707006810447243000,2.594242919921875,0.22971096634864807,9.519845008850098,2.4191436767578125
1707006810466203000,2.613202880859375,0.20099709928035736,9.519845008850098,2.376072883605957
1707006810485162500,2.63216259765625,0.14117653667926788,9.467203140258789,2.249253273010254
1707006810504122000,2.6511220703125,0.21774685382843018,9.500701904296875,2.1571295261383057
1707006810523082000,2.67008203125,0.17706887423992157,9.372686386108398,2.196611166000366
1707006810542041600,2.68904150390625,0.07417750358581543,9.385847091674805,2.2396819591522217
1707006810561001200,2.708001220703125,0.02632104977965355,9.609575271606445,2.251646041870117
1707006810579960800,2.7269609375,0.12323036789894104,9.54496955871582,2.311466693878174
1707006810598920700,2.745920654296875,0.24526432156562805,9.353543281555176,2.3186452388763428
1707006810617880300,2.76488037109375,0.35054850578308105,9.357132911682129,2.2325034141540527
1707006810636840000,2.78383984375,0.2955136001110077,9.540184020996094,2.196611166000366
1707006810655799600,2.802799560546875,0.16869398951530457,9.623932838439941,2.204986095428467
1707006810674759200,2.82175927734375,0.15194423496723175,9.53659439086914,2.1786649227142334
1707006810693719000,2.840718994140625,0.16151553392410278,9.460023880004883,2.073380708694458
1707006810712678700,2.8596787109375,0.1423729509115219,9.481559753417969,2.0709879398345947
1707006810731638300,2.87863818359375,0.10169496387243271,9.54377269744873,2.1379871368408203
1707006810750598100,2.89759814453125,0.10289137065410614,9.533005714416504,2.197807550430298
1707006810769557800,2.916557861328125,0.1579262912273407,9.485149383544922,2.179861545562744
1707006810788517400,2.935517333984375,0.2512463629245758,9.4660062789917,2.1990039348602295
1707006810807477000,2.95447705078125,0.2763710021972656,9.503094673156738,2.334198474884033
1707006810826436900,2.973436767578125,0.28115665912628174,9.507881164550781,2.421536445617676
1707006810845396500,2.992396484375,0.2512463629245758,9.53659439086914,2.4705893993377686
1707006810864356000,3.011356201171875,0.23808585107326508,9.513862609863281,2.451446771621704
1707006810883316000,3.03031591796875,0.17946170270442963,9.479166984558105,2.39401912689209
1707006810902275600,3.049275634765625,0.21774685382843018,9.432506561279297,2.3509483337402344
1707006810921235200,3.068235107421875,0.1663011759519577,9.347561836242676,2.3952155113220215
1707006810940194800,3.08719482421875,0.15194423496723175,9.329615592956543,2.4083759784698486
1707006810959154700,3.10615478515625,0.13519448041915894,9.415757179260254,2.407179594039917
1707006810978114300,3.1251142578125,0.1423729509115219,9.475577354431152,2.376072883605957
1707006810997074000,3.144073974609375,0.16151553392410278,9.488738059997559,2.341377019882202
1707006811016033500,3.163033447265625,0.15194423496723175,9.42173957824707,2.324627161026001
1707006811034993400,3.181993408203125,0.15074782073497772,9.400203704833984,2.23848557472229
1707006811053953000,3.200953125,0.1459621787071228,9.58205795288086,2.2241287231445312
1707006811072912600,3.21991259765625,0.1866401731967926,9.500701904296875,2.286342144012451
1707006811091872500,3.23887255859375,0.1698904037475586,9.360722541809082,2.352144718170166
1707006811110832000,3.25783203125,0.09930214285850525,9.409774780273438,2.3736801147460938
1707006811129791700,3.276791748046875,0.11844471842050552,9.509077072143555,2.366501569747925
1707006811148751400,3.29575146484375,0.14117653667926788,9.52941608428955,2.455035924911499
1707006811167711200,3.314711181640625,0.2225325107574463,9.415757179260254,2.4299113750457764
1707006811186670800,3.3336708984375,0.26560330390930176,9.343972206115723,2.417947292327881
1707006811205630500,3.35263037109375,0.15553347766399384,9.34875774383545,2.4023938179016113
1707006811224590300,3.37159033203125,0.03349951654672623,9.418149948120117,2.3126630783081055
1707006811243550000,3.390550048828125,0.020338991656899452,9.399007797241211,2.204986095428467
1707006811262509600,3.409509521484375,0.05383851006627083,9.449256896972656,2.2169501781463623
1707006811281469200,3.42846923828125,0.09810572862625122,9.477970123291016,2.2815563678741455
1707006811300429000,3.447428955078125,0.14356936514377594,9.580862045288086,2.2779672145843506
1707006811319388700,3.466388671875,0.2153540402650833,9.617950439453125,2.203789710998535
1707006811338348300,3.485348388671875,0.2273181527853012,9.643074989318848,2.11405873298645
1707006811357308000,3.504307861328125,0.18424734473228455,9.663414001464844,2.100898265838623
1707006811376267800,3.523267822265625,0.08853443711996078,9.664610862731934,2.1678972244262695
1707006811395227400,3.542227294921875,0.10887342691421509,9.57607650756836,2.245664119720459
1707006811414187000,3.56118701171875,0.15314064919948578,9.498309135437012,2.2959132194519043
1707006811433147000,3.58014697265625,0.17347964644432068,9.440881729125977,2.366501569747925
1707006811452106500,3.5991064453125,0.1543370634317398,9.445667266845703,2.4155545234680176
1707006811471066000,3.618066162109375,0.1052841991186142,9.414560317993164,2.4670002460479736
1707006811490025700,3.637025634765625,0.12681959569454193,9.426525115966797,2.421536445617676
1707006811508985600,3.655985595703125,0.19381862878799438,9.473184585571289,2.3294129371643066
1707006811527945200,3.6749453125,0.25244277715682983,9.483952522277832,2.2815563678741455
1707006811546904800,3.69390478515625,0.2512463629245758,9.4660062789917,2.2887349128723145
1707006811565864700,3.71286474609375,0.17347964644432068,9.512666702270508,2.334198474884033
1707006811584824300,3.73182421875,0.09810572862625122,9.509077072143555,2.341377019882202
1707006811603784000,3.750783935546875,0.14476576447486877,9.534201622009277,2.3461625576019287
1707006811622743600,3.76974365234375,0.26440688967704773,9.431310653686523,2.3748764991760254
1707006811641703400,3.788703369140625,0.22492532432079315,9.282955169677734,2.3497519493103027
1707006811660663000,3.8076630859375,0.08853443711996078,9.426525115966797,2.3222343921661377
1707006811679622700,3.82662255859375,0.08135596662759781,9.579665184020996,2.2671995162963867
1707006811698582500,3.84558251953125,0.1423729509115219,9.470791816711426,2.310270309448242
1707006811717542100,3.864542236328125,0.2763710021972656,9.42772102355957,2.313859462738037
1707006811736501800,3.883501708984375,0.397208571434021,9.408578872680664,2.2648067474365234
1707006811755461400,3.90246142578125,0.3314059376716614,9.395418167114258,2.2372891902923584
1707006811774421200,3.921421142578125,0.20817556977272034,9.377471923828125,2.2444677352905273
1707006811793380900,3.940380859375,0.11844471842050552,9.370293617248535,2.2085752487182617
1707006811812340500,3.959340576171875,0.05503492057323456,9.33559799194336,2.1846470832824707
1707006811831300000,3.978300048828125,-0.014356935396790504,9.43609619140625,2.1439690589904785
1707006811850259700,3.997259765625,-0.037088751792907715,9.549755096435547,2.172683000564575
1707006811869219600,4.016219482421875,0.12083754688501358,9.524630546569824,2.2241287231445312
1707006811888179200,4.03517919921875,0.31345975399017334,9.403793334960938,2.293520450592041
1707006811907138800,4.054138916015625,0.37806597352027893,9.377471923828125,2.337787628173828
1707006811926098400,4.073098388671875,0.29431718587875366,9.430113792419434,2.313859462738037
1707006811945058300,4.092058349609375,0.2021935135126114,9.547362327575684,2.2815563678741455
1707006811964018000,4.111017822265625,0.11964113265275955,9.625128746032715,2.2169501781463623
1707006811982977500,4.1299775390625,0.07417750358581543,9.506684303283691,2.1678972244262695
1707006812001937400,4.1489375,0.007178467698395252,9.481559753417969,2.0985054969787598
1707006812020897000,4.16789697265625,0.009571290574967861,9.471988677978516,2.0961127281188965
1707006812039856600,4.186856689453125,0.11605189740657806,9.43609619140625,2.2169501781463623
1707006812058816300,4.205816162109375,0.18544375896453857,9.409774780273438,2.4287149906158447
1707006812077776000,4.22477587890625,0.2584248483181,9.42173957824707,2.5950162410736084
1707006812096735700,4.24373583984375,0.25722843408584595,9.471988677978516,2.6153552532196045
1707006812115695400,4.2626953125,0.3278166949748993,9.43609619140625,2.496910333633423
1707006812134655000,4.281655029296875,0.3565305769443512,9.378668785095215,2.379662036895752
1707006812153614600,4.300614501953125,0.397208571434021,9.476774215698242,2.293520450592041
1707006812172574500,4.319574462890625,0.22612173855304718,9.389435768127441,2.210968017578125
1707006812191534000,4.3385341796875,0.04666004329919815,9.416953086853027,2.159522533416748
1707006812210493700,4.35749365234375,-0.09810572862625122,9.590433120727539,2.148754835128784
1707006812229453300,4.376453369140625,-0.037088751792907715,9.594022750854492,2.2719850540161133
1707006812248413000,4.395412841796875,0.10169496387243271,9.4061861038208,2.3880369663238525
1707006812267372800,4.414372802734375,0.33379876613616943,9.33440113067627,2.3497519493103027
1707006812286332400,4.43333251953125,0.35054850578308105,9.42173957824707,2.3473589420318604
1707006812305292000,4.4522919921875,0.18903298676013947,9.506684303283691,2.307877540588379
1707006812324252000,4.471251953125,0.02392822690308094,9.469595909118652,2.23848557472229
1707006812343211300,4.490211181640625,0.02751746028661728,9.379864692687988,2.1032910346984863
1707006812362171100,4.509171142578125,0,9.456435203552246,2.0757737159729004
1707006812381130800,4.528130859375,-0.029910283163189888,9.5533447265625,2.197807550430298
1707006812400090400,4.54709033203125,0.014356935396790504,9.586843490600586,2.258824586868286
1707006812419050000,4.566050048828125,0.10408778488636017,9.541379928588867,2.334198474884033
1707006812438009900,4.585009765625,0.23808585107326508,9.487542152404785,2.3365912437438965
1707006812456969500,4.603969482421875,0.26919254660606384,9.467203140258789,2.4095723628997803
1707006812475929000,4.62292919921875,0.2021935135126114,9.455238342285156,2.4574289321899414
1707006812494888700,4.641888671875,0.14835500717163086,9.445667266845703,2.447857618331909
1707006812513848300,4.660848388671875,0.13040883839130402,9.433703422546387,2.3844478130340576
1707006812532808200,4.67980810546875,0.13160525262355804,9.476774215698242,2.3461625576019287
1707006812551767800,4.698767822265625,0.058624155819416046,9.497113227844238,2.324627161026001
1707006812570727400,4.7177275390625,0.02153540402650833,9.542576789855957,2.1894326210021973
1707006812589687000,4.73668701171875,0.014356935396790504,9.604789733886719,2.011167526245117
1707006812608646700,4.755646728515625,0.031106693670153618,9.621540069580078,1.9022940397262573
1707006812627606300,4.774606201171875,0.014356935396790504,9.556933403015137,1.8735800981521606
1707006812646566100,4.793566162109375,0.013160524889826775,9.501898765563965,1.8664016723632812
1707006812665525800,4.81252587890625,-0.04785645380616188,9.538987159729004,1.8975083827972412
1707006812684485400,4.8314853515625,0.037088751792907715,9.497113227844238,2.0063817501068115
1707006812703445000,4.850445068359375,0.09690931439399719,9.33320426940918,2.1104695796966553
1707006812722404600,4.869404541015625,0.08733802288770676,9.550951957702637,2.2648067474365234
1707006812741364500,4.888364501953125,0.17587246000766754,9.711270332336426,2.3641088008880615
1707006812760324000,4.907323974609375,0.22851456701755524,9.571290969848633,2.400001049041748
1707006812779283700,4.92628369140625,0.3361915946006775,9.485149383544922,2.225325107574463
1707006812798243300,4.945243408203125,0.28594231605529785,9.598808288574219,2.0195422172546387
1707006812817203000,4.964202880859375,0.09690931439399719,9.713663101196289,1.9692929983139038
1707006812836162800,4.983162841796875,-0.02632104977965355,9.65503978729248,1.8424733877182007
1707006812855122400,5.002122314453125,0.01196411345154047,9.474381446838379,1.6893328428268433
1707006812874082000,5.02108203125,0.0526420995593071,9.42772102355957,1.6869399547576904
1707006812893041700,5.040041748046875,-0.0023928226437419653,9.482755661010742,1.9070796966552734
1707006812912001300,5.059001220703125,-0.0011964113218709826,9.556933403015137,2.073380708694458
1707006812930961200,5.077961181640625,0.08973085135221481,9.558130264282227,2.2061824798583984
1707006812949920800,5.096920654296875,0.24287149310112,9.515059471130371,2.3150558471679688
1707006812968880400,5.11588037109375,0.363709032535553,9.477970123291016,2.4047868251800537
1707006812987840000,5.134840087890625,0.35054850578308105,9.491130828857422,2.489732027053833
1707006813006799600,5.153799560546875,0.2763710021972656,9.499505996704102,2.496910333633423
1707006813025759500,5.172759521484375,0.1902294009923935,9.491130828857422,2.431107759475708
1707006813044719000,5.191718994140625,0.12323036789894104,9.501898765563965,2.3162522315979004
1707006813063678700,5.2106787109375,0.04187439754605293,9.57487964630127,2.228914260864258
1707006813082638300,5.229638427734375,0.015553346835076809,9.613164901733398,2.2121646404266357
1707006813101598000,5.248597900390625,-0.01196411345154047,9.535398483276367,2.2468605041503906
1707006813120557800,5.267557861328125,0.020338991656899452,9.507881164550781,2.203789710998535
1707006813139517400,5.286517333984375,0.04187439754605293,9.491130828857422,2.163111686706543
1707006813158477000,5.30547705078125,0.07896314561367035,9.475577354431152,2.172683000564575
1707006813177436700,5.324436767578125,0.10169496387243271,9.438488960266113,2.1954147815704346
1707006813196396500,5.343396484375,0.15912270545959473,9.460023880004883,2.2133610248565674
1707006813215356200,5.362356201171875,0.14356936514377594,9.282955169677734,2.2301106452941895
1707006813234315800,5.381315673828125,0.008374879136681557,9.293723106384277,2.2229323387145996
1707006813253275400,5.400275390625,-0.04546362906694412,9.595218658447266,2.1332013607025146
1707006813272235000,5.419235107421875,-0.031106693670153618,9.633503913879395,2.090130567550659
1707006813291195000,5.43819482421875,0.059820566326379776,9.418149948120117,2.0721843242645264
1707006813310154500,5.457154541015625,0.17706887423992157,9.33440113067627,1.9537396430969238
1707006813329114000,5.476114013671875,0.1818545162677765,9.4061861038208,1.939382791519165
1707006813348073700,5.49507373046875,0.08614161610603333,9.481559753417969,2.087737798690796
1707006813367033300,5.514033447265625,0.0729810893535614,9.42772102355957,2.2229323387145996
1707006813385993200,5.5329931640625,0.08614161610603333,9.281759262084961,2.214557409286499
1707006813404952800,5.551952880859375,0.12681959569454193,9.349954605102539,2.231307029724121
1707006813423912400,5.570912353515625,0.017946170642971992,9.485149383544922,2.2755744457244873
1707006813442872300,5.589872314453125,0.003589233849197626,9.604789733886719,2.2193429470062256
1707006813461832000,5.60883203125,0.12203395366668701,9.54377269744873,2.142772674560547
1707006813480791600,5.62779150390625,0.18783657252788544,9.493523597717285,2.093719720840454
1707006813499751200,5.646751220703125,0.12203395366668701,9.489934921264648,2.115255117416382
1707006813518711000,5.6657109375,0.04785645380616188,9.56650447845459,2.1308085918426514
1707006813537670700,5.684670654296875,0.014356935396790504,9.565308570861816,2.210968017578125
1707006813556630300,5.70363037109375,0.004785645287483931,9.504291534423828,2.2683959007263184
1707006813575590000,5.72258984375,0.007178467698395252,9.522237777709961,2.283949136734009
1707006813594549800,5.7415498046875,0.037088751792907715,9.56650447845459,2.2719850540161133
1707006813613509400,5.76050927734375,0.07776673883199692,9.531808853149414,2.197807550430298
1707006813632469000,5.779468994140625,0.08853443711996078,9.528220176696777,2.1918256282806396
1707006813651428900,5.798428955078125,0.08614161610603333,9.517452239990234,2.2444677352905273
1707006813670388500,5.817388427734375,0.035892341285943985,9.462417602539062,2.280359983444214
1707006813689348000,5.83634814453125,0.004785645287483931,9.489934921264648,2.2671995162963867
1707006813708307700,5.8553076171875,0.08733802288770676,9.56889820098877,2.262413740158081
1707006813727267600,5.874267578125,0.23688943684101105,9.469595909118652,2.225325107574463
1707006813746227200,5.893227294921875,0.1818545162677765,9.357132911682129,2.3054845333099365
1707006813765186800,5.912186767578125,0.08255238085985184,9.538987159729004,2.359323024749756
1707006813784146700,5.931146728515625,0.059820566326379776,9.680164337158203,2.2648067474365234
1707006813803106300,5.950106201171875,0.13878370821475983,9.626325607299805,2.227717876434326
1707006813822066000,5.96906591796875,0.29431718587875366,9.52941608428955,2.170290231704712
1707006813841025500,5.988025634765625,0.3900300860404968,9.512666702270508,2.169093608856201
1707006813859985400,6.0069853515625,0.3278166949748993,9.462417602539062,2.2612173557281494
1707006813878945000,6.025945068359375,0.24406790733337402,9.42891788482666,2.2540390491485596
1707006813897904600,6.044904541015625,0.23808585107326508,9.357132911682129,2.179861545562744
1707006813916864300,6.0638642578125,0.15912270545959473,9.43609619140625,2.183450698852539
1707006813935824100,6.08282421875,0.08135596662759781,9.523433685302734,2.2408783435821533
1707006813954783700,6.10178369140625,0.05623133108019829,9.531808853149414,2.197807550430298
1707006813973743400,6.120743408203125,0.13998012244701385,9.475577354431152,2.0793628692626953
1707006813992703200,6.139703125,0.2392822653055191,9.384650230407715,2.0171494483947754
1707006814011662800,6.158662841796875,0.25004997849464417,9.410971641540527,2.0554347038269043
1707006814030622700,6.177622802734375,0.17228323221206665,9.525827407836914,2.0985054969787598
1707006814049582300,6.196582275390625,0.08614161610603333,9.605986595153809,2.090130567550659
1707006814068542000,6.2155419921875,0.07417750358581543,9.634700775146484,2.0279171466827393
1707006814087501600,6.23450146484375,0.08374879509210587,9.610772132873535,1.9992033243179321
1707006814106461400,6.25346142578125,0.12323036789894104,9.614361763000488,2.00518536567688
1707006814125421000,6.272421142578125,0.17108681797981262,9.524630546569824,1.9441684484481812
1707006814144380700,6.291380615234375,0.1986042857170105,9.455238342285156,1.9094724655151367
1707006814163340500,6.310340576171875,0.12801600992679596,9.483952522277832,1.9178473949432373
1707006814182300200,6.329300048828125,0.05503492057323456,9.592825889587402,1.9537396430969238
1707006814201259800,6.348259765625,0.06699903309345245,9.620343208312988,1.9980069398880005
1707006814220219600,6.3672197265625,0.10767702013254166,9.607182502746582,1.9872392416000366
1707006814239179300,6.38617919921875,0.16031911969184875,9.460023880004883,2.042274236679077
1707006814258139100,6.40513916015625,0.1495514214038849,9.346364974975586,2.084148406982422
1707006814277098800,6.4240986328125,0.13160525262355804,9.548559188842773,2.1750757694244385
1707006814296058400,6.443058349609375,0.20099709928035736,9.650253295898438,2.2265214920043945
1707006814315018200,6.462018310546875,0.2991028428077698,9.617950439453125,2.1954147815704346
1707006814333977900,6.480977783203125,0.39481574296951294,9.470791816711426,2.0554347038269043
1707006814352937700,6.499937744140625,0.3565305769443512,9.460023880004883,2.0003998279571533
1707006814371897300,6.5188974609375,0.2069791555404663,9.564111709594727,2.0039889812469482
1707006814390857000,6.53785693359375,0.11844471842050552,9.614361763000488,1.9860427379608154
1707006814409816600,6.556816650390625,0.16869398951530457,9.598808288574219,1.923829436302185
1707006814428776400,6.5757763671875,0.18783657252788544,9.604789733886719,1.9130617380142212
1707006814447736000,6.594736083984375,0.21176479756832123,9.664610862731934,1.903490424156189
1707006814466696000,6.613696044921875,0.19980068504810333,9.82373332977295,1.825723648071289
1707006814485655600,6.632655517578125,0.2392822653055191,9.966106414794922,1.7024933099746704
1707006814504615400,6.651615478515625,0.28594231605529785,9.906285285949707,1.659422516822815
1707006814523575000,6.670574951171875,0.3314059376716614,9.81655502319336,1.7324036359786987
1707006814542534700,6.68953466796875,0.39481574296951294,9.753145217895508,1.9130617380142212
1707006814561494300,6.708494384765625,0.5276173949241638,9.42772102355957,2.0374884605407715
1707006814580454100,6.7274541015625,0.7334001660346985,9.103493690490723,2.132004976272583
1707006814599413800,6.746413818359375,0.867398202419281,9.002995491027832,2.2193429470062256
1707006814618373600,6.76537353515625,0.8183453679084778,9.32602596282959,2.228914260864258
1707006814637333200,6.784333251953125,0.503689169883728,10.02712345123291,2.276770830154419
1707006814656293000,6.803293212890625,0.08853443711996078,10.718648910522461,2.231307029724121
1707006814675252700,6.822252685546875,-0.04666004329919815,10.823933601379395,2.0027925968170166
1707006814694212400,6.84121240234375,0.1136590763926506,9.766305923461914,1.428515076637268
1707006814713172000,6.860171875,0.24646073579788208,8.640482902526855,0.8159525394439697
1707006814732131800,6.8791318359375,0.24167509377002716,8.306683540344238,0.6496513485908508
1707006814751091500,6.898091552734375,0.02153540402650833,8.981459617614746,0.7393822073936462
1707006814770051300,6.91705126953125,-0.35533416271209717,10.04985523223877,1.0683952569961548
1707006814789011000,6.936010986328125,-0.3768695592880249,11.175678253173828,1.3926228284835815
1707006814807970800,6.954970703125,0.13519448041915894,11.334800720214844,1.7132610082626343
1707006814826930400,6.973930419921875,1.0707881450653076,10.29751205444336,1.9716858863830566
1707006814845890000,6.99289013671875,2.0650060176849365,9.011369705200195,2.1403799057006836
1707006814864850000,7.011849853515625,2.478964328765869,8.155936241149902,2.337787628173828
1707006814883809500,7.0308095703125,2.179861545562744,7.854440212249756,2.541177749633789
1707006814902769200,7.04976904296875,1.3818551301956177,7.909475326538086,2.6225335597991943
1707006814921729000,7.06872900390625,0.7190431952476501,8.132007598876953,2.313859462738037
1707006814940688600,7.087688720703125,0.21176479756832123,8.586644172668457,1.92741858959198
1707006814959648500,7.1066484375,-0.2548356056213379,8.85942554473877,1.6019947528839111
1707006814978608000,7.125608154296875,-0.5754738450050354,8.997013092041016,1.4656038284301758
1707006814997568000,7.144568115234375,-0.6879364848136902,9.32004451751709,1.6498512029647827
1707006815016527600,7.163527587890625,-0.6209374666213989,9.80100154876709,2.094916343688965
1707006815035487200,7.1824873046875,-0.2835494875907898,10.185050010681152,2.6081767082214355
1707006815054447000,7.201447021484375,0.30628129839897156,10.340582847595215,3.0628130435943604
1707006815073406700,7.22040673828125,1.0145567655563354,10.316655158996582,3.3511481285095215
1707006815092366600,7.23936669921875,1.490728497505188,10.13479995727539,3.5306098461151123
1707006815111326200,7.258326171875,1.726421594619751,9.914660453796387,3.480360507965088
1707006815130285800,7.277285888671875,1.664208173751831,9.750752449035645,3.0664021968841553
1707006815149245700,7.29624560546875,1.3603196144104004,9.549755096435547,2.647658348083496
1707006815168205300,7.315205322265625,0.9906286001205444,9.177671432495117,2.0446670055389404
1707006815187165000,7.3341650390625,0.7094719409942627,9.042476654052734,1.6067804098129272
1707006815206124800,7.353124755859375,0.49651068449020386,8.9910306930542,1.357926845550537
1707006815225084400,7.37208447265625,0.32662028074264526,8.924032211303711,1.2849457263946533
1707006815244044300,7.391044189453125,0.32183465361595154,8.865407943725586,1.2131611108779907
1707006815263004000,7.41000390625,0.3038884699344635,8.885746955871582,1.1078768968582153
1707006815281963500,7.428963623046875,0.35054850578308105,9.239884376525879,1.1353943347930908
1707006815300923400,7.44792333984375,0.5072783827781677,9.592825889587402,1.1222338676452637
1707006815319883000,7.466883056640625,0.5635097622871399,9.92423152923584,1.085145115852356
1707006815338842600,7.485842529296875,0.6329016089439392,10.38485050201416,0.9810572862625122
1707006815357802500,7.504802490234375,0.7322037220001221,10.65523910522461,1.100698471069336
1707006815376762000,7.52376220703125,1.1198409795761108,10.551151275634766,1.2765709161758423
1707006815395722000,7.542721923828125,1.4476577043533325,10.336994171142578,1.2538390159606934
1707006815414681600,7.561681640625,1.679761528968811,10.1216402053833,0.9667003750801086
1707006815433641200,7.58064111328125,1.6546368598937988,9.998409271240234,0.5024927258491516
1707006815452600800,7.599600830078125,1.6139588356018066,9.90987491607666,0.26440688967704773
1707006815471560700,7.618560791015625,1.7407784461975098,9.77826976776123,-0.010767702013254166
1707006815490520300,7.637520263671875,1.9310078620910645,9.400203704833984,-0.12801600992679596
1707006815509480200,7.656480224609375,2.2360928058624268,8.82951545715332,0.059820566326379776
1707006815528439800,7.675439697265625,2.3676979541778564,8.313861846923828,0.41994038224220276
1707006815547399400,7.6943994140625,2.572284460067749,8.4502534866333,0.9619147181510925
1707006815566359300,7.713359375,2.5567309856414795,9.282955169677734,1.4464613199234009
1707006815585319000,7.73231884765625,2.4335005283355713,10.262816429138184,1.8508483171463013
1707006815604278500,7.751278564453125,2.166700839996338,11.00459098815918,2.155933141708374
1707006815623238400,7.77023828125,1.994417667388916,11.146964073181152,2.5160529613494873
1707006815642198000,7.789197998046875,2.256431818008423,10.521241188049316,2.6608188152313232
1707006815661157600,7.80815771484375,2.4526431560516357,9.678967475891113,2.50289249420166
1707006815680117500,7.827117431640625,2.3222343921661377,8.878568649291992,2.321038007736206
1707006815699077000,7.8460771484375,1.8783657550811768,8.243273735046387,2.289931297302246
1707006815718037000,7.865037109375,1.4727823734283447,7.868797302246094,2.2480568885803223
1707006815736996600,7.88399658203125,1.2921242713928223,7.856832981109619,2.227717876434326
1707006815755956200,7.902956298828125,1.2131611108779907,7.926225185394287,2.169093608856201
1707006815774915800,7.921915771484375,1.1353943347930908,8.011170387268066,2.097309112548828
1707006815793875700,7.940875732421875,1.1832507848739624,8.25523853302002,2.1655044555664062
1707006815812835300,7.95983544921875,1.3256237506866455,8.318648338317871,2.252842426300049
1707006815831795000,7.978794921875,1.435693621635437,8.070990562438965,2.3880369663238525
1707006815850754800,7.9977548828125,1.5744773149490356,8.188239097595215,2.307877540588379
1707006815869714400,8.01671435546875,1.5876377820968628,8.796015739440918,2.2372891902923584
1707006815888674000,8.035674072265625,1.6426727771759033,9.391828536987305,2.1068804264068604
1707006815907634000,8.054634033203126,1.690529227256775,9.493523597717285,1.9022940397262573
1707006815926593500,8.073593505859375,1.6761722564697266,9.074779510498047,1.7826528549194336
1707006815945553200,8.09255322265625,1.7467604875564575,8.971888542175293,1.3938192129135132
1707006815964513000,8.111512939453124,1.5672988891601562,9.090332984924316,1.2370892763137817
1707006815983472600,8.13047265625,1.191625714302063,9.34875774383545,1.4093725681304932
1707006816002432300,8.149432373046874,0.8458628058433533,9.869196891784668,1.604387640953064
1707006816021392000,8.168391845703125,0.7752745151519775,10.222138404846191,1.7096717357635498
1707006816040351700,8.187351806640624,0.8638089895248413,10.17428207397461,1.7826528549194336
1707006816059311400,8.206311279296875,1.0360921621322632,9.956535339355469,1.9262222051620483
1707006816078271000,8.22527099609375,1.1473584175109863,10.04148006439209,2.166700839996338
1707006816097230800,8.24423095703125,1.153340458869934,10.654043197631836,2.5806591510772705
1707006816116190500,8.2631904296875,1.0636097192764282,11.534601211547852,3.0963125228881836
1707006816135150000,8.282150146484375,0.9176474809646606,12.023933410644531,3.6263227462768555
1707006816154109700,8.301109619140625,0.914058268070221,11.570493698120117,3.9732820987701416
1707006816173069600,8.320069580078124,1.0947163105010986,10.822736740112305,4.000799655914307
1707006816192029200,8.339029296875,1.2275179624557495,10.001998901367188,3.7328033447265625
1707006816210988800,8.35798876953125,1.3519448041915894,9.131011009216309,3.022135019302368
1707006816229948700,8.37694873046875,1.0719845294952393,9.066405296325684,2.203789710998535
1707006816248908300,8.395908203125,0.21655045449733734,9.767501831054688,1.7599210739135742
1707006816267868000,8.414867919921875,-0.9092726111412048,10.936395645141602,1.6977076530456543
1707006816286827500,8.43382763671875,-1.628315806388855,12.238091468811035,2.1260228157043457
1707006816305787400,8.452787353515625,-1.6689938306808472,12.143574714660645,2.139183521270752
1707006816324747000,8.4717470703125,-0.973878800868988,10.454241752624512,1.1054840087890625
1707006816343706600,8.49070654296875,-0.08733802288770676,8.775676727294922,0.3290131092071533
1707006816362666200,8.509666259765625,0.2835494875907898,7.823333740234375,0.29312077164649963
1707006816381626000,8.528626220703124,0.17946170270442963,7.4979095458984375,0.7166503667831421
1707006816400585700,8.547585693359375,-0.20338992774486542,7.642675399780273,1.1258230209350586
1707006816419545300,8.56654541015625,-0.5934200286865234,7.898707389831543,1.184447169303894
1707006816438505200,8.585505126953125,-0.7824530005455017,7.9968132972717285,0.9631111025810242
1707006816457464600,8.604464599609376,-0.885344386100769,8.061419486999512,0.6269195079803467
1707006816476424400,8.623424560546875,-0.9284151792526245,8.24566650390625,0.4019941985607147
1707006816495384000,8.642384033203125,-1.0480563640594482,8.601000785827637,0.4666004180908203
1707006816514343700,8.66134375,-1.1306086778640747,8.924032211303711,0.8386843204498291
1707006816533303600,8.680303466796875,-1.1054840087890625,9.128618240356445,1.089930772781372
1707006816552263200,8.69926318359375,-0.9379864931106567,9.220742225646973,1.195214867591858
1707006816571222800,8.718222900390625,-0.7932206988334656,9.594022750854492,1.2741780281066895
1707006816590182400,8.737182373046876,-0.698704183101654,10.534401893615723,1.8269200325012207
1707006816609142000,8.75614208984375,-0.7357929348945618,11.551351547241211,2.895315408706665
1707006816628102000,8.775101806640626,-0.4414757788181305,11.877971649169922,3.9601213932037354
1707006816647061500,8.7940615234375,0.48095735907554626,11.160124778747559,4.244867324829102
1707006816666021000,8.813021240234375,1.389033555984497,10.228120803833008,4.120440483093262
1707006816684980700,8.831980712890624,1.6223337650299072,9.847661972045898,4.045066833496094
1707006816703940400,8.8509404296875,1.1700903177261353,9.864411354064941,3.8608193397521973
1707006816722900200,8.869900146484374,0.8243274092674255,9.937392234802246,3.3104701042175293
1707006816741859800,8.88885986328125,0.7597211599349976,9.824930191040039,2.3545374870300293
1707006816760819500,8.9078193359375,0.6041877269744873,9.7998046875,1.2538390159606934
1707006816779779000,8.926779052734375,0.07896314561367035,10.479366302490234,0.3577269911766052
1707006816798738700,8.94573876953125,-0.5527420043945312,11.795419692993164,0.11605189740657806
1707006816817698600,8.964698486328125,-0.349352091550827,12.005987167358398,0.04307080805301666
1707006816836658200,8.983658203125,1.184447169303894,10.246066093444824,-0.7202396392822266
1707006816855617800,9.00261767578125,2.640479803085327,8.380861282348633,-1.1353943347930908
1707006816874577400,9.021577392578125,2.9694929122924805,7.41416072845459,-0.9355936646461487
1707006816893537000,9.040537109375,2.6967110633850098,7.430910587310791,-0.5180460810661316
1707006816912497000,9.059496826171875,2.4681966304779053,8.09970474243164,-0.1459621787071228
1707006816931456300,9.078456298828126,2.3617160320281982,8.928817749023438,0.2476571500301361
1707006816950416100,9.097416015625,2.2205393314361572,9.881160736083984,0.8386843204498291
1707006816969375700,9.116375732421876,1.8448662757873535,10.995019912719727,1.5493526458740234
1707006816988335400,9.13533544921875,1.6546368598937988,11.527422904968262,1.9992033243179321
1707006817007295000,9.154294921875,2.0303099155426025,10.443474769592285,1.9836499691009521
1707006817026254600,9.173254638671875,2.5734808444976807,9.354740142822266,1.9286150932312012
1707006817045214500,9.19221435546875,2.6321048736572266,8.5100736618042,2.115255117416382
1707006817064174000,9.211174072265624,2.579462766647339,8.000402450561523,2.438286304473877
1707006817083133700,9.2301337890625,2.313859462738037,7.77188777923584,2.513660192489624
1707006817102093300,9.24909326171875,2.0267207622528076,7.716853141784668,2.337787628173828
1707006817121053000,9.268052978515625,1.7120646238327026,7.588837146759033,2.2755744457244873
1707006817140012500,9.287012451171876,1.459621787071228,7.322037220001221,2.386840581893921
1707006817158972200,9.30597216796875,1.1497513055801392,7.27537727355957,2.4993033409118652
1707006817177931800,9.324931884765626,1.0169496536254883,7.28255558013916,2.5902304649353027
1707006817196891600,9.3438916015625,1.0791629552841187,7.390232563018799,2.667997360229492
1707006817215851300,9.362851318359375,1.2945170402526855,7.652246952056885,2.799602508544922
1707006817234811000,9.381810791015624,1.6187444925308228,7.988438606262207,3.077169895172119
1707006817253770500,9.4007705078125,2.035095691680908,8.286344528198242,3.273381471633911
1707006817272730000,9.419730224609374,2.311466693878174,8.432307243347168,3.311666488647461
1707006817291689700,9.438689697265625,2.3988046646118164,8.757730484008789,3.322434186935425
1707006817310649300,9.4576494140625,2.342573404312134,9.08674430847168,3.2315070629119873
1707006817329609000,9.47660888671875,2.3700907230377197,9.291330337524414,3.0137600898742676
1707006817348568600,9.495568603515625,2.338984251022339,9.609575271606445,2.83669114112854
1707006817367528400,9.514528564453125,2.115255117416382,9.972088813781738,2.774477958679199
1707006817386487800,9.53348779296875,1.8711873292922974,10.043872833251953,2.720639228820801
1707006817405447700,9.55244775390625,1.7467604875564575,9.945767402648926,2.664407968521118
1707006817424407300,9.5714072265625,1.6785650253295898,10.420742988586426,2.772084951400757
1707006817443367000,9.590366943359374,1.404586911201477,12.035898208618164,3.1549365520477295
1707006817462326500,9.609326416015625,0.5694918036460876,13.36870002746582,3.9194436073303223
1707006817481286100,9.6282861328125,0.08255238085985184,13.093525886535645,4.078566074371338
1707006817500245800,9.647245849609375,0.35533416271209717,11.990434646606445,3.273381471633911
1707006817519205400,9.666205322265625,1.031306505203247,10.612168312072754,2.386840581893921
1707006817538165000,9.6851650390625,1.4787644147872925,9.701699256896973,1.7766708135604858
1707006817557124600,9.70412451171875,1.262213945388794,9.775876998901367,1.557727575302124
1707006817576084200,9.723084228515624,0.5419743061065674,10.8430757522583,1.6390835046768188
1707006817595043800,9.7420439453125,-0.2512463629245758,11.935399055480957,1.9573289155960083
1707006817614003500,9.76100341796875,-0.6364908218383789,12.059825897216797,1.9896320104599
1707006817632963300,9.77996337890625,-0.5048855543136597,10.96032428741455,1.3914263248443604
1707006817651923000,9.7989228515625,-0.08853443711996078,9.358329772949219,0.6795616149902344
1707006817670882600,9.817882568359375,0.1950150430202484,8.151150703430176,0.3840480446815491
1707006817689842200,9.83684228515625,0.18544375896453857,7.660621643066406,0.46779683232307434
1707006817708801800,9.8558017578125,0.040677983313798904,7.4739813804626465,0.7824530005455017
1707006817727761400,9.874761474609375,0.038285162299871445,7.365108013153076,1.0516455173492432
1707006817746721000,9.893720947265624,0.22013968229293823,7.094718933105469,1.0564311742782593
1707006817765680600,9.9126806640625,0.36610186100006104,6.807580471038818,0.8913264274597168
1707006817784640300,9.93164013671875,0.35413774847984314,6.742974281311035,0.7621139883995056
1707006817803600000,9.950599853515625,0.0729810893535614,7.014559745788574,0.6496513485908508
1707006817822559500,9.9695595703125,-0.2967100143432617,7.485945701599121,0.7357929348945618
1707006817841519000,9.98851904296875,-0.607776939868927,8.167900085449219,0.97148597240448
1707006817860478700,10.007478759765625,-0.8087740540504456,8.979066848754883,1.322034478187561
1707006817879438300,10.026438232421874,-0.8626125454902649,9.804591178894043,1.5900306701660156
1707006817898398000,10.04539794921875,-0.7740781307220459,10.295119285583496,1.7479569911956787
1707006817917357600,10.064357666015624,-0.5228317379951477,10.454241752624512,1.8508483171463013
1707006817936317200,10.083317138671875,-0.08733802288770676,10.752148628234863,2.062613010406494
1707006817955276800,10.10227685546875,0.2991028428077698,11.400603294372559,2.495713949203491
1707006817974236400,10.121236328125,0.6687939167022705,12.07179069519043,3.025724172592163
1707006817993196000,10.140196044921876,1.1102696657180786,12.037094116210938,2.940778970718384
1707006818012155600,10.15915576171875,1.557727575302124,11.637493133544922,2.1583259105682373
1707006818031115300,10.178115234375,1.6426727771759033,11.82891845703125,1.3519448041915894
1707006818050075000,10.197074951171874,1.3459627628326416,12.53719425201416,1.3770694732666016
1707006818069034500,10.216034423828125,1.164108157157898,12.282358169555664,1.211964726448059
1707006818087994000,10.234994140625,1.8376877307891846,10.683953285217285,0.6005984544754028
1707006818106953700,10.25395361328125,2.82951283454895,9.200403213500977,0.10289137065410614
1707006818125913300,10.272913330078126,2.9694929122924805,8.13679313659668,0.09451649338006973
1707006818144873000,10.291873046875,2.8175487518310547,7.908278942108154,0.20338992774486542
1707006818163832600,10.31083251953125,2.56510591506958,8.764909744262695,0.5994020700454712
1707006818182792200,10.329792236328124,2.1786649227142334,9.949356079101562,1.1473584175109863
1707006818201751800,10.348751708984375,1.9022940397262573,10.87418270111084,1.5780665874481201
1707006818220711400,10.36771142578125,1.688136339187622,11.120643615722656,1.7994025945663452
1707006818239671000,10.386671142578125,1.714457392692566,10.444670677185059,1.8197416067123413
1707006818258630700,10.405630615234376,2.117648124694824,9.292527198791504,1.7024933099746704
1707006818277590300,10.42459033203125,2.3497519493103027,8.118846893310547,1.5026925802230835
1707006818296550000,10.4435498046875,2.1930220127105713,7.520641803741455,1.2370892763137817
1707006818315509500,10.462509521484375,1.7778671979904175,7.373483180999756,1.2969099283218384
1707006818334468900,10.48146875,1.4261223077774048,7.451249599456787,1.7359927892684937
1707006818353428500,10.500428466796874,1.3040883541107178,7.60080099105835,2.104487419128418
1707006818372388000,10.51938818359375,1.31365966796875,7.652246952056885,2.200200319290161
1707006818391347700,10.53834765625,1.3004990816116333,7.551748275756836,2.0889341831207275
1707006818410307300,10.557307373046875,1.4297115802764893,7.306483745574951,1.8819550275802612
1707006818429267000,10.576266845703126,1.6079767942428589,7.167700290679932,1.7096717357635498
1707006818448226600,10.5952265625,1.6606189012527466,7.3160552978515625,1.7240287065505981
1707006818467186200,10.614186279296876,1.7001005411148071,7.558926582336426,1.786242127418518
1707006818486145800,10.633145751953125,1.872383713722229,7.788637638092041,1.7682958841323853
1707006818505105400,10.65210546875,2.0554347038269043,8.031509399414062,1.6342978477478027
1707006818524065000,10.67106494140625,2.025524377822876,8.525627136230469,1.6031911373138428
1707006818543024600,10.690024658203125,1.8508483171463013,9.127422332763672,1.7611174583435059
1707006818561984300,10.708984375,1.7922241687774658,9.767501831054688,1.9178473949432373
1707006818580944000,10.72794384765625,1.8843477964401245,10.329814910888672,2.0829520225524902
1707006818599903200,10.7469033203125,2.0482561588287354,10.777273178100586,2.2779672145843506
1707006818618862800,10.76586279296875,2.1990039348602295,11.749955177307129,2.4634108543395996
1707006818637822500,10.784822509765625,1.8855443000793457,13.817354202270508,3.0975089073181152
1707006818656782000,10.803781982421874,0.9750752449035645,15.123835563659668,3.9936211109161377
1707006818675741700,10.82274169921875,0.6807580590248108,14.1858491897583,3.8763725757598877
1707006818694701300,10.841701416015624,1.4057832956314087,11.956934928894043,2.9587252140045166
1707006818713661000,10.860660888671875,2.059023857116699,9.914660453796387,1.9812572002410889
1707006818732620500,10.87962060546875,1.7994025945663452,9.119047164916992,1.4584254026412964
1707006818751580200,10.898580078125,0.7417750358581543,9.900303840637207,1.4572290182113647
1707006818770539800,10.917539794921876,-0.4701896607875824,11.367103576660156,1.7216359376907349
1707006818789499400,10.93649951171875,-1.1521440744400024,12.725030899047852,1.950150489807129
1707006818808458800,10.955458740234375,-1.0660024881362915,13.038490295410156,1.9860427379608154
1707006818827418400,10.97441845703125,-0.5204389095306396,11.862418174743652,1.3471591472625732
1707006818846378000,10.9933779296875,0.1663011759519577,9.996016502380371,0.42831525206565857
1707006818865337600,11.012337646484376,0.6424728631973267,8.559126853942871,-0.18544375896453857
1707006818884297200,11.031297119140625,0.6747759580612183,7.674978733062744,-0.3517449200153351
1707006818903256800,11.0502568359375,0.5850451588630676,7.09711217880249,-0.22133609652519226
1707006818922216400,11.069216552734375,0.45942193269729614,6.597012042999268,-0.0526420995593071
1707006818941176000,11.088176025390625,0.4307080805301666,6.175875186920166,0.013160524889826775
1707006818960135700,11.1071357421875,0.42831525206565857,5.667400360107422,-0.08015955984592438
1707006818979095300,11.12609521484375,0.5670989751815796,5.210371494293213,-0.32662028074264526
1707006818998055000,11.145054931640624,0.42831525206565857,4.548755645751953,-0.3122633695602417
1707006819017014300,11.16401416015625,-0.09212367236614227,4.671986103057861,0.137587308883667
1707006819035974000,11.182973876953126,-0.6472585201263428,5.796612739562988,0.5706881880760193
1707006819054933800,11.201933837890625,-1.168893814086914,7.4811601638793945,1.153340458869934
1707006819073893000,11.22089306640625,-1.5469598770141602,9.525827407836914,1.8652052879333496
1707006819092852700,11.239852783203125,-1.7024933099746704,11.367103576660156,2.3437697887420654
1707006819111812400,11.258812255859375,-1.6474584341049194,12.314661979675293,2.458625316619873
1707006819130772000,11.27777197265625,-0.8937192559242249,13.062418937683105,2.851048231124878
1707006819149731600,11.296731689453125,0.0023928226437419653,14.030315399169922,3.6634113788604736
1707006819168691200,11.315691162109376,0.7405785918235779,14.366507530212402,3.94815731048584
1707006819187650800,11.33465087890625,1.3411771059036255,14.014761924743652,3.70767879486084
1707006819206610400,11.3536103515625,1.7850457429885864,13.59362506866455,3.4121651649475098
1707006819225570000,11.372570068359375,2.4993033409118652,12.853046417236328,2.9970104694366455
1707006819244529700,11.39152978515625,3.2829527854919434,11.143375396728516,2.066202402114868
1707006819263489300,11.4104892578125,3.7842490673065186,8.95394229888916,1.0947163105010986
1707006819282448600,11.42944873046875,3.5772697925567627,7.525427341461182,0.6209374666213989
1707006819301408300,11.448408203125,3.328416347503662,7.240681171417236,0.08135596662759781
1707006819320367900,11.467367919921875,2.9826533794403076,8.659625053405762,-0.07657032459974289
1707006819339327500,11.486327392578126,2.2169501781463623,11.273783683776855,0.25244277715682983
1707006819358287000,11.505287109375,1.1509476900100708,12.983455657958984,0.865005373954773
1707006819377246700,11.524246826171876,1.0336993932724,12.701102256774902,0.9487541913986206
1707006819396206300,11.543206298828125,1.3627125024795532,10.883753776550293,0.3768695592880249
1707006819415166000,11.562166015625,1.6055840253829956,8.93958568572998,0.5742774605751038
1707006819434125600,11.58112548828125,1.612762451171875,7.678567886352539,1.2454642057418823
1707006819453085200,11.600085205078125,1.5804593563079834,7.058826923370361,1.9908283948898315
1707006819472044800,11.619044921875,1.4727823734283447,7.0025954246521,2.42512583732605
1707006819491004400,11.63800439453125,1.5122638940811157,6.946363925933838,2.6225335597991943
1707006819509964000,11.656964111328126,1.5840486288070679,6.6831536293029785,2.772084951400757
1707006819528923600,11.675923583984375,1.6342978477478027,6.419943332672119,2.912065267562866
1707006819547883300,11.69488330078125,1.730010747909546,6.379265308380127,3.0927233695983887
1707006819566843000,11.7138427734375,1.6618152856826782,6.55992317199707,3.1238300800323486
1707006819585802500,11.732802490234375,1.5146567821502686,7.04925537109375,3.1214370727539062
1707006819604762000,11.75176220703125,1.552941918373108,7.506284713745117,3.3020951747894287
1707006819623721700,11.7707216796875,1.7886348962783813,7.479963779449463,3.377469062805176
1707006819642681300,11.789681396484376,2.313859462738037,7.485945701599121,3.348755359649658
1707006819661641000,11.808640869140625,2.7696921825408936,7.905886173248291,3.249453067779541
1707006819680600300,11.827600341796876,2.796013355255127,8.57348346710205,3.1310083866119385
1707006819699560200,11.846560302734375,2.713460922241211,9.126225471496582,3.3547372817993164
1707006819718519800,11.865519775390625,2.616551637649536,9.611968994140625,3.466003656387329
1707006819737479200,11.884479248046874,2.599801778793335,10.003194808959961,3.3750762939453125
1707006819756438800,11.903438720703125,2.5184457302093506,10.13599681854248,3.029313564300537
1707006819775398700,11.922398681640624,2.366501569747925,10.619346618652344,2.830709218978882
1707006819794358000,11.94135791015625,2.1607189178466797,11.96052360534668,3.1405797004699707
1707006819813317600,11.960317626953126,1.5469598770141602,13.144970893859863,3.9278182983398438
1707006819832277200,11.97927734375,1.0193424224853516,13.099507331848145,4.164707660675049
1707006819851236900,11.99823681640625,1.1186445951461792,12.113664627075195,3.6777684688568115
1707006819870196500,12.017196533203125,1.6079767942428589,10.651650428771973,2.864208698272705
1707006819889156000,12.036156005859375,1.908276081085205,9.373882293701172,2.0925233364105225
1707006819908115700,12.05511572265625,1.6354942321777344,9.138189315795898,1.714457392692566
1707006819927075300,12.074075439453125,0.7190431952476501,9.957731246948242,1.8640087842941284
1707006819946035000,12.093034912109376,-0.29431718587875366,11.229516983032227,2.179861545562744
1707006819964994600,12.11199462890625,-0.9032905697822571,12.112467765808105,2.3545374870300293
1707006819983954200,12.1309541015625,-0.9487541913986206,11.92463207244873,2.008774518966675
1707006820002913800,12.149913818359375,-0.672383189201355,10.88973617553711,1.2167502641677856
1707006820021873400,12.168873291015625,-0.25004997849464417,9.55214786529541,0.5383850932121277
1707006820040833000,12.1878330078125,-0.07417750358581543,8.453842163085938,0.3326023519039154
1707006820059792600,12.206792724609375,-0.11126625537872314,7.739584922790527,0.33858439326286316
1707006820078752300,12.225752197265624,-0.20338992774486542,7.2059855461120605,0.49292147159576416
1707006820097711900,12.2447119140625,-0.3840480446815491,7.05763053894043,0.6759724020957947
1707006820116671500,12.26367138671875,-0.44027936458587646,7.0648088455200195,0.672383189201355
1707006820135631000,12.282631103515625,-0.486939400434494,6.598208427429199,0.8434699773788452
1707006820154590700,12.3015908203125,-0.7489534616470337,6.556334018707275,1.0013962984085083
1707006820173550300,12.32055029296875,-1.0480563640594482,6.831508636474609,0.9499505758285522
1707006820192510000,12.339510009765625,-1.3160524368286133,7.335197925567627,0.9451649188995361
1707006820211469600,12.358469482421874,-1.4787644147872925,8.295916557312012,1.176072359085083
1707006820230429200,12.37742919921875,-1.5637096166610718,9.498309135437012,1.5337992906570435
1707006820249388800,12.396388916015624,-1.6055840253829956,10.649256706237793,1.7467604875564575
1707006820268348400,12.415348388671875,-1.2179467678070068,11.399407386779785,1.947757601737976
1707006820287308000,12.43430810546875,-0.5599204897880554,11.649456977844238,2.1750757694244385
1707006820306267600,12.453267578125,0.08614161610603333,11.527422904968262,2.493321180343628
1707006820325227300,12.472227294921876,0.534795880317688,11.353943824768066,2.6225335597991943
1707006820344187000,12.491186767578125,0.794417142868042,11.387442588806152,2.6739792823791504
1707006820363146500,12.510146484375,0.8805587291717529,11.642278671264648,2.65842604637146
1707006820382106000,12.529106201171874,0.6496513485908508,12.760923385620117,3.087937593460083
1707006820401065700,12.548065673828125,0.3361915946006775,14.153546333312988,4.053441524505615
1707006820420025300,12.567025390625,0.9942178130149841,13.345968246459961,3.9397823810577393
1707006820438985000,12.58598486328125,2.266003131866455,10.954341888427734,2.6596224308013916
1707006820457944600,12.604944580078126,3.2626137733459473,9.09272575378418,1.9166508913040161
1707006820476904200,12.623904296875,3.31884503364563,8.096115112304688,1.672582983970642
1707006820495863800,12.64286376953125,2.4849462509155273,8.172685623168945,1.5912270545959473
1707006820514823400,12.661823486328124,1.6534404754638672,9.08554744720459,1.5864413976669312
1707006820533783000,12.680782958984375,0.9846464991569519,9.747162818908691,1.5900306701660156
1707006820552742700,12.69974267578125,0.592223584651947,9.908679008483887,1.8089739084243774
1707006820571702300,12.718702392578125,0.6005984544754028,9.402596473693848,2.1236300468444824
1707006820590662000,12.737661865234376,0.7956135272979736,8.389236450195312,2.2719850540161133
1707006820609621500,12.75662158203125,1.0193424224853516,7.5086774826049805,2.4394826889038086
1707006820628581000,12.7755810546875,1.1892328262329102,6.932007312774658,2.682354211807251
1707006820647540700,12.794540771484375,1.32921302318573,6.692724704742432,2.9958138465881348
1707006820666500400,12.813500244140625,1.4333007335662842,6.692724704742432,3.363112211227417
1707006820685460000,12.8324599609375,1.5314065217971802,6.835097789764404,3.6119658946990967
1707006820704419600,12.851419677734375,1.5672988891601562,7.214360237121582,3.792623996734619
1707006820723379000,12.87037890625,1.573280930519104,7.5912299156188965,3.9637107849121094
1707006820742338800,12.8893388671875,1.5146567821502686,8.023134231567383,4.1144585609436035
1707006820761298400,12.90829833984375,1.4632110595703125,8.415556907653809,4.124029636383057
1707006820780258000,12.927258056640625,1.506281852722168,8.560322761535645,4.068994998931885
1707006820799217400,12.946217529296876,1.6785650253295898,8.414361000061035,3.81655216217041
1707006820818177000,12.965177001953125,1.9334007501602173,8.23848819732666,3.5126636028289795
1707006820837137000,12.984136962890625,2.1260228157043457,8.181060791015625,3.276970624923706
1707006820856096300,13.00309619140625,2.1511476039886475,8.47178840637207,3.1106693744659424
1707006820875055900,13.022055908203125,2.097309112548828,9.10110092163086,3.0484559535980225
1707006820894015500,13.041015380859376,2.0961127281188965,9.844072341918945,2.9072794914245605
1707006820912975000,13.05997509765625,1.8939191102981567,10.470992088317871,2.693121910095215
1707006820931934700,13.078934814453126,1.7120646238327026,11.0835542678833,2.465803623199463
1707006820950894300,13.097894287109375,1.5302101373672485,12.387642860412598,2.5184457302093506
1707006820969854000,13.11685400390625,1.2813565731048584,13.846068382263184,3.078366279602051
1707006820988813600,13.1358134765625,1.1736794710159302,13.914263725280762,3.2961132526397705
1707006821007773200,13.154773193359375,1.5230315923690796,13.082757949829102,2.8761727809906006
1707006821026732800,13.17373291015625,1.8065811395645142,11.638689041137695,2.338984251022339
1707006821045692400,13.1926923828125,1.8077775239944458,9.762716293334961,1.7252250909805298
1707006821064652000,13.211652099609376,1.581655740737915,8.562715530395508,1.1820544004440308
1707006821083611600,13.230611572265625,0.7429714202880859,8.34018325805664,1.2346965074539185
1707006821102571300,13.2495712890625,-0.11006984114646912,9.120243072509766,1.6522440910339355
1707006821121530600,13.268530517578125,-0.6975077986717224,10.566704750061035,1.9752750396728516
1707006821140490500,13.287490478515625,-1.022931694984436,11.544173240661621,1.892722725868225
1707006821159450000,13.3064501953125,-0.9176474809646606,11.404192924499512,1.3950155973434448
1707006821178409500,13.325409423828125,-0.6173482537269592,10.122836112976074,0.6496513485908508
1707006821197369000,13.344369140625,-0.3768695592880249,8.621339797973633,0.14476576447486877
1707006821216328700,13.36332861328125,-0.40319061279296875,7.471588611602783,-0.04307080805301666
1707006821235288300,13.382288330078126,-0.5324030518531799,6.715456962585449,-0.035892341285943985
1707006821254248000,13.401248046875,-0.5539384484291077,6.251249313354492,0.04307080805301666
1707006821273207600,13.42020751953125,-0.42352959513664246,6.007181167602539,0.10887342691421509
1707006821292167200,13.439167236328124,-0.2787638306617737,6.020341873168945,0.18544375896453857
1707006821311126800,13.458126708984375,-0.22971096634864807,6.323033809661865,0.18903298676013947
1707006821330086400,13.47708642578125,-0.3601198196411133,6.51326322555542,0.25722843408584595
1707006821349046000,13.4960458984375,-0.6364908218383789,7.101897716522217,0.4989035129547119
1707006821368005600,13.515005615234376,-1.1126625537872314,8.428717613220215,0.8350951075553894
1707006821386965000,13.533965087890625,-1.5230315923690796,10.25324535369873,1.3950155973434448
1707006821405924600,13.552924560546876,-1.7742780447006226,12.096915245056152,2.1894326210021973
1707006821424884200,13.57188427734375,-1.2574282884597778,12.612567901611328,2.557927370071411
1707006821443843800,13.59084375,-0.09451649338006973,12.0394868850708,2.1296122074127197
1707006821462803500,13.609803466796874,0.5084748268127441,11.642278671264648,2.2337000370025635
1707006821481763000,13.62876318359375,0.8123632669448853,11.430513381958008,2.480160713195801
1707006821500722700,13.64772265625,1.1413763761520386,11.722437858581543,2.7146573066711426
1707006821519682300,13.666682373046875,1.0325030088424683,12.679567337036133,3.187239646911621
1707006821538642000,13.685641845703126,1.0492527484893799,13.106685638427734,3.7710886001586914
1707006821557601500,13.7046015625,1.5804593563079834,12.490533828735352,3.678964853286743
1707006821576561200,13.72356103515625,2.251646041870117,11.367103576660156,3.1728827953338623
1707006821595520500,13.7425205078125,2.885744094848633,10.138389587402344,2.5387847423553467
1707006821614480100,13.761480224609375,3.108276605606079,9.061619758605957,1.9669002294540405
1707006821633439700,13.780439697265624,2.7672994136810303,9.007781028747559,1.6151553392410278
1707006821652399400,13.7993994140625,2.139183521270752,9.622735977172852,1.3256237506866455
1707006821671359000,13.81835888671875,1.470389485359192,10.235299110412598,1.1665010452270508
1707006821690318600,13.837318603515625,0.882951557636261,10.526026725769043,1.1820544004440308
1707006821709278200,13.8562783203125,0.638883650302887,10.246066093444824,1.3507484197616577
1707006821728237800,13.87523779296875,0.7657032608985901,9.244669914245605,1.3866406679153442
1707006821747197200,13.894197265625,0.9607182741165161,8.109275817871094,1.357926845550537
1707006821766156800,13.91315673828125,1.0492527484893799,7.244270324707031,1.4321043491363525
1707006821785116400,13.932116455078125,1.062413215637207,6.802794933319092,1.6773686408996582
1707006821804076000,13.951075927734376,1.042074203491211,6.674778938293457,1.970489501953125
1707006821823035600,13.97003564453125,1.0360921621322632,6.838686943054199,2.2815563678741455
1707006821841995000,13.9889951171875,1.054038405418396,7.1509504318237305,2.554338216781616
1707006821860954600,14.00795458984375,1.1258230209350586,7.562515735626221,2.8354947566986084
1707006821879914200,14.026914306640625,1.3088740110397339,7.966903209686279,3.1657042503356934
1707006821898873900,14.045873779296874,1.3674981594085693,8.294719696044922,3.4959139823913574
1707006821917833500,14.06483349609375,1.5242279767990112,8.5100736618042,3.6993038654327393
1707006821936793000,14.08379296875,1.7874385118484497,8.733802795410156,3.7603209018707275
1707006821955752700,14.102752685546875,1.978864312171936,8.70508861541748,3.627519130706787
1707006821974712300,14.12171240234375,2.1511476039886475,8.568697929382324,3.376272678375244
1707006821993671700,14.140671630859375,2.2432711124420166,8.439485549926758,2.9694929122924805
1707006822012631300,14.15963134765625,2.2360928058624268,8.514859199523926,2.5112674236297607
1707006822031591000,14.1785908203125,1.9680966138839722,8.903693199157715,2.1583259105682373
1707006822050550500,14.197550537109375,1.5493526458740234,9.592825889587402,1.9812572002410889
1707006822069510000,14.216510009765624,1.1497513055801392,10.210174560546875,1.9800606966018677
1707006822088469500,14.235469482421875,0.9224331378936768,10.649256706237793,1.9836499691009521
1707006822107429000,14.25442919921875,0.9212366938591003,11.649456977844238,2.0446670055389404
1707006822126388700,14.273388671875,0.8410771489143372,13.16650676727295,2.644068956375122
1707006822145348400,14.292348388671876,0.537188708782196,14.079368591308594,3.6059837341308594
1707006822164308000,14.311307861328125,0.5527420043945312,13.942977905273438,4.041477680206299
1707006822183267300,14.330267333984375,0.9726824164390564,12.519248008728027,3.651447296142578
1707006822202227000,14.34922705078125,1.5792629718780518,10.426724433898926,2.9659037590026855
1707006822221186600,14.3681865234375,1.7778671979904175,8.846264839172363,2.462214469909668
1707006822240146200,14.387146240234374,1.2526426315307617,8.403593063354492,2.3401806354522705
1707006822259105800,14.406105712890625,0.32662028074264526,8.959924697875977,2.451446771621704
1707006822278065400,14.4250654296875,-0.5419743061065674,10.145567893981934,2.504088878631592
1707006822297024800,14.444024658203125,-1.2191431522369385,11.126625061035156,2.3916261196136475
1707006822315984400,14.462984375,-1.4691931009292603,11.203195571899414,1.9310078620910645
1707006822334944000,14.481944091796874,-1.2083754539489746,10.25922679901123,1.0001999139785767
1707006822353903600,14.500903564453125,-0.7716853022575378,8.891729354858398,0.09212367236614227
1707006822372863000,14.519863037109374,-0.47258245944976807,7.767102241516113,-0.32303106784820557
1707006822391822600,14.538822509765625,-0.45224347710609436,7.103094100952148,-0.4091726839542389
1707006822410782200,14.5577822265625,-0.5862415432929993,6.854240417480469,-0.29431718587875366
1707006822429741800,14.576741943359375,-0.7621139883995056,6.908079147338867,0
1707006822448701400,14.595701416015626,-0.8925228714942932,7.086344242095947,0.2679961323738098
1707006822467660800,14.614660888671875,-0.9284151792526245,7.3304123878479,0.35413774847984314
1707006822486620400,14.633620361328125,-0.778863787651062,7.4811601638793945,0.4127618968486786
1707006822505580000,14.652580078125,-0.6448656916618347,7.701299667358398,0.519242525100708
1707006822524539400,14.671539306640625,-0.5264210104942322,8.007580757141113,0.8997012972831726
1707006822543499000,14.6904990234375,-0.5958128571510315,8.638090133666992,1.5206388235092163
1707006822562458600,14.709458740234375,-0.8530412912368774,9.708877563476562,2.080559253692627
1707006822581418200,14.728418212890626,-0.9726824164390564,10.643275260925293,2.5423741340637207
1707006822600377600,14.747377685546875,-0.6711867451667786,11.149356842041016,2.7122645378112793
1707006822619337200,14.766337158203125,-0.137587308883667,11.468798637390137,2.7361927032470703
1707006822638296800,14.785296875,0.39481574296951294,11.504691123962402,2.709871530532837
1707006822657256400,14.80425634765625,0.7860422134399414,11.349157333374023,2.733799934387207
1707006822676216000,14.823216064453124,0.9678967595100403,11.245070457458496,2.633301258087158
1707006822695175400,14.842175537109375,0.8470591902732849,11.423335075378418,2.4837498664855957
1707006822714135000,14.861135009765626,0.5491527915000916,12.06939697265625,2.5220351219177246
1707006822733094700,14.8800947265625,0.4546363055706024,12.570693969726562,2.7864420413970947
1707006822752054300,14.89905419921875,0.9511470198631287,11.678171157836914,2.4873390197753906
1707006822771013600,14.918013671875,1.7072789669036865,10.13599681854248,1.6187444925308228
1707006822789973200,14.93697314453125,2.2540390491485596,8.993423461914062,0.8925228714942932
1707006822808932900,14.955932861328124,2.169093608856201,8.634500503540039,0.4989035129547119
1707006822827892200,14.974892333984375,1.5720844268798828,9.267401695251465,0.27397820353507996
1707006822846851800,14.993851806640626,0.9547362327575684,10.535597801208496,0.4833501875400543
1707006822865811500,15.0128115234375,0.5204389095306396,11.61117172241211,0.9595218896865845
1707006822884771000,15.03177099609375,0.28953152894973755,11.956934928894043,1.4883357286453247
1707006822903730400,15.05073046875,0.4773681163787842,11.13021469116211,1.7826528549194336
1707006822922690000,15.06968994140625,0.9296116232872009,9.687342643737793,1.856830358505249
1707006822941649700,15.088649658203124,1.2083754539489746,8.493324279785156,2.0159530639648438
1707006822960609300,15.107609375,1.1234302520751953,7.812565803527832,2.3641088008880615
1707006822979568600,15.126568603515626,0.9846464991569519,7.436892986297607,2.65842604637146
1707006822998528300,15.1455283203125,0.9882357716560364,7.217949390411377,2.812762975692749
1707006823017487600,15.164487548828125,1.0456634759902954,7.232306480407715,2.882154941558838
1707006823036447200,15.183447265625,1.0456634759902954,7.354340553283691,2.8905298709869385
1707006823055406800,15.20240673828125,1.0432707071304321,7.483552932739258,2.9180471897125244
1707006823074366500,15.221366455078124,1.1389836072921753,7.560122966766357,2.8929226398468018
1707006823093325800,15.240325927734375,1.2095718383789062,7.623532772064209,2.6727828979492188
1707006823112285400,15.259285400390626,1.155733346939087,7.927421569824219,2.50289249420166
1707006823131245000,15.2782451171875,1.0289137363433838,8.293522834777832,2.5196423530578613
1707006823150204400,15.297204345703125,1.0277173519134521,8.504091262817383,2.8139593601226807
1707006823169164000,15.3161640625,1.2346965074539185,8.519644737243652,3.177668571472168
1707006823188123600,15.33512353515625,1.6558332443237305,8.405985832214355,3.462414264678955
1707006823207083000,15.3540830078125,2.108076810836792,8.226524353027344,3.7363924980163574
1707006823226042600,15.373042724609375,2.383251428604126,8.289934158325195,4.132404804229736
1707006823245002200,15.392002197265626,2.338984251022339,8.895318031311035,4.510470867156982
1707006823263961600,15.410961669921875,2.0757737159729004,9.594022750854492,4.722235679626465
1707006823282921200,15.429921142578126,1.9250258207321167,9.755537986755371,4.457828521728516
1707006823301880800,15.448880859375,1.7479569911956787,10.340582847595215,4.022335052490234
1707006823320840200,15.467840087890625,1.2789636850357056,11.758330345153809,3.7052857875823975
1707006823339799800,15.4867998046875,0.4618147611618042,13.001401901245117,3.518645763397217
1707006823358759400,15.505759521484375,-0.15194423496723175,13.04088306427002,2.8833513259887695
1707006823377718800,15.52471875,-0.02632104977965355,12.277572631835938,2.0243279933929443
1707006823396678400,15.543678466796875,0.4043870270252228,11.156535148620605,1.4177473783493042
1707006823415638000,15.562637939453126,0.7525427341461182,10.017552375793457,1.0815558433532715
1707006823434597400,15.581597412109375,0.8315058946609497,9.729216575622559,1.1042876243591309
1707006823453557000,15.600556884765625,0.714257538318634,10.394421577453613,1.5206388235092163
1707006823472516400,15.619516357421874,0.3158525824546814,11.726027488708496,2.155933141708374
1707006823491476000,15.63847607421875,-0.24287149310112,12.206984519958496,2.341377019882202
1707006823510435600,15.657435546875,-0.058624155819416046,11.893525123596191,1.8460626602172852
1707006823529395200,15.676395263671875,0.4043870270252228,10.687541961669922,1.0157532691955566
1707006823548354600,15.6953544921875,0.7597211599349976,9.050851821899414,0.4414757788181305
1707006823567314200,15.714314208984375,0.7405785918235779,7.5673017501831055,0.3086741268634796
1707006823586273500,15.7332734375,0.40319061279296875,6.580262184143066,0.33499518036842346
1707006823605233200,15.752233154296874,0.08973085135221481,5.988038539886475,0.3242274820804596
1707006823624192800,15.77119287109375,-0.10408778488636017,5.752345561981201,0.275174617767334
1707006823643152100,15.790152099609376,-0.09571290761232376,5.994020938873291,0.21296121180057526
1707006823662111700,15.80911181640625,-0.09571290761232376,6.314659118652344,0.24047867953777313
1707006823681071400,15.8280712890625,-0.06819544732570648,6.239284992218018,0.43190449476242065
1707006823700030700,15.84703076171875,0.1256231814622879,6.39601469039917,0.6891329288482666
1707006823718990300,15.865990234375,-0.005982056725770235,7.269395351409912,0.6939185857772827
1707006823737949700,15.88494970703125,-0.28594231605529785,8.868997573852539,0.9044869542121887
1707006823756909300,15.903909423828125,-0.8506484627723694,10.451848983764648,1.3746765851974487
1707006823775869000,15.922868896484376,-1.246660590171814,12.019147872924805,1.5254244804382324
1707006823794828300,15.941828369140625,-1.1593226194381714,12.735798835754395,1.3854442834854126
1707006823813788000,15.960787841796876,-0.19381862878799438,12.027523040771484,1.2023934125900269
1707006823832747500,15.97974755859375,0.9272187948226929,11.059626579284668,1.109073281288147
1707006823851707000,15.998706787109375,1.6103696823120117,10.594222068786621,1.2945170402526855
1707006823870666500,16.01766650390625,1.5792629718780518,11.245070457458496,1.8508483171463013
1707006823889626000,16.036626220703123,1.2047861814498901,12.588640213012695,2.7637102603912354
1707006823908585500,16.05558544921875,1.506281852722168,12.744173049926758,2.913261651992798
1707006823927545000,16.074545166015625,2.6117658615112305,11.632707595825195,2.2432711124420166
1707006823946504700,16.093504638671874,3.6167514324188232,10.271191596984863,1.526620864868164
1707006823965464000,16.112464111328126,3.702893018722534,9.153742790222168,1.1437692642211914
1707006823984423700,16.131423583984375,3.1094729900360107,9.103493690490723,1.1042876243591309
1707006824003383000,16.150383056640624,2.3605196475982666,10.4219388961792,1.210768222808838
1707006824022342700,16.1693427734375,1.628315806388855,11.962916374206543,1.6031911373138428
1707006824041302300,16.18830224609375,1.1318050622940063,12.703495025634766,2.3162522315979004
1707006824060262000,16.207261962890627,1.2741780281066895,11.962916374206543,2.671586513519287
1707006824079221200,16.22622119140625,1.8771693706512451,10.272387504577637,2.3617160320281982
1707006824098180900,16.245180908203125,2.1403799057006836,8.632107734680176,2.0135602951049805
1707006824117140200,16.26414013671875,2.032702922821045,7.429714202880859,1.8508483171463013
1707006824136099800,16.283099853515626,1.832902193069458,6.653243541717529,1.8556339740753174
1707006824155059500,16.3020595703125,1.690529227256775,6.2536420822143555,1.9226330518722534
1707006824174018800,16.321018798828124,1.4715858697891235,6.25723123550415,2.0853450298309326
1707006824192978400,16.339978515625,1.2454642057418823,6.558726787567139,2.2911276817321777
1707006824211938000,16.35893798828125,1.0456634759902954,6.8997039794921875,2.4634108543395996
1707006824230897400,16.3778974609375,0.9511470198631287,7.028916358947754,2.537588357925415
1707006824249857000,16.39685693359375,1.0360921621322632,7.129415035247803,2.513660192489624
1707006824268816600,16.415816650390624,1.1186445951461792,7.418946743011475,2.56510591506958
1707006824287776000,16.43477587890625,1.113858938217163,7.999206066131592,2.7290141582489014
1707006824306735600,16.453735595703126,1.2011969089508057,8.46341323852539,2.8761727809906006
1707006824325695200,16.4726953125,1.4404792785644531,8.930013656616211,3.022135019302368
1707006824344654600,16.491654541015624,1.7216359376907349,9.354740142822266,3.218346357345581
1707006824363614200,16.5106142578125,1.8496519327163696,9.665806770324707,3.394218921661377
1707006824382573800,16.52957373046875,1.9202401638031006,9.876375198364258,3.5258240699768066
1707006824401533200,16.548533203125,1.9489539861679077,10.007980346679688,3.5952160358428955
1707006824420492800,16.567492919921875,1.8963119983673096,10.138389587402344,3.675375461578369
1707006824439452400,16.586452392578124,1.7527425289154053,10.308279991149902,3.737588882446289
1707006824458411800,16.605411865234377,1.6079767942428589,11.152946472167969,3.809373617172241
1707006824477371400,16.624371337890626,1.2095718383789062,12.813565254211426,4.156332969665527
1707006824496331000,16.6433310546875,0.7429714202880859,13.462019920349121,4.390829563140869
1707006824515290600,16.66229052734375,0.6687939167022705,12.971491813659668,4.18145751953125
1707006824534250000,16.68125,0.7214360237121582,12.043076515197754,3.700500249862671
1707006824553209600,16.700209716796873,0.9678967595100403,10.558329582214355,2.9527430534362793
1707006824572169200,16.719169189453126,1.3256237506866455,9.139386177062988,2.17627215385437
1707006824591128600,16.738128662109375,1.2550355195999146,8.824729919433594,1.825723648071289
1707006824610088200,16.757088134765624,0.4618147611618042,9.377471923828125,1.9896320104599
1707006824629047800,16.7760478515625,-0.5048855543136597,10.503294944763184,2.0374884605407715
1707006824648007400,16.79500732421875,-1.2885349988937378,11.630314826965332,1.786242127418518
1707006824666966800,16.813966796875,-1.3926228284835815,12.184252738952637,1.25144624710083
1707006824685926400,16.832926513671875,-0.9762716293334961,11.550154685974121,0.18544375896453857
1707006824704886000,16.851885986328124,-0.39122650027275085,9.639486312866211,-0.9678967595100403
1707006824723845400,16.870845458984373,0.02512463741004467,8.007580757141113,-1.5290136337280273
1707006824742805000,16.889804931640626,-0.07776673883199692,7.093522548675537,-1.6115660667419434
1707006824761764600,16.9087646484375,-0.42711883783340454,6.689135551452637,-1.5625132322311401
1707006824780724000,16.927723876953124,-0.7908278703689575,6.6113691329956055,-1.3471591472625732
1707006824799683600,16.94668359375,-0.6472585201263428,6.7345991134643555,-1.0289137363433838
1707006824818643200,16.965643310546874,-0.3445664644241333,6.448657035827637,-0.2787638306617737
1707006824837602800,16.984602783203126,-0.4055834412574768,6.512066841125488,0.7010970115661621
1707006824856562200,17.003562255859375,-0.5168496966362,6.843472957611084,1.2705888748168945
1707006824875521800,17.022521728515624,-0.41994038224220276,7.094718933105469,1.679761528968811
1707006824894481400,17.0414814453125,-0.12323036789894104,7.625925540924072,2.1714866161346436
1707006824913441000,17.06044091796875,-0.064606212079525,8.742177963256836,2.794816732406616
1707006824932400600,17.079400634765626,-0.24646073579788208,10.326226234436035,3.511467218399048
1707006824951360000,17.098360107421875,-0.32542386651039124,11.80618667602539,4.074976921081543
1707006824970319600,17.117319580078124,-0.05742774158716202,12.504891395568848,4.094119548797607
1707006824989279200,17.136279296875,0.5228317379951477,12.262020111083984,3.799802303314209
1707006825008238600,17.155238525390626,1.0612168312072754,11.82891845703125,3.304488182067871
1707006825027198200,17.1741982421875,1.1904292106628418,11.364710807800293,2.812762975692749
1707006825046157800,17.19315771484375,1.1545369625091553,11.076375961303711,2.3880369663238525
1707006825065117400,17.212117431640625,0.7932206988334656,11.473584175109863,2.276770830154419
1707006825084076800,17.231076904296874,0.2799602448940277,12.496516227722168,2.799602508544922
1707006825103036400,17.250036376953126,0.5946164131164551,12.592228889465332,3.13220477104187
1707006825121996000,17.26899609375,1.812563180923462,10.993824005126953,2.5052852630615234
1707006825140955600,17.28795556640625,2.823530673980713,9.241081237792969,1.7790635824203491
1707006825159915000,17.3069150390625,3.043670415878296,8.361719131469727,1.5696916580200195
1707006825178874600,17.32587451171875,2.2337000370025635,8.648857116699219,1.576870083808899
1707006825197834200,17.344834228515627,1.1066805124282837,9.710074424743652,1.7419748306274414
1707006825216793900,17.3637939453125,0.32303106784820557,10.271191596984863,1.8831514120101929
1707006825235753200,17.382753173828124,0.22372891008853912,9.976874351501465,1.9908283948898315
1707006825254712800,17.401712890625,0.4618147611618042,9.237491607666016,2.063809633255005
1707006825273672400,17.42067236328125,0.7417750358581543,8.47896671295166,2.1379871368408203
1707006825292632000,17.439632080078123,0.900897741317749,7.884350776672363,2.376072883605957
1707006825311591700,17.458591796875,0.867398202419281,7.463213920593262,2.7517459392547607
1707006825330551000,17.477551025390625,0.8219345808029175,7.1748785972595215,3.0999016761779785
1707006825349510700,17.4965107421875,0.851844847202301,7.136593341827393,3.3308091163635254
1707006825368470300,17.51547021484375,0.8877372145652771,7.1509504318237305,3.541377544403076
1707006825387429600,17.5344296875,0.9032905697822571,7.183253765106201,3.799802303314209
1707006825406389200,17.55338916015625,0.8685946464538574,7.2921271324157715,4.060619831085205
1707006825425348900,17.572348876953125,0.8949156403541565,7.4572319984436035,4.3178486824035645
1707006825444308500,17.59130859375,0.9080761671066284,7.703692436218262,4.60139799118042
1707006825463267800,17.610267822265627,0.849452018737793,7.761120319366455,4.797609329223633
1707006825482227500,17.6292275390625,0.9188438653945923,7.741977691650391,4.8574299812316895
1707006825501187000,17.64818701171875,1.054038405418396,7.919046401977539,4.828716278076172
1707006825520146700,17.667146728515625,1.0301101207733154,8.190631866455078,4.814359188079834
1707006825539106000,17.68610595703125,0.9511470198631287,8.555537223815918,4.705485820770264
1707006825558065700,17.705065673828123,0.8219345808029175,9.104690551757812,4.415954113006592
1707006825577025300,17.724025390625,0.6735795736312866,9.570094108581543,4.1347975730896
1707006825595985000,17.74298486328125,0.5994020700454712,9.879964828491211,3.8799619674682617
1707006825614944300,17.7619443359375,0.5874379873275757,10.162318229675293,3.6909289360046387
1707006825633903900,17.78090380859375,0.6544370055198669,10.676774978637695,3.6526436805725098
1707006825652863500,17.799863525390624,0.7812566161155701,11.82891845703125,3.85483717918396
1707006825671823000,17.818822998046876,0.7034898400306702,13.118650436401367,4.40757942199707
1707006825690782700,17.83778271484375,0.5934200286865234,13.25862979888916,4.548755645751953
1707006825709742000,17.8567421875,0.7968099117279053,12.470194816589355,4.00319242477417
1707006825728701700,17.87570166015625,1.0803594589233398,11.412567138671875,3.280559778213501
1707006825747661300,17.894661376953124,1.2203395366668701,10.549955368041992,2.7672994136810303
1707006825766620700,17.91362060546875,0.8805587291717529,9.963713645935059,2.6009981632232666
1707006825785580300,17.932580322265625,0.21655045449733734,9.872786521911621,2.616551637649536
1707006825804540000,17.951539794921874,-0.46420758962631226,10.311869621276855,2.682354211807251
1707006825823499300,17.970499267578123,-1.054038405418396,11.070393562316895,2.8689942359924316
1707006825842459000,17.989458984375,-1.2598211765289307,11.69851016998291,3.098705291748047
1707006825861418500,18.00841845703125,-1.0636097192764282,11.631510734558105,2.6727828979492188
1707006825880378000,18.027378173828126,-0.5479564070701599,10.29751205444336,1.5840486288070679
1707006825899337700,18.046337646484375,-0.08374879509210587,8.58784008026123,0.7597211599349976
1707006825918297000,18.065297119140624,-0.062213387340307236,7.377072334289551,0.5754738450050354
1707006825937256700,18.084256591796876,-0.36251261830329895,6.721438884735107,0.7022934556007385
1707006825956216300,18.10321630859375,-0.5910272002220154,6.338587284088135,0.7908278703689575
1707006825975176000,18.122176025390626,-0.5455635786056519,6.0263237953186035,0.6927221417427063
1707006825994135300,18.14113525390625,-0.3768695592880249,5.893522262573242,0.5108676552772522
1707006826013095000,18.160094970703124,-0.259621262550354,6.138786315917969,0.39481574296951294
1707006826032054300,18.17905419921875,-0.33499518036842346,6.0502519607543945,0.698704183101654
1707006826051014000,18.198013916015626,-0.5802595019340515,6.011966705322266,1.0037890672683716
1707006826069973500,18.216973388671875,-0.8769695162773132,6.86381196975708,1.1832507848739624
1707006826088933000,18.23593310546875,-1.164108157157898,8.366504669189453,1.29810631275177
1707006826107892700,18.254892822265624,-1.4871392250061035,10.425528526306152,1.4297115802764893
1707006826126852000,18.27385205078125,-1.4165509939193726,12.617353439331055,1.4584254026412964
1707006826145811700,18.292811767578126,-0.6640082597732544,13.385449409484863,1.0360921621322632
1707006826164771300,18.311771240234375,0.6125625967979431,12.433106422424316,0.17587246000766754
1707006826183730700,18.330730712890624,1.1880364418029785,12.55872917175293,0.09690931439399719
1707006826202690300,18.349690185546876,1.0707881450653076,14.353346824645996,1.420140266418457
1707006826221650000,18.36864990234375,1.4057832956314087,15.452848434448242,2.6213371753692627
1707006826240609300,18.387609375,3.014956474304199,14.782857894897461,2.8761727809906006
1707006826259569000,18.40656884765625,4.260420799255371,12.576675415039062,2.528017044067383
1707006826278528500,18.425528564453124,4.077369689941406,10.094121932983398,1.978864312171936
1707006826297488100,18.444488037109377,3.473181962966919,8.676374435424805,0.9571290612220764
1707006826316447500,18.463447509765626,2.562713146209717,8.266005516052246,-0.019142581149935722
1707006826335407000,18.482406982421875,1.6510475873947144,8.565108299255371,-0.2835494875907898
1707006826354366700,18.50136669921875,0.9726824164390564,9.369096755981445,0.08973085135221481
1707006826373326000,18.520326171875,0.5563312768936157,9.921838760375977,0.6747759580612183
1707006826392285700,18.53928564453125,0.5599204897880554,9.422935485839844,1.0205388069152832
1707006826411245300,18.558245361328126,0.8721838593482971,8.257631301879883,0.9942178130149841
1707006826430204700,18.57720458984375,1.1389836072921753,7.359126091003418,0.9822536706924438
1707006826449164300,18.596164306640624,1.2023934125900269,7.036095142364502,1.210768222808838
1707006826468124000,18.6151240234375,1.1581261157989502,7.1509504318237305,1.6666009426116943
1707006826487083300,18.634083251953125,1.093519926071167,7.3399834632873535,2.093719720840454
1707006826506043000,18.65304296875,1.0504491329193115,7.530212879180908,2.359323024749756
1707006826525002500,18.67200244140625,1.1521440744400024,7.534998416900635,2.530410051345825
1707006826543962000,18.690962158203124,1.3794622421264648,7.514659404754639,2.700300455093384
1707006826562921500,18.70992138671875,1.5672988891601562,7.566105365753174,2.8390841484069824
1707006826581881000,18.728881103515626,1.6007983684539795,7.739584922790527,2.985046148300171
1707006826600840700,18.7478408203125,1.552941918373108,8.045866012573242,3.0580272674560547
1707006826619800000,18.766800048828124,1.667797327041626,8.237292289733887,3.1070802211761475
1707006826638759700,18.785759765625,1.7934205532073975,8.461020469665527,3.06999135017395
1707006826657719300,18.80471923828125,1.698904037475586,8.749356269836426,2.8426733016967773
1707006826676678700,18.8236787109375,1.5134602785110474,9.123832702636719,2.592623233795166
1707006826695638300,18.84263818359375,1.2610175609588623,9.584450721740723,2.372483730316162
1707006826714597600,18.86159765625,1.0336993932724,10.200602531433105,2.359323024749756
1707006826733557200,18.88055712890625,0.849452018737793,10.911271095275879,2.6285157203674316
1707006826752516900,18.899516845703126,0.6436693072319031,11.58843994140625,3.1274192333221436
1707006826771476500,18.9184765625,0.6508477330207825,12.401999473571777,3.7435710430145264
1707006826790435800,18.937435791015623,0.7573283910751343,13.1365966796875,4.435096740722656
1707006826809395500,18.9563955078125,0.8350951075553894,13.490734100341797,4.948357105255127
1707006826828354800,18.975354736328125,0.8805587291717529,13.117453575134277,4.810770034790039
1707006826847314400,18.994314453125,1.0600204467773438,12.122039794921875,4.147958278656006
1707006826866274000,19.013274169921875,1.1904292106628418,10.540383338928223,3.346362352371216
1707006826885233700,19.032233642578124,1.0923235416412354,8.95513916015625,2.486142635345459
1707006826904193000,19.051193115234376,0.8769695162773132,8.291130065917969,1.8795621395111084
1707006826923152400,19.07015234375,0.3577269911766052,8.724231719970703,1.919043779373169
1707006826942112000,19.089112060546874,-0.2787638306617737,9.77826976776123,2.251646041870117
1707006826961071600,19.108071533203123,-0.5778666734695435,11.041680335998535,2.4670002460479736
1707006826980031200,19.12703125,-0.8147560954093933,11.849257469177246,2.390429735183716
1707006826998990600,19.145990478515625,-0.7896314859390259,11.393424987792969,1.6917256116867065
1707006827017950200,19.1649501953125,-0.4534398913383484,9.7938232421875,0.5623133182525635
1707006827036909600,19.18390966796875,-0.14117653667926788,8.11525821685791,-0.275174617767334
1707006827055869200,19.202869140625,-0.18783657252788544,7.028916358947754,-0.6149554252624512
1707006827074828800,19.221828857421876,-0.4666004180908203,6.550352096557617,-0.6532405614852905
1707006827093788200,19.2407880859375,-0.6915257573127747,6.346961975097656,-0.47976094484329224
1707006827112747800,19.259747802734374,-0.8171489238739014,6.345765590667725,-0.15194423496723175
1707006827131707400,19.278707275390627,-0.763310432434082,6.454638957977295,0.09451649338006973
1707006827150666800,19.297666748046876,-0.5539384484291077,6.744170665740967,0.3768695592880249
1707006827169626400,19.31662646484375,-0.47617170214653015,6.976274490356445,0.849452018737793
1707006827188585700,19.335585693359373,-0.4953143000602722,7.6498541831970215,1.2693923711776733
1707006827207545300,19.35454541015625,-0.776470959186554,8.499305725097656,1.7778671979904175
1707006827226504700,19.373504638671875,-0.8123632669448853,9.53061294555664,2.548356056213379
1707006827245464300,19.39246435546875,-0.7058826684951782,10.849058151245117,3.3918261528015137
1707006827264424000,19.411423828125,-0.4055834412574768,11.741580963134766,3.809373617172241
1707006827283383300,19.43038330078125,0.22851456701755524,11.72004508972168,3.6358940601348877
1707006827302343000,19.449343017578126,0.6448656916618347,11.401800155639648,3.238685369491577
1707006827321302500,19.468302490234375,0.5324030518531799,11.065608024597168,2.9802606105804443
1707006827340262000,19.487261962890624,0.4773681163787842,10.85862922668457,2.723032236099243
1707006827359221500,19.506221435546873,0.4570291340351105,11.170892715454102,2.568695068359375
1707006827378180900,19.525180908203126,0.4163511395454407,12.001201629638672,2.489732027053833
1707006827397140500,19.544140380859375,0.39840495586395264,12.417552947998047,2.5160529613494873
1707006827416099800,19.563099853515624,0.9798609018325806,11.72004508972168,2.1858434677124023
1707006827435059500,19.5820595703125,1.7826528549194336,10.600204467773438,1.5541383028030396
1707006827454019000,19.60101904296875,2.2408783435821533,9.906285285949707,1.058824062347412
1707006827472978400,19.619978515625,2.069791555404663,9.635896682739258,0.7310073375701904
1707006827491938000,19.63893798828125,1.7647067308425903,10.15753173828125,0.5635097622871399
1707006827510897400,19.6578974609375,1.3387842178344727,10.906485557556152,0.5228317379951477
1707006827529857000,19.67685693359375,0.9272187948226929,11.292926788330078,0.6831508874893188
1707006827548816400,19.69581640625,0.6496513485908508,10.937592506408691,0.9571290612220764
1707006827567776000,19.71477587890625,0.7106683254241943,9.784252166748047,1.164108157157898
1707006827586735600,19.733735595703124,0.836291491985321,8.507680892944336,1.3304094076156616
1707006827605695000,19.752695068359376,0.8973084688186646,7.607979774475098,1.4715858697891235
1707006827624654600,19.771654541015625,0.833898663520813,7.232306480407715,1.7048860788345337
1707006827643614000,19.790614013671874,0.5970092415809631,7.136593341827393,2.0135602951049805
1707006827662573600,19.809573486328127,0.4127618968486786,7.200003147125244,2.341377019882202
1707006827681533000,19.828532958984376,0.3326023519039154,7.496713161468506,2.8390841484069824
1707006827700492500,19.847492431640624,0.4785645306110382,7.6737823486328125,3.314059257507324
1707006827719452000,19.866451904296873,0.8398807644844055,7.706085205078125,3.9086756706237793
1707006827738411500,19.88541162109375,1.2681959867477417,7.75753116607666,4.377668857574463
1707006827757371000,19.904370849609375,1.5469598770141602,7.982456207275391,4.5822553634643555
1707006827776330500,19.92333056640625,1.7730815410614014,8.09970474243164,4.3657050132751465
1707006827795290000,19.9422900390625,1.9680966138839722,8.060222625732422,3.9493536949157715
1707006827814249500,19.96124951171875,1.9860427379608154,8.039883613586426,3.346362352371216
1707006827833209000,19.980208984375,1.789831280708313,8.309076309204102,2.606980323791504
1707006827852168400,19.99916845703125,1.5397813320159912,8.767302513122559,1.97407865524292
1707006827871127800,20.0181279296875,1.3351950645446777,9.340383529663086,1.592423439025879
1707006827890087400,20.03708740234375,1.2215359210968018,9.936196327209473,1.4715858697891235
1707006827909047000,20.056047119140626,1.1736794710159302,10.564311981201172,1.719243049621582
1707006827928006400,20.07500634765625,1.1545369625091553,11.057233810424805,2.194218397140503
1707006827946966000,20.093966064453124,1.4057832956314087,11.784651756286621,2.9204399585723877
1707006827965925400,20.11292529296875,1.643869161605835,13.04088306427002,3.9948174953460693
1707006827984885000,20.131885009765625,1.6546368598937988,13.441680908203125,4.835894584655762
1707006828003844400,20.15084423828125,1.9010975360870361,12.978670120239258,4.595416069030762
1707006828022804000,20.169803955078127,1.781456470489502,12.134003639221191,3.7471601963043213
1707006828041763300,20.188763427734376,1.5002998113632202,10.792826652526855,2.8689942359924316
1707006828060723000,20.207722900390625,1.144965648651123,9.30449104309082,2.1164517402648926
1707006828079682300,20.226682373046874,0.6699903607368469,8.482556343078613,1.561316728591919
1707006828098642000,20.245641845703126,0.1543370634317398,8.499305725097656,1.2921242713928223
1707006828117601300,20.264601318359375,-0.5228317379951477,9.263813018798828,1.3698909282684326
1707006828136561000,20.283560791015624,-1.0360921621322632,10.409975051879883,1.7371892929077148
1707006828155520300,20.302520263671877,-1.275374412536621,11.312068939208984,2.0673987865448
1707006828174480000,20.32147998046875,-1.160519003868103,11.331212043762207,1.9896320104599
1707006828193439200,20.340439208984375,-0.6221339106559753,10.393224716186523,1.2490534782409668
1707006828212398800,20.35939892578125,-0.12083754688501358,9.08674430847168,0.2309073805809021
1707006828231358200,20.378358154296876,0.09212367236614227,7.959724426269531,-0.3601198196411133
1707006828250317800,20.39731787109375,-0.08973085135221481,7.3746795654296875,-0.48095735907554626
1707006828269277200,20.416277099609374,-0.31824541091918945,7.231110095977783,-0.2476571500301361
1707006828288236800,20.43523681640625,-0.45583271980285645,6.976274490356445,-0.029910283163189888
1707006828307196200,20.454196044921876,-0.4366901218891144,7.045666217803955,0.1579262912273407
1707006828326155500,20.473155517578125,-0.4331009089946747,6.9344000816345215,0.5850451588630676
1707006828345115100,20.492115234375,-0.4977070987224579,7.130611419677734,1.0444670915603638
1707006828364074500,20.511074462890626,-0.5946164131164551,7.491927623748779,1.4069796800613403
1707006828383034000,20.5300341796875,-0.6185446381568909,7.795815944671631,1.6055840253829956
1707006828401993500,20.548993408203124,-0.5300102233886719,8.112865447998047,1.7084753513336182
1707006828420953000,20.567953125,-0.5623133182525635,8.803194046020508,1.8448662757873535
1707006828439912400,20.586912353515626,-0.5682953596115112,9.82373332977295,2.139183521270752
1707006828458872000,20.6058720703125,-0.5084748268127441,10.604990005493164,2.5495524406433105
1707006828477831400,20.62483154296875,-0.2273181527853012,10.816754341125488,2.724228620529175
1707006828496791000,20.643791015625,0.24287149310112,10.715060234069824,2.4765713214874268
1707006828515750400,20.66275048828125,0.5623133182525635,10.694721221923828,2.1367905139923096
1707006828534710000,20.6817099609375,0.6436693072319031,11.12303638458252,1.950150489807129
1707006828553669400,20.70066943359375,0.40797626972198486,12.372089385986328,2.3030917644500732
1707006828572628700,20.719628662109375,0.30987054109573364,13.696516990661621,2.8594231605529785
1707006828591588400,20.73858837890625,0.7046862840652466,13.720444679260254,2.946761131286621
1707006828610547700,20.757547607421873,1.7132610082626343,12.409177780151367,2.417947292327881
1707006828629507300,20.77650732421875,2.5124638080596924,10.919646263122559,1.8508483171463013
1707006828648466700,20.795466796875,2.737389087677002,9.7998046875,1.7575281858444214
1707006828667426300,20.81442626953125,2.441875457763672,9.322437286376953,1.7647067308425903
1707006828686385700,20.8333857421875,2.059023857116699,9.445667266845703,1.6019947528839111
1707006828705345300,20.85234521484375,1.6761722564697266,9.893125534057617,1.6582261323928833
1707006828724304600,20.8713046875,1.155733346939087,10.517651557922363,1.852044701576233
1707006828743264300,20.89026416015625,0.6951149702072144,10.729416847229004,2.1296122074127197
1707006828762223600,20.9092236328125,0.6245267391204834,10.070194244384766,2.0231316089630127
1707006828781183200,20.928183349609377,0.851844847202301,8.933603286743164,1.6402798891067505
1707006828800142600,20.947142578125,0.9906286001205444,7.953742504119873,1.4476577043533325
1707006828819102200,20.966102294921875,0.9511470198631287,7.3399834632873535,1.5409778356552124
1707006828838061600,20.9850615234375,0.8805587291717529,7.038487911224365,1.9441684484481812
1707006828857021000,21.00402099609375,0.9966106414794922,6.97268533706665,2.231307029724121
1707006828875980500,21.02298046875,0.8997012972831726,7.201199531555176,2.416750907897949
1707006828894940000,21.04193994140625,0.6867401003837585,7.436892986297607,2.8462624549865723
1707006828913899300,21.060899169921875,0.49292147159576416,7.684549808502197,3.538984775543213
1707006828932859000,21.07985888671875,0.2907279431819916,7.915457248687744,4.253242015838623
1707006828951818200,21.098818359375,0.30628129839897156,7.978867053985596,4.82751989364624
1707006828970777900,21.11777783203125,0.6400800347328186,8.220541954040527,5.188836097717285
1707006828989737200,21.1367373046875,1.140179991722107,8.662017822265625,5.298905849456787
1707006829008696800,21.15569677734375,1.6498512029647827,8.652446746826172,5.102694511413574
1707006829027656200,21.17465625,2.03629207611084,8.376075744628906,4.502095699310303
1707006829046615800,21.19361572265625,2.1200408935546875,8.583054542541504,3.7423746585845947
1707006829065575200,21.2125751953125,1.852044701576233,9.387042999267578,3.276970624923706
1707006829084534800,21.23153466796875,1.4273186922073364,10.4219388961792,3.081955671310425
1707006829103494100,21.250494140625,1.1676974296569824,10.947163581848145,2.8869404792785645
1707006829122453800,21.269453857421876,1.1593226194381714,11.01296615600586,2.3533411026000977
1707006829141413000,21.2884130859375,1.2047861814498901,11.562119483947754,2.025524377822876
1707006829160372700,21.307372802734374,0.9954141974449158,12.738191604614258,2.4323041439056396
1707006829179332000,21.32633203125,0.7585247755050659,13.506287574768066,3.10109806060791
1707006829198291700,21.345291748046876,0.9499505758285522,13.110275268554688,3.5856447219848633
1707006829217251000,21.3642509765625,1.4679967164993286,11.734402656555176,3.3343982696533203
1707006829236210700,21.383210693359374,1.6737794876098633,10.06421184539795,2.7110681533813477
1707006829255170000,21.402170166015626,1.4333007335662842,8.751749038696289,2.149951219558716
1707006829274129700,21.421129638671875,0.7657032608985901,8.291130065917969,1.7718851566314697
1707006829293089000,21.440089111328124,-0.10049854964017868,8.858229637145996,1.820937991142273
1707006829312048600,21.459048583984377,-0.9583254456520081,10.04985523223877,2.128415822982788
1707006829331008000,21.478008056640626,-1.561316728591919,11.028519630432129,2.344966173171997
1707006829349967600,21.496967529296874,-1.5804593563079834,11.163714408874512,2.2372891902923584
1707006829368927000,21.515927001953123,-1.1617153882980347,10.213763236999512,1.490728497505188
1707006829387886600,21.534886474609376,-0.47976094484329224,8.73619556427002,0.6508477330207825
1707006829406846000,21.553845947265625,-0.02632104977965355,7.59362268447876,0.25244277715682983
1707006829425805300,21.572805419921874,0.02632104977965355,7.032505512237549,0.30508488416671753
1707006829444765000,21.591764892578126,-0.09571290761232376,6.782455921173096,0.5575276613235474
1707006829463724500,21.610724609375,-0.33499518036842346,6.867401123046875,0.7537391185760498
1707006829482684000,21.629683837890624,-0.4139583110809326,7.141379356384277,0.8530412912368774
1707006829501643500,21.6486435546875,-0.23449662327766418,7.2681989669799805,1.0097711086273193
1707006829520603000,21.667602783203126,-0.1579262912273407,7.325626373291016,1.2610175609588623
1707006829539562500,21.6865625,-0.29431718587875366,7.2430739402771,1.4141582250595093
1707006829558521900,21.70552197265625,-0.3696911036968231,7.366304397583008,1.466800332069397
1707006829577481500,21.7244814453125,-0.5826523303985596,8.161917686462402,1.5433706045150757
1707006829596440800,21.74344091796875,-0.9906286001205444,9.431310653686523,1.7419748306274414
1707006829615400400,21.762400390625,-1.1892328262329102,10.809576034545898,2.117648124694824
1707006829634359800,21.78135986328125,-0.8817551732063293,11.663813591003418,2.5710878372192383
1707006829653319400,21.8003193359375,0.035892341285943985,11.877971649169922,2.8414769172668457
1707006829672278800,21.81927880859375,0.8374879360198975,11.860025405883789,2.999403238296509
1707006829691238400,21.83823828125,1.144965648651123,11.861222267150879,3.0281169414520264
1707006829710198000,21.857197998046875,1.0612168312072754,12.284751892089844,2.8977081775665283
1707006829729157400,21.876157470703124,0.7860422134399414,12.418749809265137,2.5052852630615234
1707006829748117000,21.895116943359376,0.5754738450050354,12.050254821777344,1.97407865524292
1707006829767076400,21.914076416015625,0.7070791125297546,11.408978462219238,1.8376877307891846
1707006829786036000,21.933035888671874,1.337587833404541,10.03310489654541,1.5290136337280273
1707006829804995300,21.951995361328127,1.9908283948898315,8.644071578979492,1.1030912399291992
1707006829823955000,21.970954833984376,2.2372891902923584,8.151150703430176,0.9212366938591003
1707006829842914300,21.989914306640625,1.8580267429351807,9.065208435058594,1.0719845294952393
1707006829861874000,22.0088740234375,1.1724830865859985,10.698309898376465,1.7168502807617188
1707006829880833500,22.02783349609375,0.6675975322723389,11.72722339630127,2.2815563678741455
1707006829899793000,22.04679296875,0.6867401003837585,11.557332992553711,2.4634108543395996
1707006829918752500,22.06575244140625,1.176072359085083,10.401599884033203,2.273181438446045
1707006829937711900,22.0847119140625,1.550549030303955,9.115457534790039,2.0374884605407715
1707006829956671500,22.10367138671875,1.435693621635437,8.286344528198242,1.9405791759490967
1707006829975630800,22.122630859375,1.089930772781372,8.017151832580566,2.063809633255005
1707006829994590500,22.141590576171875,0.7692924737930298,7.877171993255615,2.2755744457244873
1707006830013549800,22.1605498046875,0.656829833984375,7.6151580810546875,2.4430718421936035
1707006830032509400,22.179509521484373,0.7250252366065979,7.232306480407715,2.5591237545013428
1707006830051469000,22.198468994140626,0.7884350419044495,6.996613502502441,2.737389087677002
1707006830070428400,22.217428466796875,0.8554341197013855,7.155735969543457,3.0999016761779785
1707006830089388000,22.236387939453124,0.8446664214134216,7.4847493171691895,3.4719855785369873
1707006830108347400,22.255347412109376,0.9032905697822571,7.805387496948242,3.820141315460205
1707006830127307000,22.27430712890625,1.077966570854187,8.01356315612793,4.0797624588012695
1707006830146266400,22.293266357421874,1.3710874319076538,8.182256698608398,4.219742774963379
1707006830165226000,22.31222607421875,1.6689938306808472,8.134400367736816,4.144368648529053
1707006830184185600,22.331185546875,1.9908283948898315,8.124829292297363,3.9110686779022217
1707006830203145000,22.35014501953125,2.1571295261383057,8.307880401611328,3.600001573562622
1707006830222104600,22.3691044921875,1.9058831930160522,8.725427627563477,3.218346357345581
1707006830241064000,22.38806396484375,1.6211373805999756,9.286544799804688,2.967100143432617
1707006830260023600,22.4070234375,1.4225330352783203,9.804591178894043,2.7804598808288574
1707006830278983000,22.42598291015625,1.2346965074539185,10.159924507141113,2.7326035499572754
1707006830297942500,22.444942626953125,1.1270195245742798,10.38365364074707,2.7672994136810303
1707006830316902000,22.46390185546875,1.1461620330810547,11.076375961303711,2.937189817428589
1707006830335861500,22.482861572265627,1.007378339767456,12.403196334838867,3.4791641235351562
1707006830354821000,22.501821044921876,0.5682953596115112,13.093525886535645,4.18863582611084
1707006830373780500,22.520780517578125,0.5324030518531799,13.000205039978027,4.417150497436523
1707006830392740000,22.539739990234374,0.6819544434547424,12.275179862976074,4.073780536651611
1707006830411699700,22.55869970703125,0.9607182741165161,10.912467956542969,3.4121651649475098
1707006830430659000,22.5776591796875,1.1509476900100708,9.309276580810547,2.6763720512390137
1707006830449618400,22.596618408203124,1.0492527484893799,8.281558990478516,2.0757737159729004
1707006830468578000,22.615578125,0.5802595019340515,8.317451477050781,1.7958134412765503
1707006830487537700,22.63453759765625,-0.1663011759519577,9.151350021362305,1.950150489807129
1707006830506497000,22.6534970703125,-0.9188438653945923,10.25324535369873,2.2683959007263184
1707006830525456600,22.67245654296875,-1.4524433612823486,11.10030460357666,2.441875457763672
1707006830544416300,22.691416259765624,-1.5158531665802002,11.13021469116211,2.142772674560547
1707006830563375600,22.710375732421873,-1.1306086778640747,10.431509971618652,1.4105689525604248
1707006830582335200,22.729335205078126,-0.6484549641609192,9.424132347106934,0.7621139883995056
1707006830601294600,22.748294677734375,-0.3601198196411133,8.489734649658203,0.5934200286865234
1707006830620254200,22.767254150390624,-0.34695929288864136,7.7730841636657715,0.727418065071106
1707006830639213600,22.786213623046876,-0.5204389095306396,7.368697166442871,0.849452018737793
1707006830658173200,22.805173095703125,-0.6699903607368469,7.200003147125244,0.900897741317749
1707006830677132800,22.8241328125,-0.7214360237121582,7.118647575378418,0.9607182741165161
1707006830696092200,22.843092041015623,-0.6963114142417908,7.060023307800293,0.9260223507881165
1707006830715051800,22.8620517578125,-0.6281159520149231,7.076773166656494,0.9750752449035645
1707006830734011100,22.88101123046875,-0.5108676552772522,7.284948348999023,1.191625714302063
1707006830752970800,22.899970703125,-0.4223332107067108,7.8077802658081055,1.4859428405761719
1707006830771930000,22.91893017578125,-0.6317051649093628,8.514859199523926,2.0171494483947754
1707006830790889700,22.9378896484375,-0.849452018737793,9.497113227844238,2.5076780319213867
1707006830809849000,22.95684912109375,-0.9523434042930603,10.53200912475586,2.8450660705566406
1707006830828808700,22.97580859375,-0.7130611538887024,11.156535148620605,3.091526746749878
1707006830847768300,22.994768310546874,-0.14476576447486877,11.167303085327148,3.1250264644622803
1707006830866727700,23.013727783203127,0.3026920557022095,10.840682983398438,2.8594231605529785
1707006830885687300,23.032687255859376,0.49172505736351013,10.717453002929688,2.5351955890655518
1707006830904646700,23.051646728515625,0.35533416271209717,10.900503158569336,2.3545374870300293
1707006830923606300,23.070606201171874,0.1579262912273407,11.23789119720459,2.1619153022766113
1707006830942565600,23.089565673828126,0.10887342691421509,11.540583610534668,1.9525432586669922
1707006830961525200,23.108525146484375,0.1459621787071228,12.367303848266602,2.0542383193969727
1707006830980484600,23.127484619140624,0.5814558863639832,13.071990013122559,2.537588357925415
1707006830999444200,23.1464443359375,1.3603196144104004,12.331411361694336,2.5663022994995117
1707006831018403800,23.16540380859375,2.3306093215942383,11.034502029418945,2.1607189178466797
1707006831037363200,23.18436328125,2.7349963188171387,9.976874351501465,1.703689694404602
1707006831056322800,23.20332275390625,2.5746772289276123,9.7005033493042,1.1700903177261353
1707006831075282200,23.2222822265625,2.1571295261383057,10.394421577453613,1.1653046607971191
1707006831094241800,23.24124169921875,1.794616937637329,10.699506759643555,1.628315806388855
1707006831113201200,23.260201171875,1.7623138427734375,10.53081226348877,1.9645073413848877
1707006831132160800,23.279160888671875,1.7001005411148071,9.870393753051758,2.0135602951049805
1707006831151120100,23.2981201171875,1.3962119817733765,8.579465866088867,1.8424733877182007
1707006831170079700,23.317079833984376,1.0971091985702515,7.452445983886719,1.7575281858444214
1707006831189039000,23.3360390625,0.6472585201263428,6.87099027633667,1.6869399547576904
1707006831207998700,23.354998779296874,0.2919243574142456,6.778866767883301,1.597209095954895
1707006831226958300,23.373958251953123,0.062213387340307236,7.045666217803955,1.5230315923690796
1707006831245917700,23.392917724609376,-0.02871387079358101,7.350750923156738,1.6259230375289917
1707006831264877300,23.411877197265625,0.19262222945690155,7.659425258636475,2.0027925968170166
1707006831283836700,23.430836669921874,0.6735795736312866,7.762316703796387,2.554338216781616
1707006831302796000,23.449796142578126,1.215553879737854,7.696514129638672,3.1956145763397217
1707006831321755600,23.468755615234375,1.7575281858444214,7.713263988494873,3.647858142852783
1707006831340715300,23.48771533203125,2.227717876434326,7.989634990692139,3.91705060005188
1707006831359674600,23.506674560546877,2.5603201389312744,8.219346046447754,3.8536407947540283
1707006831378634200,23.52563427734375,2.944368362426758,8.210970878601074,3.311666488647461
1707006831397593600,23.544593505859375,3.074777126312256,8.321041107177734,2.5567309856414795
1707006831416553200,23.56355322265625,2.788834810256958,8.754141807556152,1.9142581224441528
1707006831435512600,23.5825126953125,2.389233350753784,9.223134994506836,1.4081761837005615
1707006831454472200,23.60147216796875,1.9525432586669922,9.56650447845459,1.140179991722107
1707006831473431600,23.620431640625,1.6031911373138428,9.7005033493042,1.0049854516983032
1707006831492391200,23.63939111328125,1.4093725681304932,10.063015937805176,1.140179991722107
1707006831511350500,23.6583505859375,1.3722838163375854,10.945966720581055,1.6893328428268433
1707006831530310100,23.67731005859375,1.3854442834854126,12.141181945800781,2.496910333633423
1707006831549269500,23.69626953125,1.1880364418029785,13.031311988830566,3.3104701042175293
1707006831568229000,23.71522900390625,1.046859860420227,13.039687156677246,3.631108283996582
1707006831587188500,23.7341884765625,1.1928220987319946,12.553943634033203,3.359523057937622
1707006831606148000,23.753148193359376,1.475175142288208,11.337193489074707,3.012563705444336
1707006831625107500,23.772107421875,1.7563318014144897,9.767501831054688,2.4765713214874268
1707006831644067000,23.791067138671874,1.3830515146255493,8.895318031311035,2.093719720840454
1707006831663026700,23.810026611328126,0.5335994362831116,9.133403778076172,2.166700839996338
1707006831681986000,23.828986083984375,-0.22971096634864807,10.125228881835938,2.496910333633423
1707006831700945400,23.8479453125,-0.8099704384803772,11.217552185058594,2.682354211807251
1707006831719905000,23.866905029296873,-1.0528420209884644,11.693724632263184,2.541177749633789
1707006831738864400,23.885864501953126,-0.9260223507881165,11.085947036743164,2.0542383193969727
1707006831757824000,23.904823974609375,-0.5120640397071838,9.779465675354004,1.290927767753601
1707006831776783400,23.923783447265624,-0.1663011759519577,8.429914474487305,0.7501499056816101
1707006831795743000,23.942742919921876,-0.1423729509115219,7.377072334289551,0.5072783827781677
1707006831814702300,23.961702392578125,-0.24047867953777313,6.729813575744629,0.49292147159576416
1707006831833662000,23.980661865234374,-0.31106695532798767,6.489335060119629,0.5934200286865234
1707006831852621300,23.999621337890623,-0.45224347710609436,6.544369697570801,0.8183453679084778
1707006831871581000,24.018580810546876,-0.519242525100708,6.832705020904541,1.062413215637207
1707006831890540300,24.037540283203125,-0.5072783827781677,7.177271366119385,1.2382856607437134
1707006831909500000,24.0565,-0.4378865361213684,7.3304123878479,1.3519448041915894
1707006831928459300,24.075459228515626,-0.4785645306110382,7.378268718719482,1.435693621635437
1707006831947419000,24.0944189453125,-0.5754738450050354,7.852047443389893,1.5852450132369995
1707006831966378200,24.113378173828124,-0.7597211599349976,8.726624488830566,1.8628123998641968
1707006831985337600,24.132337646484373,-1.0648061037063599,9.766305923461914,2.169093608856201
1707006832004297200,24.151297119140626,-1.2550355195999146,10.96869945526123,2.328216314315796
1707006832023256600,24.170256591796875,-1.0348957777023315,11.868400573730469,2.1643080711364746
1707006832042216200,24.18921630859375,-0.5515456199645996,12.173484802246094,1.8903298377990723
1707006832061175600,24.208175537109376,0.01196411345154047,12.032308578491211,1.872383713722229
1707006832080135200,24.22713525390625,0.3242274820804596,12.0394868850708,1.9453648328781128
1707006832099094500,24.246094482421874,0.363709032535553,12.5742826461792,2.104487419128418
1707006832118054100,24.26505419921875,0.2835494875907898,13.323236465454102,2.4119651317596436
1707006832137013500,24.284013427734376,0.2991028428077698,13.51705551147461,2.768495798110962
1707006832155973000,24.30297314453125,0.9200403094291687,12.908082008361816,3.126222848892212
1707006832174932500,24.321932373046874,1.919043779373169,11.306086540222168,3.012563705444336
