time,seconds_elapsed,z,y,x
1710888583493670100,0.116670166015625,0.0021380267571657896,0.024434590712189674,-0.001221729558892548
1710888583512629000,0.13562890625,-0.001832594396546483,0.016187917441129684,-0.008857538923621178
1710888583531588400,0.15458837890625,-0.0054977829568088055,0.005803215317428112,-0.008857538923621178
1710888583550547500,0.17354736328125,0.003665188793092966,0.003970621153712273,-0.004886918235570192
1710888583569506600,0.192506591796875,0.013744457624852657,-0.012217295356094837,-0.007330377586185932
1710888583588465700,0.211465576171875,0.0027488914784044027,-0.04153880476951599,-0.0204639695584774
1710888583607424800,0.2304248046875,-0.013133592903614044,-0.05528326332569122,-0.025045456364750862
1710888583626384000,0.2493837890625,-0.01954767294228077,-0.03940077871084213,-0.017104214057326317
1710888583645343000,0.268343017578125,-0.014660755172371864,-0.020158538594841957,-0.006719512399286032
1710888583664302000,0.287302001953125,-0.0054977829568088055,-0.007941242307424545,-0.001221729558892548
1710888583683261200,0.30626123046875,0.0027488914784044027,-0.009162971749901772,-0.000610864779446274
1710888583702220300,0.32522021484375,0.001832594396546483,-0.02260199747979641,0.0015271619195118546
1710888583721179400,0.344179443359375,0.0027488914784044027,-0.03634645417332649,0.013133592903614044
1710888583740138500,0.363138427734375,0.015271619893610477,-0.04276053607463837,0.03023780696094036
1710888583759097600,0.38209765625,0.023823726922273636,-0.047952886670827866,0.040317077189683914
1710888583778056700,0.401056640625,0.02107483521103859,-0.0565049909055233,0.04978547990322113
1710888583797015800,0.420015869140625,0.024434590712189674,-0.06780599057674408,0.06383536756038666
1710888583815975000,0.438974853515625,0.03451386094093323,-0.08368847519159317,0.07544180005788803
1710888583834934000,0.45793408203125,0.03848448023200035,-0.10231985151767731,0.0824667438864708
1710888583853893000,0.47689306640625,0.034208428114652634,-0.12247838824987411,0.08155044913291931
1710888583872852200,0.495852294921875,0.026878049597144127,-0.13439024984836578,0.07544180005788803
1710888583891811300,0.514811279296875,0.018325943499803543,-0.1380554437637329,0.06780599057674408
1710888583910770400,0.5337705078125,0.012217295356094837,-0.1328630894422531,0.06108647957444191
1710888583929729500,0.5527294921875,0.005192350596189499,-0.11514800786972046,0.05558869615197182
1710888583948688600,0.571688720703125,0.0009162971982732415,-0.08338304609060287,0.04917461425065994
1710888583967647700,0.590647705078125,-0.0021380267571657896,-0.04550942778587341,0.043982263654470444
1710888583986606800,0.60960693359375,0.0015271619195118546,-0.006414080038666725,0.035735588520765305
1710888584005566000,0.62856591796875,0.0030543238390237093,0.031154103577136993,0.024434590712189674
1710888584024525000,0.647525146484375,-0.001832594396546483,0.043982263654470444,0.013744457624852657
1710888584043484200,0.666484130859375,-0.004581485874950886,0.035735588520765305,0.009773836471140385
1710888584062443300,0.685443359375,0.007330377586185932,0.024434590712189674,0.00946840364485979
1710888584081402400,0.70440234375,0.024740023538470268,0.0030543238390237093,0.009162971749901772
1710888584100361700,0.72336181640625,0.022296564653515816,-0.04153880476951599,-0.002443459117785096
1710888584119320600,0.742320556640625,-0.000305432389723137,-0.09132428467273712,-0.011911863461136818
1710888584138280000,0.761280029296875,-0.011911863461136818,-0.09926552325487137,-0.010384701192378998
1710888584157238800,0.78023876953125,-0.002443459117785096,-0.06750056147575378,-0.007330377586185932
1710888584176198100,0.7991982421875,0.008246674202382565,-0.02718348242342472,-0.010690134018659592
1710888584195157200,0.8181572265625,0.007635809946805239,0.004886918235570192,-0.016187917441129684
1710888584214116400,0.837116455078125,-0.001221729558892548,0.021380268037319183,-0.01740964688360691
1710888584233075500,0.856075439453125,-0.003970621153712273,0.029016077518463135,-0.013439024798572063
1710888584252034600,0.87503466796875,0.007941242307424545,0.0308486707508564,-0.007635809946805239
1710888584270993700,0.89399365234375,0.018325943499803543,0.0308486707508564,-0.003359756199643016
1710888584289952800,0.912952880859375,0.014966187067329884,0.03390299528837204,0.001832594396546483
1710888584308911900,0.931911865234375,0.005803215317428112,0.03451386094093323,0.009773836471140385
1710888584327871000,0.95087109375,0,0.034208428114652634,0.013744457624852657
1710888584346830000,0.969830078125,-0.003970621153712273,0.03787361457943916,0.014966187067329884
1710888584365789200,0.9887890625,-0.007024944759905338,0.04825831577181816,0.016187917441129684
1710888584384748300,1.007748291015625,-0.008552107028663158,0.06322450190782547,0.01588248461484909
1710888584403707400,1.026707275390625,-0.00946840364485979,0.06750056147575378,0.015271619893610477
1710888584422666500,1.04566650390625,-0.01435532234609127,0.06017018109560013,0.01435532234609127
1710888584441625600,1.06462548828125,-0.01954767294228077,0.04673115536570549,0.01588248461484909
1710888584460585000,1.0835849609375,-0.01802051067352295,0.03390299528837204,0.015271619893610477
1710888584479543800,1.102543701171875,-0.014966187067329884,0.01893680728971958,0.011606430634856224
1710888584498503200,1.121503173828125,-0.010384701192378998,0.0027488914784044027,0.007024944759905338
1710888584517462000,1.1404619140625,-0.0027488914784044027,-0.005803215317428112,0.001832594396546483
1710888584536421400,1.15942138671875,-0.003665188793092966,-0.021380268037319183,-0.008552107028663158
1710888584555380500,1.17838037109375,-0.007941242307424545,-0.03909534588456154,-0.015271619893610477
1710888584574339600,1.197339599609375,-0.001832594396546483,-0.04673115536570549,-0.01435532234609127
1710888584593298700,1.216298583984375,0.013744457624852657,-0.05039634555578232,-0.014049889519810677
1710888584612257800,1.2352578125,0.01588248461484909,-0.05711585655808449,-0.023823726922273636
1710888584631217000,1.254216796875,0.0027488914784044027,-0.06322450190782547,-0.033597562462091446
1710888584650176000,1.273176025390625,-0.009162971749901772,-0.053756099194288254,-0.03145953640341759
1710888584669135400,1.29213525390625,-0.009162971749901772,-0.04214967042207718,-0.02260199747979641
1710888584688094200,1.31109423828125,-0.003359756199643016,-0.033597562462091446,-0.01649334840476513
1710888584707053600,1.330053466796875,0.0009162971982732415,-0.029932374134659767,-0.014049889519810677
1710888584726012700,1.3490126953125,-0.0015271619195118546,-0.035124726593494415,-0.013133592903614044
1710888584744971800,1.3679716796875,-0.006414080038666725,-0.04428769648075104,-0.014049889519810677
1710888584763931000,1.386930908203125,-0.007941242307424545,-0.04886918142437935,-0.010995565913617611
1710888584782890000,1.405889892578125,-0.007330377586185932,-0.04276053607463837,-0.008857538923621178
1710888584801849000,1.42484912109375,-0.008246674202382565,-0.037262752652168274,-0.009162971749901772
1710888584820808400,1.443808349609375,-0.007635809946805239,-0.03390299528837204,-0.009773836471140385
1710888584839767600,1.462767578125,-0.0027488914784044027,-0.02932151034474373,-0.009162971749901772
1710888584858726700,1.4817265625,-0.000305432389723137,-0.024434590712189674,-0.008552107028663158
1710888584877685800,1.500685791015625,0.000610864779446274,-0.018325943499803543,-0.008552107028663158
1710888584896644900,1.519644775390625,0.004886918235570192,-0.013744457624852657,-0.009773836471140385
1710888584915604200,1.538604248046875,0.01282816007733345,-0.010690134018659592,-0.010079269297420979
1710888584934563300,1.557563232421875,0.017715077847242355,-0.010384701192378998,-0.010384701192378998
1710888584953522400,1.5765224609375,0.015577051788568497,-0.013744457624852657,-0.008552107028663158
1710888584972481500,1.5954814453125,0.011911863461136818,-0.024740023538470268,-0.007635809946805239
1710888584991440600,1.614440673828125,0.007941242307424545,-0.0360410213470459,-0.010690134018659592
1710888585010399700,1.633399658203125,0.0027488914784044027,-0.043371398001909256,-0.014049889519810677
1710888585029359000,1.652359130859375,0.003665188793092966,-0.03940077871084213,-0.015577051788568497
1710888585048318200,1.671318115234375,-0.0009162971982732415,-0.03787361457943916,-0.017715077847242355
1710888585067277300,1.69027734375,-0.013133592903614044,-0.038789913058280945,-0.018631376326084137
1710888585086236400,1.709236328125,-0.016798781231045723,-0.0256563201546669,-0.01740964688360691
1710888585105195800,1.72819580078125,-0.004276053514331579,-0.011606430634856224,-0.013133592903614044
1710888585124155000,1.74715478515625,-0.001832594396546483,-0.013744457624852657,-0.01893680728971958
1710888585143114000,1.766114013671875,-0.013133592903614044,-0.025045456364750862,-0.02412915788590908
1710888585162073000,1.785072998046875,-0.021685699000954628,-0.025961752980947495,-0.021991131827235222
1710888585181032400,1.804032470703125,-0.015577051788568497,-0.019242240116000175,-0.018325943499803543
1710888585199991600,1.822991455078125,-0.002443459117785096,-0.017715077847242355,-0.017715077847242355
1710888585218950700,1.84195068359375,0.004886918235570192,-0.01802051067352295,-0.018325943499803543
1710888585237909800,1.86090966796875,0.008857538923621178,-0.01802051067352295,-0.01893680728971958
1710888585256869000,1.879869140625,0.008857538923621178,-0.014049889519810677,-0.019242240116000175
1710888585275828200,1.898828125,0.010690134018659592,-0.003665188793092966,-0.01954767294228077
1710888585294787300,1.917787353515625,0.010995565913617611,0.007024944759905338,-0.021380268037319183
1710888585313746400,1.936746337890625,0.004276053514331579,0.011606430634856224,-0.024740023538470268
1710888585332705800,1.955705810546875,0.000305432389723137,0.007330377586185932,-0.0256563201546669
1710888585351665000,1.974664794921875,0.002443459117785096,-0.0015271619195118546,-0.024434590712189674
1710888585370624000,1.9936240234375,0.007024944759905338,-0.01282816007733345,-0.023518294095993042
1710888585389583000,2.0125830078125,0.009162971749901772,-0.024434590712189674,-0.024434590712189674
1710888585408542500,2.03154248046875,0.010995565913617611,-0.025961752980947495,-0.025350889191031456
1710888585427501600,2.05050146484375,0.008857538923621178,-0.01954767294228077,-0.02412915788590908
1710888585446460700,2.069460693359375,0.007330377586185932,-0.007024944759905338,-0.01893680728971958
1710888585465419800,2.088419677734375,0.003970621153712273,0.007635809946805239,-0.013133592903614044
1710888585484379000,2.10737890625,0.004581485874950886,0.020769402384757996,-0.007024944759905338
1710888585503338200,2.126338134765625,0.010079269297420979,0.023518294095993042,-0.007330377586185932
1710888585522297300,2.14529736328125,0.01435532234609127,0.024740023538470268,-0.007941242307424545
1710888585541256700,2.164256591796875,0.015577051788568497,0.02871064469218254,-0.007635809946805239
1710888585560215800,2.1832158203125,0.013133592903614044,0.03817904740571976,-0.011911863461136818
1710888585579175000,2.2021748046875,0.003359756199643016,0.046425722539424896,-0.014966187067329884
1710888585598134000,2.221134033203125,0.0027488914784044027,0.0668896958231926,-0.011911863461136818
1710888585617093400,2.24009326171875,0.014660755172371864,0.08460476994514465,-0.013744457624852657
1710888585636052500,2.259052490234375,0.020158538594841957,0.08521563559770584,-0.023823726922273636
1710888585655011800,2.27801171875,0.009773836471140385,0.07635809481143951,-0.03695731982588768
1710888585673971000,2.296970947265625,0.003665188793092966,0.07116574794054031,-0.039706211537122726
1710888585692930000,2.315929931640625,0.016798781231045723,0.08613193035125732,-0.0412333719432354
1710888585711889400,2.334889404296875,0.029626941308379173,0.08826996386051178,-0.048563748598098755
1710888585730848500,2.3538486328125,0.030543239787220955,0.0717766135931015,-0.06108647957444191
1710888585749807600,2.3728076171875,0.03145953640341759,0.04917461425065994,-0.07055488228797913
1710888585768766700,2.3917666015625,0.03817904740571976,0.023518294095993042,-0.07055488228797913
1710888585787726000,2.41072607421875,0.04734202101826668,0.008552107028663158,-0.06383536756038666
1710888585806685200,2.429685302734375,0.053756099194288254,0.0054977829568088055,-0.056199558079242706
1710888585825644500,2.44864453125,0.04825831577181816,0.004276053514331579,-0.054672397673130035
1710888585844603600,2.467603759765625,0.035124726593494415,0.0030543238390237093,-0.05253437161445618
1710888585863562800,2.486562744140625,0.0204639695584774,0,-0.044898562133312225
1710888585882522000,2.505522216796875,0.011300998739898205,-0.006414080038666725,-0.038789913058280945
1710888585901481200,2.524481201171875,0.010690134018659592,-0.013439024798572063,-0.032681263983249664
1710888585920440300,2.5434404296875,0.008552107028663158,-0.02107483521103859,-0.029932374134659767
1710888585939399700,2.562399658203125,0.004276053514331579,-0.02626718580722809,-0.024434590712189674
1710888585958358800,2.58135888671875,-0.002443459117785096,-0.02779434807598591,-0.015577051788568497
1710888585977318000,2.60031787109375,-0.009162971749901772,-0.02260199747979641,-0.010384701192378998
1710888585996277200,2.61927734375,-0.01802051067352295,-0.01282816007733345,-0.010384701192378998
1710888586015236400,2.638236328125,-0.025961752980947495,-0.0054977829568088055,-0.011606430634856224
1710888586034195500,2.657195556640625,-0.029626941308379173,0.0015271619195118546,-0.015271619893610477
1710888586053154800,2.67615478515625,-0.02260199747979641,0.013439024798572063,-0.018631376326084137
1710888586072114000,2.695114013671875,-0.017715077847242355,0.020769402384757996,-0.024740023538470268
1710888586091073300,2.7140732421875,-0.02107483521103859,0.013744457624852657,-0.03023780696094036
1710888586110032400,2.733032470703125,-0.0204639695584774,0.013133592903614044,-0.029016077518463135
1710888586128991500,2.751991455078125,-0.0054977829568088055,0.0204639695584774,-0.020158538594841957
1710888586147950800,2.770950927734375,0.0015271619195118546,0.01740964688360691,-0.01802051067352295
1710888586166910000,2.789909912109375,-0.003970621153712273,0.004886918235570192,-0.022907428443431854
1710888586185869300,2.808869384765625,-0.01282816007733345,0.005192350596189499,-0.019853105768561363
1710888586204828400,2.827828369140625,-0.013439024798572063,0.01893680728971958,-0.00946840364485979
1710888586223787800,2.846787841796875,-0.008857538923621178,0.02779434807598591,-0.003970621153712273
1710888586242747000,2.865746826171875,-0.006719512399286032,0.032070402055978775,-0.003359756199643016
1710888586261706000,2.8847060546875,-0.003970621153712273,0.0256563201546669,0
1710888586280665300,2.903665283203125,-0.0009162971982732415,0.012522728182375431,0.003970621153712273
1710888586299624400,2.92262451171875,0.000610864779446274,0.005192350596189499,0.010079269297420979
1710888586318583800,2.941583740234375,0,0.003359756199643016,0.01282816007733345
1710888586337543000,2.96054296875,-0.003665188793092966,0.008857538923621178,0.010079269297420979
1710888586356502000,2.979501953125,-0.009773836471140385,0.01649334840476513,0.006719512399286032
1710888586375461400,2.99846142578125,-0.01435532234609127,0.019242240116000175,0.003359756199643016
1710888586394420500,3.01742041015625,-0.015271619893610477,0.01893680728971958,0.005192350596189499
1710888586413379800,3.0363798828125,-0.014660755172371864,0.01740964688360691,0.004276053514331579
1710888586432339000,3.0553388671875,-0.014049889519810677,0.013133592903614044,-0.000305432389723137
1710888586451298000,3.074298095703125,-0.011300998739898205,0.008552107028663158,-0.005803215317428112
1710888586470257400,3.09325732421875,-0.008246674202382565,0.007635809946805239,-0.008552107028663158
1710888586489216500,3.112216552734375,-0.002443459117785096,0.008857538923621178,-0.004276053514331579
1710888586508176000,3.13117578125,0.007330377586185932,0.008857538923621178,0.0015271619195118546
1710888586527135000,3.150135009765625,0.018631376326084137,0,0.007024944759905338
1710888586546094300,3.16909423828125,0.026878049597144127,-0.025350889191031456,0.007941242307424545
1710888586565053400,3.188053466796875,0.029626941308379173,-0.05803215503692627,0.006719512399286032
1710888586584012500,3.207012451171875,0.02626718580722809,-0.09865466505289078,0.0027488914784044027
1710888586602972000,3.225971923828125,0.007635809946805239,-0.14721840620040894,-0.003665188793092966
1710888586621931000,3.244930908203125,-0.011300998739898205,-0.17348559200763702,-0.0030543238390237093
1710888586640890400,3.263890380859375,-0.016798781231045723,-0.17226386070251465,0.005192350596189499
1710888586659849500,3.282849365234375,-0.02718348242342472,-0.16065743565559387,0.006414080038666725
1710888586678808600,3.30180859375,-0.05039634555578232,-0.1484401375055313,-0.002443459117785096
1710888586697768000,3.320767822265625,-0.07971785217523575,-0.11942406743764877,-0.009773836471140385
1710888586716727000,3.33972705078125,-0.09529490768909454,-0.06261363625526428,-0.007635809946805239
1710888586735686400,3.358686279296875,-0.10537417232990265,0.0015271619195118546,-0.000610864779446274
1710888586754645500,3.3776455078125,-0.1130099818110466,0.06047561392188072,0.008246674202382565
1710888586773604600,3.3966044921875,-0.10842850059270859,0.10690133273601532,0.008552107028663158
1710888586792564000,3.41556396484375,-0.09437860548496246,0.14049890637397766,0.0021380267571657896
1710888586811523000,3.434523193359375,-0.08032871782779694,0.17348559200763702,0
1710888586830482400,3.453482421875,-0.06230820715427399,0.21197007596492767,0.007330377586185932
1710888586849441500,3.472441650390625,-0.04306596517562866,0.2516762912273407,0.016798781231045723
1710888586868401000,3.49140087890625,-0.025961752980947495,0.2926042377948761,0.020769402384757996
1710888586887360000,3.510360107421875,-0.016187917441129684,0.3249800503253937,0.023518294095993042
1710888586906319400,3.5293193359375,-0.010384701192378998,0.3494146466255188,0.029932374134659767
1710888586925278500,3.548278564453125,-0.002443459117785096,0.3634645342826843,0.038789913058280945
1710888586944237800,3.56723779296875,0.007635809946805239,0.3637699782848358,0.04276053607463837
1710888586963197000,3.586197021484375,0.01740964688360691,0.3536907136440277,0.04459312930703163
1710888586982156300,3.60515625,0.03023780696094036,0.34147340059280396,0.04978547990322113
1710888587001115400,3.624115478515625,0.047952886670827866,0.33200499415397644,0.05803215503692627
1710888587020074800,3.64307470703125,0.06047561392188072,0.3231474757194519,0.06414080411195755
1710888587039033900,3.662033935546875,0.059864748269319534,0.3136790692806244,0.06872228533029556
1710888587057993000,3.680992919921875,0.043371398001909256,0.2984074354171753,0.0720820426940918
1710888587076952300,3.699952392578125,0.02779434807598591,0.2779434621334076,0.0772743970155716
1710888587095911400,3.718911376953125,0.021991131827235222,0.25992295145988464,0.0769689604640007
1710888587114870800,3.737870849609375,0.014660755172371864,0.22663083672523499,0.07055488228797913
1710888587133830000,3.756829833984375,0.0030543238390237093,0.19211697578430176,0.061391908675432205
1710888587152789000,3.7757890625,0.0015271619195118546,0.17684535682201385,0.060781046748161316
1710888587171748400,3.794748291015625,0.0054977829568088055,0.17043127119541168,0.060781046748161316
1710888587190707700,3.813707763671875,-0.005192350596189499,0.17043127119541168,0.05070177838206291
1710888587209666800,3.832666748046875,-0.021380268037319183,0.17745621502399445,0.03909534588456154
1710888587228626200,3.851626220703125,-0.02871064469218254,0.20738859474658966,0.0360410213470459
1710888587247585300,3.870585205078125,-0.020769402384757996,0.2464839369058609,0.03176496922969818
1710888587266544600,3.889544677734375,-0.006414080038666725,0.28405213356018066,0.024740023538470268
1710888587285503700,3.908503662109375,0.011911863461136818,0.318871408700943,0.013439024798572063
1710888587304462800,3.927462890625,0.028099779039621353,0.34574946761131287,0.004886918235570192
1710888587323422200,3.946422119140625,0.036651886999607086,0.37262752652168274,0.003970621153712273
1710888587342381300,3.96538134765625,0.043982263654470444,0.4001164436340332,0.013133592903614044
1710888587361340700,3.984340576171875,0.04825831577181816,0.4309650957584381,0.022296564653515816
1710888587380299800,4.0032998046875,0.047952886670827866,0.4575377106666565,0.026572618633508682
1710888587399259000,4.0222587890625,0.048563748598098755,0.4685332775115967,0.035124726593494415
1710888587418218200,4.04121826171875,0.05436696484684944,0.46028661727905273,0.044898562133312225
1710888587437177300,4.06017724609375,0.06505709886550903,0.43860089778900146,0.0565049909055233
1710888587456136700,4.07913671875,0.07330377399921417,0.40408703684806824,0.06444623321294785
1710888587475096000,4.098095947265625,0.0772743970155716,0.364991694688797,0.0668896958231926
1710888587494055200,4.11705517578125,0.07422006875276566,0.3277289569377899,0.06750056147575378
1710888587513014500,4.1360146484375,0.06719512492418289,0.30054548382759094,0.0720820426940918
1710888587531973600,4.1549736328125,0.05864302068948746,0.28466299176216125,0.07757982611656189
1710888587550932700,4.1739326171875,0.04764745384454727,0.2712239623069763,0.08155044913291931
1710888587569892000,4.19289208984375,0.03634645417332649,0.25900667905807495,0.08093958348035812
1710888587588851200,4.211851318359375,0.02718348242342472,0.24923282861709595,0.07452550530433655
1710888587607810600,4.230810546875,0.017715077847242355,0.2415970265865326,0.06505709886550903
1710888587626769700,4.249769775390625,0.004886918235570192,0.23304490745067596,0.05589412897825241
1710888587645729000,4.26872900390625,-0.016187917441129684,0.22327107191085815,0.04917461425065994
1710888587664688000,4.287688232421875,-0.028405211865901947,0.22693626582622528,0.046425722539424896
1710888587683647200,4.306647216796875,-0.0308486707508564,0.22663083672523499,0.03940077871084213
1710888587702606600,4.325606689453125,-0.04581485688686371,0.20280711352825165,0.026878049597144127
1710888587721566000,4.34456591796875,-0.06902772188186646,0.1649334877729416,0.01802051067352295
1710888587740525000,4.363525146484375,-0.0818558782339096,0.1279761642217636,0.01282816007733345
1710888587759484400,4.382484375,-0.08552107214927673,0.10445787757635117,0.007024944759905338
1710888587778443500,4.401443603515625,-0.08796452730894089,0.08155044913291931,-0.009162971749901772
1710888587797403000,4.42040283203125,-0.09315688163042068,0.05711585655808449,-0.02932151034474373
1710888587816362000,4.439362060546875,-0.10140355676412582,0.031154103577136993,-0.050090912729501724
1710888587835321000,4.458321044921875,-0.1130099818110466,0.014049889519810677,-0.07086031138896942
1710888587854280400,4.477280517578125,-0.10995566099882126,0.015577051788568497,-0.0873536616563797
1710888587873239600,4.496239501953125,-0.09071341902017593,0.010079269297420979,-0.11453714966773987
1710888587892199000,4.515198974609375,-0.06719512492418289,-0.0054977829568088055,-0.16157373785972595
1710888587911158000,4.534157958984375,-0.028099779039621353,-0.004276053514331579,-0.2306014597415924
1710888587930117400,4.553117431640625,-0.002443459117785096,-0.001221729558892548,-0.34238970279693604
1710888587949076500,4.572076416015625,-0.013439024798572063,-0.03817904740571976,-0.4526508152484894
1710888587968035800,4.591035888671875,-0.040317077189683914,-0.08307760953903198,-0.49999281764030457
1710888587986995000,4.609994873046875,-0.07238747924566269,-0.09682206809520721,-0.49480047821998596
1710888588005954300,4.628954345703125,-0.06933315098285675,-0.10629047453403473,-0.4926624298095703
1710888588024913400,4.647913330078125,-0.0513126403093338,-0.1130099818110466,-0.49082985520362854
1710888588043872800,4.666872802734375,-0.035124726593494415,-0.11117739230394363,-0.49052441120147705
1710888588062831900,4.685831787109375,0.001832594396546483,-0.10995566099882126,-0.4712821841239929
1710888588081791000,4.704791015625,0.06322450190782547,-0.13927717506885529,-0.5283980369567871
1710888588100750300,4.723750244140625,0.10506874322891235,-0.26480987668037415,-0.7043271064758301
1710888588119709400,4.74270947265625,0.13530655205249786,-0.47586366534233093,-0.9153808951377869
1710888588138668800,4.761668701171875,0.15546508133411407,-0.66645348072052,-1.0983349084854126
1710888588157628000,4.7806279296875,0.17348559200763702,-0.7437278628349304,-1.229670763015747
1710888588176587300,4.799587158203125,0.189673513174057,-0.7278453707695007,-1.2877029180526733
1710888588195546400,4.81854638671875,0.17715078592300415,-0.6557633280754089,-1.3213005065917969
1710888588214505700,4.837505615234375,0.17531819641590118,-0.638353705406189,-1.3384047746658325
1710888588233464800,4.85646484375,0.19120067358016968,-0.6878337264060974,-1.3671153783798218
1710888588252424200,4.875424072265625,0.23762640357017517,-0.7535017132759094,-1.3600903749465942
1710888588271383300,4.89438330078125,0.24709481000900269,-0.8155044913291931,-1.3121376037597656
1710888588290342700,4.9133427734375,0.17776164412498474,-0.8463531732559204,-1.3017528057098389
1710888588309301800,4.9323017578125,0.10873392969369888,-0.9056070446968079,-1.2803726196289062
1710888588328260900,4.9512607421875,0.12675444781780243,-0.9666935205459595,-1.242193579673767
1710888588347220200,4.97022021484375,0.20861032605171204,-0.9700532555580139,-1.1948515176773071
1710888588366179300,4.989179443359375,0.28038692474365234,-0.9450078010559082,-1.1200206279754639
1710888588385138700,5.008138671875,0.2822195291519165,-0.9049961566925049,-1.0503820180892944
1710888588404097800,5.027097900390625,0.22693626582622528,-0.8289434909820557,-0.9758564829826355
1710888588423057200,5.04605712890625,0.14660754799842834,-0.7116574645042419,-0.8857539296150208
1710888588442016300,5.065016357421875,0.08124501258134842,-0.6032289862632751,-0.7935133576393127
1710888588460975600,5.0839755859375,0.043982263654470444,-0.5241219997406006,-0.7189878225326538
1710888588479934700,5.102934814453125,0.026878049597144127,-0.45875945687294006,-0.6722567081451416
1710888588498894000,5.12189404296875,0.033597562462091446,-0.4105011224746704,-0.6444623470306396
1710888588517853200,5.140853271484375,0.01435532234609127,-0.36743515729904175,-0.6010909676551819
1710888588536812500,5.1598125,-0.04153880476951599,-0.3488037884235382,-0.5519163012504578
1710888588555771600,5.178771728515625,-0.10018182545900345,-0.34574946761131287,-0.5048797130584717
1710888588574730800,5.197730712890625,-0.13591741025447845,-0.337808221578598,-0.47372564673423767
1710888588593690000,5.216690185546875,-0.15149445831775665,-0.318871408700943,-0.42943793535232544
1710888588612649200,5.235649169921875,-0.18173226714134216,-0.27916520833969116,-0.38270679116249084
1710888588631608600,5.254608642578125,-0.21777328848838806,-0.19181154668331146,-0.33658650517463684
1710888588650567700,5.273567626953125,-0.23976442217826843,-0.07788526266813278,-0.3179551064968109
1710888588669527000,5.292527099609375,-0.2409861534833908,0.024740023538470268,-0.3133736252784729
1710888588688486100,5.311486083984375,-0.2412915825843811,0.07452550530433655,-0.29504770040512085
1710888588707445200,5.3304453125,-0.24892739951610565,0.04520399495959282,-0.24373504519462585
1710888588726404600,5.349404541015625,-0.3197877109050751,-0.07330377399921417,-0.17776164412498474
1710888588745363700,5.36836376953125,-0.4175260663032532,-0.2110537886619568,-0.11362084746360779
1710888588764323000,5.387322998046875,-0.5415316224098206,-0.3836230933666229,-0.13622283935546875
1710888588783282200,5.4062822265625,-0.6676751971244812,-0.5479456782341003,-0.22785256803035736
1710888588802241500,5.425241455078125,-0.7764091491699219,-0.6359102129936218,-0.3280344009399414
1710888588821200600,5.44420068359375,-0.8072578310966492,-0.6539307236671448,-0.374765545129776
1710888588840160000,5.463159912109375,-0.8042035102844238,-0.6056724190711975,-0.39797839522361755
1710888588859119000,5.482119140625,-0.8274163603782654,-0.5229002237319946,-0.4056142270565033
1710888588878078500,5.501078369140625,-0.8765909671783447,-0.4618137776851654,-0.44379326701164246
1710888588897037600,5.52003759765625,-0.9123265743255615,-0.42821621894836426,-0.5027416944503784
1710888588915997000,5.538996826171875,-0.9453132748603821,-0.4276053309440613,-0.5659661889076233
1710888588934956000,5.5579560546875,-0.962722897529602,-0.4770853817462921,-0.6026180982589722
1710888588953915100,5.5769150390625,-0.9773836731910706,-0.5522217750549316,-0.6157516837120056
1710888588972874500,5.59587451171875,-1.008843183517456,-0.6160571575164795,-0.6065887212753296
1710888588991833600,5.61483349609375,-1.0622938871383667,-0.6319395899772644,-0.5971203446388245
1710888589010793000,5.63379296875,-1.1249074935913086,-0.5968148708343506,-0.5998691916465759
1710888589029752000,5.652751953125,-1.173776626586914,-0.5387827157974243,-0.6322450637817383
1710888589048711200,5.671711181640625,-1.2049307823181152,-0.4838049113750458,-0.6786707639694214
1710888589067670500,5.69067041015625,-1.2168426513671875,-0.43982264399528503,-0.7275399565696716
1710888589086629600,5.709629638671875,-1.2082905769348145,-0.4101957082748413,-0.7953459620475769
1710888589105589000,5.728589111328125,-1.1756092309951782,-0.3863719701766968,-0.8881973624229431
1710888589124548000,5.747548095703125,-1.1001675128936768,-0.31490078568458557,-0.99968022108078
1710888589143507500,5.766507568359375,-0.9508110284805298,-0.17256930470466614,-1.084285020828247
1710888589162466600,5.785466552734375,-0.7247910499572754,0.012217295356094837,-1.0919208526611328
1710888589181426000,5.804426025390625,-0.5152644515037537,0.11759147047996521,-1.0161736011505127
1710888589200385000,5.823385009765625,-0.42974337935447693,0.14049890637397766,-0.8634573817253113
1710888589219344100,5.84234423828125,-0.5082395076751709,0.1637117564678192,-0.6713404059410095
1710888589238303500,5.861303466796875,-0.6890554428100586,0.21991132199764252,-0.476779967546463
1710888589257262600,5.8802626953125,-0.7980948090553284,0.3643808364868164,-0.28954991698265076
1710888589276222000,5.899221923828125,-0.7797688841819763,0.6035344004631042,-0.09590577334165573
1710888589295181000,5.91818115234375,-0.6801979541778564,0.8280271887779236,0.08368847519159317
1710888589314140400,5.937140380859375,-0.5797106623649597,0.9388991594314575,0.2364046722650528
1710888589333099500,5.956099609375,-0.5125155448913574,1.0317505598068237,0.37812530994415283
1710888589352059000,5.975058837890625,-0.4376846253871918,1.1627811193466187,0.5635227560997009
1710888589371018000,5.99401806640625,-0.3023780584335327,1.3942989110946655,0.7996219992637634
1710888589389977300,6.012977294921875,0.007635809946805239,1.7458515167236328,1.0235038995742798
1710888589408936400,6.0319365234375,0.647516667842865,2.2950189113616943,1.2464696168899536
1710888589427895600,6.0508955078125,1.6575815677642822,2.961167097091675,1.5125012397766113
1710888589446855000,6.06985498046875,2.9162683486938477,3.554316759109497,1.80357825756073
1710888589465814000,6.08881396484375,3.9180867671966553,4.013381481170654,1.6661336421966553
1710888589484773400,6.1077734375,3.4025168418884277,3.283398151397705,1.3374884128570557
1710888589503732500,6.126732421875,2.054338216781616,1.760512351989746,1.3545926809310913
1710888589522691800,6.14569189453125,1.3402373790740967,0.6160571575164795,1.1743875741958618
1710888589541651000,6.16465087890625,1.3319905996322632,0.231212317943573,0.8414662480354309
1710888589560610300,6.1836103515625,1.5265511274337769,0.49968740344047546,0.6221657991409302
1710888589579569400,6.2025693359375,1.5891647338867188,1.015562653541565,0.4685332775115967
1710888589598528800,6.22152880859375,1.3655881881713867,1.386052131652832,0.34788748621940613
1710888589617488000,6.24048779296875,0.9022472500801086,1.5613703727722168,0.25931209325790405
1710888589636447200,6.259447265625,0.37140578031539917,1.5763366222381592,0.10109812021255493
1710888589655406300,6.27840625,-0.03756818547844887,1.6056580543518066,-0.11423171311616898
1710888589674365400,6.297365478515625,-0.3695732057094574,1.6184862852096558,-0.19394956529140472
1710888589693324800,6.31632470703125,-0.7415898442268372,1.2363903522491455,-0.27366742491722107
1710888589712284000,6.335283935546875,-1.0491602420806885,0.39248061180114746,-0.6246092319488525
1710888589731243300,6.3542431640625,-1.1035271883010864,-0.5186241865158081,-1.2483022212982178
1710888589750202400,6.373202392578125,-0.8197805285453796,-1.1117738485336304,-1.9639302492141724
1710888589769161700,6.39216162109375,-0.6175842881202698,-1.5066980123519897,-2.4379613399505615
1710888589788121000,6.41112109375,-0.9071341753005981,-2.0610578060150146,-2.5054619312286377
1710888589807080200,6.430080078125,-1.5192207098007202,-2.989572286605835,-2.565326690673828
1710888589826039300,6.449039306640625,-1.925140380859375,-3.9752025604248047,-2.7290384769439697
1710888589844998700,6.46799853515625,-1.8319834470748901,-4.646237373352051,-2.704909324645996
1710888589863957800,6.486957763671875,-2.095571517944336,-4.896386623382568,-2.5323400497436523
1710888589882917000,6.505917236328125,-2.558912515640259,-4.490772247314453,-2.093128204345703
1710888589901876200,6.524876220703125,-2.4929392337799072,-3.668548345565796,-1.4046835899353027
1710888589920835600,6.543835693359375,-2.212857723236084,-3.1978771686553955,-1.17194402217865
1710888589939795000,6.562794921875,-1.8374812602996826,-3.0589053630828857,-1.1777472496032715
1710888589958754000,6.581754150390625,-1.413846492767334,-3.048520565032959,-1.0299180746078491
1710888589977713200,6.600713134765625,-1.2455532550811768,-3.053713083267212,-0.8390227556228638
1710888589996672500,6.619672607421875,-1.2269219160079956,-2.601673126220703,-0.7092140316963196
1710888590015632000,6.6386318359375,-1.2180644273757935,-1.8371758460998535,-0.5415316224098206
1710888590034591000,6.657591064453125,-1.2095122337341309,-1.120326042175293,-0.3539961278438568
1710888590053550300,6.67655029296875,-1.2556325197219849,-0.6017017960548401,-0.13225223124027252
1710888590072509400,6.695509521484375,-1.3463460206985474,-0.23915356397628784,0.1747073233127594
1710888590091468800,6.71446875,-1.396742343902588,0.09285144507884979,0.5128209590911865
1710888590110428000,6.733427978515625,-1.4077378511428833,0.37140578031539917,0.8316923975944519
1710888590129387300,6.75238720703125,-1.3698642253875732,0.5864301919937134,1.0879502296447754
1710888590148346600,6.7713466796875,-1.2281436920166016,0.8552106618881226,1.2794562578201294
1710888590167305700,6.7903056640625,-0.9382883310317993,1.240666389465332,1.453247308731079
1710888590186265000,6.80926513671875,-0.48502662777900696,1.6511675119400024,1.6120721101760864
1710888590205224200,6.82822412109375,0.01802051067352295,1.9758421182632446,1.719889760017395
1710888590224183600,6.84718359375,0.5693259835243225,2.2989895343780518,1.7580687999725342
1710888590243142700,6.866142578125,1.4233149290084839,2.7290384769439697,1.7321070432662964
1710888590262102000,6.88510205078125,2.8512113094329834,3.308748960494995,2.0977096557617188
1710888590281061400,6.904061279296875,4.875617027282715,3.7675085067749023,2.8093671798706055
1710888590300020500,6.9230205078125,6.113840103149414,3.616319417953491,2.4132213592529297
1710888590318979800,6.941979736328125,4.393950462341309,1.6319252252578735,1.811824917793274
1710888590337939000,6.96093896484375,1.8139629364013672,0.10415244847536087,1.6514729261398315
1710888590356898300,6.979898193359375,1.2834268808364868,1.4538581371307373,1.7272201776504517
1710888590375857700,6.998857666015625,1.8240422010421753,2.9846854209899902,1.5677844285964966
1710888590394816800,7.017816650390625,2.0689990520477295,3.4208426475524902,1.0903936624526978
1710888590413776100,7.036776123046875,1.7837251424789429,3.4990334510803223,0.6264418363571167
1710888590432735200,7.0557353515625,1.1875211000442505,3.400073289871216,0.2263254076242447
1710888590451694600,7.074694580078125,0.5421425104141235,3.1810784339904785,-0.0461202897131443
1710888590470653700,7.09365380859375,-0.026878049597144127,2.6410739421844482,-0.2153298407793045
1710888590489613000,7.112613037109375,-0.5204567909240723,1.6588033437728882,-0.42302384972572327
1710888590508572400,7.131572509765625,-0.8512400984764099,0.5112938284873962,-0.8084795475006104
1710888590527531500,7.150531494140625,-0.7596103549003601,-0.22388194501399994,-1.3808598518371582
1710888590546491000,7.169490966796875,-0.38881543278694153,-0.4013381600379944,-1.8338160514831543
1710888590565450200,7.1884501953125,-0.4111120104789734,-0.7202095985412598,-2.0277657508850098
1710888590584409300,7.207409423828125,-1.0567960739135742,-1.443168044090271,-2.120617151260376
1710888590603368700,7.22636865234375,-1.9110904932022095,-2.313955783843994,-2.1520767211914062
1710888590622328000,7.245328125,-2.497826099395752,-2.984379768371582,-2.157574415206909
1710888590641287200,7.264287109375,-2.375042200088501,-3.632201910018921,-2.051589250564575
1710888590660246500,7.28324658203125,-2.143218994140625,-4.393033981323242,-1.7247767448425293
1710888590679206000,7.302205810546875,-2.7473642826080322,-4.5894269943237305,-1.5974113941192627
1710888590698165000,7.3211650390625,-2.8484625816345215,-4.104400634765625,-1.1969895362854004
1710888590717124400,7.340124267578125,-2.640768527984619,-3.689012289047241,-1.1676679849624634
1710888590736083700,7.359083740234375,-2.3845107555389404,-3.263545036315918,-1.453247308731079
1710888590755042800,7.378042724609375,-1.9092578887939453,-3.1584763526916504,-1.426369309425354
1710888590774002200,7.397002197265625,-1.4947861433029175,-3.319439172744751,-1.380554437637329
1710888590792961500,7.41596142578125,-1.2238675355911255,-2.7336199283599854,-1.2815942764282227
1710888590811921000,7.4349208984375,-1.0424407720565796,-1.9471315145492554,-1.1227694749832153
1710888590830880000,7.4538798828125,-0.9651663303375244,-1.145676851272583,-0.942258894443512
1710888590849839400,7.47283935546875,-1.0216712951660156,-0.5302306413650513,-0.7623592615127563
1710888590868798500,7.491798583984375,-1.1841614246368408,-0.09498947113752365,-0.5577195286750793
1710888590887757800,7.5107578125,-1.3771946430206299,0.12400554865598679,-0.2809978127479553
1710888590906717200,7.52971728515625,-1.528383731842041,0.22846342623233795,0.059864748269319534
1710888590925676300,7.54867626953125,-1.5344923734664917,0.30604326725006104,0.35582873225212097
1710888590944636000,7.567635986328125,-1.2971713542938232,0.45967575907707214,0.5797106623649597
1710888590963595000,7.586594970703125,-0.7907644510269165,0.8057306408882141,0.8659008145332336
1710888590982554400,7.605554443359375,-0.13988803327083588,1.1606431007385254,1.3487894535064697
1710888591001513500,7.624513427734375,0.4468475878238678,1.441640853881836,1.9294164180755615
1710888591020472800,7.643472900390625,1.063210129737854,1.6236785650253296,2.395200729370117
1710888591039432200,7.66243212890625,1.857945203781128,1.8002184629440308,2.559523344039917
1710888591058391600,7.6813916015625,3.179245710372925,2.162461280822754,2.743393659591675
1710888591077350700,7.7003505859375,4.818195819854736,3.2042911052703857,3.327685832977295
1710888591096310000,7.71931005859375,4.309650897979736,3.238499641418457,2.685667037963867
1710888591115269400,7.738269287109375,0.8717040419578552,1.7305799722671509,2.438877582550049
1710888591134228700,7.757228759765625,0.12553271651268005,3.227809429168701,2.743699073791504
1710888591153187800,7.776187744140625,1.3280199766159058,4.7763519287109375,2.6606216430664062
1710888591172147200,7.795147216796875,2.137110471725464,5.166388988494873,2.0494513511657715
1710888591191106600,7.8141064453125,1.9083415269851685,4.454425811767578,1.2049307823181152
1710888591210066000,7.83306591796875,1.3075560331344604,3.5332419872283936,0.6496546864509583
1710888591229025000,7.85202490234375,0.7388409376144409,2.666119337081909,0.3035998046398163
1710888591247984600,7.870984619140625,0.27916520833969116,1.8396192789077759,-0.0720820426940918
1710888591266943700,7.88994384765625,-0.03023780696094036,1.3393210172653198,-0.41813695430755615
1710888591285903000,7.908903076171875,-0.14141519367694855,1.1951569318771362,-0.7513636946678162
1710888591304862500,7.927862548828125,-0.026878049597144127,1.128572702407837,-1.204014539718628
1710888591323821800,7.94682177734375,0.10170898586511612,1.1343759298324585,-1.6154319047927856
1710888591342781000,7.965781005859375,-0.17287473380565643,0.6126973628997803,-1.8011348247528076
1710888591361740300,7.984740234375,-0.9859357476234436,-0.4101957082748413,-1.8069380521774292
1710888591380699600,8.00369970703125,-1.9822561740875244,-1.1447606086730957,-1.7208061218261719
1710888591399659000,8.022658935546875,-2.737895965576172,-1.7397428750991821,-1.6380338668823242
1710888591418618400,8.041618408203124,-2.9239041805267334,-2.439182996749878,-1.5396846532821655
1710888591437577500,8.060577392578125,-2.2476768493652344,-3.2281148433685303,-0.9773836731910706
1710888591456536800,8.079536865234376,-2.2644758224487305,-3.691150426864624,-0.5601630210876465
1710888591475496200,8.09849609375,-2.653902053833008,-4.087601661682129,-0.4260781705379486
1710888591494455600,8.11745556640625,-2.067777395248413,-3.244302749633789,-0.5607738494873047
1710888591513415000,8.136414794921874,-1.6991204023361206,-3.090975761413574,-1.268460750579834
1710888591532374000,8.1553740234375,-1.5470150709152222,-3.65755295753479,-1.5931353569030762
1710888591551333400,8.17433349609375,-1.3289363384246826,-4.05217170715332,-1.6899573802947998
1710888591570292700,8.193292724609375,-1.1908808946609497,-3.8875434398651123,-1.5610649585723877
1710888591589252000,8.212252197265625,-1.0427461862564087,-3.2601852416992188,-1.4453060626983643
1710888591608211500,8.23121142578125,-0.9007201194763184,-2.4578144550323486,-1.2928953170776367
1710888591627170600,8.250170654296875,-0.8631519079208374,-1.6493349075317383,-1.092226266860962
1710888591646130000,8.2691298828125,-0.9395100474357605,-0.9712749719619751,-0.8805615901947021
1710888591665089500,8.288089599609375,-1.0977239608764648,-0.41935867071151733,-0.6545416116714478
1710888591684048600,8.307048583984376,-1.2596031427383423,-0.026572618633508682,-0.3484983444213867
1710888591703008000,8.326008056640624,-1.3096940517425537,0.2813032269477844,0.017104214057326317
1710888591721967400,8.34496728515625,-1.203098177909851,0.5201513767242432,0.3536907136440277
1710888591740926700,8.3639267578125,-0.9300416111946106,0.6905826330184937,0.6472112536430359
1710888591759886000,8.382885986328125,-0.5283980369567871,0.8747583627700806,0.961195707321167
1710888591778845200,8.40184521484375,-0.08338304609060287,1.0638209581375122,1.3185516595840454
1710888591797804500,8.420804443359375,0.33322674036026,1.2544108629226685,1.6316198110580444
1710888591816764000,8.439763916015625,0.7852666974067688,1.5409064292907715,1.813657522201538
1710888591835723300,8.45872314453125,1.658497929573059,2.1493277549743652,1.950185775756836
1710888591854682600,8.4776826171875,3.623649835586548,3.19970965385437,3.0634868144989014
1710888591873642000,8.49664208984375,5.103164196014404,4.606531143188477,4.026820659637451
1710888591892601300,8.515601318359375,3.1285438537597656,3.7152795791625977,3.2562146186828613
1710888591911560400,8.534560546875,-0.0772743970155716,2.8127269744873047,3.3209664821624756
1710888591930520000,8.55352001953125,-0.10415244847536087,4.388758182525635,3.3652541637420654
1710888591949479200,8.572479248046875,1.1661409139633179,4.976104259490967,2.56471586227417
1710888591968438500,8.5914384765625,1.9074252843856812,4.833467483520508,1.3726131916046143
1710888591987398000,8.61039794921875,1.9382739067077637,4.33072566986084,0.5665770769119263
1710888592006357200,8.629357177734375,1.588248372077942,3.68595814704895,0.3124573230743408
1710888592025316600,8.648316650390624,1.1252129077911377,2.8646504878997803,-0.047036588191986084
1710888592044276000,8.66727587890625,0.7504473924636841,2.3142611980438232,-0.374765545129776
1710888592063235300,8.6862353515625,0.5152644515037537,1.8044945001602173,-0.6166679859161377
1710888592082194700,8.705194580078125,0.47494736313819885,1.296560525894165,-0.9199623465538025
1710888592101153800,8.72415380859375,0.5879573225975037,0.9083559513092041,-1.2641847133636475
1710888592120113200,8.743113037109374,0.7070759534835815,0.6209440231323242,-1.518609881401062
1710888592139072500,8.762072509765625,0.5006036758422852,0.26542073488235474,-1.4969241619110107
1710888592158032000,8.781031982421876,-0.25503605604171753,-0.3341430425643921,-1.3851358890533447
1710888592176991200,8.7999912109375,-1.2205078601837158,-0.7373138070106506,-1.2553271055221558
1710888592195950600,8.81895068359375,-1.9492695331573486,-0.6847794055938721,-1.0473276376724243
1710888592214910000,8.837909912109374,-1.7263038158416748,-0.767857015132904,-0.8237511515617371
1710888592233869300,8.856869384765625,-0.37201663851737976,-1.7470732927322388,-0.14538581669330597
1710888592252828700,8.87582861328125,-2.276998519897461,-4.3322529792785645,-0.7651081085205078
1710888592271787800,8.894787841796875,-3.3762495517730713,-5.729911804199219,-0.3799578845500946
1710888592290747100,8.9137470703125,-3.0949463844299316,-4.813614368438721,0.5497782826423645
1710888592309706500,8.93270654296875,-2.6502368450164795,-4.674642562866211,-0.25931209325790405
1710888592328665900,8.951665771484375,-2.2116358280181885,-4.046978950500488,-1.3726131916046143
1710888592347625200,8.970625244140624,-1.8732168674468994,-3.993222951889038,-1.5683953762054443
1710888592366584600,8.98958447265625,-1.7110322713851929,-4.070191860198975,-1.4404191970825195
1710888592385544000,9.0085439453125,-1.4718786478042603,-3.660607099533081,-1.3500111103057861
1710888592404503300,9.02750341796875,-1.219896912574768,-2.9749114513397217,-1.267238974571228
1710888592423462700,9.046462646484375,-1.1447606086730957,-2.173762321472168,-1.0415244102478027
1710888592442422000,9.065422119140624,-1.2055416107177734,-1.2565488815307617,-0.7024945020675659
1710888592461381000,9.084381103515625,-1.2577705383300781,-0.3610210716724396,-0.36224281787872314
1710888592480340500,9.103340576171876,-1.1902700662612915,0.3399462401866913,-0.0922405794262886
1710888592499299800,9.1222998046875,-0.9581413865089417,0.7779362797737122,0.10109812021255493
1710888592518259200,9.14125927734375,-0.5989528894424438,1.0552688837051392,0.23945899307727814
1710888592537218600,9.160218505859374,-0.18692462146282196,1.2562434673309326,0.5143481492996216
1710888592556178000,9.179177978515625,0.17653992772102356,1.4370594024658203,1.017395257949829
1710888592575137300,9.19813720703125,0.5076286196708679,1.7531819343566895,1.5442661046981812
1710888592594096400,9.217096435546875,1.0012073516845703,2.235154151916504,1.8408410549163818
1710888592613056000,9.236055908203125,2.252258539199829,2.958418130874634,2.1841471195220947
1710888592632015400,9.255015380859374,4.25772762298584,4.1199774742126465,3.4736826419830322
1710888592650974500,9.273974365234375,5.200902938842773,4.859123706817627,3.8707447052001953
1710888592669933800,9.292933837890626,3.970926523208618,3.7042839527130127,3.05432391166687
1710888592688893200,9.31189306640625,1.414151906967163,2.997818946838379,2.3686282634735107
1710888592707852500,9.3308525390625,0.5293143391609192,4.043619632720947,2.397644281387329
1710888592726812000,9.34981201171875,0.8830050230026245,4.225046157836914,2.190561056137085
1710888592745771300,9.368771240234375,1.219591498374939,3.6028804779052734,1.542128086090088
1710888592764730600,9.387730712890624,1.1319323778152466,2.7739369869232178,0.6927206516265869
1710888592783689700,9.406689697265625,0.7559451460838318,1.8179335594177246,0.013744457624852657
1710888592802649000,9.425649169921876,0.35735589265823364,1.1768310070037842,-0.3588830530643463
1710888592821608400,9.4446083984375,0.014966187067329884,0.7861829996109009,-0.5030471682548523
1710888592840567800,9.46356787109375,-0.20433427393436432,0.44959646463394165,-0.6856957077980042
1710888592859527200,9.482527099609374,-0.2522871494293213,0.35643959045410156,-0.9474512934684753
1710888592878486500,9.501486572265625,-0.14263692498207092,0.5433642268180847,-1.2974767684936523
1710888592897446000,9.52044580078125,0.04306596517562866,0.9645555019378662,-1.6908737421035767
1710888592916405200,9.5394052734375,-0.05436696484684944,1.2675443887710571,-1.8771874904632568
1710888592935364600,9.558364501953125,-0.7211259007453918,1.0439679622650146,-1.8078542947769165
1710888592954323700,9.57732373046875,-1.7357722520828247,0.4221075773239136,-1.6090178489685059
1710888592973283000,9.596282958984375,-2.6276347637176514,-0.5015199780464172,-1.3939933776855469
1710888592992242400,9.615242431640626,-2.846935272216797,-1.7217223644256592,-1.1380411386489868
1710888593011201800,9.634201904296875,-1.9917246103286743,-3.6593854427337646,-0.8222240209579468
1710888593030161200,9.6531611328125,-2.7504186630249023,-6.460505962371826,-1.7366886138916016
1710888593049120500,9.67212060546875,-3.439474105834961,-7.259517192840576,-1.3924663066864014
1710888593068079900,9.691079833984375,-3.6022696495056152,-6.730202674865723,-0.19089524447917938
1710888593087039200,9.710039306640626,-2.7986769676208496,-6.1987504959106445,-0.8371901512145996
1710888593105998600,9.72899853515625,-1.4950915575027466,-4.684416770935059,-1.5601485967636108
1710888593124957700,9.747957763671875,-0.9721912741661072,-3.959014654159546,-1.5488476753234863
1710888593143917000,9.7669169921875,-0.96180659532547,-3.3936593532562256,-1.2932007312774658
1710888593162876400,9.78587646484375,-0.9465349912643433,-2.7061309814453125,-1.146898627281189
1710888593181835800,9.804835693359376,-0.8940005898475647,-1.8292346000671387,-0.8988875150680542
1710888593200795100,9.823795166015625,-0.9440914988517761,-1.0592395067214966,-0.5424479246139526
1710888593219754500,9.84275439453125,-1.0906990766525269,-0.4740310609340668,-0.1588248461484909
1710888593238713600,9.861713623046874,-1.239444613456726,-0.06017018109560013,0.21471896767616272
1710888593257673000,9.8806728515625,-1.2382229566574097,0.16126830875873566,0.4535670876502991
1710888593276632300,9.89963232421875,-0.9666935205459595,0.27550002932548523,0.5244274139404297
1710888593295591700,9.918591796875,-0.39309149980545044,0.41386088728904724,0.5995637774467468
1710888593314551000,9.937551025390626,0.27977606654167175,0.6728675365447998,0.9373720288276672
1710888593333510400,9.956510498046875,0.740368127822876,1.045189619064331,1.5317434072494507
1710888593352469500,9.975469482421875,1.0522146224975586,1.4963133335113525,2.1358888149261475
1710888593371429000,9.99442919921875,1.4984513521194458,2.0164647102355957,2.5683810710906982
1710888593390388200,10.01338818359375,2.947422504425049,3.017366647720337,3.26904296875
1710888593409347600,10.03234765625,4.9134907722473145,4.664258003234863,4.47580623626709
1710888593428307000,10.051306884765625,4.721068382263184,4.867064952850342,3.732689142227173
1710888593447266300,10.070266357421875,2.5247042179107666,3.1419830322265625,3.0573782920837402
1710888593466225700,10.0892255859375,0.4874700903892517,2.886336088180542,2.649320602416992
1710888593485185000,10.10818505859375,0.24037529528141022,4.723817348480225,2.5744895935058594
1710888593504144100,10.12714404296875,0.5662716627120972,5.809629440307617,2.174373149871826
1710888593523103500,10.146103515625,0.574212908744812,5.289478302001953,1.6029092073440552
1710888593542062800,10.165062744140625,0.13530655205249786,3.7586510181427,0.8830050230026245
1710888593561022200,10.184022216796874,-0.25900667905807495,2.072664260864258,0
1710888593579981600,10.202981689453125,-0.49602219462394714,0.7235693335533142,-0.8069523572921753
1710888593598940700,10.221940673828126,-0.5503891706466675,-0.17837251722812653,-1.2449424266815186
1710888593617900000,10.240900146484375,-0.49663305282592773,-0.6478220820426941,-1.4358376264572144
1710888593636859400,10.259859375,-0.3805687427520752,-0.601396381855011,-1.551901936531067
1710888593655818800,10.27881884765625,-0.08857539296150208,-0.020158538594841957,-1.8124357461929321
1710888593674778000,10.297778076171875,0.2675587832927704,0.8967494964599609,-2.1899502277374268
1710888593693737500,10.316737548828126,0.034208428114652634,1.5690062046051025,-2.2094979286193848
1710888593712696800,10.33569677734375,-0.942258894443512,1.288313865661621,-1.906814455986023
1710888593731656000,10.354656005859376,-2.034790515899658,0.1331685185432434,-1.6264275312423706
1710888593750615300,10.373615234375,-2.5213444232940674,-1.8851287364959717,-1.5503748655319214
1710888593769574700,10.39257470703125,-1.905287265777588,-4.0500335693359375,-1.6936225891113281
1710888593788534000,10.411533935546874,-0.6530144214630127,-5.836812973022461,-1.4361430406570435
1710888593807493400,10.430493408203125,-1.0577123165130615,-7.066483974456787,-1.6520837545394897
1710888593826452500,10.449452392578126,-2.805396556854248,-4.991375923156738,-0.6719512343406677
1710888593845411800,10.468411865234375,-3.9330527782440186,-3.7629270553588867,0.27030766010284424
1710888593864371200,10.48737109375,-3.2809548377990723,-2.746142625808716,-0.6215549111366272
1710888593883330600,10.50633056640625,-1.7730350494384766,-2.1783437728881836,-1.5460987091064453
1710888593902290000,10.5252900390625,-1.370475172996521,-2.979187488555908,-1.6404774188995361
1710888593921249000,10.5442490234375,-1.1698060035705566,-3.445277452468872,-1.426369309425354
1710888593940208400,10.56320849609375,-0.8784235715866089,-3.2730135917663574,-1.349705696105957
1710888593959167700,10.582167724609375,-0.675616443157196,-2.500575065612793,-1.3252711296081543
1710888593978127000,10.601127197265624,-0.6918043494224548,-1.598022222518921,-1.2064579725265503
1710888593997086500,10.62008642578125,-0.8429933786392212,-0.9022472500801086,-0.9645555019378662
1710888594016045600,10.639045654296876,-1.00762140750885,-0.6637045741081238,-0.6130027770996094
1710888594035005000,10.6580048828125,-1.092531681060791,-0.6038398146629333,-0.24526220560073853
1710888594053964300,10.67696435546875,-1.026863694190979,-0.4880809485912323,0.04001164436340332
1710888594072923600,10.695923583984374,-0.7339540123939514,-0.13958260416984558,0.2675587832927704
1710888594091883000,10.714883056640625,-0.12950333952903748,0.4276053309440613,0.593149721622467
1710888594110842000,10.733842041015626,0.7070759534835815,0.9779945015907288,1.091004490852356
1710888594129801500,10.752801513671875,1.4657700061798096,1.4605777263641357,1.6508620977401733
1710888594148760800,10.7717607421875,2.1410810947418213,1.9000948667526245,1.9914191961288452
1710888594167720200,10.79072021484375,2.8518221378326416,2.1496331691741943,2.0329580307006836
1710888594186679300,10.80967919921875,3.8939576148986816,2.4159700870513916,2.528980255126953
1710888594205639000,10.828638916015626,4.579042434692383,2.821584463119507,3.4333655834198
1710888594224598000,10.847597900390625,4.035983562469482,2.419940710067749,3.428478479385376
1710888594243557400,10.866557373046875,2.126114845275879,1.3029745817184448,3.050658702850342
1710888594262516700,10.885516845703124,0.3750709891319275,1.6942334175109863,3.020726442337036
1710888594281476000,10.90447607421875,0.4269944727420807,3.509418249130249,2.836245059967041
1710888594300435200,10.923435302734376,1.1316269636154175,4.753749847412109,2.318842649459839
1710888594319394600,10.94239453125,1.3478730916976929,4.7458086013793945,1.8454225063323975
1710888594338354000,10.96135400390625,1.036637544631958,4.138608932495117,1.490510106086731
1710888594357313300,10.980313232421874,0.5891790986061096,3.4214537143707275,1.0723731517791748
1710888594376272600,10.999272705078125,0.21410810947418213,2.9049675464630127,0.5900954008102417
1710888594395231700,11.018231689453126,-0.07574722915887833,2.654512882232666,0.1328630894422531
1710888594414191000,11.037191162109375,-0.3426951467990875,2.5466952323913574,-0.18631376326084137
1710888594433150500,11.056150390625,-0.5852084755897522,2.40039324760437,-0.49510589241981506
1710888594452109800,11.07510986328125,-0.6502655744552612,1.9868377447128296,-0.980132520198822
1710888594471069200,11.094069091796875,-0.40958482027053833,1.508836030960083,-1.5848886966705322
1710888594490028300,11.1130283203125,-0.3549124300479889,0.980743408203125,-1.907119870185852
1710888594508987600,11.131987548828125,-0.9428697824478149,0.18234314024448395,-1.8469496965408325
1710888594527947000,11.150947021484376,-1.7993022203445435,-0.8833104968070984,-1.6991204023361206
1710888594546906400,11.16990625,-2.4376559257507324,-2.1478004455566406,-1.5916081666946411
1710888594565865500,11.188865478515625,-2.2598941326141357,-3.9135053157806396,-1.7977750301361084
1710888594584824800,11.207824951171874,-1.3848304748535156,-5.6453070640563965,-1.986532211303711
1710888594603784200,11.2267841796875,-1.5885539054870605,-6.892998218536377,-2.174067735671997
1710888594622743600,11.24574365234375,-2.895193576812744,-6.353299140930176,-1.4746276140213013
1710888594641703000,11.264702880859375,-3.5075855255126953,-4.584540367126465,-0.5100721120834351
1710888594660662000,11.283662109375,-3.1563382148742676,-3.820042848587036,-0.8707877397537231
1710888594679621600,11.30262158203125,-2.2345433235168457,-3.043022871017456,-1.408348798751831
1710888594698580700,11.321580810546875,-1.6432262659072876,-3.3573129177093506,-1.656665325164795
1710888594717540000,11.3405400390625,-1.2944225072860718,-3.4095418453216553,-1.6704097986221313
1710888594736499500,11.35949951171875,-1.0567960739135742,-3.2421648502349854,-1.674991250038147
1710888594755458800,11.378458740234375,-0.8451313972473145,-2.629467487335205,-1.6074906587600708
1710888594774418200,11.397418212890624,-0.7806851863861084,-1.8603886365890503,-1.395825982093811
1710888594793377300,11.416377197265625,-0.850934624671936,-1.2052361965179443,-1.1068869829177856
1710888594812336600,11.435336669921876,-0.9679152369499207,-0.7620537877082825,-0.7990111112594604
1710888594831296000,11.4542958984375,-1.0442733764648438,-0.472198486328125,-0.46395179629325867
1710888594850255400,11.47325537109375,-1.017395257949829,-0.18723005056381226,-0.15210533142089844
1710888594869214700,11.492214599609374,-0.8274163603782654,0.25411975383758545,0.11178825795650482
1710888594888173800,11.511173828125,-0.4059196412563324,0.8836159110069275,0.3741546869277954
1710888594907133200,11.53013330078125,0.14263692498207092,1.5265511274337769,0.7333431839942932
1710888594926092500,11.549092529296875,0.5564978122711182,2.0302090644836426,1.2266165018081665
1710888594945052000,11.568052001953125,0.8875865340232849,2.30570912361145,1.7812817096710205
1710888594964011300,11.58701123046875,1.2180644273757935,2.3625195026397705,2.2815799713134766
1710888594982970600,11.605970703125,1.617875337600708,2.3594651222229004,2.5943427085876465
1710888595001929700,11.6249296875,2.4654502868652344,2.509127140045166,2.9904885292053223
1710888595020889000,11.64388916015625,3.979478597640991,3.2012369632720947,4.272999286651611
1710888595039848400,11.662848388671875,5.044215679168701,3.070511817932129,3.9489352703094482
1710888595058807800,11.681807861328124,2.718959093093872,1.1542290449142456,2.676809549331665
1710888595077767200,11.70076708984375,0.35796675086021423,0.6056724190711975,2.291048288345337
1710888595096726500,11.7197265625,0.4098902642726898,2.7165157794952393,2.10992693901062
1710888595115686000,11.738685791015625,1.5424336194992065,4.023460865020752,1.712864875793457
1710888595134645200,11.757645263671876,2.0182971954345703,4.612945556640625,1.0873392820358276
1710888595153604400,11.776604248046874,1.757763385772705,4.7485575675964355,0.5088503360748291
1710888595172563700,11.795563720703125,1.074205756187439,4.547582626342773,0.08307760953903198
1710888595191523000,11.814523193359374,0.3543015718460083,4.203054904937744,-0.29443681240081787
1710888595210482400,11.833482421875,-0.19792018830776215,3.8823511600494385,-0.5430588126182556
1710888595229441800,11.85244189453125,-0.526565432548523,3.5610363483428955,-0.5723803043365479
1710888595248401200,11.871401123046875,-0.639270007610321,3.0243914127349854,-0.6218603253364563
1710888595267360500,11.890360595703125,-0.4663952589035034,2.16032338142395,-1.0757328271865845
1710888595286319600,11.909319580078124,0.0824667438864708,1.5558725595474243,-1.6453642845153809
1710888595305279200,11.928279296875,0.21502439677715302,1.054658055305481,-1.461188554763794
1710888595324238300,11.94723828125,-0.5451968312263489,0.277332603931427,-1.0595449209213257
1710888595343197700,11.96619775390625,-1.5577051639556885,-0.6102539300918579,-0.8042035102844238
1710888595362157000,11.985156982421875,-2.3646576404571533,-1.3213005065917969,-0.5882627964019775
1710888595381116400,12.004116455078124,-2.4636175632476807,-2.048229694366455,-0.48960810899734497
1710888595400075800,12.02307568359375,-1.8106032609939575,-2.800204038619995,-0.3283398151397705
1710888595419035100,12.04203515625,-1.6135993003845215,-4.066526889801025,-0.5513054728507996
1710888595437994500,12.060994384765625,-2.7892086505889893,-5.2070112228393555,-0.8042035102844238
1710888595456953900,12.079953857421875,-3.662745237350464,-4.1676249504089355,0.27855435013771057
1710888595475913000,12.098912841796874,-3.7097818851470947,-4.179536819458008,0.3607156574726105
1710888595494872300,12.117872314453125,-2.886030673980713,-3.3298239707946777,-0.6963858604431152
1710888595513832000,12.13683203125,-2.0027201175689697,-2.836550712585449,-1.277012825012207
1710888595532791000,12.155791015625,-1.4123194217681885,-2.930929183959961,-1.2021819353103638
1710888595551750400,12.17475048828125,-0.9077450633049011,-2.9263477325439453,-1.2702933549880981
1710888595570709800,12.193709716796874,-0.5464185476303101,-2.4404048919677734,-1.3176352977752686
1710888595589669000,12.212669189453125,-0.4630354940891266,-1.7287473678588867,-1.1866048574447632
1710888595608628500,12.23162841796875,-0.6508764028549194,-1.047938585281372,-0.8542944192886353
1710888595627587800,12.250587890625,-0.9175189137458801,-0.4926624298095703,-0.4416552484035492
1710888595646547200,12.269547119140626,-1.081230640411377,-0.0461202897131443,-0.1490510106086731
1710888595665506600,12.288506591796875,-1.0238093137741089,0.29016077518463135,-0.025350889191031456
1710888595684466000,12.3074658203125,-0.7660244107246399,0.4874700903892517,-0.009773836471140385
1710888595703425300,12.32642529296875,-0.4169152081012726,0.693636953830719,0.09437860548496246
1710888595722384600,12.345384521484375,-0.10140355676412582,0.9349285364151001,0.4156934916973114
1710888595741344000,12.364343994140626,0.16707152128219604,1.2363903522491455,0.8933897614479065
1710888595760303400,12.383303466796875,0.5152644515037537,1.6267329454421997,1.398574948310852
1710888595779262700,12.4022626953125,1.1624757051467896,2.0412046909332275,1.8084651231765747
1710888595798221800,12.421221923828124,2.414748430252075,2.5949535369873047,2.5308127403259277
1710888595817181200,12.44018115234375,4.380206108093262,3.3231043815612793,3.5756969451904297
1710888595836140500,12.459140625,5.088809013366699,3.2452192306518555,3.2375833988189697
1710888595855100200,12.47810009765625,2.634965181350708,1.3267983198165894,2.816697597503662
1710888595874059500,12.4970595703125,0.3243691921234131,0.7492256760597229,2.601673126220703
1710888595893018600,12.5160185546875,0.23182319104671478,2.7562217712402344,2.4104723930358887
1710888595911978000,12.53497802734375,1.1450660228729248,4.173733711242676,2.0974042415618896
1710888595930937300,12.553937255859376,1.646891474723816,4.90188455581665,1.469740629196167
1710888595949896700,12.572896728515625,1.3304635286331177,4.467864990234375,0.8466585874557495
1710888595968856000,12.59185595703125,0.6899717450141907,3.598909854888916,0.3283398151397705
1710888595987815700,12.610815673828125,0.05925388261675835,2.844797372817993,-0.18325942754745483
1710888596006774800,12.62977490234375,-0.3741546869277954,2.2708897590637207,-0.6145299673080444
1710888596025734100,12.648734130859374,-0.5665770769119263,1.7983858585357666,-0.9966259002685547
1710888596044693500,12.667693603515625,-0.4321868419647217,1.5488476753234863,-1.4376702308654785
1710888596063652900,12.68665283203125,0.16157373785972595,1.4749330282211304,-1.9486587047576904
1710888596082612200,12.7056123046875,0.7470875978469849,0.9178243279457092,-2.0277657508850098
1710888596101571800,12.72457177734375,0.10231985151767731,0.2315177470445633,-0.8539889454841614
1710888596120531200,12.74353125,-1.0891718864440918,-1.7602068185806274,-0.30543237924575806
1710888596139490600,12.762490478515625,-2.020435333251953,-3.8539459705352783,-0.5296197533607483
1710888596158449700,12.78144970703125,-2.195753335952759,-4.730842113494873,-0.9190460443496704
1710888596177409000,12.800408935546875,-1.7427972555160522,-5.36950159072876,-0.9407317638397217
1710888596196368400,12.819368408203125,-1.7880011796951294,-5.583609580993652,-1.1139118671417236
1710888596215327700,12.83832763671875,-2.671006202697754,-4.552164554595947,-1.145676851272583
1710888596234287400,12.857287353515625,-2.866177558898926,-3.8041603565216064,-1.2663227319717407
1710888596253246700,12.876246826171876,-2.3093743324279785,-3.5857763290405273,-1.4434734582901
1710888596272206000,12.8952060546875,-1.7864739894866943,-3.344789981842041,-1.7724241018295288
1710888596291165400,12.91416552734375,-1.3304635286331177,-3.4162611961364746,-1.711643099784851
1710888596310124800,12.933124755859374,-1.0836740732192993,-3.322493553161621,-1.4272855520248413
1710888596329084200,12.952084228515625,-1.0112866163253784,-2.68475079536438,-1.1902700662612915
1710888596348043500,12.97104345703125,-1.008537769317627,-1.860694169998169,-0.9758564829826355
1710888596367003000,12.9900029296875,-1.0552688837051392,-1.3237439393997192,-0.7391464114189148
1710888596385962200,13.008962158203126,-1.10230553150177,-0.989906370639801,-0.5033525824546814
1710888596404921600,13.027921630859375,-1.0986403226852417,-0.7589994668960571,-0.3243691921234131
1710888596423881000,13.046880859375,-1.0235038995742798,-0.6087267398834229,-0.18417572975158691
1710888596442840300,13.06584033203125,-0.8796452879905701,-0.49082985520362854,-0.031154103577136993
1710888596461799700,13.084799560546875,-0.6710349321365356,-0.34727662801742554,0.1337793916463852
1710888596480759000,13.103759033203126,-0.4221075773239136,-0.09682206809520721,0.34086254239082336
1710888596499718400,13.122718505859375,-0.11148282140493393,0.2620609998703003,0.6692023873329163
1710888596518677800,13.141677734375,0.23304490745067596,0.7211259007453918,1.1713331937789917
1710888596537637000,13.16063720703125,0.6023126840591431,1.230587124824524,1.7861685752868652
1710888596556596700,13.1795966796875,1.0687079429626465,1.6725478172302246,2.2708897590637207
1710888596575556000,13.19855615234375,2.0134103298187256,2.2278237342834473,2.543030023574829
1710888596594515500,13.217515380859375,3.6471681594848633,3.2149813175201416,3.358839988708496
1710888596613474800,13.236474853515626,4.263225078582764,3.705200433731079,3.5112507343292236
1710888596632434200,13.25543408203125,2.9709408283233643,2.657567262649536,3.221090078353882
1710888596651393500,13.2743935546875,1.008537769317627,1.7653992176055908,2.897942543029785
1710888596670353000,13.293352783203124,0.2211330533027649,2.54577898979187,2.6945245265960693
1710888596689312300,13.312312255859375,0.6282744407653809,3.99872088432312,2.6746714115142822
1710888596708271600,13.331271728515626,1.2354739904403687,4.774824619293213,2.4040584564208984
1710888596727231000,13.35023095703125,1.20981764793396,4.623330116271973,2.0127995014190674
1710888596746190300,13.3691904296875,0.7137954831123352,3.9095346927642822,1.551901936531067
1710888596765150000,13.38814990234375,0.18417572975158691,2.9910993576049805,0.9679152369499207
1710888596784109300,13.407109375,-0.1542433500289917,2.2085816860198975,0.3543015718460083
1710888596803068700,13.426068603515626,-0.36193737387657166,1.6526947021484375,-0.10659590363502502
1710888596822028000,13.445028076171875,-0.5216785073280334,1.1972949504852295,-0.45967575907707214
1710888596840987400,13.4639873046875,-0.619722306728363,0.8652899861335754,-0.8008437156677246
1710888596859946800,13.48294677734375,-0.5781835317611694,0.8402445316314697,-1.1184934377670288
1710888596878906000,13.501906005859375,-0.44929105043411255,1.1294889450073242,-1.4563016891479492
1710888596897865500,13.520865478515624,-0.31551164388656616,1.1679733991622925,-1.6994258165359497
1710888596916824800,13.539824951171875,-0.401949018239975,0.6991347670555115,-1.6249003410339355
1710888596935784200,13.5587841796875,-0.8451313972473145,-0.00946840364485979,-1.4672971963882446
1710888596954743800,13.577743896484375,-1.0668753385543823,-1.173776626586914,-1.469435214996338
1710888596973703200,13.596703125,-0.22510367631912231,-2.905272960662842,-1.5964951515197754
1710888596992662500,13.61566259765625,-0.8698714375495911,-5.254047870635986,-2.2562291622161865
1710888597011622000,13.634621826171875,-2.794095516204834,-5.899426460266113,-2.260199785232544
1710888597030581200,13.653581298828126,-3.450469732284546,-5.121184825897217,-1.2315033674240112
1710888597049540600,13.67254052734375,-3.2418594360351562,-5.440056324005127,-1.4199551343917847
1710888597068500000,13.6915,-2.272111654281616,-4.393950462341309,-2.5158464908599854
1710888597087459300,13.710459228515624,-1.5280781984329224,-3.6563310623168945,-2.93123459815979
1710888597106418700,13.729418701171875,-1.2764019966125488,-3.389383316040039,-2.666119337081909
1710888597125378300,13.74837841796875,-1.1859939098358154,-3.19970965385437,-2.305403709411621
1710888597144337700,13.767337646484375,-1.0118975639343262,-2.744310140609741,-2.0799946784973145
1710888597163297000,13.786297119140626,-0.869566023349762,-2.193615436553955,-1.848476767539978
1710888597182256400,13.80525634765625,-0.8442151546478271,-1.5989385843276978,-1.5066980123519897
1710888597201215700,13.8242158203125,-0.9236275553703308,-0.9929606914520264,-1.1310161352157593
1710888597220175000,13.843175048828124,-1.0198386907577515,-0.509155809879303,-0.7635809779167175
1710888597239134500,13.862134521484375,-1.0891718864440918,-0.19914191961288452,-0.4172206521034241
1710888597258094000,13.881093994140626,-1.0852012634277344,0.0821613147854805,-0.09346231073141098
1710888597277053400,13.900053466796875,-0.8994984030723572,0.4263836145401001,0.22693626582622528
1710888597296012800,13.9190126953125,-0.47067132592201233,0.8524618148803711,0.6398808360099792
1710888597314972200,13.93797216796875,0.05558869615197182,1.258992314338684,1.1322379112243652
1710888597333931500,13.956931640625,0.46883872151374817,1.6221513748168945,1.618180751800537
1710888597352891000,13.975890869140626,0.8442151546478271,1.8921536207199097,2.0320417881011963
1710888597371850200,13.994850341796875,1.451414704322815,2.1471896171569824,2.2235476970672607
1710888597390809600,14.0138095703125,2.9721624851226807,2.9739952087402344,2.917184829711914
1710888597409769200,14.032769287109375,4.997790336608887,4.214355945587158,4.284605503082275
1710888597428728600,14.051728515625,5.276955604553223,4.599811553955078,3.640448570251465
1710888597447688000,14.07068798828125,2.4966044425964355,2.7290384769439697,2.701549530029297
1710888597466647300,14.089647216796875,-0.4822777509689331,1.6856813430786133,2.6755876541137695
1710888597485606700,14.108606689453126,-0.526565432548523,3.906480312347412,2.959334373474121
1710888597504566000,14.12756591796875,0.47097674012184143,4.806589603424072,2.6086981296539307
1710888597523525400,14.146525390625,0.8155044913291931,4.3072075843811035,1.6786564588546753
1710888597542484700,14.165484619140624,0.499381959438324,3.276984214782715,0.6426297426223755
1710888597561444000,14.184444091796875,0.05589412897825241,2.3677117824554443,-0.054672397673130035
1710888597580403700,14.20340380859375,-0.25411975383758545,1.6710206270217896,-0.45051276683807373
1710888597599363000,14.222363037109375,-0.2868010103702545,1.028085470199585,-0.7611374855041504
1710888597618322400,14.241322509765626,-0.14538581669330597,0.4401280879974365,-1.0580178499221802
1710888597637281800,14.26028173828125,0.01954767294228077,0.1698204129934311,-1.2977821826934814
1710888597656241200,14.2792412109375,0.2208276242017746,0.323452889919281,-1.469740629196167
1710888597675200500,14.298200439453124,0.562911868095398,0.7999274134635925,-1.6649119853973389
1710888597694160000,14.317159912109375,0.813060998916626,1.117577075958252,-1.7467678785324097
1710888597713119200,14.336119140625,0.46059203147888184,0.8936951756477356,-1.5509856939315796
1710888597732078600,14.35507861328125,-0.5467239618301392,0.2309068888425827,-1.2177588939666748
1710888597751038000,14.374037841796875,-1.5531237125396729,-0.6801979541778564,-1.0757328271865845
1710888597769997600,14.39299755859375,-1.896124243736267,-1.796553373336792,-0.8298597931861877
1710888597788957000,14.41195703125,-1.0415244102478027,-3.746739149093628,-0.5962040424346924
1710888597807916300,14.430916259765626,-2.626718521118164,-6.240289211273193,-1.9257512092590332
1710888597826875600,14.449875732421875,-3.811490774154663,-6.105898857116699,-1.5671736001968384
1710888597845835000,14.4688349609375,-3.7140579223632812,-5.568032264709473,-0.9172134399414062
1710888597864794400,14.48779443359375,-2.794095516204834,-5.406153202056885,-1.7504329681396484
1710888597883753700,14.506753662109375,-1.647196888923645,-4.251924514770508,-2.4495677947998047
1710888597902713000,14.525713134765626,-1.2067633867263794,-4.214661598205566,-2.4764459133148193
1710888597921672400,14.54467236328125,-1.257465124130249,-4.099207878112793,-2.2119414806365967
1710888597940631800,14.5636318359375,-1.1701115369796753,-3.4278676509857178,-2.0244059562683105
1710888597959591200,14.582591064453124,-0.9407317638397217,-2.4825544357299805,-1.80357825756073
1710888597978550500,14.601550537109375,-0.8442151546478271,-1.5299108028411865,-1.4327833652496338
1710888597997510000,14.620510009765624,-0.9459241032600403,-0.6924152374267578,-0.9547816514968872
1710888598016469200,14.63946923828125,-1.0858120918273926,-0.05436696484684944,-0.4260781705379486
1710888598035428600,14.6584287109375,-1.1319323778152466,0.34727662801742554,-0.012217295356094837
1710888598054388000,14.677387939453125,-0.9853248596191406,0.6065887212753296,0.210442915558815
1710888598073347600,14.69634765625,-0.5396990180015564,0.9489784240722656,0.44318240880966187
1710888598092307000,14.715306884765624,0.08429934084415436,1.2605195045471191,0.898276686668396
1710888598111266300,14.734266357421875,0.5763509273529053,1.4883720874786377,1.4941751956939697
1710888598130225700,14.7532255859375,0.9721912741661072,1.774256706237793,2.026238441467285
1710888598149185000,14.77218505859375,1.433699607849121,2.127031087875366,2.310595989227295
1710888598168144400,14.791144287109375,2.4260494709014893,2.800204038619995,2.5213444232940674
1710888598187103700,14.810103759765624,4.046978950500488,3.864635944366455,3.6447246074676514
1710888598206063000,14.82906298828125,4.843241214752197,4.681972980499268,4.064694404602051
1710888598225022500,14.8480224609375,4.048506259918213,3.7846126556396484,3.7763659954071045
1710888598243981800,14.86698193359375,1.833205223083496,2.4517056941986084,3.1224353313446045
1710888598262941200,14.885941162109376,0.4572322964668274,3.047909736633301,3.249189853668213
1710888598281900500,14.904900634765625,0.9896009564399719,4.475195407867432,3.2565200328826904
1710888598300860000,14.92385986328125,1.6001602411270142,4.654789447784424,2.7064363956451416
1710888598319819300,14.9428193359375,1.3936879634857178,4.144412040710449,2.2278237342834473
1710888598338778600,14.961778564453125,0.8307760953903198,3.333183765411377,1.5641192197799683
1710888598357738000,14.980738037109376,0.35766133666038513,2.4324636459350586,0.7409789562225342
1710888598376697300,14.999697265625,0.023823726922273636,1.868024468421936,0.07544180005788803
1710888598395656700,15.01865673828125,-0.2052505612373352,1.5204424858093262,-0.3225366175174713
1710888598414616000,15.037615966796874,-0.34086254239082336,1.196073293685913,-0.6945532560348511
1710888598433575700,15.05657568359375,-0.2926042377948761,1.0210604667663574,-1.1084141731262207
1710888598452535000,15.07553515625,0.0021380267571657896,1.005788803100586,-1.6426154375076294
1710888598471494400,15.094494384765625,0.29962918162345886,0.8677334189414978,-2.148411512374878
1710888598490453800,15.113453857421876,0.02718348242342472,0.5186241865158081,-2.0250167846679688
1710888598509413000,15.1324130859375,-0.8219185471534729,-0.019853105768561363,-1.6563597917556763
1710888598528372500,15.15137255859375,-1.61085045337677,-1.0128138065338135,-1.4324779510498047
1710888598547331800,15.170331787109374,-1.630398154258728,-2.8157811164855957,-1.4144574403762817
1710888598566291200,15.189291259765625,-1.0748165845870972,-4.572933673858643,-1.721111536026001
1710888598585250600,15.20825048828125,-1.8924590349197388,-6.322755813598633,-2.327394723892212
1710888598604210000,15.2272099609375,-3.331045627593994,-6.953779220581055,-2.3005168437957764
1710888598623169300,15.246169189453125,-3.8609707355499268,-3.9803948402404785,-0.6343830823898315
1710888598642128600,15.265128662109374,-4.043313980102539,-3.856083869934082,-0.5244274139404297
1710888598661088000,15.284087890625,-3.1838271617889404,-3.3625051975250244,-1.7073670625686646
1710888598680047400,15.30304736328125,-2.115730047225952,-3.587608814239502,-2.2006404399871826
1710888598699006700,15.3220068359375,-1.416900873184204,-4.191754341125488,-2.047924280166626
1710888598717966000,15.340966064453125,-0.9728021621704102,-4.348746299743652,-1.8585560321807861
1710888598736925400,15.359925537109374,-0.49541133642196655,-3.689012289047241,-1.7473787069320679
1710888598755884800,15.378884765625,-0.34147340059280396,-2.964832305908203,-1.6099340915679932
1710888598774844200,15.39784423828125,-0.5051851868629456,-2.22690749168396,-1.4407246112823486
1710888598793803500,15.416803466796875,-0.7870992422103882,-1.4566071033477783,-1.2189806699752808
1710888598812763000,15.435762939453125,-0.998153030872345,-0.8466585874557495,-0.9673043489456177
1710888598831722200,15.45472216796875,-1.0751219987869263,-0.46944957971572876,-0.7055488228797913
1710888598850681600,15.473681640625,-0.980743408203125,-0.1591302752494812,-0.46608981490135193
1710888598869641000,15.492640869140626,-0.6927206516265869,0.2009745091199875,-0.21930044889450073
1710888598888600300,15.511600341796875,-0.2712239623069763,0.5702422857284546,0.18692462146282196
1710888598907559700,15.5305595703125,0.13988803327083588,0.8219185471534729,0.8020654320716858
1710888598926519000,15.54951904296875,0.4098902642726898,1.0809252262115479,1.4471386671066284
1710888598945478400,15.568478515625,0.6368265151977539,1.4508038759231567,1.9477423429489136
1710888598964437800,15.587437744140624,1.2605195045471191,1.9401065111160278,2.2027783393859863
1710888598983397000,15.606397216796875,2.7989823818206787,2.7620251178741455,3.196960926055908
1710888599002356500,15.6253564453125,4.432129383087158,3.7421576976776123,4.0136871337890625
1710888599021315800,15.64431591796875,4.200000762939453,3.4941465854644775,3.24399733543396
1710888599040275200,15.663275146484375,1.005788803100586,1.7782273292541504,2.7253732681274414
1710888599059234300,15.682234375,-0.915686309337616,2.640157461166382,3.1957390308380127
1710888599078194000,15.70119384765625,0.043371398001909256,5.008480548858643,3.2797329425811768
1710888599097153300,15.7201533203125,1.2614357471466064,5.887820243835449,2.528980255126953
1710888599116112600,15.739112548828125,1.4489712715148926,5.247633934020996,1.4315615892410278
1710888599135071700,15.75807177734375,0.9523382186889648,4.174649715423584,0.5033525824546814
1710888599154031000,15.777031005859374,0.43340855836868286,3.3011133670806885,-0.19853104650974274
1710888599172990500,15.795990478515625,0.08918625861406326,2.607170820236206,-0.6881392002105713
1710888599191949800,15.81494970703125,-0.07116574794054031,1.8380920886993408,-1.0937533378601074
1710888599210909400,15.833909423828125,-0.016798781231045723,1.1249074935913086,-1.4749330282211304
1710888599229868500,15.85286865234375,0.2159406989812851,0.5946768522262573,-1.8307617902755737
1710888599248828000,15.871827880859374,0.6667588949203491,0.4834994673728943,-2.1951425075531006
1710888599267787300,15.890787353515625,0.8368847370147705,0.5583304166793823,-2.319453477859497
1710888599286746600,15.90974658203125,0.08796452730894089,0.11484257876873016,-1.9886702299118042
1710888599305706000,15.9287060546875,-1.1774418354034424,-0.8552106618881226,-1.7495167255401611
1710888599324665300,15.947665283203126,-2.2623376846313477,-1.8548909425735474,-1.785252332687378
1710888599343624700,15.966624755859375,-2.6505422592163086,-2.8881685733795166,-1.9587379693984985
1710888599362584000,15.985583984375,-2.279747247695923,-4.324617385864258,-1.859777808189392
1710888599381543400,16.00454345703125,-1.7064508199691772,-5.731744289398193,-1.5198315382003784
1710888599400502800,16.023502685546877,-2.438877582550049,-6.3691816329956055,-1.14017915725708
1710888599419462100,16.042462158203126,-3.05126953125,-5.346288681030273,-0.5018253922462463
1710888599438421500,16.06142138671875,-2.5134031772613525,-4.019184589385986,-0.7168498039245605
1710888599457380900,16.080380859375,-2.1160356998443604,-3.576307773590088,-1.4257583618164062
1710888599476340200,16.09934033203125,-1.8539745807647705,-3.567755699157715,-1.5888593196868896
1710888599495299600,16.118299560546873,-1.5250239372253418,-3.595855474472046,-1.4504984617233276
1710888599514258700,16.1372587890625,-1.275485634803772,-3.2760677337646484,-1.37078058719635
1710888599533218000,16.156218017578126,-1.092531681060791,-2.575711250305176,-1.2580760717391968
1710888599552177700,16.175177734375,-1.007010579109192,-1.8017456531524658,-1.0781763792037964
1710888599571137000,16.194136962890624,-1.0222822427749634,-1.0735948085784912,-0.8799507021903992
1710888599590096100,16.21309619140625,-1.092226266860962,-0.48960810899734497,-0.6716458201408386
1710888599609055500,16.232055419921874,-1.1969895362854004,-0.10445787757635117,-0.43310311436653137
1710888599628014800,16.251014892578127,-1.2638791799545288,0.1380554437637329,-0.2406807243824005
1710888599646974200,16.26997412109375,-1.176525592803955,0.3283398151397705,-0.17318016290664673
1710888599665933600,16.28893359375,-0.8918625712394714,0.5900954008102417,-0.13775001466274261
1710888599684893000,16.307892822265625,-0.4667007029056549,0.9483675956726074,0.09040798991918564
1710888599703852300,16.326852294921874,-0.13225223124027252,1.360701322555542,0.6218603253364563
1710888599722811600,16.345811767578127,0.08002328872680664,1.7495167255401611,1.2760965824127197
1710888599741771000,16.36477099609375,0.3179551064968109,2.2177445888519287,1.8243476152420044
1710888599760730400,16.38373046875,0.9978476166725159,2.864344835281372,2.1612396240234375
1710888599779689700,16.402689697265625,2.5463898181915283,3.660607099533081,2.947727918624878
1710888599798649000,16.421649169921874,4.146244525909424,4.660287380218506,4.231460094451904
1710888599817608400,16.4406083984375,4.339277744293213,4.553691387176514,4.129446029663086
1710888599836567800,16.45956787109375,2.430936336517334,3.7455174922943115,3.384190797805786
1710888599855527200,16.478527099609376,0.38850998878479004,4.511236190795898,3.413817882537842
1710888599874486500,16.497486572265625,0.3124573230743408,5.401571750640869,3.0998332500457764
1710888599893446000,16.51644580078125,0.676227331161499,5.342623233795166,2.3982551097869873
1710888599912405200,16.5354052734375,0.7437278628349304,4.695106506347656,1.415373682975769
1710888599931364600,16.554364501953124,0.6175842881202698,3.451385974884033,0.5684096813201904
1710888599950324000,16.573323974609377,0.43310311436653137,2.3295328617095947,0.009162971749901772
1710888599969283300,16.592283447265626,0.3026835024356842,1.3393210172653198,-0.5054906010627747
1710888599988242700,16.61124267578125,0.24740023910999298,0.5122101306915283,-1.0421353578567505
1710888600007202000,16.6302021484375,0.32039856910705566,0.250149130821228,-1.5125012397766113
1710888600026161400,16.649161376953124,0.4987711012363434,0.5375609993934631,-1.8487823009490967
1710888600045120800,16.668120849609377,0.8100066781044006,1.135903000831604,-2.1832306385040283
1710888600064080100,16.687080078125,0.9621120095252991,1.5192207098007202,-2.4297146797180176
1710888600083039500,16.70603955078125,0.32039856910705566,1.1801908016204834,-2.151771068572998
1710888600101998800,16.724998779296875,-0.7192932963371277,0.29535311460494995,-1.758679747581482
1710888600120958200,16.743958251953124,-1.5741984844207764,-0.9080504775047302,-1.518609881401062
1710888600139917600,16.76291748046875,-1.8823797702789307,-2.536616086959839,-1.4422518014907837
1710888600158877000,16.781876953125,-1.950491189956665,-4.120588302612305,-1.4639374017715454
1710888600177836300,16.800836181640626,-2.059225082397461,-5.504807949066162,-1.51616632938385
1710888600196795600,16.819795654296875,-2.7705771923065186,-5.6538591384887695,-1.4031563997268677
1710888600215755000,16.838755126953124,-3.4348926544189453,-3.6172358989715576,-0.3503309488296509
1710888600234714400,16.85771435546875,-3.595550060272217,-3.56286883354187,-0.5861247777938843
1710888600253673700,16.876673828125,-2.7873759269714355,-2.9074108600616455,-1.2721259593963623
1710888600272633000,16.895633056640627,-1.758679747581482,-3.0017895698547363,-1.528383731842041
1710888600291592400,16.914592529296876,-1.1316269636154175,-3.5075855255126953,-1.5039490461349487
1710888600310551800,16.9335517578125,-0.712573766708374,-3.4742934703826904,-1.3781108856201172
1710888600329511200,16.95251123046875,-0.5057960152626038,-3.0112578868865967,-1.2764019966125488
1710888600348470500,16.971470458984374,-0.545502245426178,-2.2947134971618652,-1.1701115369796753
1710888600367430000,16.990429931640627,-0.7376192212104797,-1.515555500984192,-1.0375537872314453
1710888600386389200,17.00938916015625,-0.9932661056518555,-0.850018322467804,-0.8756746649742126
1710888600405348600,17.0283486328125,-1.2156208753585815,-0.3970620930194855,-0.7079922556877136
1710888600424308000,17.047307861328125,-1.2800670862197876,-0.2202167510986328,-0.5998691916465759
1710888600443267300,17.066267333984374,-1.1340705156326294,-0.2513708472251892,-0.5855138897895813
1710888600462227000,17.08522705078125,-0.776714563369751,-0.1701258420944214,-0.518318772315979
1710888600481186300,17.104186279296876,-0.28405213356018066,0.15515965223312378,-0.1331685185432434
1710888600500145700,17.123145751953125,0.1844811588525772,0.5827649831771851,0.5784889459609985
1710888600519105000,17.14210498046875,0.5458076596260071,1.1053597927093506,1.368947982788086
1710888600538064400,17.161064453125,0.8988875150680542,1.7431026697158813,1.9834779500961304
1710888600557023700,17.180023681640623,1.5164718627929688,2.4407103061676025,2.374736785888672
1710888600575983000,17.198983154296876,2.911992311477661,3.2375833988189697,3.5674502849578857
1710888600594942500,17.2179423828125,4.494132041931152,4.2653632164001465,5.269930362701416
1710888600613901800,17.23690185546875,4.977020740509033,4.282773017883301,4.367072105407715
1710888600632861200,17.255861083984374,2.5381431579589844,1.804800033569336,2.797149896621704
1710888600651820500,17.274820556640623,0.013439024798572063,1.489593744277954,2.906494617462158
1710888600670780000,17.29377978515625,0.3075704276561737,3.785834550857544,3.252243995666504
1710888600689739300,17.3127392578125,1.1646137237548828,4.989238262176514,2.872897148132324
1710888600708698600,17.33169873046875,1.2205078601837158,5.065596103668213,2.260199785232544
1710888600727658000,17.350657958984375,0.6866120100021362,4.454120635986328,1.6197079420089722
1710888600746617300,17.369617431640624,0.19425499439239502,3.4242024421691895,0.8090903759002686
1710888600765576700,17.38857666015625,-0.06566796451807022,2.5298964977264404,0.003970621153712273
1710888600784536000,17.4075361328125,-0.11972949653863907,1.8087706565856934,-0.5503891706466675
1710888600803495700,17.42649560546875,0.0409279391169548,1.2886192798614502,-0.9553925395011902
1710888600822455000,17.445455078125,0.3090975880622864,0.9492838382720947,-1.3469568490982056
1710888600841414400,17.464414306640624,0.5748237371444702,0.8561269640922546,-1.8005239963531494
1710888600860373800,17.483373779296876,0.5390881896018982,0.8918625712394714,-2.0082180500030518
1710888600879333000,17.5023330078125,-0.09957095980644226,0.5030471682548523,-1.8264856338500977
1710888600898292500,17.52129248046875,-1.0467168092727661,-0.19944734871387482,-1.6242893934249878
1710888600917251800,17.540251953125,-1.9214751720428467,-0.9932661056518555,-1.5851941108703613
1710888600936211200,17.559211181640624,-2.3283112049102783,-2.1227550506591797,-1.7861685752868652
1710888600955170600,17.578170654296876,-1.7540981769561768,-3.5998260974884033,-1.848171353340149
1710888600974130200,17.597130126953125,-1.2498292922973633,-5.32521390914917,-2.0186026096343994
1710888600993089500,17.616089599609374,-2.2220206260681152,-6.093681812286377,-2.159406900405884
1710888601012049000,17.635048828125,-2.47308611869812,-5.123017311096191,-1.6331470012664795
1710888601031008300,17.65400830078125,-2.1578798294067383,-4.329809665679932,-1.8359540700912476
1710888601049967600,17.672967529296876,-1.767231822013855,-3.5640904903411865,-2.4630067348480225
1710888601068927000,17.691927001953125,-1.5693116188049316,-3.0531022548675537,-2.4773621559143066
1710888601087886600,17.710886474609374,-1.5955787897109985,-3.3851072788238525,-2.265697479248047
1710888601106846000,17.729845947265623,-1.583056092262268,-3.264155864715576,-2.0854923725128174
1710888601125805300,17.748805419921876,-1.5012001991271973,-2.562577724456787,-1.8515311479568481
1710888601144764700,17.7677646484375,-1.4902045726776123,-1.7895283699035645,-1.5561779737472534
1710888601163724000,17.78672412109375,-1.6160427331924438,-1.1869102716445923,-1.239444613456726
1710888601182683400,17.805683349609374,-1.7956370115280151,-0.8258891701698303,-0.8863648176193237
1710888601201642800,17.824642822265623,-1.9181153774261475,-0.7122683525085449,-0.47952884435653687
1710888601220602000,17.84360205078125,-1.9080361127853394,-0.7623592615127563,-0.07116574794054031
1710888601239561700,17.862561767578125,-1.711643099784851,-0.8405499458312988,0.1902843713760376
1710888601258521000,17.88152099609375,-1.3045017719268799,-0.713184654712677,0.29596397280693054
1710888601277480400,17.90048046875,-0.7388409376144409,-0.21227550506591797,0.4514290690422058
1710888601296440000,17.919440185546875,-0.18845178186893463,0.4838049113750458,0.8924734592437744
1710888601315399400,17.9383994140625,0.20341797173023224,1.1808016300201416,1.4920371770858765
1710888601334358800,17.95735888671875,0.5671879649162292,1.8741331100463867,2.0473132133483887
1710888601353318100,17.976318115234374,1.0564906597137451,2.587623119354248,2.403141975402832
1710888601372277500,17.995277587890627,2.202167510986328,3.3463172912597656,2.755000114440918
1710888601391236900,18.01423681640625,4.148688316345215,4.365850448608398,4.357604026794434
1710888601410196200,18.0331962890625,5.065901756286621,5.42661714553833,4.5863728523254395
1710888601429155800,18.05215576171875,3.2980589866638184,4.063167095184326,3.4098472595214844
1710888601448115200,18.071115234375,0.025961752980947495,2.8368561267852783,3.045466423034668
1710888601467074600,18.090074462890627,-0.37323838472366333,4.584540367126465,3.182605504989624
1710888601486034000,18.109033935546876,0.6267472505569458,5.52741003036499,3.042717456817627
1710888601504993300,18.1279931640625,1.1939351558685303,5.322464942932129,2.4471242427825928
1710888601523953000,18.146952880859374,1.0610721111297607,4.311789035797119,1.6084070205688477
1710888601542912300,18.165912353515626,0.702799916267395,3.126711368560791,0.8295543789863586
1710888601561871600,18.18487158203125,0.4272999167442322,2.177122116088867,0.21258094906806946
1710888601580831000,18.2038310546875,0.24923282861709595,1.472489595413208,-0.27580544352531433
1710888601599790300,18.222790283203125,0.09651663154363632,0.9440914988517761,-0.6954695582389832
1710888601618750000,18.24175,-0.03176496922969818,0.8875865340232849,-1.0739002227783203
1710888601637709300,18.260709228515626,-0.09010255336761475,1.1499528884887695,-1.3652827739715576
1710888601656668700,18.279668701171875,0.2211330533027649,1.7009530067443848,-1.76570463180542
1710888601675628300,18.298628173828124,0.6246092319488525,2.1001532077789307,-2.0445644855499268
1710888601694587600,18.317587646484377,0.16035200655460358,1.6334524154663086,-1.6056580543518066
1710888601713547000,18.336547119140626,-0.8066469430923462,0.3851502537727356,-1.155450701713562
1710888601732506400,18.35550634765625,-1.6264275312423706,-1.296255111694336,-1.0519092082977295
1710888601751466000,18.374466064453124,-1.554650902748108,-3.2614071369171143,-1.1142174005508423
1710888601770425300,18.39342529296875,-1.0372483730316162,-5.122101306915283,-1.2388337850570679
1710888601789384700,18.412384765625,-1.8002184629440308,-6.410720348358154,-1.6786564588546753
1710888601808344000,18.431343994140626,-2.7427828311920166,-5.836202144622803,-1.1701115369796753
1710888601827303700,18.4503037109375,-3.039663076400757,-5.049713611602783,-0.5702422857284546
1710888601846263000,18.469262939453124,-2.4327690601348877,-4.712821960449219,-1.4666863679885864
1710888601865222400,18.488222412109376,-1.5613703727722168,-3.9348855018615723,-2.1899502277374268
1710888601884181800,18.507181640625,-1.2913681268692017,-3.9446592330932617,-2.160017967224121
1710888601903141400,18.526141357421874,-1.3420698642730713,-3.9159486293792725,-1.869551658630371
1710888601922100700,18.545100830078123,-1.2516618967056274,-3.554622173309326,-1.6694934368133545
1710888601941060000,18.56406005859375,-1.083979606628418,-2.8735079765319824,-1.344208002090454
1710888601960019500,18.58301953125,-1.0491602420806885,-2.0635011196136475,-0.94439697265625
1710888601978978800,18.601978759765625,-1.1365139484405518,-1.3289363384246826,-0.5668824911117554
1710888601997938400,18.6209384765625,-1.2202024459838867,-0.7822123765945435,-0.2730565667152405
1710888602016897800,18.639897705078123,-1.2061525583267212,-0.42943793535232544,-0.10659590363502502
1710888602035857200,18.658857177734376,-1.054658055305481,-0.2684750556945801,-0.0824667438864708
1710888602054816500,18.67781640625,-0.794124186038971,-0.23732095956802368,-0.13927717506885529
1710888602073776000,18.696776123046874,-0.4508182108402252,-0.1389717310667038,-0.06261363625526428
1710888602092735500,18.715735595703126,-0.07757982611656189,0.06017018109560013,0.3503309488296509
1710888602111694800,18.73469482421875,0.2257145345211029,0.3066541254520416,1.081536054611206
1710888602130654200,18.753654296875,0.4508182108402252,0.6765327453613281,1.8719950914382935
1710888602149613800,18.77261376953125,0.7504473924636841,1.1441497802734375,2.332892656326294
1710888602168573200,18.7915732421875,1.5894701480865479,1.840230107307434,2.324340581893921
1710888602187532500,18.810532470703127,3.294699192047119,3.1199917793273926,3.330129384994507
1710888602206492000,18.829491943359375,3.8515024185180664,4.502073287963867,3.8267624378204346
1710888602225451500,18.848451416015624,2.1444408893585205,3.5387396812438965,2.966970205307007
1710888602244411000,18.867410888671873,-0.25411975383758545,3.327991247177124,2.8203625679016113
1710888602263370200,18.886370361328126,-0.5418370366096497,5.416843414306641,3.014617681503296
1710888602282329900,18.905329833984375,0.4987711012363434,6.637351036071777,2.7598869800567627
1710888602301289200,18.924289306640624,1.1536180973052979,6.23204231262207,2.145662546157837
1710888602320248600,18.94324853515625,1.0305289030075073,4.650513648986816,1.4633265733718872
1710888602339208200,18.962208251953125,0.6325504779815674,2.981936454772949,0.7174606919288635
1710888602358167600,18.98116748046875,0.3084867000579834,1.7220277786254883,-0.03298669680953026
1710888602377127000,19.000126953125,0.07055488228797913,0.9251546859741211,-0.5626064538955688
1710888602396086300,19.019086181640624,-0.05711585655808449,0.5137372612953186,-0.9740238785743713
1710888602415046000,19.0380458984375,-0.02260199747979641,0.674700140953064,-1.3332123756408691
1710888602434005200,19.057005126953126,0.22327107191085815,1.2776236534118652,-1.6688826084136963
1710888602452964600,19.075964599609375,0.6426297426223755,1.9953898191452026,-2.162461280822754
1710888602471924000,19.094924072265623,0.5983420610427856,2.160017967224121,-2.1948370933532715
1710888602490883600,19.113883544921876,-0.2816086709499359,1.2565488815307617,-1.7705916166305542
1710888602509843000,19.132843017578125,-1.2632683515548706,-0.34666576981544495,-1.749211311340332
1710888602528802300,19.15180224609375,-2.000887632369995,-2.1108431816101074,-1.9028438329696655
1710888602547761700,19.17076171875,-1.8768820762634277,-3.9852817058563232,-2.1197006702423096
1710888602566721300,19.18972119140625,-1.0341941118240356,-5.453495502471924,-2.2400412559509277
1710888602585680600,19.2086806640625,-1.2318087816238403,-6.4195780754089355,-2.710712432861328
1710888602604640000,19.227639892578125,-2.2925755977630615,-5.855138778686523,-2.095877170562744
1710888602623599400,19.246599365234374,-2.7287330627441406,-4.134332656860352,-1.0821470022201538
1710888602642559000,19.26555908203125,-2.735757827758789,-3.5054476261138916,-1.377500057220459
1710888602661518300,19.284518310546876,-2.3628249168395996,-2.735146999359131,-1.813352108001709
1710888602680477700,19.303477783203125,-2.1468842029571533,-3.0219480991363525,-1.8099923133850098
1710888602699437000,19.32243701171875,-2.0152428150177,-3.416872262954712,-1.6249003410339355
1710888602718396700,19.341396728515626,-1.7718132734298706,-3.176802396774292,-1.507308840751648
1710888602737356000,19.36035595703125,-1.5277727842330933,-2.35305118560791,-1.3332123756408691
1710888602756315400,19.3793154296875,-1.5042544603347778,-1.416900873184204,-1.0384701490402222
1710888602775274800,19.398274658203125,-1.638644814491272,-0.6185005903244019,-0.6682860851287842
1710888602794234400,19.417234375,-1.7550145387649536,-0.05100720748305321,-0.25473061203956604
1710888602813193700,19.43619384765625,-1.6887357234954834,0.3127627670764923,0.07513637095689774
1710888602832153000,19.455153076171875,-1.3170244693756104,0.6145299673080444,0.21899501979351044
1710888602851112400,19.474112548828124,-0.6704241037368774,0.9776890873908997,0.3231474757194519
1710888602870071800,19.49307177734375,0.06444623321294785,1.3616175651550293,0.6328558921813965
1710888602889031400,19.512031494140626,0.6453786492347717,1.6450588703155518,1.130405306816101
1710888602907990800,19.53099072265625,1.120631456375122,1.898873209953308,1.676518440246582
1710888602926950100,19.5499501953125,1.6377284526824951,2.235459566116333,2.1609342098236084
1710888602945909500,19.568909423828124,2.360381603240967,2.575711250305176,2.329838275909424
1710888602964869000,19.587869140625,3.747044563293457,3.258047342300415,2.7626359462738037
1710888602983828500,19.606828369140626,5.21464729309082,4.316065311431885,4.3353071212768555
1710888603002787800,19.625787841796875,4.674337387084961,4.233903884887695,4.581180572509766
1710888603021747500,19.64474755859375,2.799898624420166,2.339001178741455,4.070802688598633
1710888603040706800,19.663706787109376,1.1533126831054688,2.1364996433258057,3.3399031162261963
1710888603059666200,19.682666259765625,0.8374956250190735,3.4406957626342773,3.1080799102783203
1710888603078625500,19.70162548828125,1.0983349084854126,4.456258773803711,2.7058255672454834
1710888603097585000,19.7205849609375,1.0653481483459473,4.561938285827637,2.4764459133148193
1710888603116544500,19.73954443359375,0.6924152374267578,4.344775676727295,2.258061647415161
1710888603135504000,19.75850390625,0.25900667905807495,3.573253631591797,1.5922189950942993
1710888603154463200,19.777463134765625,-0.23212862014770508,2.8707590103149414,0.7855721116065979
1710888603173422600,19.796422607421874,-0.7278453707695007,2.3704607486724854,0.014660755172371864
1710888603192382000,19.8153818359375,-1.0314451456069946,1.802356481552124,-0.7745765447616577
1710888603211341600,19.834341552734376,-1.028085470199585,0.9352339506149292,-1.461188554763794
1710888603230301000,19.853301025390625,-0.555276095867157,0.07299833744764328,-2.1245877742767334
1710888603249260300,19.87226025390625,-0.17623448371887207,-0.6496546864509583,-2.4287984371185303
1710888603268219600,19.8912197265625,-0.7235693335533142,-1.4291181564331055,-2.2537856101989746
1710888603287179000,19.910178955078123,-1.5723659992218018,-2.255618095397949,-2.120311737060547
1710888603306138600,19.929138671875,-2.193310022354126,-2.947422504425049,-2.0610578060150146
1710888603325098000,19.948097900390625,-2.1056509017944336,-3.671602725982666,-2.084270715713501
1710888603344057300,19.967057373046874,-0.7617483735084534,-4.337445259094238,-2.204000234603882
1710888603363016700,19.9860166015625,-0.2977965772151947,-5.285507678985596,-2.967581033706665
1710888603381976000,20.00497607421875,-1.7977750301361084,-6.097346782684326,-2.990183115005493
1710888603400935700,20.023935791015624,-3.29133939743042,-5.419592380523682,-1.8185445070266724
1710888603419895000,20.04289501953125,-3.6789331436157227,-4.860345840454102,-0.9569196701049805
1710888603438854400,20.0618544921875,-2.944979190826416,-3.9803948402404785,-1.3109158277511597
1710888603457813800,20.080813720703127,-1.8936808109283447,-3.1838271617889404,-1.7134757041931152
1710888603476773400,20.0997734375,-1.5610649585723877,-3.1117451190948486,-1.746156930923462
1710888603495732700,20.118732666015624,-1.6001602411270142,-3.210094451904297,-1.6355904340744019
1710888603514692000,20.137692138671873,-1.535408616065979,-2.8869469165802,-1.471267819404602
1710888603533651500,20.1566513671875,-1.3744457960128784,-2.1673481464385986,-1.1505638360977173
1710888603552610800,20.17561083984375,-1.2479966878890991,-1.314581036567688,-0.7437278628349304
1710888603571570200,20.194570068359376,-1.193018913269043,-0.5149590373039246,-0.33047783374786377
1710888603590529500,20.213529541015625,-1.1856884956359863,0.18234314024448395,0.08552107214927673
1710888603609489200,20.2324892578125,-1.063515543937683,0.7538071274757385,0.406530499458313
1710888603628448500,20.251448486328126,-0.7128791809082031,1.1527018547058105,0.5705476999282837
1710888603647407900,20.270407958984375,-0.12125665694475174,1.4190388917922974,0.6618719696998596
1710888603666367200,20.2893671875,0.5439751148223877,1.7235549688339233,0.8964440822601318
1710888603685326600,20.30832666015625,1.1136064529418945,2.08152174949646,1.2730422019958496
1710888603704286200,20.3272861328125,1.684765100479126,2.307541608810425,1.59832763671875
1710888603723245600,20.34624560546875,2.562883138656616,2.4636175632476807,1.6685771942138672
1710888603742205000,20.365204833984375,4.10653829574585,2.9834635257720947,2.1841471195220947
1710888603761164300,20.384164306640624,5.491979598999023,3.6618289947509766,3.1706936359405518
1710888603780123600,20.40312353515625,5.176468372344971,3.422369956970215,2.7867650985717773
1710888603799083000,20.4220830078125,3.248884439468384,1.933387041091919,2.310290575027466
1710888603818042400,20.44104248046875,1.1459823846817017,1.351232886314392,2.241262912750244
1710888603837002000,20.460001953125,0.8475748896598816,2.4568982124328613,2.536616086959839
1710888603855961300,20.47896142578125,1.4773764610290527,3.7843072414398193,2.5854852199554443
1710888603874920700,20.497920654296873,1.7724241018295288,4.054004192352295,2.2672245502471924
1710888603893880000,20.516880126953126,1.3915499448776245,3.7452120780944824,1.8417572975158691
1710888603912839400,20.53583935546875,0.7330377101898193,3.380525588989258,1.4257583618164062
1710888603931798800,20.554798828125,0.057726722210645676,3.185049057006836,1.0177006721496582
1710888603950758400,20.57375830078125,-0.4010327160358429,3.341125011444092,0.7654135823249817
1710888603969717800,20.5927177734375,-0.6795870661735535,3.4574947357177734,0.5656607747077942
1710888603988677000,20.611677001953126,-0.8497129082679749,3.1279330253601074,0.14233149588108063
1710888604007636500,20.630636474609375,-0.6243038177490234,2.2177445888519287,-1.0067051649093628
1710888604026595800,20.649595947265624,-0.11331541836261749,1.265711784362793,-2.0039420127868652
1710888604045555200,20.66855517578125,-0.6133082509040833,0.0204639695584774,-1.9077306985855103
1710888604064514600,20.6875146484375,-1.5625921487808228,-1.518609881401062,-1.7241657972335815
1710888604083474000,20.706473876953126,-2.2806637287139893,-2.7415611743927,-1.6801835298538208
1710888604102433300,20.725433349609375,-2.115119218826294,-3.813628911972046,-1.895818829536438
1710888604121392600,20.744392578125,-1.0491602420806885,-4.985572814941406,-2.1832306385040283
1710888604140352300,20.763352294921877,-1.63620126247406,-6.091848850250244,-2.6984951496124268
1710888604159311600,20.7823115234375,-3.2730135917663574,-5.553371906280518,-1.9694280624389648
1710888604178271000,20.80127099609375,-3.718639373779297,-4.1590728759765625,-0.8845322132110596
1710888604197230300,20.820230224609375,-3.176802396774292,-3.3069164752960205,-1.2877029180526733
1710888604216189700,20.839189697265624,-2.235764980316162,-2.766606569290161,-1.9639302492141724
1710888604235149000,20.858149169921877,-1.7189735174179077,-3.374722480773926,-2.1923937797546387
1710888604254108400,20.8771083984375,-1.4523310661315918,-3.660301685333252,-2.0415101051330566
1710888604273067800,20.89606787109375,-1.1444551944732666,-3.2006258964538574,-1.8646647930145264
1710888604292027400,20.91502734375,-0.8891136646270752,-2.4932446479797363,-1.5974113941192627
1710888604310986800,20.93398681640625,-0.8600975871086121,-1.784030556678772,-1.2266165018081665
1710888604329946000,20.952946044921877,-1.0332777500152588,-1.14017915725708,-0.8387173414230347
1710888604348905500,20.971905517578126,-1.2516618967056274,-0.6444623470306396,-0.4471530318260193
1710888604367864800,20.99086474609375,-1.3720022439956665,-0.3231474757194519,-0.09590577334165573
1710888604386824200,21.00982421875,-1.2892301082611084,-0.01588248461484909,0.1490510106086731
1710888604405783600,21.028783447265624,-0.9352339506149292,0.35277441143989563,0.24251331388950348
1710888604424743200,21.0477431640625,-0.3243691921234131,0.7984002828598022,0.3390299379825592
1710888604443702500,21.06670263671875,0.3640754222869873,1.1429280042648315,0.6667588949203491
1710888604462662000,21.085661865234375,0.897665798664093,1.3429862260818481,1.2037090063095093
1710888604481621200,21.104621337890624,1.3518437147140503,1.5192207098007202,1.8435899019241333
1710888604500580600,21.12358056640625,1.894291639328003,1.6328415870666504,2.3768749237060547
1710888604519540000,21.1425400390625,2.9724678993225098,1.8380920886993408,2.7928738594055176
1710888604538499300,21.161499267578126,4.731452941894531,2.51737380027771,4.069581031799316
1710888604557458700,21.180458740234375,5.146841049194336,2.838383197784424,4.347524642944336
1710888604576418000,21.19941796875,3.0137014389038086,1.283732295036316,3.6138761043548584
1710888604595377700,21.218377685546876,0.26419901847839355,1.349705696105957,3.2782058715820312
1710888604614337000,21.2373369140625,-0.04917461425065994,4.06225061416626,3.467573881149292
1710888604633296400,21.25629638671875,0.9810488224029541,5.925999164581299,3.2681264877319336
1710888604652255700,21.275255859375,1.5992439985275269,5.964788913726807,2.740644931793213
1710888604671215000,21.294215087890624,1.4847068786621094,5.220144748687744,2.067777395248413
1710888604690174500,21.313174560546877,0.9266818761825562,3.987114429473877,1.3924663066864014
1710888604709133800,21.3321337890625,0.39339691400527954,2.8005096912384033,0.6466003656387329
1710888604728093200,21.35109326171875,0.000305432389723137,1.8368704319000244,-0.08826996386051178
1710888604747052500,21.370052490234375,-0.27519458532333374,1.1114684343338013,-0.6637045741081238
1710888604766012000,21.389011962890624,-0.43401941657066345,0.6997455954551697,-1.0543526411056519
1710888604784971500,21.407971435546877,-0.3955349326133728,0.6783653497695923,-1.3319905996322632
1710888604803931000,21.426930908203126,-0.1081230640411377,1.109330415725708,-1.6184862852096558
1710888604822890200,21.44589013671875,0.11728604137897491,1.6187916994094849,-1.852752923965454
1710888604841849600,21.464849609375,-0.3552178740501404,1.4483604431152344,-1.5528182983398438
1710888604860809000,21.48380908203125,-1.3576469421386719,0.9636391997337341,-0.630107045173645
1710888604879768600,21.5027685546875,-2.2262966632843018,0.45967575907707214,0.34605491161346436
1710888604898728000,21.52172802734375,-2.3228132724761963,-0.7571669220924377,0.29596397280693054
1710888604917687300,21.540687255859375,-1.545182466506958,-2.8481569290161133,-0.050090912729501724
1710888604936646700,21.559646728515624,-1.469435214996338,-5.305665969848633,-0.2706131041049957
1710888604955606000,21.57860595703125,-3.045161008834839,-6.1120076179504395,0.003665188793092966
1710888604974565400,21.5975654296875,-3.8820457458496094,-5.473348617553711,0.3750709891319275
1710888604993524700,21.616524658203126,-3.181994676589966,-5.098277568817139,-1.5396846532821655
1710888605012484000,21.635484130859375,-1.7989968061447144,-3.6975646018981934,-2.947422504425049
1710888605031443700,21.654443603515624,-0.9321796298027039,-3.5530951023101807,-2.7956225872039795
1710888605050403000,21.673403076171876,-0.4731147587299347,-3.858222007751465,-2.3625195026397705
1710888605069362400,21.692362548828125,-0.42424559593200684,-4.063167095184326,-1.9837833642959595
1710888605088321800,21.71132177734375,-0.5812378525733948,-3.7620108127593994,-1.5848886966705322
1710888605107281400,21.730281494140623,-0.7776308655738831,-3.176802396774292,-1.2153154611587524
1710888605126240800,21.74924072265625,-0.8933897614479065,-2.573573350906372,-0.8634573817253113
1710888605145200000,21.7682001953125,-0.9269872903823853,-1.8225150108337402,-0.5308414697647095
1710888605164159500,21.787159423828125,-0.9382883310317993,-0.9954041838645935,-0.28985533118247986
1710888605183118800,21.806118896484374,-0.9352339506149292,-0.2629773020744324,-0.16859868168830872
1710888605202078200,21.825078125,-0.8775072693824768,0.34636032581329346,-0.08093958348035812
1710888605221037600,21.84403759765625,-0.6908880472183228,0.84177166223526,0.17562362551689148
1710888605239997200,21.8629970703125,-0.34727662801742554,1.1643083095550537,0.6685914993286133
1710888605258956500,21.88195654296875,0.05283980444073677,1.4214823246002197,1.3335177898406982
1710888605277916000,21.900916015625,0.46944957971572876,1.777311086654663,2.0299036502838135
1710888605296875300,21.919875244140623,0.9706641435623169,2.0586142539978027,2.4749186038970947
1710888605315834600,21.938834716796876,2.0051636695861816,2.508516311645508,2.827387571334839
1710888605334794000,21.9577939453125,3.898233652114868,3.8124070167541504,4.124558925628662
1710888605353753600,21.976753662109374,3.838979721069336,4.442208766937256,3.9183921813964844
1710888605372713000,21.995712890625,1.3988803625106812,2.744310140609741,3.4684901237487793
1710888605391672300,22.01467236328125,-0.3039052188396454,2.604422092437744,2.998429775238037
1710888605410632000,22.0336318359375,-0.3182605504989624,4.492299556732178,2.9996514320373535
1710888605429591300,22.05259130859375,0.25411975383758545,5.550317287445068,2.85854172706604
1710888605448550700,22.071550537109374,0.6273581385612488,5.669435977935791,2.1728460788726807
1710888605467510000,22.090510009765627,0.7159335017204285,4.524370193481445,1.3374884128570557
1710888605486469600,22.1094697265625,0.4224129915237427,2.8658721446990967,0.6484329700469971
1710888605505429000,22.128428955078125,0.2254091054201126,1.6438370943069458,-0.053145237267017365
1710888605524388400,22.147388427734374,0.1490510106086731,0.8084795475006104,-0.6169734001159668
1710888605543347700,22.16634765625,-0.0015271619195118546,0.17165300250053406,-1.1392627954483032
1710888605562307000,22.18530712890625,-0.11514800786972046,0.4370737373828888,-1.5848886966705322
1710888605581266700,22.2042666015625,-0.010690134018659592,1.2510510683059692,-2.009134292602539
1710888605600226000,22.22322607421875,0.4520399272441864,2.0974042415618896,-2.500880479812622
1710888605619185400,22.242185302734374,0.574212908744812,2.1951425075531006,-2.6887214183807373
1710888605638144800,22.261144775390626,-0.28069236874580383,1.1985167264938354,-2.3454153537750244
1710888605657104400,22.2801044921875,-1.413846492767334,-0.43371400237083435,-2.0189080238342285
1710888605676063700,22.299063720703124,-2.05617094039917,-2.2821907997131348,-1.898873209953308
1710888605695023000,22.318023193359377,-1.898873209953308,-4.129751205444336,-2.1282529830932617
1710888605713982500,22.336982421875,-1.2623521089553833,-5.47090482711792,-2.093128204345703
1710888605732942000,22.355942138671875,-1.7229441404342651,-6.321839809417725,-2.3258676528930664
1710888605751901400,22.3749013671875,-2.8994696140289307,-5.749459266662598,-1.8747440576553345
1710888605770860800,22.39386083984375,-3.85028076171875,-4.259865760803223,-0.6270527243614197
1710888605789820200,22.412820068359373,-3.864025115966797,-4.068665027618408,-0.8252783417701721
1710888605808779800,22.43177978515625,-2.7739369869232178,-3.2965316772460938,-1.6355904340744019
1710888605827739100,22.4507392578125,-2.051589250564575,-3.5640904903411865,-2.0323472023010254
1710888605846698500,22.469698486328124,-1.8286237716674805,-4.106843948364258,-1.987753987312317
1710888605865658000,22.488658203125,-1.527161955833435,-4.061334609985352,-1.8044945001602173
1710888605884617500,22.507617431640625,-1.1560616493225098,-3.3536477088928223,-1.5610649585723877
1710888605903576800,22.526576904296874,-0.9373720288276672,-2.5656321048736572,-1.2818996906280518
1710888605922536200,22.5455361328125,-0.8811724185943604,-1.728441834449768,-0.9553925395011902
1710888605941495800,22.564495849609376,-0.9798271059989929,-1.0558797121047974,-0.5635227560997009
1710888605960455200,22.583455078125,-1.1126902103424072,-0.5925388336181641,-0.08582650125026703
1710888605979414500,22.60241455078125,-1.184772253036499,-0.2675587832927704,0.36285367608070374
1710888605998374100,22.6213740234375,-1.0903936624526978,-0.020769402384757996,0.5803215503692627
1710888606017333500,22.64033349609375,-0.6276635527610779,0.2574795186519623,0.5739074349403381
1710888606036292900,22.65929296875,0.1640172004699707,0.7064651250839233,0.6740893125534058
1710888606055252500,22.67825244140625,0.998763918876648,1.2006547451019287,1.0567960739135742
1710888606074211800,22.6972119140625,1.6630793809890747,1.4523310661315918,1.5580105781555176
1710888606093171200,22.716171142578126,2.1838417053222656,1.4688243865966797,2.090684652328491
1710888606112130800,22.735130859375,2.7821836471557617,1.3848304748535156,2.4599523544311523
1710888606131090200,22.754090087890624,4.210385322570801,1.581223487854004,2.749807834625244
1710888606150049500,22.773049560546873,5.792219638824463,2.4654502868652344,4.3014044761657715
1710888606169009200,22.792009033203126,4.4046406745910645,2.8011205196380615,4.144106864929199
1710888606187968500,22.810968505859375,1.4715732336044312,1.331685185432434,3.0830345153808594
1710888606206928000,22.829927978515624,-0.3329212963581085,2.4291038513183594,3.165501356124878
1710888606225887500,22.848887451171876,-0.017715077847242355,4.783987522125244,3.5030040740966797
1710888606244846800,22.867846923828125,1.2150100469589233,6.634296894073486,3.596771717071533
1710888606263806200,22.88680615234375,1.9410228729248047,6.831911563873291,2.9553637504577637
1710888606282765800,22.905765869140627,1.4715732336044312,5.636754989624023,2.3716824054718018
1710888606301725200,22.92472509765625,0.6661480665206909,4.06194543838501,1.8270965814590454
1710888606320684800,22.943684814453125,0.053756099194288254,2.628856658935547,1.1310161352157593
1710888606339644200,22.96264404296875,-0.3078758418560028,1.553734540939331,0.4379900395870209
1710888606358603500,22.981603515625,-0.5256491303443909,0.832608699798584,0.010995565913617611
1710888606377563100,23.000563232421875,-0.7370083332061768,0.36651885509490967,-0.2315177470445633
1710888606396522500,23.0195224609375,-0.8029817342758179,0.17867794632911682,-0.573602020740509
1710888606415482000,23.038482177734377,-0.48533207178115845,0.34055712819099426,-1.2189806699752808
1710888606434441500,23.05744140625,-0.035124726593494415,0.6065887212753296,-1.7455461025238037
1710888606453400800,23.07640087890625,-0.27947062253952026,0.35766133666038513,-1.7119485139846802
1710888606472360400,23.0953603515625,-1.0803143978118896,-0.23273947834968567,-1.4953969717025757
1710888606491319800,23.11431982421875,-1.869246244430542,-0.9831868410110474,-1.416595458984375
1710888606510279400,23.133279541015625,-2.0045528411865234,-2.2534801959991455,-1.7800599336624146
1710888606529238800,23.15223876953125,-1.5390738248825073,-3.981311082839966,-2.1386375427246094
1710888606548198100,23.1711982421875,-2.033568859100342,-5.422341346740723,-2.2174391746520996
1710888606567157800,23.19015771484375,-3.3212718963623047,-5.4693779945373535,-2.1032073497772217
1710888606586117000,23.2091171875,-3.813628911972046,-5.224115371704102,-1.5430444478988647
1710888606605076700,23.22807666015625,-3.593717575073242,-5.285507678985596,-1.6817107200622559
1710888606624036000,23.2470361328125,-2.7070472240448,-4.417163372039795,-2.472780704498291
1710888606642995500,23.265995361328127,-1.8371758460998535,-3.970621109008789,-2.877784013748169
1710888606661955000,23.284955078125,-1.2990039587020874,-3.646862745285034,-2.8796164989471436
1710888606680914400,23.30391455078125,-1.0809252262115479,-3.4416122436523438,-2.736063241958618
1710888606699873800,23.322873779296874,-0.8784235715866089,-3.0830345153808594,-2.5042402744293213
1710888606718833400,23.34183349609375,-0.7046325206756592,-2.7061309814453125,-2.149022340774536
1710888606737792800,23.360792724609375,-0.5812378525733948,-2.2846343517303467,-1.7519601583480835
1710888606756752400,23.37975244140625,-0.5430588126182556,-1.8295400142669678,-1.350927472114563
1710888606775711700,23.398711669921877,-0.5769617557525635,-1.4297289848327637,-0.9902117848396301
1710888606794671400,23.41767138671875,-0.6273581385612488,-1.0219768285751343,-0.6340776681900024
1710888606813630700,23.436630615234375,-0.6084213256835938,-0.5904008150100708,-0.3436114490032196
1710888606832590300,23.45559033203125,-0.4969384968280792,-0.08155044913291931,-0.13713914155960083
1710888606851549700,23.4745498046875,-0.2935205399990082,0.5503891706466675,0.09834922850131989
1710888606870509300,23.49350927734375,-0.03817904740571976,1.1804962158203125,0.4679224193096161
1710888606889468700,23.51246875,0.19272783398628235,1.6679662466049194,0.906828761100769
1710888606908428300,23.53142822265625,0.4321868419647217,2.0069961547851562,1.3014473915100098
1710888606927387600,23.5503876953125,0.8900299668312073,2.35305118560791,1.5097522735595703
1710888606946347000,23.569346923828125,2.2149956226348877,2.897331714630127,2.2736387252807617
1710888606965306600,23.588306640625,4.09645938873291,4.000553607940674,3.6755733489990234
1710888606984266000,23.607265869140626,3.6957318782806396,3.763537883758545,3.2513277530670166
1710888607003225300,23.626225341796875,0.6643154621124268,2.6752822399139404,2.9410085678100586
