time,seconds_elapsed,z,y,x
1711422708116470300,0.05847021484375,0.49021899700164795,-3.1881797313690186,-0.17837251722812653
1711422708135431400,0.077431396484375,0.5345066785812378,-3.5317909717559814,0.017715077847242355
1711422708154392300,0.096392333984375,0.5030471682548523,-3.4841437339782715,0.16737695038318634
1711422708173353500,0.115353515625,0.3582721948623657,-3.0238571166992188,0.19792018830776215
1711422708192314600,0.134314697265625,0.26022839546203613,-2.345797061920166,0.1078176349401474
1711422708211275800,0.15327587890625,0.19333870708942413,-1.4178935289382935,0.027488915249705315
1711422708230236700,0.172236572265625,-0.006719512399286032,-0.3879754841327667,0.009773836471140385
1711422708249197800,0.19119775390625,-0.35277441143989563,0.14317142963409424,0.09957095980644226
1711422708268159000,0.210158935546875,-0.3326158821582794,-0.08712458610534668,0.23976442217826843
1711422708287120000,0.229119873046875,-0.2370155304670334,-0.32475098967552185,0.12614357471466064
1711422708306081000,0.2480810546875,-0.17653992772102356,-0.36628979444503784,-0.025961752980947495
1711422708325042000,0.2670419921875,-0.1905898153781891,-0.4038579761981964,-0.07819069176912308
1711422708344003000,0.286003173828125,-0.2565632164478302,-0.4398989975452423,0.01954767294228077
1711422708362964200,0.304964111328125,-0.3631591200828552,-0.21082471311092377,-0.06017018109560013
1711422708381925400,0.32392529296875,-0.7418952584266663,-0.17417281866073608,-0.053756099194288254
1711422708400886300,0.34288623046875,-0.9902117848396301,0.06223184987902641,0.11575887352228165
1711422708419847400,0.361847412109375,-1.1633919477462769,0.1810450553894043,0.041844237595796585
1711422708438808300,0.380808349609375,-1.397353172302246,0.49686214327812195,-0.24281874299049377
1711422708457769500,0.39976953125,-1.8319834470748901,0.5521454215049744,-0.3952295184135437
1711422708476730600,0.418730712890625,-1.904370903968811,0.046654798090457916,-0.2770271897315979
1711422708495691500,0.43769140625,-1.5806126594543457,-0.1115591824054718,-0.33689191937446594
1711422708514652700,0.456652587890625,-1.2351685762405396,-0.008017600513994694,-0.42791077494621277
1711422708533613600,0.475613525390625,-1.0442733764648438,0.16363540291786194,-0.5528326034545898
1711422708552574700,0.49457470703125,-1.063210129737854,0.38415759801864624,-0.44990190863609314
1711422708571536000,0.513535888671875,-1.0757328271865845,0.07628174126148224,0.03634645417332649
1711422708590497000,0.5324970703125,-1.1927134990692139,-0.35010188817977905,0.13744457066059113
1711422708609458000,0.5514580078125,-1.2675443887710571,-0.45883581042289734,0.030543239787220955
1711422708628419000,0.570419189453125,-1.2415826320648193,-0.9148463606834412,0.17562362551689148
1711422708647380200,0.589380126953125,-1.0506874322891235,-0.9463059306144714,0.189673513174057
1711422708666341000,0.608341064453125,-0.8848376274108887,-0.7749583125114441,0.2611446976661682
1711422708685302300,0.62730224609375,-0.5806269645690918,-1.0321323871612549,0.47006043791770935
1711422708704263200,0.64626318359375,-0.43463030457496643,-0.9453896284103394,0.2617555558681488
1711422708723224300,0.665224365234375,-0.34055712819099426,-0.5574904680252075,0.3042106628417969
1711422708742185500,0.684185546875,-0.010690134018659592,-0.3027598559856415,0.3494146466255188
1711422708761146600,0.703146728515625,0.15057817101478577,-0.2700785994529724,0.31520622968673706
1711422708780107500,0.722107421875,0.025961752980947495,-0.5110647678375244,0.3133736252784729
1711422708799068700,0.741068603515625,-0.0409279391169548,-0.6558396816253662,0.40866854786872864
1711422708818029600,0.760029541015625,0.19944734871387482,-0.8006146550178528,0.46486809849739075
1711422708836990700,0.77899072265625,0.6719512343406677,-1.042211651802063,0.4413498044013977
1711422708855951600,0.79795166015625,0.9297361969947815,-1.2563197612762451,0.3026835024356842
1711422708874912800,0.816912841796875,1.0787872076034546,-1.4328596591949463,0.25381430983543396
1711422708893874000,0.8358740234375,1.2562434673309326,-1.4649300575256348,0.205861434340477
1711422708912834800,0.854834716796875,1.423620343208313,-1.3531419038772583,0.16096286475658417
1711422708931796000,0.8737958984375,1.1976003646850586,-1.0055598020553589,0.06383536756038666
1711422708950757000,0.892757080078125,0.4361574649810791,-0.44722938537597656,-0.25320345163345337
1711422708969718000,0.911718017578125,-1.2797616720199585,-0.3592648506164551,-0.6982184648513794
1711422708988679200,0.93067919921875,-1.3771946430206299,-0.7135664224624634,-1.082757830619812
1711422709007640300,0.949640380859375,-0.8442151546478271,-1.3290126323699951,-0.9086613655090332
1711422709026601200,0.968601318359375,-0.7706059217453003,-1.8888702392578125,-0.906828761100769
1711422709045562400,0.987562255859375,-0.9825760126113892,-2.3616795539855957,-1.193018913269043
1711422709064523300,1.006523193359375,-1.2599085569381714,-2.479882001876831,-1.266933560371399
1711422709083484400,1.025484375,-1.257465124130249,-2.5394413471221924,-1.2846486568450928
1711422709102445600,1.044445556640625,-1.1334595680236816,-2.4612505435943604,-1.2635737657546997
1711422709121406700,1.06340673828125,-1.0247256755828857,-2.2037711143493652,-1.268766164779663
1711422709140367600,1.08236767578125,-1.0421353578567505,-1.9569816589355469,-1.4184280633926392
1711422709159328800,1.101328857421875,-1.273958444595337,-1.9484295845031738,-1.508836030960083
1711422709178290000,1.1202900390625,-1.3771946430206299,-1.9444589614868164,-1.4462224245071411
1711422709197250800,1.139250732421875,-1.314886450767517,-2.0263147354125977,-1.479209065437317
1711422709216212000,1.1582119140625,-1.3781108856201172,-2.292346477508545,-1.626121997833252
1711422709235173000,1.177173095703125,-1.5048654079437256,-2.666501045227051,-1.6508620977401733
1711422709254134000,1.196134033203125,-1.6233731508255005,-2.9917867183685303,-1.5723659992218018
1711422709273095200,1.21509521484375,-1.7134757041931152,-3.147557020187378,-1.5793908834457397
1711422709292056300,1.234056396484375,-1.6972877979278564,-3.1438920497894287,-1.5903865098953247
1711422709311017200,1.253017333984375,-1.5008947849273682,-3.052262306213379,-1.482263445854187
1711422709329978400,1.271978271484375,-1.2690715789794922,-2.8995461463928223,-1.3368775844573975
1711422709348939500,1.290939453125,-0.9563088417053223,-2.477438449859619,-1.268460750579834
1711422709367900700,1.309900634765625,-0.5919279456138611,-1.9276602268218994,-1.2528836727142334
1711422709386861600,1.328861572265625,-0.34605491161346436,-1.4970004558563232,-1.1212422847747803
1711422709405822700,1.34782275390625,-0.13103049993515015,-1.1139882802963257,-0.9569196701049805
1711422709424784000,1.366783935546875,0.04550942778587341,-0.7981712222099304,-0.805425226688385
1711422709443744800,1.385744873046875,0.09376774728298187,-0.6992111206054688,-0.6997455954551697
1711422709462706000,1.404705810546875,0.07849612087011337,-0.7529671788215637,-0.5503891706466675
1711422709481667000,1.4236669921875,0.1585194170475006,-0.8055015802383423,-0.33658650517463684
1711422709500628000,1.4426279296875,0.3087921440601349,-0.6924915909767151,-0.16829325258731842
1711422709519589000,1.461589111328125,0.33719736337661743,-0.4038579761981964,-0.031154103577136993
1711422709538550300,1.48055029296875,0.2874118685722351,0.0295505840331316,0.16859868168830872
1711422709557511200,1.49951123046875,0.231212317943573,0.4947241246700287,0.2364046722650528
1711422709576472300,1.518472412109375,0.13775001466274261,0.7183006405830383,0.30512696504592896
1711422709595433500,1.53743359375,0.03237583488225937,0.7427352070808411,0.13744457066059113
1711422709614394600,1.55639453125,-0.4150826036930084,0.5765799880027771,0.18356487154960632
1711422709633355800,1.575355712890625,-0.6743947267532349,0.13920080661773682,0.44440412521362305
1711422709652316700,1.594316650390625,-0.5021308660507202,-0.2450331300497055,0.47464191913604736
1711422709671277800,1.61327783203125,-0.4050033390522003,-0.3794233798980713,0.4725039005279541
1711422709690239000,1.632239013671875,-0.3271180987358093,-0.44325876235961914,0.3072649836540222
1711422709709200100,1.6512001953125,-0.31062474846839905,-0.3577376902103424,0.06902772188186646
1711422709728161000,1.6701611328125,-0.36132651567459106,-0.14332415163516998,-0.11514800786972046
1711422709747122200,1.6891220703125,-0.4773908257484436,-0.03733910992741585,-0.2519817352294922
1711422709766083300,1.708083251953125,-0.6212494969367981,-0.011682788841426373,-0.2984074354171753
1711422709785044500,1.72704443359375,-0.7467821836471558,0.01977674663066864,-0.3790415823459625
1711422709804005400,1.74600537109375,-0.8350521326065063,0.003283398225903511,-0.5100721120834351
1711422709822966500,1.764966552734375,-0.8118392825126648,-0.07521272450685501,-0.6068941354751587
1711422709841927700,1.783927734375,-0.778241753578186,-0.09323323518037796,-0.667064368724823
1711422709860888600,1.802888671875,-0.6823359727859497,-0.033368486911058426,-0.7394518256187439
1711422709879849700,1.821849609375,-0.5610793232917786,0.07536543905735016,-0.8713986277580261
1711422709898811000,1.840810791015625,-0.6212494969367981,0.19204062223434448,-0.9373720288276672
1711422709917772000,1.85977197265625,-0.7351757884025574,0.24579671025276184,-0.9779945015907288
1711422709936733200,1.878733154296875,-0.8307760953903198,0.19998185336589813,-0.9963204264640808
1711422709955694300,1.8976943359375,-0.879339873790741,0.00847574882209301,-1.045189619064331
1711422709974655200,1.9166552734375,-0.8640682101249695,-0.17539454996585846,-1.1465932130813599
1711422709993616400,1.935616455078125,-0.9111047983169556,-0.224569171667099,-1.2250893115997314
1711422710012577500,1.95457763671875,-0.989906370639801,-0.2141844630241394,-1.2702933549880981
1711422710031538700,1.97353857421875,-0.96180659532547,-0.15890119969844818,-1.4034618139266968
1711422710050499800,1.992499755859375,-0.924849271774292,-0.14973822236061096,-1.444389820098877
1711422710069460700,2.011460693359375,-0.8765909671783447,-0.15401428937911987,-1.4391974210739136
1711422710088422000,2.030421875,-0.7186824083328247,-0.27801984548568726,-1.4850122928619385
1711422710107383000,2.049383056640625,-0.4920515716075897,-0.297872930765152,-1.4969241619110107
1711422710126344200,2.06834423828125,-0.3035998046398163,-0.004046979360282421,-1.4819579124450684
1711422710145305000,2.08730517578125,-0.16584978997707367,0.36338818073272705,-1.3921607732772827
1711422710164266200,2.106266357421875,-0.06719512492418289,0.7076104879379272,-1.2620465755462646
1711422710183227400,2.125227294921875,0.029626941308379173,0.9531781077384949,-1.1239912509918213
1711422710202188500,2.1441884765625,0.18814635276794434,1.156901478767395,-0.8912517428398132
1711422710221149700,2.163149658203125,0.2977965772151947,1.187444806098938,-0.6032289862632751
1711422710240110600,2.182110595703125,0.40225446224212646,0.8642973303794861,-0.3591884970664978
1711422710259071700,2.20107177734375,0.45875945687294006,0.5335140228271484,-0.03695731982588768
1711422710278033000,2.220032958984375,0.49663305282592773,0.38934993743896484,0.2834412455558777
1711422710296994000,2.238994140625,0.5054906010627747,0.35269805788993835,0.6133082509040833
1711422710315955200,2.257955078125,0.5073232054710388,0.3762163519859314,0.8988875150680542
1711422710334916000,2.276916015625,0.5510000586509705,0.31848961114883423,1.1133010387420654
1711422710353877200,2.295877197265625,0.6337721943855286,0.18348850309848785,1.2764019966125488
1711422710372838400,2.31483837890625,0.7504473924636841,0.14836378395557404,1.3894119262695312
1711422710391799600,2.333799560546875,0.7898481488227844,0.06436987966299057,1.416290044784546
1711422710410760700,2.3527607421875,0.80389803647995,-0.06391172856092453,1.368947982788086
1711422710429721600,2.3717216796875,0.7620537877082825,-0.16562071442604065,1.3698642253875732
1711422710448682800,2.390682861328125,0.7822123765945435,-0.0012980876490473747,1.3041963577270508
1711422710467644000,2.409643798828125,0.7461713552474976,0.2012035846710205,1.284037709236145
1711422710486605000,2.42860498046875,0.759304940700531,0.1300378441810608,1.1542290449142456
1711422710505566200,2.447566162109375,0.8958331942558289,0.14317142963409424,0.9917389750480652
1711422710524527000,2.466527099609375,0.8487966060638428,0.14714205265045166,0.9040798544883728
1711422710543488300,2.48548828125,0.78648841381073,0.045738499611616135,0.7919861674308777
1711422710562449400,2.504449462890625,0.8066469430923462,-0.023594651371240616,0.6835576891899109
1711422710581410600,2.52341064453125,0.8280271887779236,-0.05047270283102989,0.6417134404182434
1711422710600371700,2.542371826171875,0.8365793228149414,-0.02695440873503685,0.5925388336181641
1711422710619332900,2.561332763671875,0.7327322959899902,-0.1118646115064621,0.6893609166145325
1711422710638294000,2.5802939453125,0.6597339510917664,-0.2746600806713104,0.815199077129364
1711422710657255200,2.599255126953125,0.6530144214630127,-0.3846157491207123,0.9144645929336548
1711422710676216000,2.618216064453125,0.6692023873329163,-0.3696495592594147,0.934623122215271
1711422710695177200,2.63717724609375,0.6499601006507874,-0.24839289486408234,0.9382883310317993
1711422710714138400,2.656138427734375,0.5949822664260864,-0.12286017835140228,0.9401208758354187
1711422710733099500,2.675099609375,0.6026180982589722,-0.05566505342721939,0.8442151546478271
1711422710752060700,2.694060791015625,0.6160571575164795,-0.02848157100379467,0.6985238790512085
1711422710771021800,2.713021728515625,0.6423243284225464,-0.10911571979522705,0.6582068204879761
1711422710789983000,2.73198291015625,0.6420188546180725,-0.19616395235061646,0.6035344004631042
1711422710808943900,2.75094384765625,0.5754346251487732,-0.15493057668209076,0.5506945848464966
1711422710827905000,2.769905029296875,0.4987711012363434,-0.17936517298221588,0.4972439408302307
1711422710846866200,2.7888662109375,0.4376846253871918,-0.04741837829351425,0.535728394985199
1711422710865827300,2.807827392578125,0.30146175622940063,0.32673630118370056,0.5137372612953186
1711422710884788500,2.82678857421875,0.16096286475658417,0.5344303250312805,0.41263917088508606
1711422710903749600,2.84574951171875,0.09468404203653336,0.5066359639167786,0.3277289569377899
1711422710922710800,2.864710693359375,0.07360920310020447,0.4745655655860901,0.2467893660068512
1711422710941671700,2.883671630859375,0.04153880476951599,0.4177551567554474,0.17623448371887207
1711422710960632800,2.9026328125,-0.05528326332569122,0.31696245074272156,-0.006108647678047419
1711422710979594000,2.921593994140625,-0.22663083672523499,-0.007101302966475487,-0.20372340083122253
1711422710998555100,2.94055517578125,-0.10720676928758621,-0.497320294380188,-0.35705047845840454
1711422711017516300,2.959516357421875,-0.09285144507884979,-0.5455785989761353,-0.4364628791809082
1711422711036477400,2.9784775390625,-0.2507599890232086,-0.24350596964359283,-0.6090322136878967
1711422711055438600,2.9974384765625,-0.3601047992706299,-0.12499820441007614,-0.7333431839942932
1711422711074399500,3.0163994140625,-0.47525280714035034,0.11354449391365051,-0.7877101302146912
1711422711093360600,3.035360595703125,-0.4740310609340668,0.3716348707675934,-0.7907644510269165
1711422711112321800,3.05432177734375,-0.44990190863609314,0.27023130655288696,-0.8946114778518677
1711422711131283000,3.073282958984375,-0.5626064538955688,-0.1882227063179016,-1.0051779747009277
1711422711150244000,3.092244140625,-0.5766563415527344,-0.5779544115066528,-1.0122029781341553
1711422711169205200,3.111205322265625,-0.5488619804382324,-0.655228853225708,-1.044884204864502
1711422711188166400,3.13016650390625,-0.5775726437568665,-1.0590105056762695,-1.0934479236602783
1711422711207127300,3.149127197265625,-0.7727439403533936,-1.5388447046279907,-0.9605848789215088
1711422711226088400,3.16808837890625,-0.7006618976593018,-1.4435498714447021,-0.924238383769989
1711422711245049600,3.187049560546875,-0.5971203446388245,-1.1115448474884033,-0.822834849357605
1711422711264010800,3.2060107421875,-0.6157516837120056,-0.8076395988464355,-0.630107045173645
1711422711282972000,3.224971923828125,-0.5073232054710388,-0.7218130826950073,-0.4172206521034241
1711422711301933000,3.24393310546875,-0.3246746361255646,-0.5785652995109558,-0.20280711352825165
1711422711320894200,3.262894287109375,-0.18203771114349365,-0.2199876755475998,0.0015271619195118546
1711422711339855000,3.281855224609375,0.03298669680953026,-0.13538290560245514,0.19822561740875244
1711422711358816300,3.300816162109375,0.20433427393436432,-0.08681915700435638,0.3191768527030945
1711422711377777400,3.31977734375,0.35063639283180237,0.30138540267944336,0.4740310609340668
1711422711396738600,3.338738525390625,0.7040216326713562,0.724409282207489,0.49418962001800537
1711422711415699700,3.35769970703125,0.9853248596191406,1.3126720190048218,0.6004800796508789
1711422711434660900,3.376660888671875,1.0754274129867554,1.7857868671417236,0.6643154621124268
1711422711453622000,3.3956220703125,0.9865466356277466,1.7940335273742676,0.6508764028549194
1711422711472583200,3.414583251953125,0.8726203441619873,1.5835906267166138,0.8158099055290222
1711422711491544000,3.4335439453125,0.8103121519088745,1.462639331817627,0.7840449213981628
1711422711510505200,3.452505126953125,0.7480039000511169,1.464166522026062,0.8035926222801208
1711422711529466400,3.47146630859375,0.759304940700531,1.233565092086792,1.0552688837051392
1711422711548427500,3.490427490234375,0.7925970554351807,0.7439569234848022,1.230587124824524
1711422711567388700,3.509388671875,0.7938187718391418,0.20883940160274506,1.3817760944366455
1711422711586349800,3.528349853515625,0.6569850444793701,-0.14515674114227295,1.4468332529067993
1711422711605311000,3.54731103515625,0.5445859432220459,-0.18241949379444122,1.4761546850204468
1711422711624272100,3.566272216796875,0.5283980369567871,0.05887209251523018,1.4691298007965088
1711422711643233000,3.58523291015625,0.46059203147888184,0.1498909443616867,1.4468332529067993
1711422711662194200,3.604194091796875,0.37629270553588867,-0.025732679292559624,1.3784164190292358
1711422711681155300,3.6231552734375,0.3280344009399414,-0.34979644417762756,1.266933560371399
1711422711700116500,3.642116455078125,0.21441353857517242,-0.7321978211402893,1.0836740732192993
1711422711719077600,3.66107763671875,0.0009162971982732415,-1.1659117937088013,0.8399390578269958
1711422711738038800,3.680038818359375,-0.24953825771808624,-1.3717732429504395,0.6026180982589722
1711422711757000000,3.699,-0.500298261642456,-1.468289852142334,0.3536907136440277
1711422711775961000,3.717961181640625,-0.6071996092796326,-1.5287654399871826,0.10751219838857651
1711422711794922200,3.736922119140625,-0.5910117030143738,-1.3952915668487549,-0.06841685622930527
1711422711813883100,3.755883056640625,-0.5684096813201904,-1.0791690349578857,-0.17165300250053406
1711422711832844300,3.77484423828125,-0.509155809879303,-0.7890082001686096,-0.26542073488235474
1711422711851805400,3.793805419921875,-0.28038692474365234,-0.5913934707641602,-0.37323838472366333
1711422711870766600,3.8127666015625,0.061391908675432205,-0.37545275688171387,-0.38820457458496094
1711422711889727700,3.831727783203125,0.27519458532333374,-0.22792892158031464,-0.32528549432754517
1711422711908689000,3.85068896484375,0.3390299379825592,-0.13355031609535217,-0.27580544352531433
1711422711927650000,3.869650146484375,0.32650721073150635,-0.015042545273900032,-0.23273947834968567
1711422711946611200,3.888611083984375,0.3090975880622864,0.1037706509232521,-0.16279546916484833
1711422711965572000,3.907572021484375,0.3228420317173004,0.15935935080051422,-0.07910698652267456
1711422711984533200,3.926533203125,0.3549124300479889,0.17860159277915955,-0.023823726922273636
1711422712003494400,3.945494384765625,0.4120282828807831,0.21952952444553375,-0.015271619893610477
1711422712022455600,3.96445556640625,0.4266890585422516,0.2543488144874573,0.06200277432799339
1711422712041416700,3.983416748046875,0.29474225640296936,0.15355613827705383,0.16523891687393188
1711422712060377900,4.0023779296875,0.12736530601978302,0.03993528336286545,0.28954991698265076
1711422712079339000,4.021339111328125,0.021991131827235222,0.04543306678533554,0.3860665261745453
1711422712098300200,4.040300048828125,-0.04459312930703163,0.13736821711063385,0.4056142270565033
1711422712117261300,4.05926123046875,-0.08338304609060287,0.2274707704782486,0.3863719701766968
1711422712136222200,4.07822216796875,-0.08796452730894089,0.2986365258693695,0.3842339515686035
1711422712155183400,4.097183349609375,-0.04276053607463837,0.31696245074272156,0.36132651567459106
1711422712174144500,4.11614453125,0.03695731982588768,0.26656612753868103,0.27091851830482483
1711422712193105700,4.135105712890625,0.1380554437637329,0.21372631192207336,0.32589635252952576
1711422712212066800,4.15406689453125,0.11514800786972046,0.3090212345123291,0.44501498341560364
1711422712231028000,4.173028076171875,-0.013133592903614044,0.3725511431694031,0.3594939112663269
1711422712249989000,4.191989013671875,-0.07941242307424545,0.27053675055503845,0.19120067358016968
1711422712268950300,4.2109501953125,0.000610864779446274,0.1092684343457222,0.0412333719432354
1711422712287911200,4.2299111328125,0.1282816082239151,0.14805835485458374,-0.06414080411195755
1711422712306872300,4.248872314453125,0.14263692498207092,0.28092142939567566,-0.19364413619041443
1711422712325833500,4.26783349609375,0.0977383628487587,0.29222244024276733,-0.3194822669029236
1711422712344794600,4.286794677734375,0.08674279600381851,0.2479347437620163,-0.39400777220726013
1711422712363755800,4.305755859375,0.07819069176912308,0.21372631192207336,-0.39858928322792053
1711422712382717000,4.324717041015625,0.061391908675432205,0.18776455521583557,-0.37843072414398193
1711422712401678000,4.343677978515625,0.022296564653515816,0.13309216499328613,-0.33597561717033386
1711422712420639200,4.36263916015625,-0.01802051067352295,0.04909825697541237,-0.31459537148475647
1711422712439600000,4.38160009765625,-0.032681263983249664,0.013057234697043896,-0.3017672002315521
1711422712458561300,4.400561279296875,-0.04306596517562866,0.060704685747623444,-0.2984074354171753
1711422712477522400,4.4195224609375,-0.1029307171702385,0.14347685873508453,-0.31154105067253113
1711422712496483600,4.438483642578125,-0.14263692498207092,0.2369391769170761,-0.3591884970664978
1711422712515444700,4.45744482421875,-0.17684535682201385,0.28122687339782715,-0.4321868419647217
1711422712534406000,4.476406005859375,-0.2660316228866577,0.2375500351190567,-0.48533207178115845
1711422712553367000,4.495366943359375,-0.3836230933666229,0.16302454471588135,-0.5693259835243225
1711422712572328000,4.514327880859375,-0.4557051360607147,0.06559160351753235,-0.6597339510917664
1711422712591289000,4.5332890625,-0.47464191913604736,-0.0012980876490473747,-0.7247910499572754
1711422712610250200,4.552250244140625,-0.4572322964668274,-0.041615162044763565,-0.7162389755249023
1711422712629211400,4.57121142578125,-0.5500837564468384,-0.17417281866073608,-0.6847794055938721
1711422712648172500,4.590172607421875,-0.693026065826416,-0.26946771144866943,-0.7455604672431946
1711422712667133700,4.6091337890625,-0.7006618976593018,-0.08956804871559143,-0.5714640021324158
1711422712686094800,4.6280947265625,-0.6459894776344299,-0.015042545273900032,-0.4618137776851654
1711422712705056000,4.647055908203125,-0.5320632457733154,0.04390590637922287,-0.3032943606376648
1711422712724017000,4.666016845703125,-0.36804601550102234,-0.08559742569923401,-0.017715077847242355
1711422712742978000,4.68497802734375,-0.17623448371887207,-0.17539454996585846,0.17073670029640198
1711422712761939200,4.703939208984375,-0.08277218043804169,-0.40691229701042175,0.3170388340950012
1711422712780900400,4.722900390625,0.06994401663541794,-0.38033968210220337,0.4508182108402252
1711422712799861500,4.741861572265625,0.1902843713760376,-0.09934188425540924,0.5714640021324158
1711422712818822700,4.76082275390625,0.2984074354171753,0.16791145503520966,0.7266236543655396
1711422712837783800,4.77978369140625,0.40317076444625854,0.2375500351190567,0.8836159110069275
1711422712856745000,4.798744873046875,0.5647444725036621,0.3759109079837799,1.0042617321014404
1711422712875705900,4.817705810546875,0.6652317643165588,0.5961276888847351,1.0442733764648438
1711422712894667000,4.8366669921875,0.6966912746429443,0.6624065041542053,1.0112866163253784
1711422712913628200,4.855628173828125,0.6988292932510376,0.723798394203186,0.8918625712394714
1711422712932589300,4.87458935546875,0.7092140316963196,0.7179951667785645,0.7296779751777649
1711422712951550500,4.893550537109375,0.7000510096549988,0.6245328783988953,0.5225948095321655
1711422712970511600,4.91251171875,0.6075050234794617,0.43027788400650024,0.3430005609989166
1711422712989472800,4.93147265625,0.4263836145401001,0.1816559135913849,0.13469567894935608
1711422713008433700,4.95043359375,0.27030766010284424,-0.10392337292432785,-0.07819069176912308
1711422713027394800,4.969394775390625,0.17776164412498474,-0.20105087757110596,-0.2467893660068512
1711422713046356000,4.98835595703125,0.15241076052188873,-0.21601705253124237,-0.45509424805641174
1711422713065317000,5.007317138671875,0.016798781231045723,-0.3375791609287262,-0.6136136651039124
1711422713084278300,5.0262783203125,-0.2208276242017746,-0.5694023370742798,-0.6527090072631836
1711422713103239400,5.045239501953125,-0.3494146466255188,-0.859257698059082,-0.5656607747077942
1711422713122200600,5.06420068359375,-0.17318016290664673,-0.8271872401237488,-0.5992583632469177
1711422713141161700,5.08316162109375,-0.03451386094093323,-0.5651262998580933,-0.6890554428100586
1711422713160122600,5.10212255859375,-0.10873392969369888,-0.37270388007164,-0.722347617149353
1711422713179083800,5.121083740234375,-0.18570289015769958,-0.17508912086486816,-0.7693842053413391
1711422713198045000,5.140044921875,-0.15302163362503052,0.004505127668380737,-0.8265000581741333
1711422713217006000,5.159006103515625,-0.10567960888147354,0.06925679743289948,-0.9425643682479858
1711422713235967200,5.17796728515625,-0.15821397304534912,-0.03061959706246853,-1.0876446962356567
1711422713254928400,5.196928466796875,-0.3555232882499695,-0.09873101860284805,-1.1490366458892822
1711422713273889500,5.2158896484375,-0.5427533388137817,0.03810269013047218,-1.1588104963302612
1711422713292850700,5.2348505859375,-0.5424479246139526,0.26503896713256836,-1.1249074935913086
1711422713311811600,5.2538115234375,-0.4920515716075897,0.14408773183822632,-1.0137300491333008
1711422713330772700,5.272772705078125,-0.5387827157974243,-0.16653701663017273,-0.7693842053413391
1711422713349734000,5.29173388671875,-0.565049946308136,-0.4295142889022827,-0.5415316224098206
1711422713368695000,5.310695068359375,-0.6071996092796326,-0.45883581042289734,-0.32100942730903625
1711422713387656200,5.32965625,-0.6023126840591431,-0.35651594400405884,-0.14569124579429626
1711422713406617300,5.348617431640625,-0.4868592321872711,-0.20532692968845367,0.07605266571044922
1711422713425578500,5.36757861328125,-0.31581708788871765,0.017333287745714188,0.37781986594200134
1711422713444539400,5.386539306640625,-0.15577052533626556,0.23357942700386047,0.6899717450141907
1711422713463500500,5.40550048828125,-0.048563748598098755,0.4278344213962555,1.0378592014312744
1711422713482461700,5.424461669921875,0.05864302068948746,0.6285035014152527,1.239139199256897
1711422713501422800,5.4434228515625,0.29596397280693054,0.649578332901001,1.2214241027832031
1711422713520384000,5.462384033203125,0.638353705406189,0.5292379856109619,1.0509928464889526
1711422713539345200,5.48134521484375,0.879339873790741,0.4892263412475586,0.9285144805908203
1711422713558306300,5.500306396484375,0.96180659532547,0.6752346754074097,0.8842267394065857
1711422713577267200,5.51926708984375,0.9062178730964661,0.8420007228851318,0.8487966060638428
1711422713596228400,5.538228271484375,0.8494074940681458,0.8059597015380859,0.8396336436271667
1711422713615189500,5.557189453125,0.8307760953903198,0.5503128170967102,0.8161153197288513
1711422713634150700,5.576150634765625,0.9282090067863464,0.28641921281814575,0.7751874327659607
1711422713653111800,5.59511181640625,0.9581413865089417,0.10193806141614914,0.695164144039154
1711422713672073000,5.614072998046875,0.9550870656967163,-0.15920662879943848,0.702799916267395
1711422713691033900,5.633033935546875,0.943175196647644,-0.3623191714286804,0.6832522749900818
1711422713709995000,5.6519951171875,0.8998038172721863,-0.38705918192863464,0.5879573225975037
1711422713728956200,5.6709560546875,0.9178243279457092,-0.2401462197303772,0.4725039005279541
1711422713747917300,5.689917236328125,0.952032744884491,0.0005345066892914474,0.4056142270565033
1711422713766878500,5.70887841796875,0.9511164426803589,0.18379394710063934,0.4101957082748413
1711422713785839600,5.727839599609375,0.9669989347457886,0.2115882933139801,0.462424635887146
1711422713804800500,5.746800537109375,1.0195332765579224,0.15447242558002472,0.5088503360748291
1711422713823761700,5.76576171875,1.0763437747955322,0.01824958436191082,0.5439751148223877
1711422713842722800,5.784722900390625,1.135597586631775,-0.06421715766191483,0.564439058303833
1711422713861684000,5.80368408203125,1.1478148698806763,-0.14393500983715057,0.5424479246139526
1711422713880645000,5.82264501953125,1.155450701713562,-0.21693335473537445,0.5430588126182556
1711422713899606300,5.841606201171875,1.1563670635223389,-0.2099084109067917,0.5681042671203613
1711422713918567400,5.8605673828125,1.128878116607666,-0.1320231556892395,0.5861247777938843
1711422713937528300,5.8795283203125,1.0855066776275635,-0.026648975908756256,0.5842921733856201
1711422713956489500,5.898489501953125,1.0583232641220093,0.026190826669335365,0.5952877402305603
1711422713975450600,5.91745068359375,1.0641264915466309,0.02741255611181259,0.62857985496521
1711422713994411800,5.936411865234375,1.084285020828247,-0.03428478538990021,0.6582068204879761
1711422714013373000,5.955373046875,1.0906990766525269,-0.13935352861881256,0.6753110289573669
1711422714032334000,5.974333984375,1.0699297189712524,-0.23739732801914215,0.6667588949203491
1711422714051295200,5.993295166015625,1.0473276376724243,-0.316809743642807,0.6646208763122559
1711422714070256000,6.012256103515625,1.0516036748886108,-0.3745364546775818,0.6820304989814758
1711422714089217300,6.03121728515625,1.082452416419983,-0.4292088747024536,0.7174606919288635
1711422714108178400,6.050178466796875,1.1368193626403809,-0.42859798669815063,0.7141009569168091
1711422714127139600,6.0691396484375,1.1908808946609497,-0.4148535430431366,0.7278453707695007
1711422714146100700,6.088100830078125,1.227838158607483,-0.4059959948062897,0.758694052696228
1711422714165062000,6.107061767578125,1.273958444595337,-0.4059959948062897,0.7556397318840027
1711422714184023000,6.12602294921875,1.3151918649673462,-0.4304305911064148,0.7504473924636841
1711422714202984000,6.14498388671875,1.3564252853393555,-0.45822495222091675,0.7513636946678162
1711422714221945000,6.163945068359375,1.3686425685882568,-0.4878518879413605,0.759304940700531
1711422714240906200,6.18290625,1.3793326616287231,-0.4860192835330963,0.7342594861984253
1711422714259867400,6.201867431640625,1.4498875141143799,-0.47319114208221436,0.711046576499939
1711422714278828500,6.22082861328125,1.5662572383880615,-0.43867728114128113,0.6933315396308899
1711422714297789700,6.239789794921875,1.6416990756988525,-0.4099666178226471,0.6493492722511292
1711422714316750800,6.258750732421875,1.7110322713851929,-0.46250098943710327,0.5995637774467468
1711422714335712000,6.2777119140625,1.7650938034057617,-0.5116755962371826,0.5522217750549316
1711422714354673200,6.296673095703125,1.7788382768630981,-0.5920043587684631,0.48075059056282043
1711422714373634000,6.315634033203125,1.8096868991851807,-0.6759982109069824,0.3961458206176758
1711422714392595200,6.33459521484375,1.8906265497207642,-0.6521745324134827,0.3946186602115631
1711422714411556400,6.353556396484375,1.9584324359893799,-0.5495492219924927,0.4425715208053589
1711422714430517500,6.372517578125,1.943466305732727,-0.5425242781639099,0.5134318470954895
1711422714449478700,6.391478759765625,1.889099359512329,-0.729143500328064,0.6307178735733032
1711422714468439800,6.410439697265625,1.7064508199691772,-0.9875392913818359,0.7452550530433655
1711422714487401000,6.42940087890625,1.3038908243179321,-1.042211651802063,0.6814196705818176
1711422714506362000,6.448362060546875,0.8329141139984131,-0.9545525908470154,0.4172206521034241
1711422714525323300,6.4673232421875,0.6071996092796326,-0.9249256253242493,0.18845178186893463
1711422714544284400,6.486284423828125,0.6267472505569458,-0.9979239702224731,0.030543239787220955
1711422714563245600,6.50524560546875,0.813671886920929,-1.1692715883255005,-0.06047561392188072
1711422714582206700,6.524206787109375,0.9544762372970581,-1.3806307315826416,-0.18661919236183167
1711422714601167600,6.543167724609375,1.0033453702926636,-1.4762310981750488,-0.2669478952884674
1711422714620128800,6.562128662109375,1.137430191040039,-1.3891829252243042,-0.2712239623069763
1711422714639090000,6.58108984375,1.3643665313720703,-1.078863501548767,-0.25870123505592346
1711422714658051000,6.600051025390625,1.5143338441848755,-0.6796634197235107,-0.2730565667152405
1711422714677012200,6.61901220703125,1.5100576877593994,-0.3488801419734955,-0.2987128794193268
1711422714695973400,6.637973388671875,1.444695234298706,-0.13538290560245514,-0.39339691400527954
1711422714714934500,6.6569345703125,1.3561197519302368,-0.05841394513845444,-0.6386591196060181
1711422714733895700,6.675895751953125,1.1795798540115356,-0.059024810791015625,-0.999069333076477
1711422714752856800,6.69485693359375,0.8860593438148499,-0.053832460194826126,-1.2101231813430786
1711422714771818000,6.71381787109375,0.6557633280754089,0.21861323714256287,-1.0983349084854126
1711422714790779100,6.732779052734375,0.45906487107276917,0.9305761456489563,-0.8481857180595398
1711422714809740300,6.751740234375,0.2828303873538971,1.507232427597046,-0.5610793232917786
1711422714828701400,6.770701416015625,0.18081597983837128,1.7204242944717407,-0.3381136655807495
1711422714847662600,6.78966259765625,-0.000305432389723137,1.721035122871399,-0.11392628401517868
1711422714866623700,6.808623779296875,-0.2162461280822754,1.39849853515625,0.20127993822097778
1711422714885585000,6.8275849609375,-0.27030766010284424,0.7821359634399414,0.47097674012184143
1711422714904546000,6.846546142578125,-0.0974329337477684,-0.024205517023801804,0.6117810606956482
1711422714923507200,6.865507080078125,0.021685699000954628,-0.6570614576339722,0.6557633280754089
1711422714942468400,6.88446826171875,-0.06352993845939636,-0.9368374943733215,0.6569850444793701
1711422714961429500,6.903429443359375,-0.23793183267116547,-1.127732753753662,0.6505709886550903
1711422714980390700,6.922390625,-0.31520622968673706,-1.236772060394287,0.7516691088676453
1711422714999351800,6.941351806640625,-0.2315177470445633,-1.117653489112854,0.7788525819778442
1711422715018313000,6.96031298828125,-0.0821613147854805,-0.7777072191238403,0.6359102129936218
1711422715037274000,6.979274169921875,-0.10965022444725037,-0.22884522378444672,0.4166097939014435
1711422715056235300,6.9982353515625,-0.36163195967674255,0.6147590279579163,0.3295615613460541
1711422715075196400,7.017196533203125,-0.6102539300918579,1.528612732887268,0.43401941657066345
1711422715094157600,7.036157470703125,-0.5580250024795532,1.740582823753357,0.4770853817462921
1711422715113118700,7.05511865234375,-0.2159406989812851,1.1431571245193481,0.3338375985622406
1711422715132079900,7.074079833984375,0.000610864779446274,0.6318632364273071,0.11453714966773987
1711422715151041000,7.093041015625,-0.08491020649671555,0.6175079345703125,0.15027274191379547
1711422715170002200,7.112002197265625,-0.21960589289665222,0.6633228063583374,0.31184646487236023
1711422715188963300,7.13096337890625,-0.3500255048274994,0.7641154527664185,0.4477638900279999
1711422715207924500,7.149924560546875,-0.5323686599731445,0.7018072605133057,0.5039634704589844
1711422715226885600,7.1688857421875,-0.572685718536377,0.5976548194885254,0.6081159114837646
1711422715245846800,7.1878466796875,-0.42271843552589417,0.5041925311088562,0.7092140316963196
1711422715264808000,7.206807861328125,-0.25320345163345337,0.3502545952796936,0.7342594861984253
1711422715283769000,7.22576904296875,-0.21135921776294708,0.23968806862831116,0.6511818766593933
1711422715302730200,7.244730224609375,-0.2761108875274658,0.06406444311141968,0.4370737373828888
1711422715321691400,7.26369140625,-0.3692677617073059,-0.07612902671098709,0.30115634202957153
1711422715340652500,7.282652587890625,-0.39828383922576904,-0.20135630667209625,0.28924447298049927
1711422715359613700,7.30161376953125,-0.20158538222312927,-0.5077049732208252,0.17348559200763702
1711422715378574800,7.320574951171875,0.14721840620040894,-0.8296307325363159,-0.08674279600381851
1711422715397536000,7.339535888671875,0.1853974610567093,-0.7960331439971924,-0.21319180727005005
1711422715416497200,7.3584970703125,-0.04825831577181816,-0.7795398235321045,-0.3497200906276703
1711422715435458600,7.37745849609375,-0.17256930470466614,-0.8907172083854675,-0.39248061180114746
1711422715454419700,7.396419677734375,-0.13927717506885529,-0.9737948179244995,-0.42302384972572327
1711422715473380900,7.415380859375,-0.20402882993221283,-0.8531489968299866,-0.28588470816612244
1711422715492342000,7.434342041015625,-0.35185810923576355,-0.8134428262710571,-0.1337793916463852
1711422715511303200,7.45330322265625,-0.34055712819099426,-0.9875392913818359,-0.01282816007733345
1711422715530264300,7.472264404296875,-0.26419901847839355,-0.9930370450019836,0.06017018109560013
1711422715549225500,7.4912255859375,-0.20922118425369263,-0.9099594354629517,0.06872228533029556
1711422715568186600,7.5101865234375,-0.2153298407793045,-0.9554688930511475,0.13103049993515015
1711422715587147800,7.529147705078125,-0.20830489695072174,-1.1824051141738892,0.1695149689912796
1711422715606109000,7.54810888671875,-0.12583814561367035,-1.3806307315826416,0.15668681263923645
1711422715625070000,7.567070068359375,-0.05742128938436508,-1.58954656124115,0.18875721096992493
1711422715644031200,7.58603125,-0.01435532234609127,-1.6503275632858276,0.17898337543010712
1711422715662992600,7.60499267578125,-0.05803215503692627,-1.5745803117752075,0.11423171311616898
1711422715681953800,7.623953857421875,-0.1484401375055313,-1.4798963069915771,0.06261363625526428
1711422715700915000,7.6429150390625,-0.1029307171702385,-1.3949860334396362,-0.023518294095993042
1711422715719876000,7.6618759765625,-0.06017018109560013,-1.4869211912155151,-0.007941242307424545
1711422715738837200,7.680837158203125,-0.014049889519810677,-1.5822161436080933,-0.09926552325487137
1711422715757798400,7.69979833984375,0.02779434807598591,-1.6042072772979736,-0.17287473380565643
1711422715776759600,7.718759521484375,-0.001832594396546483,-1.5189915895462036,-0.09346231073141098
1711422715795720700,7.737720703125,-0.005803215317428112,-1.3849067687988281,-0.016187917441129684
1711422715814681900,7.756681884765625,0.10598503798246384,-1.1952333450317383,0.01954767294228077
1711422715833643000,7.77564306640625,0.1640172004699707,-0.9905936121940613,-0.03481929376721382
1711422715852604400,7.7946044921875,0.1805105358362198,-0.73830646276474,-0.017104214057326317
1711422715871565600,7.813565673828125,0.20647229254245758,-0.5202277302742004,0.0009162971982732415
1711422715890526700,7.832526611328125,0.1588248461484909,-0.41271552443504333,0.04673115536570549
1711422715909487900,7.85148779296875,0.14569124579429626,-0.27404922246932983,0.01802051067352295
1711422715928449000,7.870448974609375,0.17073670029640198,-0.23128867149353027,-0.056199558079242706
1711422715947410200,7.88941015625,0.11117739230394363,-0.25205808877944946,-0.09529490768909454
1711422715966371300,7.908371337890625,0.1337793916463852,-0.25389066338539124,-0.1802051067352295
1711422715985332500,7.92733251953125,0.1899789422750473,-0.23189954459667206,-0.22174391150474548
1711422716004293600,7.946293701171875,0.1594357043504715,-0.16623157262802124,-0.23854269087314606
1711422716023254800,7.9652548828125,0.1328630894422531,-0.053832460194826126,-0.22785256803035736
1711422716042216200,7.98421630859375,0.1182023361325264,0.0322994738817215,-0.20127993822097778
1711422716061177300,8.00317724609375,0.10354158282279968,0.145614892244339,-0.185092031955719
1711422716080138500,8.022138427734374,0.13744457066059113,0.23021966218948364,-0.16829325258731842
1711422716099099600,8.041099609375,0.21349723637104034,0.20273074507713318,-0.2049451321363449
1711422716118060800,8.060060791015625,0.33108872175216675,0.10987929999828339,-0.35796675086021423
1711422716137022000,8.07902197265625,0.3591884970664978,0.047265663743019104,-0.43982264399528503
1711422716155983000,8.097983154296875,0.3686569035053253,0.044211339205503464,-0.48472121357917786
1711422716174944300,8.1169443359375,0.40347617864608765,0.0836121141910553,-0.5332849621772766
1711422716193905400,8.135905517578125,0.39400777220726013,0.08972076326608658,-0.5940660238265991
1711422716212866600,8.154866455078125,0.40775224566459656,0.08513928204774857,-0.6814196705818176
1711422716231828000,8.173827880859376,0.5293143391609192,0.07047852128744125,-0.8463531732559204
1711422716250789000,8.1927890625,0.656679630279541,-0.15401428937911987,-1.0118975639343262
1711422716269750300,8.211750244140624,0.8826996088027954,-0.4823541045188904,-1.1698060035705566
1711422716288711400,8.23071142578125,1.2354739904403687,-0.7624356150627136,-1.3710860013961792
1711422716307672600,8.249672607421875,1.5583161115646362,-1.0092250108718872,-1.4746276140213013
1711422716326633700,8.2686337890625,1.8600832223892212,-1.265482783317566,-1.5219695568084717
1711422716345595000,8.287594970703125,2.103512763977051,-1.487532138824463,-1.4669917821884155
1711422716364556000,8.30655615234375,2.2931864261627197,-1.5727477073669434,-1.3365721702575684
1711422716383517200,8.32551708984375,2.3994767665863037,-1.559308648109436,-1.1166608333587646
1711422716402478600,8.344478515625,2.5222606658935547,-1.569998860359192,-0.776103675365448
1711422716421439700,8.363439697265624,2.7733261585235596,-1.8054871559143066,-0.4108065664768219
1711422716440401000,8.38240087890625,2.9746060371398926,-2.1958298683166504,-0.1130099818110466
1711422716459362000,8.401362060546875,3.087615966796875,-2.527834892272949,0.14813470840454102
1711422716478323200,8.4203232421875,3.227198600769043,-2.6939899921417236,0.41294458508491516
1711422716497284400,8.439284423828125,3.3258533477783203,-2.817995548248291,0.7443387508392334
1711422716516245500,8.45824560546875,3.1697773933410645,-2.7135376930236816,0.9868520498275757
1711422716535206700,8.47720654296875,2.822195291519165,-2.345797061920166,1.1282672882080078
1711422716554167800,8.496167724609375,2.4581198692321777,-1.8100687265396118,1.214093804359436
1711422716573129000,8.51512890625,2.2458443641662598,-1.099632978439331,1.286481261253357
1711422716592090400,8.53409033203125,2.1584906578063965,-0.5489383339881897,1.316108226776123
1711422716611051500,8.553051513671875,2.071136951446533,-0.33513569831848145,1.286481261253357
1711422716630012400,8.572012451171876,1.889099359512329,-0.251752644777298,1.2360849380493164
1711422716648973800,8.590973876953125,1.7449352741241455,-0.12805253267288208,1.1511746644973755
1711422716667935000,8.60993505859375,1.7412700653076172,-0.16195552051067352,1.083979606628418
1711422716686896000,8.628896240234376,1.6991204023361206,-0.3006218373775482,1.1658353805541992
1711422716705857300,8.647857177734375,1.5082250833511353,-0.4304305911064148,1.2776236534118652
1711422716724818400,8.666818359375,1.2742639780044556,-0.5144245028495789,1.3209950923919678
1711422716743779600,8.685779541015625,1.0867284536361694,-0.6533962488174438,1.2843432426452637
1711422716762740700,8.70474072265625,0.9789108037948608,-0.6292670965194702,1.314886450767517
1711422716781702100,8.7237021484375,0.8533781170845032,-0.3333030939102173,1.3503166437149048
1711422716800663000,8.7426630859375,0.6688969135284424,-0.03917170315980911,1.2400555610656738
1711422716819624200,8.761624267578124,0.48930269479751587,0.1651625633239746,1.112079381942749
1711422716838585600,8.780585693359376,0.41355544328689575,0.3090212345123291,1.0512982606887817
1711422716857546800,8.799546630859375,0.4462367296218872,0.41408994793891907,0.9960150122642517
1711422716876508000,8.8185078125,0.43401941657066345,0.5173261165618896,0.9550870656967163
1711422716895469000,8.837468994140625,0.33719736337661743,0.4376082420349121,0.9172134399414062
1711422716914430200,8.85643017578125,0.29626941680908203,0.1807396113872528,0.9556979537010193
1711422716933391400,8.875391357421876,0.3090975880622864,-0.13629920780658722,1.0650427341461182
1711422716952352500,8.8943525390625,0.2910770773887634,-0.4496728479862213,1.1511746644973755
1711422716971313700,8.913313720703124,0.25411975383758545,-0.6033053398132324,1.2095122337341309
1711422716990274800,8.93227490234375,0.29138249158859253,-0.7728202939033508,1.3991857767105103
1711422717009236000,8.951236083984375,0.35246896743774414,-1.0580941438674927,1.424842119216919
1711422717028197000,8.970197021484376,0.4514290690422058,-0.940197229385376,1.2932007312774658
1711422717047158300,8.989158203125,0.4920515716075897,-0.5495492219924927,1.174692988395691
1711422717066119700,9.00811962890625,0.47067132592201233,0.12545634806156158,0.9514219164848328
1711422717085080800,9.027080810546876,0.3790415823459625,0.7897717952728271,0.630107045173645
1711422717104042000,9.0460419921875,0.19181154668331146,0.9534835815429688,0.3335321843624115
1711422717123003100,9.065003173828124,-0.14599667489528656,0.5704713463783264,-0.000305432389723137
1711422717141964300,9.08396435546875,-0.40255987644195557,-0.07612902671098709,-0.42088583111763
1711422717160925400,9.102925537109375,-0.3396408259868622,-0.34429866075515747,-0.545502245426178
1711422717179886600,9.121886474609376,-0.35277441143989563,-0.07185296714305878,-0.32650721073150635
1711422717198847700,9.14084765625,-0.5048797130584717,0.21861323714256287,-0.08307760953903198
1711422717217809000,9.159808837890624,-0.536339282989502,-0.025732679292559624,0.05528326332569122
1711422717236770000,9.17877001953125,-0.3689623177051544,-0.9460004568099976,-0.02626718580722809
1711422717255731200,9.197731201171875,-0.3173442482948303,-1.3833796977996826,-0.11453714966773987
1711422717274692400,9.2166923828125,-0.4557051360607147,-1.0379356145858765,-0.10690133273601532
1711422717293653800,9.23565380859375,-0.5390881896018982,-0.4136318266391754,-0.09315688163042068
1711422717312615000,9.254614990234375,-0.49418962001800537,0.023136503994464874,-0.1328630894422531
1711422717331576000,9.273576171875,-0.44501498341560364,0.1807396113872528,-0.205861434340477
1711422717350537200,9.292537109375,-0.435241162776947,0.1556941568851471,-0.27916520833969116
1711422717369498400,9.311498291015624,-0.4569268524646759,0.05673406645655632,-0.2828303873538971
1711422717388459500,9.33045947265625,-0.48563748598098755,-0.12133301794528961,-0.29443681240081787
1711422717407420700,9.349420654296875,-0.44379326701164246,-0.06788235157728195,-0.23884813487529755
1711422717426381800,9.3683818359375,-0.47952884435653687,0.15935935080051422,-0.16737695038318634
1711422717445343000,9.387343017578125,-0.5904008150100708,0.24549128115177155,-0.19639302790164948
1711422717464304000,9.40630419921875,-0.6050615906715393,0.19906556606292725,-0.22815799713134766
1711422717483265300,9.425265380859376,-0.6438514590263367,0.18409937620162964,-0.20463970303535461
1711422717502226400,9.444226318359375,-0.6065887212753296,0.19204062223434448,-0.2360992431640625
1711422717521187600,9.4631875,-0.5586358308792114,0.2632063627243042,-0.25411975383758545
1711422717540148700,9.482148681640625,-0.5396990180015564,0.20517420768737793,-0.3546070158481598
1711422717559110100,9.501110107421875,-0.5134318470954895,0.019471315667033195,-0.4108065664768219
1711422717578071300,9.5200712890625,-0.4816668927669525,-0.031841326504945755,-0.33139413595199585
1711422717597032400,9.539032470703125,-0.4358520209789276,-0.039477135986089706,-0.29413139820098877
1711422717615993600,9.55799365234375,-0.3894262909889221,-0.04650207981467247,-0.34055712819099426
1711422717634954800,9.576954833984376,-0.2935205399990082,-0.09812015295028687,-0.337808221578598
1711422717653916000,9.595916015625,-0.16096286475658417,-0.1527925580739975,-0.25381430983543396
1711422717672877000,9.614876953125,-0.11484257876873016,-0.18058690428733826,-0.09926552325487137
1711422717691838200,9.633838134765625,-0.12492185086011887,-0.26274821162223816,-0.07269290834665298
1711422717710799400,9.65279931640625,-0.09101885557174683,-0.3326922357082367,-0.07360920310020447
1711422717729760500,9.671760498046876,-0.04459312930703163,-0.21662792563438416,-0.022907428443431854
1711422717748721700,9.6907216796875,0.04428769648075104,0.1346193253993988,0.008552107028663158
1711422717767682800,9.709682861328124,0.1386663019657135,0.47639816999435425,0.02107483521103859
1711422717786644000,9.72864404296875,0.164322629570961,0.6245328783988953,0.008552107028663158
1711422717805605000,9.747605224609375,0.10720676928758621,0.5894081592559814,0.03145953640341759
1711422717824566300,9.766566162109376,0.054672397673130035,0.4021781086921692,0.07910698652267456
1711422717843527400,9.78552734375,0.129197895526886,0.2015090137720108,0.03451386094093323
1711422717862488600,9.804488525390624,0.24251331388950348,0.10651954263448715,-0.05192350596189499
1711422717881449700,9.82344970703125,0.24862197041511536,0.012446369975805283,-0.189673513174057
1711422717900411000,9.842410888671875,0.17287473380565643,-0.12102758139371872,-0.360410213470459
1711422717919372000,9.8613720703125,0.09957095980644226,-0.19799654185771942,-0.35246896743774414
1711422717938333200,9.880333251953125,0.04062250629067421,-0.20013457536697388,-0.19211697578430176
1711422717957294300,9.89929443359375,0.031154103577136993,-0.08834631741046906,-0.08674279600381851
1711422717976255500,9.91825537109375,0.07483093440532684,0.1037706509232521,-0.023212861269712448
1711422717995216600,9.937216552734375,0.11178825795650482,0.1651625633239746,0.001221729558892548
1711422718014177800,9.956177734375,0.11484257876873016,0.045738499611616135,-0.001221729558892548
1711422718033139000,9.975138916015625,0.0870482325553894,-0.11033745110034943,-0.01893680728971958
1711422718052100400,9.994100341796875,0.04062250629067421,-0.1268308013677597,-0.05283980444073677
1711422718071061500,10.0130615234375,-0.004581485874950886,0.01824958436191082,-0.10690133273601532
1711422718090022700,10.032022705078125,-0.005803215317428112,0.24426954984664917,-0.1744018942117691
1711422718108983800,10.05098388671875,0.09101885557174683,0.4944186806678772,-0.1957821547985077
1711422718127945000,10.069945068359376,0.25350889563560486,0.6343067288398743,-0.16676609218120575
1711422718146905900,10.08890576171875,0.37354379892349243,0.5548942685127258,-0.1130099818110466
1711422718165867000,10.107866943359374,0.448069304227829,0.23021966218948364,-0.05192350596189499
1711422718184828200,10.126828125,0.5482511520385742,-0.15401428937911987,-0.0009162971982732415
1711422718203789300,10.145789306640625,0.6386591196060181,-0.3378845751285553,0.07269290834665298
1711422718222750500,10.16475048828125,0.630107045173645,-0.2603047490119934,0.13652828335762024
1711422718241711900,10.1837119140625,0.544891357421875,-0.08651372790336609,0.1380554437637329
1711422718260673000,10.202673095703124,0.4731147587299347,0.09460768103599548,0.1802051067352295
1711422718279634200,10.22163427734375,0.4734202027320862,0.1657734364271164,0.32100942730903625
1711422718298595300,10.24059521484375,0.5079340934753418,0.011224640533328056,0.4456258714199066
1711422718317556500,10.259556396484374,0.5409207344055176,-0.14851650595664978,0.5571087002754211
1711422718336517600,10.278517578125,0.5198459029197693,-0.1787542998790741,0.6407971382141113
1711422718355478800,10.297478759765625,0.4364628791809082,-0.095982126891613,0.6273581385612488
1711422718374440000,10.31643994140625,0.2660316228866577,-0.014126247726380825,0.555276095867157
1711422718393401000,10.335401123046875,0.13255766034126282,-0.08437569439411163,0.5195404887199402
1711422718412362200,10.3543623046875,0.09804379940032959,-0.261526495218277,0.4428769648075104
1711422718431323400,10.373323486328125,0.09437860548496246,-0.3827831447124481,0.21685700118541718
1711422718450284500,10.392284423828125,0.015271619893610477,-0.4551706314086914,-0.007024944759905338
1711422718469245400,10.411245361328126,-0.14049890637397766,-0.3876700699329376,-0.04520399495959282
1711422718488206600,10.43020654296875,-0.43004879355430603,-0.17447824776172638,0.06536252796649933
1711422718507167700,10.449167724609374,-0.5094612240791321,-0.0709366723895073,0.007635809946805239
1711422718526129000,10.46812890625,-0.37843072414398193,-0.1066722646355629,-0.04153880476951599
1711422718545090000,10.487090087890625,-0.3246746361255646,-0.2755763828754425,0.016187917441129684
1711422718564051200,10.50605126953125,-0.36254823207855225,-0.4820486605167389,0.06261363625526428
1711422718583012400,10.525012451171875,-0.37781986594200134,-0.5052615404129028,0.037262752652168274
1711422718601973500,10.543973388671875,-0.323452889919281,-0.26305365562438965,-0.051618073135614395
1711422718620934700,10.5629345703125,-0.26542073488235474,0.12881611287593842,-0.06475166976451874
1711422718639896000,10.58189599609375,-0.20189081132411957,0.4382191300392151,-0.06444623321294785
1711422718658857200,10.600857177734374,-0.11759147047996521,0.5716930627822876,-0.16035200655460358
1711422718677818400,10.619818359375,0.006719512399286032,0.6147590279579163,-0.17776164412498474
1711422718696779500,10.638779541015625,0.10873392969369888,0.6666825413703918,-0.2003636509180069
1711422718715740700,10.65774072265625,0.2263254076242447,0.9110284447669983,-0.14233149588108063
1711422718734701800,10.676701904296875,0.2718348205089569,0.9773072600364685,-0.06444623321294785
1711422718753663000,10.6956630859375,0.1853974610567093,0.7717512845993042,-0.01649334840476513
1711422718772624100,10.7146240234375,0.08399390429258347,0.4950295388698578,0.0720820426940918
1711422718791585000,10.7335849609375,0.02932151034474373,0.36369362473487854,0.07880155742168427
1711422718810546200,10.752546142578124,-0.023518294095993042,0.3264308571815491,0.11911863088607788
1711422718829507300,10.77150732421875,-0.1279761642217636,0.2842811942100525,0.21288637816905975
1711422718848468500,10.790468505859375,-0.10873392969369888,0.20609050989151,0.3271180987358093
1711422718867429600,10.8094296875,0.03023780696094036,0.05887209251523018,0.3656025826931
1711422718886390800,10.828390869140625,0.12461641430854797,-0.06482802331447601,0.32681265473365784
1711422718905352000,10.84735205078125,0.05192350596189499,-0.04069886729121208,0.2556469142436981
1711422718924313000,10.86631298828125,-0.007635809946805239,0.16638429462909698,0.20402882993221283
1711422718943274200,10.885274169921875,0.037262752652168274,0.25984659790992737,0.17104214429855347
1711422718962235400,10.9042353515625,0.06291907280683517,0.2170860767364502,0.13072505593299866
1711422718981196500,10.923196533203125,0.023518294095993042,0.10560324788093567,0.12064579129219055
1711422719000157700,10.94215771484375,-0.06383536756038666,0.07689260691404343,0.1337793916463852
1711422719019118800,10.961118896484376,-0.0772743970155716,0.0475710928440094,0.10965022444725037
1711422719038080000,10.980080078125,-0.11026109009981155,0.00603228947147727,0.09162971377372742
1711422719057041200,10.999041259765624,-0.1750127524137497,-0.05322159454226494,0.04764745384454727
1711422719076002300,11.018002197265625,-0.08796452730894089,-0.10545053333044052,0.15179990231990814
1711422719094963500,11.03696337890625,0.02871064469218254,0.05673406645655632,0.13713914155960083
1711422719113924600,11.055924560546876,-0.02260199747979641,0.18471023440361023,0.10598503798246384
1711422719132885800,11.0748857421875,-0.21716243028640747,0.17982332408428192,0.035735588520765305
1711422719151847000,11.093846923828124,-0.17684535682201385,0.16180281341075897,0.11972949653863907
1711422719170808000,11.11280810546875,0.03023780696094036,0.16699515283107758,0.14752385020256042
1711422719189769200,11.131769287109375,-0.024434590712189674,-0.027870705351233482,0.10934479534626007
1711422719208730400,11.15073046875,-0.1646280586719513,-0.34521496295928955,0.17195843160152435
1711422719227691500,11.16969140625,-0.09101885557174683,-0.07124210149049759,0.3026835024356842
1711422719246652700,11.188652587890624,0.005803215317428112,0.24549128115177155,0.24465134739875793
1711422719265613800,11.20761376953125,-0.18112140893936157,0.06559160351753235,0.22510367631912231
1711422719284575000,11.226574951171875,-0.36621344089508057,-0.1882227063179016,0.3442223072052002
1711422719303536000,11.2455361328125,-0.30146175622940063,-0.3000109791755676,0.3289506733417511
1711422719322497300,11.264497314453125,-0.18387030065059662,-0.5199222564697266,0.37171122431755066
1711422719341458400,11.28345849609375,-0.0665842592716217,-0.450589120388031,0.40836310386657715
1711422719360419600,11.302419677734376,-0.0030543238390237093,-0.15859577059745789,0.27947062253952026
1711422719379381000,11.321381103515625,-0.18417572975158691,-0.030314164236187935,0.18692462146282196
1711422719398342100,11.340342041015624,-0.27091851830482483,0.1401171088218689,0.056199558079242706
1711422719417303000,11.359302978515625,-0.210442915558815,0.2632063627243042,-0.08796452730894089
1711422719436264200,11.37826416015625,-0.12370011955499649,0.10560324788093567,-0.21960589289665222
1711422719455225300,11.397225341796876,0.06566796451807022,-0.03275762498378754,-0.29901832342147827
1711422719474186500,11.4161865234375,0.2910770773887634,0.04146244749426842,-0.4673115611076355
1711422719493148000,11.43514794921875,0.34238970279693604,0.16791145503520966,-0.6172788739204407
1711422719512109000,11.454109130859376,0.2922987937927246,0.45013099908828735,-0.6847794055938721
1711422719531070200,11.4730703125,0.3075704276561737,0.8169552683830261,-0.8121446967124939
1711422719550031400,11.49203125,0.37171122431755066,0.9965495467185974,-0.9049961566925049
1711422719568992500,11.510992431640625,0.42974337935447693,0.9113339185714722,-0.9532544612884521
1711422719587953700,11.52995361328125,0.4428769648075104,0.6391936540603638,-0.943786084651947
1711422719606914800,11.548914794921876,0.4667007029056549,0.2592357397079468,-0.9407317638397217
1711422719625876000,11.5678759765625,0.5418370366096497,-0.16562071442604065,-0.9831868410110474
1711422719644837000,11.586837158203124,0.6484329700469971,-0.553214430809021,-0.9651663303375244
1711422719663798300,11.60579833984375,0.7101303339004517,-0.8042798638343811,-0.8640682101249695
1711422719682759400,11.624759521484375,0.6569850444793701,-0.9133192300796509,-0.6863065958023071
1711422719701720600,11.643720458984374,0.5995637774467468,-0.840320885181427,-0.5076286196708679
1711422719720681700,11.662681640625,0.41905322670936584,-0.6585885882377625,-0.41783151030540466
1711422719739643000,11.681642822265625,0.2101374864578247,-0.3329976499080658,-0.22510367631912231
1711422719758604300,11.700604248046876,0.10415244847536087,0.14317142963409424,0.003970621153712273
1711422719777565400,11.7195654296875,0.01588248461484909,0.50144362449646,0.06780599057674408
1711422719796526600,11.738526611328124,-0.08124501258134842,0.493196964263916,0.053756099194288254
1711422719815487700,11.75748779296875,-0.1185077652335167,0.16332997381687164,0.02718348242342472
1711422719834449000,11.776448974609375,-0.08796452730894089,-0.2596938908100128,0.02412915788590908
1711422719853410000,11.79541015625,-0.1444695144891739,-0.39591673016548157,0.1230892539024353
1711422719872371200,11.81437109375,-0.19120067358016968,-0.40660688281059265,0.18875721096992493
1711422719891332400,11.833332275390624,-0.20219624042510986,-0.3788125216960907,0.2513708472251892
1711422719910293500,11.85229345703125,-0.2263254076242447,-0.3131445646286011,0.277332603931427
1711422719929255000,11.8712548828125,-0.2507599890232086,-0.2966512143611908,0.291687935590744
1711422719948216000,11.890216064453124,-0.26450446248054504,-0.3006218373775482,0.2776380479335785
1711422719967177200,11.90917724609375,-0.2571740746498108,-0.15004366636276245,0.24220788478851318
1711422719986138400,11.928138427734375,-0.2205221801996231,-0.054443322122097015,0.15485422313213348
1711422720005099500,11.947099609375,-0.18692462146282196,-0.06238456442952156,0.14721840620040894
1711422720024060700,11.966060791015625,-0.20616686344146729,-0.06757691502571106,0.14233149588108063
1711422720043021800,11.985021728515624,-0.2632827162742615,-0.07979421317577362,0.08918625861406326
1711422720061983000,12.00398291015625,-0.31642794609069824,-0.1472947746515274,0.04825831577181816
1711422720080944400,12.0229443359375,-0.24709481000900269,-0.19188790023326874,0.08826996386051178
1711422720099905500,12.041905517578124,-0.15790854394435883,-0.11858412623405457,0.09651663154363632
1711422720118866700,12.06086669921875,-0.10476330667734146,0.03962985426187515,-0.022907428443431854
1711422720137827800,12.079827880859375,-0.13255766034126282,0.11171189695596695,-0.03909534588456154
1711422720156789000,12.0987890625,-0.26480987668037415,0.09644027799367905,-0.024434590712189674
1711422720175750100,12.117750244140625,-0.2868010103702545,0.16271910071372986,0.013439024798572063
1711422720194711300,12.136711181640624,-0.2409861534833908,0.14592032134532928,0.09621120244264603
1711422720213672700,12.155672607421875,-0.17715078592300415,-0.033368486911058426,0.10384701192378998
1711422720232633900,12.1746337890625,-0.11698060482740402,-0.22792892158031464,0.07513637095689774
1711422720251595000,12.193594970703124,-0.14691297709941864,-0.32016950845718384,0.08888082206249237
1711422720270556200,12.21255615234375,-0.19730933010578156,-0.21540619432926178,0.01893680728971958
1711422720289517300,12.231517333984375,-0.20616686344146729,0.10163262486457825,-0.0818558782339096
1711422720308478500,12.250478515625,-0.1844811588525772,0.4956403970718384,-0.24862197041511536
1711422720327439600,12.269439697265625,-0.19150610268115997,0.8936188220977783,-0.32070401310920715
1711422720346401000,12.288401123046874,-0.1389717310667038,1.242117166519165,-0.2412915825843811
1711422720365362200,12.307362060546875,0.10140355676412582,1.4299581050872803,-0.2364046722650528
1711422720384323300,12.3263232421875,0.43982264399528503,1.2943460941314697,-0.2721402645111084
1711422720403284500,12.345284423828126,0.7189878225326538,0.9754747152328491,-0.27488914132118225
1711422720422246000,12.364245849609375,0.8549052476882935,0.6462185978889465,-0.3338375985622406
1711422720441207000,12.38320703125,0.8246674537658691,0.4177551567554474,-0.3992001414299011
1711422720460168200,12.402168212890626,0.7070759534835815,0.3453676700592041,-0.4004218578338623
1711422720479129300,12.42112939453125,0.5769617557525635,0.3704131245613098,-0.35063639283180237
1711422720498090500,12.440090576171874,0.43004879355430603,0.3652207851409912,-0.3231474757194519
1711422720517051600,12.4590517578125,0.2611446976661682,0.24365869164466858,-0.27488914132118225
1711422720536013000,12.478012939453125,0.19608759880065918,0.07872519642114639,-0.21319180727005005
1711422720554974200,12.49697412109375,0.28435754776000977,-0.09537126123905182,-0.27427828311920166
1711422720573935400,12.515935302734375,0.3084867000579834,-0.3430769443511963,-0.24831652641296387
1711422720592896500,12.534896484375,0.2110537886619568,-0.5348884463310242,-0.1536324918270111
1711422720611857700,12.553857666015626,0.03237583488225937,-0.553214430809021,-0.043371398001909256
1711422720630819000,12.572819091796875,-0.06902772188186646,-0.343993216753006,0.029626941308379173
1711422720649780200,12.5917802734375,-0.1490510106086731,0.05367974191904068,0.08674279600381851
1711422720668741400,12.610741455078125,-0.17073670029640198,0.3053560256958008,0.07788526266813278
1711422720687702500,12.62970263671875,-0.10018182545900345,0.3560578227043152,0.04153880476951599
1711422720706663700,12.64866357421875,-0.0668896958231926,0.3591121435165405,0.056810423731803894
1711422720725624800,12.667624755859375,-0.07422006875276566,0.26626068353652954,0.1328630894422531
1711422720744586200,12.686586181640624,-0.09193515032529831,0.20303617417812347,0.2009745091199875
1711422720763547400,12.70554736328125,-0.13622283935546875,0.226859912276268,0.2211330533027649
1711422720782508500,12.724508544921875,-0.1750127524137497,0.22655446827411652,0.1853974610567093
1711422720801469700,12.7434697265625,-0.21471896767616272,0.33803731203079224,0.26878049969673157
1711422720820431000,12.76243115234375,-0.2669478952884674,0.5002219080924988,0.389120876789093
1711422720839392000,12.78139208984375,-0.3026835024356842,0.4886154532432556,0.35766133666038513
1711422720858353400,12.800353515625,-0.31642794609069824,0.2888626754283905,0.2984074354171753
1711422720877314600,12.819314453125,-0.31062474846839905,0.09980003535747528,0.35705047845840454
1711422720896275700,12.838275634765624,-0.3029889166355133,-0.11461350321769714,0.39309149980545044
1711422720915236900,12.85723681640625,-0.26358816027641296,-0.235564723610878,0.36774060130119324
1711422720934198300,12.8761982421875,-0.2608392536640167,-0.270689457654953,0.2977965772151947
1711422720953159400,12.895159423828124,-0.24862197041511536,-0.28809911012649536,0.25534147024154663
1711422720972120600,12.91412060546875,-0.16157373785972595,-0.22609633207321167,0.30115634202957153
1711422720991081700,12.933081787109375,-0.08155044913291931,-0.18180863559246063,0.2861901521682739
1711422721010043000,12.95204296875,-0.10445787757635117,-0.2248746007680893,0.1701258420944214
1711422721029004300,12.97100439453125,-0.08888082206249237,-0.18150319159030914,0.03756818547844887
1711422721047965400,12.98996533203125,0.003359756199643016,-0.02848157100379467,0.006108647678047419
1711422721066926600,13.008926513671875,0.13927717506885529,0.10132719576358795,0.007330377586185932
1711422721085887700,13.0278876953125,0.23915356397628784,0.22594361007213593,-0.05070177838206291
1711422721104849000,13.046848876953124,0.2632827162742615,0.24152065813541412,-0.05497783049941063
1711422721123810000,13.06581005859375,0.1747073233127594,0.20273074507713318,-0.05497783049941063
1711422721142771500,13.084771484375,0.17898337543010712,0.27053675055503845,-0.051618073135614395
1711422721161732600,13.103732666015626,0.26389357447624207,0.4180605709552765,-0.0412333719432354
1711422721180693800,13.12269384765625,0.21991132199764252,0.4079813063144684,-0.019242240116000175
1711422721199655200,13.1416552734375,0.09712749719619751,0.1660788655281067,-0.04153880476951599
1711422721218616000,13.160615966796875,0.03909534588456154,-0.11522436887025833,-0.017104214057326317
1711422721237577500,13.179577392578125,-0.000305432389723137,-0.20502148568630219,0.06047561392188072
1711422721256538600,13.19853857421875,-0.07849612087011337,-0.18119776248931885,0.0821613147854805
1711422721275499800,13.217499755859375,-0.1340848207473755,-0.17631085216999054,0.035124726593494415
1711422721294461000,13.2364609375,-0.14477495849132538,-0.11125374585390091,0.05803215503692627
1711422721313422300,13.25542236328125,-0.10965022444725037,0.1141553521156311,0.11148282140493393
1711422721332383500,13.274383544921875,0.005192350596189499,0.29680392146110535,0.03909534588456154
1711422721351344600,13.2933447265625,0.1484401375055313,0.2989419400691986,-0.07116574794054031
1711422721370305800,13.312305908203125,0.18692462146282196,0.2329685539007187,-0.09712749719619751
1711422721389267000,13.331266845703125,0.1893680840730667,0.13614648580551147,-0.12522727251052856
1711422721408228000,13.35022802734375,0.1905898153781891,0.13767364621162415,-0.13500112295150757
1711422721427189500,13.369189453125,0.16554436087608337,0.1703549176454544,-0.11484257876873016
1711422721446150700,13.388150634765625,0.08491020649671555,0.2176969349384308,-0.11606431007385254
1711422721465111800,13.40711181640625,0.0616973415017128,0.22899793088436127,-0.17226386070251465
1711422721484073000,13.426072998046875,0.09346231073141098,0.11201732605695724,-0.2831358313560486
1711422721503034000,13.4450341796875,0.13133592903614044,0.07750347256660461,-0.25411975383758545
1711422721521995500,13.46399560546875,0.13561198115348816,0.09613484144210815,-0.21716243028640747
1711422721540956700,13.482956787109375,0.11881320178508759,0.10713040828704834,-0.2528980076313019
1711422721559917800,13.501917724609376,0.08307760953903198,-0.034895651042461395,-0.23823726177215576
1711422721578879000,13.52087890625,0.13927717506885529,-0.24656029045581818,-0.14782927930355072
1711422721597840100,13.539840087890624,0.2974911332130432,-0.45730865001678467,-0.11453714966773987
1711422721616801300,13.55880126953125,0.4370737373828888,-0.7297543287277222,-0.13927717506885529
1711422721635762700,13.5777626953125,0.37140578031539917,-1.050763726234436,-0.12675444781780243
1711422721654723800,13.596723876953124,0.11148282140493393,-1.1463640928268433,-0.006108647678047419
1711422721673685000,13.61568505859375,-0.14721840620040894,-0.6949350237846375,0.036651886999607086
1711422721692646100,13.634646240234375,-0.18661919236183167,-0.07521272450685501,-0.04245510324835777
1711422721711607600,13.653607666015626,-0.0565049909055233,0.43974629044532776,-0.13958260416984558
1711422721730568700,13.672568603515625,0.07238747924566269,0.6162862181663513,-0.2260199636220932
1711422721749529900,13.69152978515625,0.10476330667734146,0.3667479455471039,-0.28924447298049927
1711422721768491000,13.710490966796876,0.11911863088607788,-0.024510949850082397,-0.3194822669029236
1711422721787452200,13.7294521484375,0.17318016290664673,-0.2456440031528473,-0.3222311735153198
1711422721806413300,13.748413330078124,0.2409861534833908,-0.2874882221221924,-0.2822195291519165
1711422721825374700,13.767374755859375,0.2370155304670334,-0.12286017835140228,-0.15088360011577606
1711422721844335900,13.7863359375,0.10537417232990265,0.13187043368816376,-0.046425722539424896
1711422721863297000,13.805297119140626,-0.03481929376721382,0.3340666890144348,-0.015577051788568497
1711422721882258200,13.824258056640625,-0.12034036219120026,0.4134790897369385,0.0015271619195118546
1711422721901219300,13.84321923828125,-0.1386663019657135,0.31757333874702454,0.031154103577136993
1711422721920180500,13.862180419921875,-0.07605266571044922,0.124845489859581,0.05070177838206291
1711422721939142000,13.881141845703125,-0.04306596517562866,-0.08926261961460114,0.07086031138896942
1711422721958103000,13.90010302734375,-0.025961752980947495,-0.2703840136528015,0.057726722210645676
1711422721977064200,13.919064208984375,0.0308486707508564,-0.24717116355895996,0.05955931544303894
1711422721996025300,13.938025390625,0.05070177838206291,-0.091400645673275,0.0665842592716217
1711422722014986500,13.956986572265626,-0.007024944759905338,-0.04711294546723366,0.05742128938436508
1711422722033947600,13.97594775390625,-0.01893680728971958,-0.09506583213806152,0.04214967042207718
1711422722052909000,13.994908935546874,0.043371398001909256,-0.08559742569923401,0.0021380267571657896
1711422722071870200,14.0138701171875,0.14233149588108063,-0.017486004158854485,-0.05192350596189499
1711422722090831400,14.032831298828125,0.20250166952610016,0.03627009689807892,-0.09193515032529831
1711422722109792500,14.05179248046875,0.20952661335468292,0.0475710928440094,-0.09040798991918564
1711422722128753700,14.070753662109375,0.22388194501399994,0.030161447823047638,-0.08155044913291931
1711422722147714800,14.08971484375,0.28435754776000977,0.06101011857390404,-0.07086031138896942
1711422722166676000,14.108676025390626,0.35094180703163147,0.16730059683322906,-0.06047561392188072
1711422722185637400,14.127637451171875,0.35277441143989563,0.21616977453231812,-0.0818558782339096
1711422722204598500,14.1465986328125,0.291687935590744,0.20883940160274506,-0.14202606678009033
1711422722223559700,14.1655595703125,0.1951712965965271,0.20059272646903992,-0.19883649051189423
1711422722242520800,14.184520751953125,0.05864302068948746,0.19448406994342804,-0.1945604383945465
1711422722261482000,14.20348193359375,-0.032681263983249664,0.19051344692707062,-0.18875721096992493
1711422722280443100,14.222443115234375,-0.08368847519159317,0.2225838601589203,-0.22846342623233795
1711422722299404500,14.241404541015624,-0.13072505593299866,0.20547963678836823,-0.2675587832927704
1711422722318365700,14.26036572265625,-0.17623448371887207,0.15141810476779938,-0.23823726177215576
1711422722337326800,14.279326904296875,-0.24312418699264526,0.10682497918605804,-0.13164135813713074
1711422722356288000,14.2982880859375,-0.30024003982543945,0.0243582334369421,0.007635809946805239
1711422722375249200,14.317249267578125,-0.31520622968673706,-0.11308634281158447,0.0821613147854805
1711422722394210600,14.33621044921875,-0.3032943606376648,-0.23373213410377502,0.09957095980644226
1711422722413171500,14.35517138671875,-0.2559523284435272,-0.32414013147354126,0.12736530601978302
1711422722432132900,14.3741328125,-0.22693626582622528,-0.25847217440605164,0.18814635276794434
1711422722451094000,14.393093994140624,-0.24495677649974823,-0.1421024203300476,0.20402882993221283
1711422722470055200,14.41205517578125,-0.22235478460788727,-0.02084576152265072,0.16065743565559387
1711422722489016300,14.431016357421875,-0.15241076052188873,0.14805835485458374,0.0925460159778595
1711422722507977700,14.449977783203124,-0.06230820715427399,0.24121522903442383,0.09651663154363632
1711422722526939000,14.46893896484375,-0.014049889519810677,0.17982332408428192,0.12186752259731293
1711422722545900000,14.487900146484375,-0.0054977829568088055,0.05154171586036682,0.1081230640411377
1711422722564861200,14.506861083984376,-0.01588248461484909,-0.06452259421348572,0.08765909820795059
1711422722583822300,14.525822265625,-0.04520399495959282,-0.106366828083992,0.08643736690282822
1711422722602783500,14.544783447265624,-0.06566796451807022,-0.07154753804206848,0.07238747924566269
1711422722621744600,14.56374462890625,-0.06383536756038666,-0.015042545273900032,0.04276053607463837
1711422722640706000,14.5827060546875,-0.05070177838206291,0.047265663743019104,0.007941242307424545
1711422722659667200,14.601667236328124,-0.03451386094093323,0.08391755074262619,0.010384701192378998
1711422722678628400,14.62062841796875,-0.011911863461136818,0.07078395783901215,0.031154103577136993
1711422722697589500,14.639589599609375,0.017104214057326317,0.05154171586036682,0.041844237595796585
1711422722716550700,14.658550537109376,0.03176496922969818,0.021609341725707054,0.0409279391169548
1711422722735511800,14.67751171875,0.027488915249705315,-0.013820815831422806,0.03023780696094036
1711422722754473000,14.696472900390624,0.008552107028663158,-0.010461059398949146,0.022296564653515816
1711422722773434000,14.71543408203125,0.005192350596189499,0.03260490670800209,0.018325943499803543
1711422722792395500,14.7343955078125,0.014049889519810677,0.08727730810642242,0.007635809946805239
1711422722811356700,14.753356689453126,0.02779434807598591,0.10774127393960953,0.013133592903614044
1711422722830317800,14.77231787109375,0.029932374134659767,0.11629338562488556,0.027488915249705315
1711422722849279000,14.791279052734374,0.004581485874950886,0.10590868443250656,0.020158538594841957
1711422722868240100,14.810240234375,-0.0015271619195118546,0.05734493210911751,0.021991131827235222
1711422722887201300,14.829201171875,0.014049889519810677,0.01672242395579815,0.061391908675432205
1711422722906162400,14.848162353515624,-0.010079269297420979,-0.07002037763595581,0.09040798991918564
1711422722925123600,14.86712353515625,-0.018325943499803543,-0.07765618711709976,0.04978547990322113
1711422722944085000,14.8860849609375,-0.02779434807598591,-0.07643445581197739,0.0409279391169548
1711422722963046100,14.905046142578126,-0.061391908675432205,-0.08529199659824371,0.06505709886550903
1711422722982007300,14.92400732421875,-0.08613193035125732,-0.0709366723895073,0.06108647957444191
1711422723000968400,14.942968505859374,-0.06719512492418289,-0.038560837507247925,0.0616973415017128
1711422723019929600,14.9619296875,-0.038789913058280945,-0.046196650713682175,0.07941242307424545
1711422723038890800,14.980890869140625,-0.048563748598098755,-0.13416117429733276,0.07452550530433655
1711422723057852000,14.999851806640624,-0.06994401663541794,-0.2086866796016693,0.025961752980947495
1711422723076813300,15.018813232421875,-0.06811141967773438,-0.1839466542005539,0.021380268037319183
1711422723095774500,15.0377744140625,-0.06536252796649933,-0.12499820441007614,0.03848448023200035
1711422723114735600,15.056735595703126,-0.05803215503692627,-0.09292780607938766,0.0412333719432354
1711422723133696800,15.07569677734375,-0.06200277432799339,-0.09567669779062271,0.04153880476951599
1711422723152658000,15.094657958984374,-0.07238747924566269,-0.10514509677886963,0.053756099194288254
1711422723171619000,15.113619140625,-0.07147117704153061,-0.10881029069423676,0.056810423731803894
1711422723190580200,15.132580322265625,-0.05039634555578232,-0.07368556410074234,0.035735588520765305
1711422723209541400,15.151541259765626,-0.01282816007733345,-0.004046979360282421,0.016187917441129684
1711422723228502800,15.170502685546875,0.026878049597144127,0.06956222653388977,-0.010079269297420979
1711422723247464000,15.1894638671875,0.06963858753442764,0.10682497918605804,-0.03237583488225937
1711422723266425000,15.208425048828126,0.10415244847536087,0.10224349051713943,-0.0412333719432354
1711422723285386200,15.22738623046875,0.10720676928758621,0.04604393243789673,-0.04276053607463837
1711422723304347400,15.246347412109374,0.08949168771505356,0.025579962879419327,-0.01649334840476513
1711422723323308500,15.26530859375,0.0668896958231926,0.05520690605044365,0.004886918235570192
1711422723342269700,15.284269775390625,0.035124726593494415,0.0781143307685852,-0.0015271619195118546
1711422723361230800,15.30323095703125,0.02260199747979641,0.06925679743289948,0.009773836471140385
1711422723380192000,15.32219189453125,0.008246674202382565,0.07047852128744125,0.032681263983249664
1711422723399153400,15.3411533203125,-0.008552107028663158,0.01183550525456667,0.033597562462091446
1711422723418114600,15.360114501953126,-0.024434590712189674,-0.030925029888749123,0.025961752980947495
1711422723437075700,15.37907568359375,-0.022296564653515816,-0.04864010959863663,0.02718348242342472
1711422723456036900,15.398036865234374,-0.013133592903614044,-0.055970486253499985,0.029626941308379173
1711422723474998000,15.416998046875,-0.01282816007733345,-0.0397825688123703,0.022907428443431854
1711422723493959200,15.435959228515625,-0.011300998739898205,-0.01259908638894558,0.0030543238390237093
1711422723512920300,15.45492041015625,-0.005192350596189499,0.00511599238961935,-0.018631376326084137
1711422723531881500,15.473881591796875,0.004581485874950886,-0.004963276442140341,-0.03329212963581085
1711422723550842600,15.492842529296874,0.023823726922273636,-0.014737112447619438,-0.05070177838206291
1711422723569804000,15.511803955078125,0.053145237267017365,-0.015958841890096664,-0.07238747924566269
1711422723588765200,15.53076513671875,0.06261363625526428,-0.012904518283903599,-0.07391463965177536
1711422723607726300,15.549726318359374,0.03176496922969818,-0.031841326504945755,-0.06475166976451874
1711422723626687500,15.5686875,0.0030543238390237093,-0.06666062027215958,-0.06291907280683517
1711422723645648600,15.587648681640625,0.0015271619195118546,-0.059635672718286514,-0.07452550530433655
1711422723664609800,15.60660986328125,0.0030543238390237093,-0.05719221383333206,-0.09346231073141098
1711422723683571000,15.625571044921875,-0.0015271619195118546,-0.173256516456604,-0.08857539296150208
1711422723702532000,15.644531982421874,0.004276053514331579,-0.31955865025520325,-0.09376774728298187
1711422723721493200,15.6634931640625,0.02260199747979641,-0.3797288239002228,-0.08277218043804169
1711422723740454400,15.682454345703125,0.05039634555578232,-0.3271944522857666,-0.06475166976451874
1711422723759415800,15.701415771484376,0.06352993845939636,-0.2089921087026596,-0.06750056147575378
1711422723778377000,15.720376953125,0.0821613147854805,-0.07735075056552887,-0.06750056147575378
1711422723797338000,15.739338134765624,0.09926552325487137,0.05826122686266899,-0.04428769648075104
1711422723816299300,15.75829931640625,0.09651663154363632,0.11354449391365051,-0.023518294095993042
1711422723835260400,15.777260498046875,0.10354158282279968,0.0423787422478199,-0.02412915788590908
1711422723854221600,15.7962216796875,0.1078176349401474,-0.01259908638894558,-0.013439024798572063
1711422723873182700,15.8151826171875,0.10048725455999374,-0.013515383005142212,-0.006414080038666725
1711422723892143900,15.834143798828125,0.08399390429258347,0.0017562361899763346,0.0027488914784044027
1711422723911105000,15.85310498046875,0.06841685622930527,0.006948587018996477,-0.0009162971982732415
1711422723930066200,15.872066162109375,0.08429934084415436,0.049709122627973557,-0.010690134018659592
1711422723949027600,15.891027587890624,0.10598503798246384,0.1340084671974182,-0.03848448023200035
1711422723967988700,15.90998876953125,0.09804379940032959,0.19265148043632507,-0.04214967042207718
1711422723986950000,15.928949951171875,0.053756099194288254,0.16210824251174927,-0.013439024798572063
1711422724005911000,15.9479111328125,0.012522728182375431,0.047265663743019104,-0.010384701192378998
1711422724024872200,15.9668720703125,-0.008246674202382565,-0.02542724646627903,-0.019853105768561363
1711422724043833300,15.985833251953125,-0.021991131827235222,-0.007101302966475487,-0.006108647678047419
1711422724062794500,16.00479443359375,-0.044898562133312225,0.05673406645655632,0.017104214057326317
1711422724081755600,16.023755615234375,-0.07941242307424545,0.1401171088218689,-0.006719512399286032
1711422724100716800,16.042716796875,-0.1279761642217636,0.2473238706588745,-0.000610864779446274
1711422724119678000,16.061677978515625,-0.15088360011577606,0.32276567816734314,0.029932374134659767
1711422724138639400,16.080639404296875,-0.16310089826583862,0.3346775472164154,0.07880155742168427
1711422724157600500,16.0996005859375,-0.16126830875873566,0.22869250178337097,0.10965022444725037
1711422724176561700,16.118561767578125,-0.14813470840454102,0.04085158184170723,0.07024945318698883
1711422724195522800,16.137522705078126,-0.1279761642217636,-0.10850485414266586,0.04459312930703163
1711422724214484000,16.15648388671875,-0.1230892539024353,-0.1534034162759781,0.04734202101826668
1711422724233445000,16.175445068359377,-0.13133592903614044,-0.12988512217998505,0.038789913058280945
1711422724252406300,16.19440625,-0.16065743565559387,-0.07796161621809006,0.03390299528837204
1711422724271367400,16.213367431640624,-0.16065743565559387,-0.06085740402340889,0.04734202101826668
1711422724290328600,16.23232861328125,-0.13622283935546875,-0.034895651042461395,0.05528326332569122
1711422724309290000,16.2512900390625,-0.13469567894935608,-0.0012980876490473747,0.047036588191986084
1711422724328251100,16.270251220703123,-0.14660754799842834,-0.0025198173243552446,0.024740023538470268
1711422724347212300,16.28921240234375,-0.13927717506885529,-0.018402300775051117,0.02107483521103859
1711422724366173400,16.30817333984375,-0.1279761642217636,-0.02909243479371071,0.03329212963581085
1711422724385134600,16.327134521484375,-0.13683371245861053,-0.06879864633083344,0.029932374134659767
1711422724404095700,16.346095703125,-0.14752385020256042,-0.17417281866073608,0.021380268037319183
1711422724423057000,16.365056884765625,-0.14508038759231567,-0.26885685324668884,0.04886918142437935
1711422724442018000,16.38401806640625,-0.12980876863002777,-0.29390230774879456,0.07910698652267456
1711422724460979500,16.4029794921875,-0.10965022444725037,-0.23373213410377502,0.06872228533029556
1711422724479940600,16.421940673828125,-0.10201441496610641,-0.16195552051067352,0.04886918142437935
1711422724498901800,16.44090185546875,-0.08155044913291931,-0.09414953738451004,0.0256563201546669
1711422724517863000,16.45986279296875,-0.04734202101826668,-0.019013166427612305,0.01893680728971958
1711422724536824000,16.478823974609377,-0.024434590712189674,0.03107774630188942,0.00946840364485979
1711422724555785200,16.49778515625,-0.01954767294228077,0.021609341725707054,-0.014049889519810677
1711422724574746400,16.516746337890623,-0.01435532234609127,-0.008933897130191326,-0.02718348242342472
1711422724593707800,16.535707763671876,0.009773836471140385,-0.006185005884617567,-0.021685699000954628
1711422724612669000,16.5546689453125,0.043982263654470444,0.020082179456949234,-0.017715077847242355
1711422724631630000,16.573630126953127,0.0616973415017128,0.043600473552942276,-0.02871064469218254
1711422724650591200,16.59259130859375,0.06841685622930527,0.06345357745885849,-0.043371398001909256
1711422724669552600,16.611552734375,0.07788526266813278,0.10529781877994537,-0.05406153202056885
1711422724688513800,16.630513671875,0.08765909820795059,0.1495855152606964,-0.06230820715427399
1711422724707474700,16.649474609375,0.09101885557174683,0.15691588819026947,-0.06902772188186646
1711422724726436000,16.66843603515625,0.08674279600381851,0.11843141168355942,-0.07544180005788803
1711422724745397200,16.687397216796874,0.08277218043804169,0.056428633630275726,-0.07299833744764328
1711422724764358400,16.7063583984375,0.08032871782779694,-0.00007635809743078426,-0.06627883017063141
1711422724783319800,16.72531982421875,0.06811141967773438,-0.01718057133257389,-0.05253437161445618
1711422724802281000,16.744281005859374,0.04245510324835777,-0.008017600513994694,-0.035735588520765305
1711422724821242000,16.7632421875,0.012522728182375431,0.002061668550595641,-0.03145953640341759
1711422724840203300,16.782203369140625,-0.010690134018659592,0.00511599238961935,-0.03787361457943916
1711422724859164400,16.801164306640626,-0.018325943499803543,-0.016875140368938446,-0.03543015569448471
1711422724878125600,16.82012548828125,-0.010384701192378998,-0.08254310488700867,-0.021685699000954628
1711422724897087000,16.8390869140625,0.011911863461136818,-0.1689804643392563,-0.010690134018659592
1711422724916048100,16.858048095703126,0.024740023538470268,-0.229150652885437,-0.023212861269712448
1711422724935009300,16.87700927734375,0.04550942778587341,-0.2294560819864273,-0.06017018109560013
1711422724953970400,16.895970458984376,0.06352993845939636,-0.12957969307899475,-0.05925388261675835
1711422724972931600,16.914931640625,0.06536252796649933,-0.0449749194085598,-0.04734202101826668
1711422724991893000,16.93389306640625,0.07513637095689774,-0.0077121676877141,-0.04978547990322113
1711422725010854100,16.952854248046876,0.09315688163042068,0.04543306678533554,-0.028405211865901947
1711422725029815300,16.971815185546873,0.12705987691879272,0.09949459880590439,-0.036651886999607086
1711422725048776700,16.990776611328126,0.16004657745361328,0.14744748175144196,-0.07238747924566269
1711422725067737600,17.009737548828124,0.15057817101478577,0.20395247638225555,-0.09193515032529831
1711422725086699000,17.028698974609377,0.1380554437637329,0.21586434543132782,-0.0870482325553894
1711422725105660200,17.04766015625,0.14080433547496796,0.18745912611484528,-0.06414080411195755
1711422725124621300,17.066621337890624,0.14172062277793884,0.1508072465658188,-0.047952886670827866
1711422725143582700,17.085582763671876,0.12217295914888382,0.12606722116470337,-0.03787361457943916
1711422725162543900,17.1045439453125,0.07574722915887833,0.1303432732820511,-0.0256563201546669
1711422725181505000,17.123505126953123,0.038789913058280945,0.14744748175144196,-0.015577051788568497
1711422725200466200,17.142466064453124,0.005803215317428112,0.13645191490650177,0.000305432389723137
1711422725219427600,17.161427490234374,-0.023823726922273636,0.06681333482265472,0.016798781231045723
1711422725238388700,17.180388671875,-0.024740023538470268,-0.033979352563619614,0.011300998739898205
1711422725257350100,17.19935009765625,-0.011300998739898205,-0.09017891436815262,0.010384701192378998
1711422725276311000,17.21831103515625,-0.01588248461484909,-0.08926261961460114,0.016187917441129684
1711422725295272400,17.2372724609375,-0.03329212963581085,-0.0654388889670372,0.010995565913617611
1711422725314233600,17.256233642578124,-0.034208428114652634,-0.04955640435218811,0.0030543238390237093
1711422725333195000,17.275195068359373,-0.014049889519810677,-0.033368486911058426,-0.0030543238390237093
1711422725352156200,17.29415625,0.014966187067329884,-0.0058795735239982605,-0.010995565913617611
1711422725371117300,17.313117431640624,0.037262752652168274,0.040546149015426636,-0.015271619893610477
1711422725390078500,17.332078369140625,0.03817904740571976,0.07108938694000244,-0.0360410213470459
1711422725409040000,17.351039794921874,0.03756818547844887,0.06925679743289948,-0.04367683082818985
1711422725428001000,17.3700009765625,0.035124726593494415,0.06620246917009354,-0.033597562462091446
1711422725446962200,17.388962158203125,0.03023780696094036,0.07353284955024719,-0.03176496922969818
1711422725465923600,17.407923583984374,0.016798781231045723,0.08636100590229034,-0.03237583488225937
1711422725484884700,17.426884765625,0.002443459117785096,0.0836121141910553,-0.025350889191031456
1711422725503846000,17.445845947265624,-0.010995565913617611,0.061620984226465225,-0.016187917441129684
1711422725522807300,17.464807373046874,-0.028405211865901947,0.04146244749426842,-0.007635809946805239
1711422725541768400,17.4837685546875,-0.04764745384454727,0.016416991129517555,0.01740964688360691
1711422725560729600,17.5027294921875,-0.05528326332569122,-0.016569707542657852,0.03695731982588768
1711422725579690800,17.521690673828125,-0.05497783049941063,-0.02848157100379467,0.04062250629067421
1711422725598652200,17.540652099609375,-0.056199558079242706,-0.013820815831422806,0.037262752652168274
1711422725617613300,17.55961328125,-0.06352993845939636,-0.011682788841426373,0.02932151034474373
1711422725636574700,17.57857470703125,-0.06322450190782547,-0.031230462715029716,0.020158538594841957
1711422725655535900,17.597535888671874,-0.057726722210645676,-0.04528035223484039,0.019242240116000175
1711422725674497000,17.6164970703125,-0.04917461425065994,-0.04589121788740158,0.0204639695584774
1711422725693458400,17.63545849609375,-0.038789913058280945,-0.034895651042461395,0.02260199747979641
1711422725712419600,17.654419677734374,-0.023823726922273636,-0.019013166427612305,0.016187917441129684
1711422725731380700,17.673380615234375,-0.005192350596189499,0.0023671009112149477,0.008246674202382565
1711422725750342000,17.692341796875,0.004581485874950886,0.01183550525456667,-0.0021380267571657896
1711422725769303300,17.71130322265625,0.004886918235570192,-0.0009926552884280682,-0.004886918235570192
1711422725788264400,17.730264404296875,0.016187917441129684,-0.00923932995647192,-0.0027488914784044027
1711422725807225900,17.749225830078124,0.014966187067329884,-0.00679587060585618,-0.006108647678047419
1711422725826187000,17.76818701171875,-0.007635809946805239,-0.025732679292559624,-0.003970621153712273
1711422725845148200,17.787148193359375,-0.021991131827235222,-0.10483966767787933,0.015271619893610477
1711422725864109600,17.806109619140624,-0.016187917441129684,-0.18211406469345093,0.011606430634856224
1711422725883070700,17.82507080078125,0.0009162971982732415,-0.24167338013648987,0.009773836471140385
1711422725902032000,17.844031982421875,0.0256563201546669,-0.26335906982421875,0.008246674202382565
1711422725920993300,17.8629931640625,0.02779434807598591,-0.29451319575309753,0.03940077871084213
1711422725939954400,17.881954345703125,0.011606430634856224,-0.3274998664855957,0.0668896958231926
1711422725958915800,17.900915771484375,-0.0021380267571657896,-0.2923751473426819,0.046425722539424896
1711422725977877000,17.919876953125,-0.032070402055978775,-0.1882227063179016,0.044898562133312225
1711422725996838100,17.938838134765625,-0.03023780696094036,-0.04222602769732475,0.11698060482740402
1711422726015799600,17.957799560546874,-0.03145953640341759,0.16241367161273956,0.1545487940311432
1711422726034760700,17.9767607421875,-0.04062250629067421,0.34353506565093994,0.15607595443725586
1711422726053722000,17.99572216796875,-0.1026252806186676,0.45104727149009705,0.15302163362503052
1711422726072683300,18.014683349609374,-0.1591302752494812,0.7528144717216492,0.22846342623233795
1711422726091644400,18.03364453125,-0.15027274191379547,0.9415717124938965,0.17318016290664673
1711422726110605800,18.052605712890625,-0.1127045527100563,0.8447496294975281,0.11881320178508759
1711422726129567000,18.07156689453125,-0.1334739476442337,0.47639816999435425,0.11636973917484283
1711422726148528000,18.090528076171875,-0.0974329337477684,0.08544471114873886,0.10903936624526978
1711422726167489500,18.109489501953124,-0.07574722915887833,0.056428633630275726,0.017715077847242355
1711422726186450700,18.12845068359375,-0.010384701192378998,0.3053560256958008,-0.043371398001909256
1711422726205411800,18.147411865234375,0.01588248461484909,0.45471248030662537,-0.004276053514331579
1711422726224373200,18.166373291015624,-0.05345066636800766,0.3698022663593292,0.032681263983249664
1711422726243334400,18.18533447265625,-0.09437860548496246,0.27084216475486755,-0.020158538594841957
1711422726262295600,18.204295654296875,-0.05039634555578232,0.3646099269390106,-0.013439024798572063
1711422726281257000,18.223257080078124,-0.011911863461136818,0.2836703360080719,0.09865466505289078
1711422726300218000,18.242218017578125,-0.08643736690282822,0.12820523977279663,0.2159406989812851
1711422726319179500,18.261179443359374,-0.10140355676412582,0.08025235682725906,0.09162971377372742
1711422726338140700,18.280140625,-0.06933315098285675,0.026801692321896553,0.07299833744764328
1711422726357101800,18.299101806640625,-0.15088360011577606,-0.10911571979522705,0.2205221801996231
1711422726376063200,18.318063232421874,-0.29016077518463135,-0.14026983082294464,0.3023780584335327
1711422726395024400,18.3370244140625,-0.2718348205089569,-0.01870773360133171,0.19303326308727264
1711422726413985500,18.355985595703125,-0.12217295914888382,0.013668099418282509,0.17348559200763702
1711422726432947000,18.374947021484374,-0.16584978997707367,-0.04955640435218811,0.17623448371887207
1711422726451908000,18.393908203125,-0.21685700118541718,-0.12102758139371872,0.22663083672523499
1711422726470869500,18.412869384765624,-0.1744018942117691,-0.26274821162223816,0.277332603931427
1711422726489830700,18.43183056640625,-0.1490510106086731,-0.24442227184772491,0.27091851830482483
1711422726508791800,18.450791748046875,-0.02107483521103859,-0.02023489587008953,0.3121519088745117
1711422726527753200,18.469753173828124,0.029626941308379173,-0.2407570779323578,0.508544921875
1711422726546714400,18.48871435546875,-0.26389357447624207,-0.6023890376091003,0.609948456287384
1711422726565675500,18.507675537109375,-0.40836310386657715,-0.6912698745727539,0.6414080262184143
1711422726584637000,18.526636962890624,-0.29413139820098877,-0.21510076522827148,0.778241753578186
1711422726603598000,18.54559814453125,-0.14752385020256042,-0.11125374585390091,0.6624828577041626
1711422726622559500,18.5645595703125,-0.04214967042207718,-0.10025817900896072,0.805425226688385
1711422726641520600,18.583520751953124,0.09040798991918564,0.019471315667033195,0.8662062287330627
1711422726660481800,18.602481689453125,0.08552107214927673,0.07261654734611511,0.6676751971244812
1711422726679443200,18.621443115234374,-0.09468404203653336,0.2745073735713959,0.8017600178718567
1711422726698404400,18.640404296875,-0.2984074354171753,-0.019929463043808937,1.2287545204162598
1711422726717365800,18.65936572265625,-0.3894262909889221,-0.09812015295028687,1.1511746644973755
1711422726736327000,18.678326904296874,-0.06627883017063141,-0.070631243288517,1.0803143978118896
1711422726755288000,18.6972880859375,0.04825831577181816,0.0524580143392086,1.0525200366973877
1711422726774249500,18.71624951171875,-0.009162971749901772,0.16699515283107758,1.0873392820358276
1711422726793210600,18.735210693359374,0.20433427393436432,0.3413970470428467,1.0372483730316162
1711422726812171800,18.754171875,0.09468404203653336,0.3759109079837799,0.8359684348106384
1711422726831133200,18.77313330078125,-0.19425499439239502,0.4650971591472626,1.0390809774398804
1711422726850094300,18.79209423828125,-0.17592905461788177,-0.2569449841976166,1.4587451219558716
1711422726869055700,18.8110556640625,-0.2559523284435272,-0.9637155532836914,1.303585410118103
1711422726888017000,18.830016845703124,-0.3173442482948303,-0.6088030934333801,0.9306524991989136
1711422726906978000,18.84897802734375,-0.16065743565559387,0.07994692772626877,0.9685261249542236
1711422726925939200,18.867939208984374,0.010079269297420979,-0.6143009066581726,1.1475094556808472
1711422726944900600,18.886900634765624,-0.13775001466274261,-0.8898009061813354,0.9095776677131653
1711422726963861800,18.90586181640625,-0.18875721096992493,0.22808164358139038,0.4838049113750458
1711422726982823000,18.924822998046874,-0.24006985127925873,1.268689751625061,0.39828383922576904
1711422727001784300,18.943784423828124,-0.36835145950317383,0.695698618888855,0.4560105502605438
1711422727020745500,18.962745361328125,-0.3176496922969818,-0.3113119602203369,0.45967575907707214
1711422727039707000,18.981706787109374,0.04153880476951599,-0.9142354726791382,0.4166097939014435
1711422727058668000,19.00066796875,0.10506874322891235,-0.9951750636100769,0.3035998046398163
1711422727077629200,19.019629150390625,-0.12186752259731293,-0.44845110177993774,0.10567960888147354
1711422727096590600,19.038590576171874,-0.20127993822097778,-0.13507747650146484,0.23273947834968567
1711422727115551700,19.0575517578125,-0.1649334877729416,0.08513928204774857,0.5384773015975952
1711422727134513200,19.07651318359375,-0.18112140893936157,-0.22762349247932434,0.5955931544303894
1711422727153474300,19.095474365234374,-0.1029307171702385,-0.922176718711853,0.6349939107894897
1711422727172435500,19.114435546875,-0.10598503798246384,-1.272813081741333,0.7302888631820679
1711422727191396900,19.13339697265625,-0.05833758786320686,-0.6967676281929016,0.5143481492996216
1711422727210358000,19.15235791015625,-0.07788526266813278,-0.07796161621809006,0.2055560052394867
1711422727229319200,19.171319091796875,-0.12461641430854797,0.26564982533454895,0.29901832342147827
1711422727248280300,19.1902802734375,-0.16768237948417664,0.21891866624355316,0.5290089249610901
1711422727267241700,19.20924169921875,-0.17562362551689148,-0.30886849761009216,0.46395179629325867
1711422727286203000,19.228202880859374,-0.05742128938436508,-0.534277617931366,0.3588830530643463
1711422727305164300,19.247164306640624,0.031154103577136993,-0.17447824776172638,0.16310089826583862
1711422727324125400,19.26612548828125,-0.09132428467273712,0.5390118360519409,0.05436696484684944
1711422727343086600,19.285086669921874,-0.16737695038318634,0.6077340841293335,0.09437860548496246
1711422727362048000,19.304048095703124,-0.11575887352228165,0.035964664071798325,0.037262752652168274
1711422727381009200,19.323009033203125,-0.0021380267571657896,-0.3730092942714691,-0.0308486707508564
1711422727399970300,19.34197021484375,0.012522728182375431,-0.27404922246932983,0.0922405794262886
1711422727418931500,19.360931396484375,-0.15302163362503052,-0.12316560745239258,0.013439024798572063
1711422727437892900,19.379892822265624,-0.022907428443431854,0.08575014024972916,-0.11545344442129135
1711422727456854000,19.39885400390625,0.08063415437936783,0.22350014746189117,-0.017104214057326317
1711422727475815400,19.4178154296875,-0.03023780696094036,-0.04528035223484039,0.0977383628487587
1711422727494776600,19.436776611328124,-0.07574722915887833,-0.25755587220191956,0.039706211537122726
1711422727513737700,19.45573779296875,0.0922405794262886,-0.13874267041683197,-0.025961752980947495
1711422727532699100,19.47469921875,0.057726722210645676,0.07414371520280838,0.04673115536570549
1711422727551660300,19.493660400390624,-0.08155044913291931,0.08452841639518738,0.07483093440532684
1711422727570621400,19.512621337890625,-0.07147117704153061,0.10835213959217072,0.017715077847242355
1711422727589582800,19.531582763671874,-0.013744457624852657,0.046654798090457916,-0.04550942778587341
1711422727608544000,19.5505439453125,0.00946840364485979,-0.16378812491893768,0.04276053607463837
1711422727627505200,19.569505126953125,-0.04550942778587341,-0.13416117429733276,0.04734202101826668
1711422727646466600,19.588466552734374,-0.021991131827235222,-0.09750928729772568,-0.006719512399286032
1711422727665427700,19.607427734375,-0.036651886999607086,-0.02237292192876339,-0.01282816007733345
1711422727684388900,19.626388916015625,-0.10201441496610641,0.1911243200302124,-0.01954767294228077
1711422727703350000,19.64535009765625,0.03390299528837204,0.17279838025569916,-0.06291907280683517
1711422727722311400,19.6643115234375,0.10140355676412582,0.11782054603099823,-0.11575887352228165
1711422727741272600,19.6832724609375,-0.014966187067329884,0.17371466755867004,-0.06841685622930527
1711422727760234000,19.70223388671875,-0.09987638890743256,0.17799071967601776,0.05558869615197182
1711422727779195100,19.721195068359375,-0.021991131827235222,-0.033368486911058426,0.07360920310020447
1711422727798156300,19.74015625,0.05528326332569122,-0.26366451382637024,0.029932374134659767
1711422727817117400,19.759117431640625,0.024434590712189674,-0.22304199635982513,0.02412915788590908
1711422727836078800,19.778078857421875,-0.08155044913291931,0.1251509189605713,0.0818558782339096
1711422727855040000,19.7970400390625,-0.040317077189683914,0.30688318610191345,0.08307760953903198
1711422727874001200,19.816001220703125,0.015271619893610477,0.16668972373008728,-0.004581485874950886
1711422727892962300,19.83496240234375,-0.019242240116000175,0.007864884100854397,-0.011911863461136818
1711422727911923700,19.853923828125,-0.0925460159778595,-0.12530364096164703,0.05283980444073677
1711422727930884900,19.872884765625,-0.07238747924566269,-0.10575596243143082,0.01954767294228077
1711422727949846300,19.89184619140625,-0.014049889519810677,0.09002619981765747,-0.04214967042207718
1711422727968807400,19.910807373046875,-0.04673115536570549,0.2326631247997284,-0.022907428443431854
1711422727987768600,19.9297685546875,-0.11911863088607788,0.08941533416509628,0.029932374134659767
1711422728006729700,19.948729736328126,-0.05558869615197182,-0.00954476185142994,-0.007330377586185932
1711422728025691100,19.967691162109375,0.009162971749901772,-0.011682788841426373,-0.08979712426662445
1711422728044652300,19.98665234375,-0.09651663154363632,0.033826638013124466,-0.06719512492418289
1711422728063613400,20.005613525390626,-0.1747073233127594,0.06956222653388977,-0.01740964688360691
1711422728082574600,20.02457470703125,-0.04245510324835777,0.057955797761678696,-0.009773836471140385
1711422728101536000,20.043535888671876,0.0308486707508564,0.02893971838057041,-0.04459312930703163
1711422728120497200,20.0624970703125,-0.07422006875276566,-0.07704532146453857,-0.028405211865901947
1711422728139458300,20.081458251953126,-0.12125665694475174,-0.07796161621809006,-0.026572618633508682
1711422728158419700,20.100419677734376,-0.04214967042207718,0.06711876392364502,0.028405211865901947
1711422728177380900,20.119380859375,-0.029932374134659767,-0.025732679292559624,0.043371398001909256
1711422728196342000,20.138342041015626,-0.09621120244264603,-0.27771440148353577,0.0021380267571657896
1711422728215303200,20.15730322265625,-0.03451386094093323,-0.19494222104549408,-0.004581485874950886
1711422728234264600,20.1762646484375,-0.011911863461136818,-0.02084576152265072,0.013744457624852657
1711422728253225700,20.195225830078126,-0.06902772188186646,0.083306685090065,0.0015271619195118546
1711422728272187000,20.214186767578123,-0.09071341902017593,0.2021198868751526,0.011606430634856224
1711422728291148000,20.23314794921875,-0.14202606678009033,0.06406444311141968,0.009162971749901772
1711422728310109400,20.252109375,-0.0977383628487587,-0.1882227063179016,0.00946840364485979
1711422728329070600,20.271070556640623,0.03390299528837204,-0.2099084109067917,0.025961752980947495
1711422728348031700,20.29003173828125,-0.04917461425065994,-0.1268308013677597,-0.015271619893610477
1711422728366993200,20.3089931640625,-0.15241076052188873,0.07506000995635986,-0.0412333719432354
1711422728385954300,20.327954345703127,-0.08888082206249237,0.3291797637939453,-0.003665188793092966
1711422728404915500,20.34691552734375,-0.0668896958231926,0.2641226649284363,-0.01435532234609127
1711422728423876600,20.365876708984374,-0.08429934084415436,0.02496909722685814,-0.03756818547844887
1711422728442838000,20.384838134765626,-0.09346231073141098,-0.02848157100379467,-0.000305432389723137
1711422728461799200,20.403799072265624,-0.07024945318698883,0.013057234697043896,0.003359756199643016
1711422728480760300,20.42276025390625,-0.08613193035125732,0.08300124853849411,0.02779434807598591
1711422728499721500,20.441721435546874,-0.12217295914888382,0.05367974191904068,0.014966187067329884
1711422728518683000,20.460682861328124,-0.06963858753442764,-0.024816380813717842,-0.008246674202382565
1711422728537644000,20.47964404296875,-0.003665188793092966,-0.038560837507247925,0.034208428114652634
1711422728556605200,20.498605224609374,-0.032070402055978775,-0.029703300446271896,0.018631376326084137
1711422728575566600,20.517566650390624,-0.07574722915887833,0.0322994738817215,-0.04520399495959282
1711422728594527700,20.53652783203125,-0.018631376326084137,0.13767364621162415,-0.08582650125026703
1711422728613489000,20.555489013671874,-0.009773836471140385,0.08300124853849411,-0.023518294095993042
1711422728632450000,20.574449951171875,-0.06780599057674408,-0.1118646115064621,0.01282816007733345
1711422728651411200,20.5934111328125,-0.036651886999607086,-0.12530364096164703,0.011300998739898205
1711422728670372600,20.61237255859375,-0.011300998739898205,0.02802342176437378,-0.001832594396546483
1711422728689333800,20.631333740234375,-0.047036588191986084,0.09521854668855667,-0.015271619893610477
1711422728708295000,20.650294921875,-0.06780599057674408,0.06895136088132858,-0.0054977829568088055
1711422728727256000,20.669256103515625,-0.03237583488225937,0.02741255611181259,0.0204639695584774
1711422728746217200,20.68821728515625,0.03023780696094036,0.042073313146829605,0.011911863461136818
1711422728765178600,20.7071787109375,0.03023780696094036,0.08391755074262619,-0.018325943499803543
1711422728784139800,20.726139892578125,-0.07819069176912308,0.1453094631433487,-0.010995565913617611
1711422728803101000,20.745100830078126,-0.12278381735086441,0.09430225193500519,0.051618073135614395
1711422728822062000,20.76406201171875,-0.06444623321294785,-0.10728313028812408,0.08582650125026703
1711422728841023500,20.7830234375,-0.006414080038666725,-0.22823435068130493,0.09071341902017593
1711422728859984600,20.801984619140626,-0.009773836471140385,-0.26794055104255676,0.10048725455999374
1711422728878945800,20.82094580078125,-0.033597562462091446,-0.16592614352703094,-0.009162971749901772
1711422728897907000,20.839906982421876,0.008246674202382565,0.1758527010679245,-0.06597339361906052
1711422728916868400,20.858868408203126,-0.04367683082818985,0.3108538091182709,-0.0409279391169548
1711422728935829500,20.87782958984375,-0.1386663019657135,0.030772313475608826,-0.0256563201546669
1711422728954790700,20.896790771484376,-0.029932374134659767,-0.1424078494310379,-0.041844237595796585
1711422728973751800,20.915751708984374,0.0821613147854805,-0.11003202199935913,-0.04581485688686371
1711422728992713200,20.934713134765627,-0.03817904740571976,-0.00923932995647192,-0.04978547990322113
1711422729011674400,20.95367431640625,-0.10903936624526978,0.14408773183822632,-0.03451386094093323
1711422729030635500,20.972635498046873,-0.039706211537122726,0.22808164358139038,0.007941242307424545
1711422729049596700,20.9915966796875,-0.002443459117785096,0.01611155830323696,0.02107483521103859
1711422729068557800,21.010557861328124,-0.01893680728971958,-0.1625663936138153,-0.00946840364485979
1711422729087519200,21.029519287109373,-0.022296564653515816,-0.10575596243143082,-0.008552107028663158
1711422729106480400,21.04848046875,-0.043371398001909256,0.12759438157081604,0.0009162971982732415
1711422729125441500,21.067441650390624,-0.05497783049941063,0.1816559135913849,0.017104214057326317
1711422729144403000,21.08640283203125,-0.0720820426940918,0.016416991129517555,0.032070402055978775
1711422729163364000,21.105364013671874,-0.07544180005788803,-0.1735619604587555,0.00946840364485979
1711422729182325200,21.1243251953125,-0.021685699000954628,-0.18791727721691132,-0.023823726922273636
1711422729201286400,21.143286376953125,0.009162971749901772,-0.07307469844818115,-0.02626718580722809
1711422729220247600,21.16224755859375,-0.06566796451807022,0.03107774630188942,-0.02932151034474373
1711422729239209000,21.181208984375,-0.09010255336761475,0.09094249457120895,-0.05436696484684944
1711422729258170000,21.200170166015624,-0.004276053514331579,0.15416699647903442,-0.08460476994514465
1711422729277131300,21.21913134765625,0.003665188793092966,0.07964149862527847,-0.05406153202056885
1711422729296092400,21.238092529296875,-0.04001164436340332,-0.052916161715984344,-0.02260199747979641
1711422729315053600,21.257053466796876,-0.007330377586185932,-0.06940951198339462,-0.036651886999607086
1711422729334015000,21.276014892578125,0.023518294095993042,-0.004963276442140341,-0.026878049597144127
1711422729352976100,21.29497607421875,-0.015577051788568497,0.001450803829357028,-0.0027488914784044027
1711422729371937300,21.313937255859376,-0.008246674202382565,0.004505127668380737,0.011300998739898205
1711422729390898700,21.332898681640625,0.038789913058280945,-0.00954476185142994,0.010384701192378998
1711422729409859800,21.35185986328125,0.0015271619195118546,-0.006490438245236874,-0.010079269297420979
1711422729428821000,21.370821044921875,-0.03390299528837204,0.04146244749426842,-0.017715077847242355
1711422729447782100,21.3897822265625,-0.01893680728971958,0.0322994738817215,0.007635809946805239
1711422729466743600,21.40874365234375,-0.031154103577136993,-0.04558578506112099,0.01893680728971958
1711422729485704700,21.42770458984375,-0.006108647678047419,-0.08956804871559143,0.007330377586185932
1711422729504665900,21.446665771484376,-0.010690134018659592,-0.007406735327094793,-0.024434590712189674
1711422729523627000,21.465626953125,-0.05100720748305321,0.05978839099407196,-0.032681263983249664
1711422729542588400,21.48458837890625,-0.024434590712189674,0.00847574882209301,-0.031154103577136993
1711422729561549600,21.503549560546876,0.026878049597144127,-0.03306305781006813,-0.032681263983249664
1711422729580510700,21.5225107421875,0.02412915788590908,0.030161447823047638,-0.05558869615197182
1711422729599471900,21.541471923828126,-0.015271619893610477,0.1340084671974182,-0.07483093440532684
1711422729618433300,21.560433349609376,0.007024944759905338,0.17371466755867004,-0.07422006875276566
1711422729637394400,21.57939453125,-0.002443459117785096,0.09277509152889252,-0.026878049597144127
1711422729656355600,21.59835546875,0.021991131827235222,-0.08956804871559143,0.00946840364485979
1711422729675317000,21.61731689453125,0.047952886670827866,-0.11797326058149338,-0.000610864779446274
1711422729694278100,21.636278076171877,0.008857538923621178,-0.059635672718286514,0.0054977829568088055
1711422729713239300,21.6552392578125,-0.0027488914784044027,-0.02237292192876339,0.02932151034474373
1711422729732200400,21.674200439453124,0.01649334840476513,-0.07521272450685501,0.04306596517562866
1711422729751161900,21.693161865234377,0.01802051067352295,-0.08559742569923401,0.03451386094093323
1711422729770123000,21.712123046875,-0.008857538923621178,-0.03153589367866516,0.050090912729501724
1711422729789084400,21.73108447265625,0.007024944759905338,-0.01565340906381607,0.02871064469218254
1711422729808045300,21.75004541015625,0.008857538923621178,0.005421424750238657,-0.021685699000954628
1711422729827006700,21.7690068359375,0.014966187067329884,0.07750347256660461,-0.08826996386051178
1711422729845968000,21.7879677734375,0.007024944759905338,0.16974404454231262,-0.061391908675432205
1711422729864929300,21.80692919921875,-0.010079269297420979,0.12118030339479446,-0.011606430634856224
1711422729883890400,21.825890380859374,-0.005192350596189499,-0.03275762498378754,-0.0308486707508564
1711422729902851600,21.8448515625,0.034208428114652634,-0.016569707542657852,-0.08460476994514465
1711422729921812700,21.863812744140624,0.014660755172371864,0.06101011857390404,-0.04825831577181816
1711422729940774100,21.882774169921873,-0.008246674202382565,0.07628174126148224,0.001221729558892548
1711422729959735300,21.9017353515625,-0.012522728182375431,0.030161447823047638,-0.013133592903614044
1711422729978696700,21.92069677734375,0.021380268037319183,-0.0006872228696011007,-0.011606430634856224
1711422729997657900,21.939657958984377,0.023212861269712448,-0.02237292192876339,-0.0054977829568088055
1711422730016619000,21.958618896484374,-0.007330377586185932,-0.033368486911058426,-0.005803215317428112
1711422730035580400,21.977580322265624,-0.008552107028663158,0.006337722297757864,0.003665188793092966
1711422730054541600,21.99654150390625,-0.007635809946805239,0.0295505840331316,0.023823726922273636
1711422730073502700,22.015502685546874,-0.026572618633508682,-0.06360629200935364,0.000305432389723137
1711422730092463900,22.0344638671875,0.02260199747979641,-0.08193223923444748,-0.03787361457943916
1711422730111425300,22.05342529296875,0.026572618633508682,0.0191658828407526,-0.03787361457943916
1711422730130386400,22.072386474609374,-0.025045456364750862,0.1193477064371109,-0.04764745384454727
1711422730149347800,22.091347900390623,-0.053756099194288254,0.11782054603099823,-0.05558869615197182
1711422730168309000,22.11030908203125,-0.01588248461484909,0.06192641705274582,-0.04886918142437935
1711422730187270100,22.129270263671874,0.02718348242342472,-0.04344775900244713,-0.0461202897131443
1711422730206231600,22.1482314453125,-0.014049889519810677,-0.10606139898300171,-0.037262752652168274
1711422730225192700,22.167192626953124,-0.05955931544303894,-0.04405862092971802,-0.017715077847242355
1711422730244153900,22.18615380859375,-0.026572618633508682,0.0628427118062973,-0.01802051067352295
1711422730263115300,22.205115234375,-0.007330377586185932,0.10560324788093567,-0.006719512399286032
1711422730282076400,22.224076416015624,-0.019242240116000175,0.0017562361899763346,-0.007941242307424545
1711422730301037800,22.243037841796873,-0.02107483521103859,-0.05261072888970375,-0.02260199747979641
1711422730319999000,22.2619990234375,-0.003665188793092966,0.06956222653388977,-0.016798781231045723
1711422730338960100,22.280960205078124,-0.025961752980947495,0.14408773183822632,-0.002443459117785096
1711422730357921500,22.299921630859377,-0.04245510324835777,0.035964664071798325,0.004886918235570192
1711422730376882700,22.318882568359374,-0.02626718580722809,-0.059635672718286514,-0.0027488914784044027
1711422730395844000,22.337843994140623,-0.004276053514331579,-0.05261072888970375,-0.00946840364485979
1711422730414805200,22.35680517578125,-0.0204639695584774,0.010613775812089443,-0.000305432389723137
1711422730433766400,22.375766357421874,-0.04550942778587341,0.04940368980169296,-0.006108647678047419
1711422730452727800,22.394727783203123,-0.04734202101826668,0.04543306678533554,-0.03817904740571976
1711422730471689000,22.41368896484375,-0.0009162971982732415,0.020387612283229828,-0.0461202897131443
1711422730490650000,22.432650146484374,0.000305432389723137,0.029856016859412193,-0.03023780696094036
1711422730509611500,22.451611572265627,-0.05925388261675835,0.017333287745714188,-0.01802051067352295
1711422730528572700,22.47057275390625,-0.0360410213470459,0.004505127668380737,-0.0308486707508564
1711422730547534000,22.4895341796875,0.03634645417332649,-0.06391172856092453,-0.046425722539424896
1711422730566495200,22.5084951171875,0.04062250629067421,-0.10178534686565399,-0.04917461425065994
1711422730585456600,22.52745654296875,-0.010690134018659592,-0.014431680552661419,-0.021991131827235222
1711422730604417800,22.546417724609373,-0.003359756199643016,0.09033162891864777,-0.000610864779446274
1711422730623379200,22.565379150390626,0,0.07964149862527847,-0.003359756199643016
1711422730642340400,22.58434033203125,-0.004886918235570192,-0.041615162044763565,0.010079269297420979
1711422730661301500,22.603301513671877,0.020769402384757996,-0.08987347781658173,0.040317077189683914
1711422730680263000,22.622262939453126,0.03176496922969818,-0.059635672718286514,0.03543015569448471
1711422730699224000,22.64122412109375,-0.023823726922273636,0.011224640533328056,0.014966187067329884
1711422730718185200,22.660185302734376,-0.019242240116000175,0.0836121141910553,0.01282816007733345
1711422730737146600,22.679146728515626,0.0015271619195118546,0.1291215419769287,0.022907428443431854
1711422730756107800,22.698107666015623,-0.019853105768561363,0.05306887626647949,0.01893680728971958
1711422730775069200,22.717069091796876,-0.023823726922273636,-0.02695440873503685,-0.015271619893610477
1711422730794030300,22.7360302734375,0.009162971749901772,0.06467530876398087,-0.016798781231045723
1711422730812991700,22.75499169921875,0.003665188793092966,0.11629338562488556,0.03756818547844887
1711422730831953000,22.773952880859376,-0.03543015569448471,0.0322994738817215,0.03176496922969818
1711422730850914300,22.792914306640625,-0.021380268037319183,-0.028787001967430115,-0.024740023538470268
1711422730869875500,22.81187548828125,0.007024944759905338,0.06742420047521591,-0.04459312930703163
1711422730888836600,22.830836669921876,0.011606430634856224,0.1193477064371109,0.0021380267571657896
1711422730907798000,22.849798095703125,-0.011300998739898205,0.08483384549617767,0.032070402055978775
1711422730926759200,22.86875927734375,-0.0054977829568088055,-0.02390008419752121,0.000610864779446274
1711422730945720300,22.88772021484375,0.03329212963581085,-0.0022143847309052944,-0.043982263654470444
1711422730964681700,22.906681640625,0.008552107028663158,0.022525638341903687,0.022296564653515816
1711422730983643000,22.925642822265626,-0.020769402384757996,-0.06452259421348572,0.05894844979047775
1711422731002604300,22.944604248046875,0.010690134018659592,-0.07399099320173264,0.008552107028663158
1711422731021565400,22.9635654296875,0.03329212963581085,-0.011377356946468353,0.001221729558892548
1711422731040526800,22.98252685546875,0.001221729558892548,0.003894262947142124,0.018631376326084137
1711422731059488000,23.001488037109375,-0.003359756199643016,-0.006185005884617567,0.010384701192378998
1711422731078449400,23.020449462890625,0.006414080038666725,0.06101011857390404,-0.003970621153712273
1711422731097410600,23.03941064453125,-0.01649334840476513,0.054901473224163055,0.024434590712189674
1711422731116371700,23.058371826171875,-0.010384701192378998,-0.005268708802759647,0.020769402384757996
1711422731135333000,23.0773330078125,0.0015271619195118546,0.008170315995812416,-0.017104214057326317
1711422731154294300,23.096294189453126,0.007941242307424545,0.05887209251523018,-0.017104214057326317
1711422731173255400,23.11525537109375,-0.001221729558892548,0.06223184987902641,0.01802051067352295
1711422731192216800,23.134216796875,-0.022907428443431854,0.03657552972435951,-0.006719512399286032
1711422731211178200,23.15317822265625,-0.00946840364485979,0.03168861195445061,-0.032070402055978775
