time,seconds_elapsed,z,y,x
1710891674636693000,0.03869287109375,0,0,0
1710891674655652900,0.05765283203125,-0.004570722579956055,0.0025091171264648438,-0.01886129379272461
1710891674674612500,0.076612548828125,0.01595139503479004,-0.024267196655273438,0.0410151481628418
1710891674693572400,0.095572265625,0.07007622718811035,-0.0260162353515625,0.10735797882080078
1710891674712532000,0.114531982421875,0.1103515625,0.021592140197753906,0.16226744651794434
1710891674731491600,0.13349169921875,0.1775379180908203,-0.019962310791015625,0.2038576602935791
1710891674750451500,0.152451416015625,0.15697908401489258,-0.03681755065917969,0.20302462577819824
1710891674769411000,0.1714111328125,0.09502744674682617,0.004334449768066406,0.17481040954589844
1710891674788371000,0.190370849609375,-0.023045778274536133,0.09038734436035156,0.08331489562988281
1710891674807330600,0.20933056640625,-0.08907246589660645,0.08687305450439453,0.00790715217590332
1710891674826290400,0.22829052734375,-0.010068416595458984,0.030628204345703125,-0.020921945571899414
1710891674845250000,0.24725,0.058237552642822266,0.007228851318359375,0.02206110954284668
1710891674864210000,0.2662099609375,0.03473949432373047,-0.027856826782226562,0.06721019744873047
1710891674883169500,0.28516943359375,-0.03193354606628418,-0.03656291961669922,0.06221365928649902
1710891674902129200,0.304129150390625,-0.019379138946533203,-0.023557662963867188,0.006567478179931641
1710891674921089000,0.323089111328125,0.02730846405029297,-0.04729747772216797,-0.05807900428771973
1710891674940048600,0.342048583984375,0.03921937942504883,-0.025392532348632812,0.0008199214935302734
1710891674959008500,0.361008544921875,0.05770254135131836,0.020178794860839844,0.07451057434082031
1710891674977968000,0.379968017578125,-0.021157503128051758,0.02568531036376953,0.10030770301818848
1710891674996928000,0.398927978515625,-0.03185224533081055,-0.00012493133544921875,0.042012929916381836
1710891675015888000,0.417887939453125,-0.013398885726928711,0.014040946960449219,-0.009605646133422852
1710891675034847500,0.436847412109375,0.04158353805541992,0.038547515869140625,0.02235698699951172
1710891675053807000,0.45580712890625,0.06560611724853516,-0.04644775390625,0.06312394142150879
1710891675072767000,0.47476708984375,0.0029146671295166016,-0.07239246368408203,-0.01823711395263672
1710891675091726600,0.4937265625,-0.07619309425354004,-0.013824462890625,-0.11040735244750977
1710891675110686500,0.5126865234375,-0.08982038497924805,0.11347103118896484,-0.18637824058532715
1710891675129646000,0.53164599609375,-0.1496424674987793,0.14424800872802734,-0.2997550964355469
1710891675148606000,0.55060595703125,-0.17970538139343262,0.0695343017578125,-0.54447340965271
1710891675167565600,0.569565673828125,-0.28597092628479004,0.0024776458740234375,-0.8980622291564941
1710891675186525400,0.588525390625,-0.42948007583618164,-0.12649822235107422,-1.1981459856033325
1710891675205485300,0.6074853515625,-0.4904289245605469,-0.33554553985595703,-1.165917158126831
1710891675224445000,0.62644482421875,-0.3552982807159424,-0.40108299255371094,-0.7997350692749023
1710891675243404800,0.64540478515625,-0.17581892013549805,-0.2144451141357422,-0.3437080383300781
1710891675262364400,0.664364501953125,-0.04899406433105469,0.03673267364501953,0.04430556297302246
1710891675281324300,0.68332421875,0.11039924621582031,0.07720470428466797,0.29572367668151855
1710891675300284000,0.702283935546875,0.24473357200622559,0.011444091796875,0.4745137691497803
1710891675319243800,0.721243896484375,0.4182016849517822,-0.011618614196777344,0.7526521682739258
1710891675338203600,0.74020361328125,0.47162818908691406,-0.010000228881835938,1.0412862300872803
1710891675357163300,0.759163330078125,0.5263118743896484,-0.04147148132324219,1.2043192386627197
1710891675376123100,0.778123046875,0.48526740074157715,-0.03333473205566406,1.0781586170196533
1710891675395083000,0.7970830078125,0.3585965633392334,-0.04398155212402344,0.878943920135498
1710891675414042600,0.816042724609375,0.21357059478759766,0.06640815734863281,0.6464364528656006
1710891675433002500,0.83500244140625,0.10177421569824219,0.1554126739501953,0.5065312385559082
1710891675451962000,0.853962158203125,0.011068224906921387,0.13510608673095703,0.30073976516723633
1710891675470922000,0.872921875,-0.10129892826080322,0.1639719009399414,0.14361310005187988
1710891675489881900,0.8918818359375,-0.11983740329742432,0.24309253692626953,0.10387229919433594
1710891675508841700,0.910841796875,-0.061789870262145996,0.17906761169433594,0.07892513275146484
1710891675527801300,0.92980126953125,0.07242715358734131,0.06834983825683594,0.07351303100585938
1710891675546761200,0.94876123046875,0.20575308799743652,-0.0043201446533203125,0.08826231956481934
1710891675565721000,0.96772119140625,0.2995210886001587,-0.013147354125976562,0.14503884315490723
1710891675584680700,0.9866806640625,0.3418234586715698,-0.05661201477050781,0.20891308784484863
1710891675603640600,1.005640625,0.31692421436309814,-0.13512325286865234,0.22668242454528809
1710891675622600400,1.024600341796875,0.29773855209350586,-0.21868133544921875,0.15192818641662598
1710891675641560000,1.04356005859375,0.2106015682220459,-0.19414424896240234,0.04829549789428711
1710891675660520000,1.06252001953125,0.12917077541351318,-0.0663604736328125,-0.08279609680175781
1710891675679479800,1.081479736328125,-0.0020449161529541016,-0.08172225952148438,-0.1739823818206787
1710891675698439700,1.100439697265625,-0.030518293380737305,-0.1277618408203125,-0.36066699028015137
1710891675717399300,1.1193994140625,-0.1433337926864624,-0.13528060913085938,-0.40468692779541016
1710891675736359200,1.138359130859375,-0.15028953552246094,-0.07745552062988281,-0.2594590187072754
1710891675755319000,1.157319091796875,-0.019341468811035156,-0.11394405364990234,-0.1807394027709961
1710891675774279000,1.17627880859375,0.1110609769821167,-0.14815807342529297,-0.15693187713623047
1710891675793238800,1.19523876953125,0.17005157470703125,-0.10644149780273438,-0.122772216796875
1710891675812198400,1.214198486328125,0.1845790147781372,-0.10103034973144531,-0.030324697494506836
1710891675831158300,1.233158203125,0.20570051670074463,-0.0686788558959961,0.03609466552734375
1710891675850118100,1.2521181640625,0.24990332126617432,-0.07294178009033203,0.04065275192260742
1710891675869078000,1.271078125,0.3068675994873047,-0.1120309829711914,-0.025299072265625
1710891675888038000,1.290037841796875,0.2789280414581299,-0.13084125518798828,-0.048354387283325195
1710891675906997800,1.308997802734375,0.22334325313568115,-0.13110637664794922,-0.0003604888916015625
1710891675925957400,1.327957275390625,0.19900810718536377,-0.14471435546875,0.05634510517120361
1710891675944917200,1.346917236328125,0.2030664086341858,-0.19053173065185547,0.08770322799682617
1710891675963877000,1.365877197265625,0.22280371189117432,-0.28913021087646484,0.11581182479858398
1710891675982837000,1.3848369140625,0.2151728868484497,-0.3332386016845703,0.1356128454208374
1710891676001796900,1.403796875,0.1625683307647705,-0.35372161865234375,0.16454625129699707
1710891676020756700,1.4227568359375,0.07857543230056763,-0.36140918731689453,0.19251763820648193
1710891676039716600,1.441716552734375,0.03265923261642456,-0.37292957305908203,0.25141727924346924
1710891676058676500,1.460676513671875,-0.003988087177276611,-0.34832763671875,0.3006523847579956
1710891676077636000,1.479635986328125,-0.03701978921890259,-0.3183269500732422,0.4011533260345459
1710891676096596000,1.498595947265625,-0.00327146053314209,-0.2442312240600586,0.4699060916900635
1710891676115556000,1.51755615234375,0.04295492172241211,-0.1667652130126953,0.46562623977661133
1710891676134515700,1.536515625,0.10237306356430054,-0.16475868225097656,0.3827207088470459
1710891676153475600,1.5554755859375,0.11175310611724854,-0.18547439575195312,0.23516052961349487
1710891676172435500,1.574435546875,0.08741813898086548,-0.09857368469238281,0.15625107288360596
1710891676191395300,1.593395263671875,-0.016683876514434814,0.06621360778808594,0.18403297662734985
1710891676210355200,1.612355224609375,-0.04674530029296875,0.14499378204345703,0.2642326354980469
1710891676229315000,1.631315185546875,0.03415137529373169,0.11468029022216797,0.2753206491470337
1710891676248275000,1.65027490234375,0.15921378135681152,0.06915092468261719,0.27487218379974365
1710891676267234800,1.66923486328125,0.23036670684814453,0.049072265625,0.286445677280426
1710891676286194700,1.688194580078125,0.24306994676589966,0.0717630386352539,0.24465304613113403
1710891676305154600,1.707154541015625,0.2034708559513092,0.14887332916259766,0.14882242679595947
1710891676324114400,1.726114501953125,0.14957195520401,0.1838397979736328,0.009596824645996094
1710891676343074300,1.74507421875,0.08042967319488525,0.2182750701904297,-0.14144489169120789
1710891676362034200,1.7640341796875,-0.002080380916595459,0.23596572875976562,-0.28900110721588135
1710891676380994000,1.782994140625,-0.09404526650905609,0.2799863815307617,-0.30949804186820984
1710891676399954000,1.801953857421875,-0.2121066451072693,0.29108619689941406,-0.33808210492134094
1710891676418913800,1.820913818359375,-0.29908955097198486,0.2613229751586914,-0.3881959319114685
1710891676437873700,1.839873779296875,-0.2940208315849304,0.1907787322998047,-0.404060423374176
1710891676456833800,1.858833740234375,-0.2725124657154083,0.14493370056152344,-0.3892584443092346
1710891676475793700,1.877793701171875,-0.18555520474910736,0.10593700408935547,-0.3497857451438904
1710891676494753500,1.89675341796875,-0.1043485701084137,0.10325241088867188,-0.3154522478580475
1710891676513713400,1.91571337890625,-0.050347864627838135,0.12699127197265625,-0.3073565363883972
1710891676532673300,1.93467333984375,-0.014109551906585693,0.18862056732177734,-0.3117159307003021
1710891676551633200,1.953633056640625,-0.042891085147857666,0.27950000762939453,-0.3222896158695221
1710891676570593000,1.972593017578125,-0.09091448783874512,0.2840423583984375,-0.349264919757843
1710891676589553000,1.991552978515625,-0.171878382563591,0.25594043731689453,-0.3480827808380127
1710891676608512800,2.0105126953125,-0.27101314067840576,0.2894735336303711,-0.33743852376937866
1710891676627472600,2.02947265625,-0.29076576232910156,0.32411956787109375,-0.3439745306968689
1710891676646432800,2.048432861328125,-0.35639452934265137,0.3217906951904297,-0.4499633014202118
1710891676665392600,2.067392578125,-0.4103413224220276,0.34860992431640625,-0.5945240259170532
1710891676684352500,2.0863525390625,-0.4140728712081909,0.3255805969238281,-0.7104320526123047
1710891676703312400,2.1053125,-0.37645357847213745,0.2570028305053711,-0.767265796661377
1710891676722272300,2.124272216796875,-0.3250699043273926,0.2410421371459961,-0.7388060688972473
1710891676741232000,2.143232177734375,-0.30409881472587585,0.21639728546142578,-0.6790136098861694
1710891676760192000,2.16219189453125,-0.2576359510421753,0.1949920654296875,-0.5825818777084351
1710891676779152100,2.181152099609375,-0.18525201082229614,0.18934154510498047,-0.5027698874473572
1710891676798112000,2.200112060546875,-0.0824037492275238,0.14543533325195312,-0.44095826148986816
1710891676817071900,2.21907177734375,-0.04669561982154846,0.07044219970703125,-0.4161883592605591
1710891676836031700,2.23803173828125,-0.04551765322685242,0.04453563690185547,-0.389941930770874
1710891676854991600,2.25699169921875,-0.019704222679138184,-0.025079727172851562,-0.36162400245666504
1710891676873951500,2.275951416015625,0.013445109128952026,-0.12042713165283203,-0.36603090167045593
1710891676892911600,2.29491162109375,0.02004706859588623,-0.18684101104736328,-0.3770045340061188
1710891676911871500,2.31387158203125,-0.05227413773536682,-0.14020347595214844,-0.35694730281829834
1710891676930831400,2.332831298828125,-0.14217182993888855,-0.1129140853881836,-0.3621681332588196
1710891676949791200,2.351791259765625,-0.18397819995880127,-0.08881759643554688,-0.3466150760650635
1710891676968751400,2.37075146484375,-0.2264910638332367,-0.10051345825195312,-0.29143744707107544
1710891676987711200,2.389711181640625,-0.2357933670282364,-0.11298561096191406,-0.2611602246761322
1710891677006671000,2.408671142578125,-0.23025843501091003,-0.10519218444824219,-0.20432603359222412
1710891677025631000,2.427630859375,-0.23491954803466797,-0.10144805908203125,-0.08633436262607574
1710891677044591000,2.446591064453125,-0.18632462620735168,-0.11402320861816406,-0.027915924787521362
1710891677063551000,2.465551025390625,-0.14117741584777832,-0.10297393798828125,-0.010715007781982422
1710891677082510800,2.4845107421875,-0.10668560862541199,-0.09212017059326172,-0.00712314248085022
1710891677101470700,2.503470703125,-0.043739378452301025,-0.016715049743652344,-0.007792413234710693
1710891677120430800,2.522430908203125,-0.04683959484100342,0.014530181884765625,0.054053694009780884
1710891677139390700,2.541390625,-0.056360870599746704,0.039490699768066406,0.07640033960342407
1710891677158350600,2.5603505859375,-0.044943034648895264,0.08087444305419922,0.08657500147819519
1710891677177310500,2.579310546875,-0.006608486175537109,0.0920572280883789,0.06710419058799744
1710891677196270300,2.598270263671875,0.003138124942779541,0.10031986236572266,0.09420710802078247
1710891677215230500,2.61723046875,0.016547173261642456,0.10071945190429688,0.17066878080368042
1710891677234190300,2.6361904296875,0.10933369398117065,0.0910654067993164,0.24031499028205872
1710891677253150500,2.655150390625,0.17662325501441956,0.021613121032714844,0.2705587148666382
1710891677272110300,2.6741103515625,0.1549944281578064,0.02475261688232422,0.33110180497169495
1710891677291070200,2.6930703125,0.07684087753295898,-0.03148841857910156,0.2959674596786499
1710891677310030000,2.712030029296875,0.011212944984436035,-0.08872127532958984,0.25572484731674194
1710891677328990200,2.730990234375,-0.06620150804519653,-0.1514873504638672,0.18631860613822937
1710891677347950000,2.7499501953125,-0.16622835397720337,-0.12767791748046875,0.14350026845932007
1710891677366910000,2.768909912109375,-0.2550784647464752,-0.05538463592529297,0.15296149253845215
1710891677385869800,2.787869873046875,-0.29304730892181396,-0.06084251403808594,0.16382431983947754
1710891677404830000,2.806829833984375,-0.2969726026058197,-0.093505859375,0.13508468866348267
1710891677423789800,2.825789794921875,-0.2679145932197571,-0.07610034942626953,0.06017380952835083
1710891677442750000,2.84475,-0.2057638168334961,0.029569625854492188,-0.019706010818481445
1710891677461709800,2.863709716796875,-0.13497072458267212,0.12241077423095703,-0.052292823791503906
1710891677480669700,2.882669677734375,-0.06317132711410522,0.16092395782470703,-0.07262402772903442
1710891677499629800,2.9016298828125,-0.045453786849975586,0.17917919158935547,-0.12686079740524292
1710891677518589700,2.920589599609375,-0.09127098321914673,0.2894868850708008,-0.11232620477676392
1710891677537549600,2.939549560546875,-0.1377427577972412,0.32718467712402344,-0.10035336017608643
1710891677556509700,2.958509765625,-0.21818029880523682,0.34670352935791016,-0.07254695892333984
1710891677575469600,2.977469482421875,-0.204217791557312,0.38399696350097656,0.03230941295623779
1710891677594429400,2.996429443359375,-0.17335134744644165,0.2959785461425781,0.10446929931640625
1710891677613389600,3.0153896484375,-0.12803471088409424,0.15619468688964844,0.169369637966156
1710891677632349400,3.034349365234375,-0.11387991905212402,0.09731388092041016,0.2079298496246338
1710891677651309300,3.053309326171875,-0.10706496238708496,-0.008020401000976562,0.22109705209732056
1710891677670269200,3.072269287109375,-0.1503193974494934,-0.115447998046875,0.19883453845977783
1710891677689229300,3.091229248046875,-0.2904685139656067,-0.17130565643310547,0.18464398384094238
1710891677708189200,3.110189208984375,-0.411216676235199,-0.10056877136230469,0.14028656482696533
1710891677727149300,3.1291494140625,-0.5641279220581055,-0.0031833648681640625,0.0781240463256836
1710891677746109200,3.148109130859375,-0.6942378282546997,0.0616607666015625,0.06742662191390991
1710891677765069300,3.1670693359375,-0.7112352848052979,0.05779838562011719,0.0913960337638855
1710891677784029200,3.186029296875,-0.6452183723449707,0.0061435699462890625,0.07052195072174072
1710891677802989000,3.204989013671875,-0.5543256998062134,-0.0874319076538086,0.026998519897460938
1710891677821949200,3.22394921875,-0.4819526672363281,-0.1734638214111328,0.005299985408782959
1710891677840909000,3.242908935546875,-0.4334501028060913,-0.2539396286010742,0.01908421516418457
1710891677859869200,3.261869140625,-0.33877837657928467,-0.39530181884765625,0.02982419729232788
1710891677878829000,3.2808291015625,-0.2820843458175659,-0.5900506973266602,0.045712828636169434
1710891677897789000,3.299788818359375,-0.22717976570129395,-0.7617387771606445,0.03822124004364014
1710891677916749000,3.3187490234375,-0.18507063388824463,-0.7983274459838867,0.031640470027923584
1710891677935709000,3.337708984375,-0.11438274383544922,-0.7807712554931641,0.05221754312515259
1710891677954668800,3.356668701171875,-0.07329142093658447,-0.7385740280151367,0.03396075963973999
1710891677973629000,3.37562890625,-0.08689343929290771,-0.6578893661499023,0.04822462797164917
1710891677992588800,3.3945888671875,-0.13145768642425537,-0.6179313659667969,0.07512021064758301
1710891678011549000,3.413548828125,-0.12174785137176514,-0.5348300933837891,0.05255413055419922
1710891678030508800,3.4325087890625,-0.16369843482971191,-0.5096330642700195,0.037265658378601074
1710891678049469000,3.451468994140625,-0.18154925107955933,-0.3784456253051758,0.013757824897766113
1710891678068428800,3.4704287109375,-0.1964845061302185,-0.1625986099243164,0.001321643590927124
1710891678087388700,3.489388671875,-0.1971469521522522,0.02383708953857422,0.02253592014312744
1710891678106348800,3.508348876953125,-0.15650534629821777,0.2570161819458008,-0.01708272099494934
1710891678125308700,3.52730859375,-0.032156169414520264,0.46059322357177734,0.03735724091529846
1710891678144268800,3.546268798828125,0.025001108646392822,0.6412153244018555,0.033890485763549805
1710891678163228700,3.565228759765625,0.07996195554733276,0.7421102523803711,0.012149959802627563
1710891678182188800,3.584188720703125,0.18440228700637817,0.7231378555297852,-0.05340513586997986
1710891678201148700,3.603148681640625,0.2557348608970642,0.8282709121704102,-0.04837721586227417
1710891678220108800,3.62210888671875,0.3178960084915161,0.8715887069702148,-0.1410781741142273
1710891678239068700,3.641068603515625,0.35558581352233887,0.8909788131713867,-0.14250653982162476
1710891678258028800,3.66002880859375,0.4011477828025818,0.6847343444824219,-0.11341243982315063
1710891678276988700,3.67898876953125,0.43931353092193604,0.5049352645874023,-0.12533003091812134
1710891678295948800,3.69794873046875,0.4789818227291107,0.31703948974609375,-0.16939660906791687
1710891678314908700,3.71690869140625,0.3693622946739197,0.3225250244140625,-0.11106191575527191
1710891678333868500,3.73586865234375,0.23167984187602997,0.3587188720703125,-0.04893030226230621
1710891678352828700,3.75482861328125,0.12240526080131531,0.2878913879394531,-0.072527676820755
1710891678371788500,3.77378857421875,0.03722129017114639,0.08077049255371094,-0.18811433017253876
1710891678390748700,3.792748779296875,-0.04581151902675629,-0.024758338928222656,-0.30408477783203125
1710891678409708500,3.81170849609375,-0.192979633808136,-0.03965568542480469,-0.34400904178619385
1710891678428668700,3.830668701171875,-0.3143140971660614,-0.08787059783935547,-0.3237130641937256
1710891678447628500,3.849628662109375,-0.44826892018318176,-0.22063827514648438,-0.3011377155780792
1710891678466588700,3.868588623046875,-0.5715776085853577,-0.2888050079345703,-0.32410669326782227
1710891678485548500,3.887548583984375,-0.6798883676528931,-0.13329315185546875,-0.28838691115379333
1710891678504508400,3.90650830078125,-0.8080483675003052,-0.10494136810302734,-0.22860895097255707
1710891678523468500,3.925468505859375,-0.8717968463897705,-0.32476139068603516,-0.23477841913700104
1710891678542428400,3.944428466796875,-0.788402795791626,-0.6175498962402344,-0.36456000804901123
1710891678561388500,3.963388427734375,-0.7160623073577881,-0.8050823211669922,-0.5084893107414246
1710891678580348400,3.982348388671875,-0.6680338978767395,-0.9380407333374023,-0.583881139755249
1710891678599308500,4.00130859375,-0.6133843064308167,-0.9819793701171875,-0.6381305456161499
1710891678618268400,4.020268310546875,-0.6619014739990234,-0.7776689529418945,-0.6396003365516663
1710891678637228500,4.039228515625,-0.8726246356964111,-0.48737430572509766,-0.5593389272689819
1710891678656188400,4.0581884765625,-1.0413986444473267,-0.5036373138427734,-0.41830572485923767
1710891678675148500,4.0771484375,-0.8749769330024719,-0.800933837890625,-0.42324841022491455
1710891678694108400,4.0961083984375,-0.6427994966506958,-0.8460903167724609,-0.626343846321106
1710891678713068500,4.115068603515625,-0.46917739510536194,-0.49863243103027344,-0.7425196766853333
1710891678732028400,4.1340283203125,-0.4455249309539795,-0.10760116577148438,-0.74537193775177
1710891678750988500,4.152988525390625,-0.4193052351474762,0.018993377685546875,-0.852487325668335
1710891678769948400,4.171948486328125,-0.3718442916870117,-0.03650856018066406,-1.0790205001831055
1710891678788908500,4.190908447265625,-0.3643350601196289,-0.08727550506591797,-1.2444658279418945
1710891678807868400,4.209868408203125,-0.36258161067962646,-0.11085033416748047,-1.2255034446716309
1710891678826828500,4.22882861328125,-0.35899195075035095,0.04250812530517578,-1.108775019645691
1710891678845788400,4.247788330078125,-0.26075032353401184,0.2315816879272461,-0.878955602645874
1710891678864748500,4.26674853515625,-0.0727735161781311,0.29951953887939453,-0.566864550113678
1710891678883708400,4.28570849609375,0.21635177731513977,0.11862468719482422,-0.31115299463272095
1710891678902668500,4.30466845703125,0.27099722623825073,-0.30831241607666016,-0.1920708566904068
1710891678921628400,4.32362841796875,0.681829571723938,-0.6685266494750977,-0.15110988914966583
1710891678940588500,4.342588623046875,1.111454963684082,-1.3684930801391602,0.08726978302001953
1710891678959548400,4.36154833984375,1.0803167819976807,-2.0832061767578125,0.5269418954849243
1710891678978508500,4.380508544921875,1.0220372676849365,-2.49365234375,1.0115450620651245
1710891678997468400,4.399468505859375,1.2077887058258057,-2.498175621032715,1.3341541290283203
1710891679016428500,4.418428466796875,1.4561235904693604,-1.8669824600219727,1.3846913576126099
1710891679035388400,4.437388427734375,1.1038260459899902,-1.1140565872192383,1.3057808876037598
1710891679054348500,4.4563486328125,0.7298058867454529,-0.8130664825439453,1.2626581192016602
1710891679073308400,4.475308349609375,0.861991286277771,-0.9692277908325195,1.091645359992981
1710891679092268500,4.4942685546875,0.8914973735809326,-1.5773677825927734,0.741206169128418
1710891679111228400,4.513228515625,1.1296182870864868,-1.6706409454345703,0.22574383020401
1710891679130188500,4.5321884765625,1.4369244575500488,-1.3719720840454102,0.07812535762786865
1710891679149148400,4.5511484375,1.410112977027893,-1.3728179931640625,0.3412795066833496
1710891679168108500,4.570108642578125,1.4655840396881104,-1.534256935119629,0.5256320238113403
1710891679187068400,4.589068359375,1.5611343383789062,-1.806828498840332,0.424125075340271
1710891679206028500,4.608028564453125,1.3557848930358887,-1.9234752655029297,0.12675103545188904
1710891679224988400,4.626988525390625,0.9408570528030396,-1.7129392623901367,-0.08175864815711975
1710891679243948500,4.645948486328125,0.7404124140739441,-1.591440200805664,-0.08778481930494308
1710891679262908400,4.664908447265625,0.5245640277862549,-1.4761199951171875,-0.1453104168176651
1710891679281868500,4.68386865234375,0.3154757022857666,-1.326547622680664,-0.15694725513458252
1710891679300828400,4.702828369140625,0.16757142543792725,-1.3175287246704102,-0.14248690009117126
1710891679319788500,4.72178857421875,0.17896175384521484,-0.8163642883300781,-0.3346380889415741
1710891679338748400,4.74074853515625,0.34923791885375977,0.13484764099121094,-0.42681533098220825
1710891679357708500,4.75970849609375,0.6303197145462036,0.9784412384033203,-0.29381227493286133
1710891679376668400,4.77866845703125,0.8675976991653442,0.7838535308837891,0.00635451078414917
1710891679395628500,4.797628662109375,0.9543312788009644,0.5512657165527344,0.16701656579971313
1710891679414588400,4.81658837890625,1.0212805271148682,0.8670206069946289,0.1991596817970276
1710891679433548500,4.835548583984375,1.2124366760253906,1.3390254974365234,0.09669190645217896
1710891679452508400,4.85450830078125,1.322246789932251,1.6428871154785156,-0.038402438163757324
1710891679471468500,4.873468505859375,1.6311815977096558,1.7533931732177734,-0.2965543270111084
1710891679490428400,4.892428466796875,1.9415497779846191,1.674454689025879,-0.5389292240142822
1710891679509388500,4.911388427734375,1.716427206993103,1.6418895721435547,-0.7351873517036438
1710891679528348400,4.930348388671875,1.5881682634353638,1.6026277542114258,-0.8430660963058472
1710891679547308500,4.94930859375,1.3372875452041626,1.6208600997924805,-0.7722792029380798
1710891679566268700,4.9682685546875,1.103509545326233,1.6751947402954102,-0.614627480506897
1710891679585228500,4.987228515625,0.7652970552444458,2.0864343643188477,-0.3479630947113037
1710891679604188700,5.006188720703125,-0.17460203170776367,2.420717239379883,-0.28604578971862793
1710891679623148500,5.0251484375,-0.30443763732910156,2.391779899597168,-0.5325957536697388
1710891679642108700,5.044108642578125,-0.6770014762878418,2.487118721008301,-0.800204873085022
1710891679661068500,5.063068603515625,-0.4705619812011719,3.242227554321289,-1.3786932229995728
1710891679680028700,5.082028564453125,-0.5242431163787842,3.6349105834960938,-1.7340162992477417
1710891679698988500,5.100988525390625,0.049961090087890625,3.9915857315063477,-2.0953240394592285
1710891679717948700,5.11994873046875,0.4069688320159912,4.604382514953613,-1.6751924753189087
1710891679736908500,5.138908447265625,0.33869361877441406,4.473065376281738,-0.9375625848770142
1710891679755868700,5.15786865234375,-1.6315805912017822,3.311018943786621,0.12068307399749756
1710891679774828500,5.17682861328125,-4.271505355834961,2.071554183959961,0.2627391815185547
1710891679793788700,5.19578857421875,-4.107173919677734,1.5892601013183594,0.17466890811920166
1710891679812748500,5.21474853515625,-1.3967947959899902,1.2087268829345703,1.8108181953430176
1710891679831708700,5.233708740234375,2.1085429191589355,1.4012632369995117,3.666994571685791
1710891679850668800,5.252668701171875,5.359965801239014,3.6076040267944336,3.4034483432769775
1710891679869628700,5.271628662109375,5.863452434539795,4.169437408447266,3.109140396118164
1710891679888588800,5.2905888671875,3.549318790435791,2.5592336654663086,0.9674907922744751
1710891679907548700,5.309548583984375,0.6952352523803711,1.6448745727539062,-2.202834129333496
1710891679926508800,5.3285087890625,-1.6584117412567139,1.7157926559448242,-3.960848808288574
1710891679945468700,5.34746875,-2.061220645904541,1.8890323638916016,-4.618585109710693
1710891679964428800,5.3664287109375,-2.7803564071655273,1.1508312225341797,-3.5131173133850098
1710891679983388700,5.385388671875,-2.5455856323242188,0.22991275787353516,-1.6949087381362915
1710891680002348800,5.404348876953125,-1.540018081665039,0.280181884765625,-0.5146507024765015
1710891680021308700,5.42330859375,-0.5222442150115967,-0.04987049102783203,0.6895888447761536
1710891680040268800,5.442268798828125,-0.20531225204467773,-0.13531017303466797,2.0089168548583984
1710891680059228700,5.461228759765625,-0.09531188011169434,-0.03655052185058594,2.644737720489502
1710891680078188800,5.480188720703125,-0.040036678314208984,-0.08762359619140625,2.058150291442871
1710891680097148700,5.499148681640625,-0.010771512985229492,-0.17398452758789062,0.8616635799407959
1710891680116108800,5.51810888671875,-0.1541593074798584,-0.2811431884765625,0.05818676948547363
1710891680135068700,5.537068603515625,-0.24008679389953613,-0.13046741485595703,-0.5275185108184814
1710891680154028800,5.55602880859375,-0.4057731628417969,0.08905696868896484,-0.89598548412323
1710891680172988700,5.57498876953125,-0.3473954200744629,0.18356895446777344,-1.038541555404663
1710891680191948800,5.59394873046875,-0.4053680896759033,0.4619712829589844,-1.0154693126678467
1710891680210908700,5.61290869140625,-0.20881640911102295,0.8416385650634766,-1.0716627836227417
1710891680229868800,5.631868896484375,-0.20660293102264404,0.7380895614624023,-0.8812702894210815
1710891680248828700,5.65082861328125,0.03802931308746338,0.4052867889404297,-0.3600611686706543
1710891680267788800,5.669788818359375,0.6468858122825623,0.4882926940917969,0.14198696613311768
1710891680286749000,5.6887490234375,1.2299209833145142,0.8469018936157227,0.7905130386352539
1710891680305708800,5.707708740234375,0.8282780647277832,0.9481573104858398,1.570111870765686
1710891680324669000,5.7266689453125,1.680297613143921,1.2069063186645508,1.6004718542099
1710891680343628800,5.74562890625,1.266580581665039,1.2791633605957031,1.6068413257598877
1710891680362589000,5.7645888671875,0.2878754734992981,1.6322040557861328,1.335862398147583
1710891680381548800,5.783548828125,0.36813056468963623,1.7044143676757812,0.7070444226264954
1710891680400509000,5.802509033203125,0.49715927243232727,1.190347671508789,-0.21558713912963867
1710891680419468800,5.82146875,0.3883478045463562,0.8780107498168945,-0.7630200386047363
1710891680438429000,5.840428955078125,0.009282581508159637,0.9702053070068359,-1.0430140495300293
1710891680457388800,5.859388916015625,-0.5209534764289856,1.2404756546020508,-1.2313239574432373
1710891680476349000,5.878348876953125,-0.4022160768508911,1.237997055053711,-1.2368289232254028
1710891680495309000,5.89730908203125,-0.013700544834136963,0.7957096099853516,-1.3488123416900635
1710891680514269000,5.91626904296875,-0.13675209879875183,0.705073356628418,-1.395945429801941
1710891680533229000,5.93522900390625,-0.3289605677127838,0.9189691543579102,-1.0711033344268799
1710891680552189000,5.95418896484375,-0.40587592124938965,1.176809310913086,-0.7411237359046936
1710891680571149000,5.973149169921875,-0.5418593287467957,1.1563167572021484,-0.11275583505630493
1710891680590109000,5.99210888671875,-0.862124502658844,0.8020820617675781,0.6469838619232178
1710891680609069000,6.011069091796875,-0.6755106449127197,0.05728340148925781,0.7051434516906738
1710891680628029000,6.03002880859375,-0.4777616262435913,-0.565587043762207,0.5117329359054565
1710891680646989000,6.048989013671875,-0.4239187240600586,-0.9442558288574219,0.49853596091270447
1710891680665949200,6.06794921875,-0.8082296848297119,-1.8442325592041016,0.7273575663566589
1710891680684909000,6.086908935546875,-0.8682138919830322,-2.5702781677246094,0.5264736413955688
1710891680703869200,6.105869140625,-0.08720946311950684,-1.8094797134399414,0.07123959064483643
1710891680722829000,6.1248291015625,-0.2951219081878662,-0.6017951965332031,0.5373795032501221
1710891680741789200,6.1437890625,-3.5415091514587402,0.028573036193847656,0.7990081310272217
1710891680760749000,6.1627490234375,-5.534582138061523,0.8456401824951172,0.31586307287216187
1710891680779709200,6.181709228515625,-4.9278106689453125,-0.29453468322753906,-0.4282728433609009
1710891680798669300,6.20066943359375,-3.3547444343566895,-2.5540919303894043,-0.9328724145889282
1710891680817629200,6.219629150390625,-2.2951276302337646,-3.842482089996338,-1.1363568305969238
1710891680836589300,6.23858935546875,-1.4609918594360352,-3.2477474212646484,-1.1620898246765137
1710891680855549200,6.257549072265625,-1.3439371585845947,-2.0504140853881836,-0.9834256172180176
1710891680874509300,6.27650927734375,-1.847066879272461,-2.394375801086426,-0.7206465601921082
1710891680893469200,6.29546923828125,-1.4916861057281494,-3.2234792709350586,-0.41579142212867737
1710891680912429300,6.31442919921875,-0.9348487854003906,-3.7759175300598145,-0.6371158361434937
1710891680931389200,6.33338916015625,-0.6271796226501465,-4.040948867797852,-1.3323758840560913
1710891680950349300,6.352349365234375,-0.4382328987121582,-4.255921363830566,-1.9801106452941895
1710891680969309400,6.371309326171875,-0.3343625068664551,-3.7134323120117188,-1.490896463394165
1710891680988269300,6.390269287109375,-0.6668167114257812,-2.670071601867676,0.10726624727249146
1710891681007229400,6.4092294921875,-1.1372947692871094,-2.277130603790283,2.166095733642578
1710891681026189300,6.428189208984375,-0.9280548095703125,-2.419109344482422,3.6519694328308105
1710891681045149400,6.4471494140625,-0.027418136596679688,-1.9993419647216797,5.17889404296875
1710891681064109600,6.466109619140625,1.0116934776306152,-1.1741037368774414,6.156796455383301
1710891681083069400,6.4850693359375,1.789475917816162,-0.6820249557495117,6.228282928466797
1710891681102029600,6.504029541015625,2.229851484298706,-0.8863568305969238,5.689546585083008
1710891681120989700,6.52298974609375,2.4985897541046143,-1.650831699371338,4.519765853881836
1710891681139949600,6.541949462890625,2.521350145339966,-2.2203197479248047,2.956408977508545
1710891681158909700,6.56090966796875,2.257739543914795,-2.2976760864257812,1.457951307296753
1710891681177869600,6.57986962890625,1.9675939083099365,-1.861867904663086,0.31321239471435547
1710891681196829700,6.59882958984375,1.7411324977874756,-1.2931427955627441,-0.5238468647003174
1710891681215789800,6.617789794921875,1.4176664352416992,-0.8388957977294922,-1.1982048749923706
1710891681234749700,6.636749755859375,0.9622879028320312,-0.6314659118652344,-1.6194448471069336
1710891681253709800,6.655709716796875,0.58807373046875,-0.4341249465942383,-1.7633185386657715
1710891681272670000,6.674669921875,0.28874635696411133,0.1555337905883789,-1.5052392482757568
1710891681291629800,6.6936298828125,-0.08687829971313477,0.9408721923828125,-0.7809977531433105
1710891681310590000,6.71258984375,-0.5847873687744141,1.205174446105957,0.1565401554107666
1710891681329549800,6.7315498046875,-0.7266234159469604,0.7605295181274414,0.9289782047271729
1710891681348510000,6.750510009765625,-0.2566748857498169,0.2943716049194336,1.3544645309448242
1710891681367470000,6.769469970703125,0.35720181465148926,0.10379791259765625,1.7741644382476807
1710891681386430000,6.788429931640625,0.7335432767868042,0.026223182678222656,2.1446096897125244
1710891681405390000,6.80739013671875,0.5114818811416626,0.004302978515625,2.168046712875366
1710891681424350200,6.82635009765625,-0.02630794048309326,-0.1515979766845703,1.8492381572723389
1710891681443310300,6.845310302734375,-0.5240622758865356,-0.19219017028808594,1.2438561916351318
1710891681462270200,6.864270263671875,-1.234890103340149,0.16544628143310547,0.3589351177215576
1710891681481230300,6.883230224609375,-1.8644583225250244,0.5392084121704102,-0.298525333404541
1710891681500190500,6.9021904296875,-2.2065064907073975,0.7188129425048828,-1.0680590867996216
1710891681519150300,6.921150390625,-2.146444082260132,0.6848964691162109,-1.6114482879638672
1710891681538110500,6.9401103515625,-1.9253400564193726,0.5175809860229492,-1.2579965591430664
1710891681557070300,6.9590703125,-1.354467511177063,0.5900707244873047,-0.2709202766418457
1710891681576030500,6.978030517578125,-0.640547513961792,0.6726655960083008,0.8706803321838379
1710891681594990600,6.996990478515625,0.0032507702708244324,0.8537702560424805,1.8894801139831543
1710891681613950700,7.01595068359375,0.24449270963668823,0.8047876358032227,2.170161247253418
1710891681632910600,7.03491064453125,-0.006489835679531097,0.6961326599121094,1.5357258319854736
1710891681651870700,7.05387060546875,-0.35075458884239197,0.5386714935302734,0.6207149028778076
1710891681670830800,7.072830810546875,-0.5604832172393799,0.33335208892822266,-0.5596044063568115
1710891681689791000,7.091791015625,-0.5392612814903259,0.2142190933227539,-1.8704147338867188
1710891681708750800,7.110750732421875,-0.5351710915565491,0.13081645965576172,-2.65864634513855
1710891681727711000,7.1297109375,-0.4906039834022522,0.1256580352783203,-2.9321353435516357
1710891681746671000,7.148671142578125,-0.48827338218688965,0.2017230987548828,-2.841097354888916
1710891681765631000,7.167630859375,-0.7686237096786499,0.2688579559326172,-2.2782466411590576
1710891681784591000,7.186591064453125,-1.1760196685791016,0.35839366912841797,-1.3153221607208252
1710891681803551200,7.20555126953125,-1.627387285232544,0.3792276382446289,-0.15116262435913086
1710891681822511000,7.224510986328125,-1.8881653547286987,0.19356346130371094,1.1845567226409912
1710891681841471200,7.24347119140625,-1.8599598407745361,-0.201171875,2.1118531227111816
1710891681860431400,7.262431396484375,-1.6761637926101685,-0.4400625228881836,2.5581579208374023
1710891681879391500,7.2813916015625,-1.3843532800674438,-0.5750751495361328,2.4591002464294434
1710891681898351600,7.3003515625,-1.1090583801269531,-0.5384159088134766,1.979473352432251
1710891681917311500,7.3193115234375,-1.2783011198043823,-0.4514579772949219,1.3673419952392578
1710891681936271600,7.338271728515625,-1.577252745628357,-0.3598966598510742,0.846848726272583
1710891681955231700,7.357231689453125,-1.8544678688049316,-0.5100679397583008,0.10959005355834961
1710891681974191600,7.376191650390625,-1.8698428869247437,-0.3044881820678711,-0.6328334808349609
1710891681993151700,7.39515185546875,-1.7061707973480225,0.10944461822509766,-0.9826467037200928
1710891682012112000,7.41411181640625,-1.2554844617843628,0.423980712890625,-0.49399304389953613
1710891682031072000,7.433072021484375,-0.39943039417266846,0.6472797393798828,0.3084886074066162
1710891682050032000,7.4520322265625,0.5220983028411865,0.6887083053588867,0.2301921844482422
1710891682068992000,7.470991943359375,0.8643640279769897,0.9251766204833984,-0.42404890060424805
1710891682087952100,7.4899521484375,0.5283772945404053,1.568918228149414,-0.8944454193115234
1710891682106912300,7.508912353515625,0.10995888710021973,2.318148612976074,-1.1286051273345947
1710891682125872400,7.527872314453125,-0.22370564937591553,2.8405628204345703,-1.2299315929412842
1710891682144832300,7.546832275390625,-0.28409290313720703,2.6574668884277344,-1.0060162544250488
1710891682163792400,7.56579248046875,-0.10753178596496582,1.778477668762207,-0.4224112033843994
1710891682182752500,7.58475244140625,-0.17713308334350586,0.911616325378418,0.023802995681762695
1710891682201712600,7.603712646484375,-0.056819915771484375,-0.35592079162597656,0.30480074882507324
1710891682220672800,7.6226728515625,0.13733768463134766,-1.3596248626708984,-0.015635967254638672
1710891682239632600,7.641632568359375,1.228942632675171,-2.5489330291748047,0.006792306900024414
1710891682258592800,7.6605927734375,1.001523733139038,-2.6918840408325195,-0.7836089134216309
1710891682277553000,7.679552978515625,-0.8510642051696777,-1.153717041015625,-0.9215762615203857
1710891682296513000,7.698512939453125,-1.1752479076385498,-0.730405330657959,-0.8028736114501953
1710891682315473200,7.71747314453125,-0.29448461532592773,-1.8283109664916992,-1.6077220439910889
1710891682334433300,7.736433349609375,0.3553190231323242,-2.871889114379883,-1.8705759048461914
1710891682353393200,7.75539306640625,0.21284770965576172,-3.211233139038086,-1.4071146249771118
1710891682372353300,7.774353271484375,0.014215230941772461,-2.965517997741699,-0.4488527774810791
1710891682391313400,7.7933134765625,0.17254972457885742,-2.038997173309326,0.5622837543487549
1710891682410273500,7.8122734375,0.7469956874847412,-0.559168815612793,1.2795302867889404
1710891682429233700,7.831233642578125,1.485731840133667,0.15953636169433594,1.9882118701934814
1710891682448193500,7.850193603515625,2.4816458225250244,-0.16900634765625,2.6838953495025635
1710891682467153700,7.869153564453125,2.9660000801086426,-0.9846110343933105,2.4987473487854004
1710891682486113800,7.88811376953125,2.6997501850128174,-1.5474457740783691,1.6420972347259521
1710891682505074000,7.907073974609375,2.1597707271575928,-1.4889001846313477,0.8451402187347412
1710891682524034000,7.926033935546875,1.6967666149139404,-1.282240867614746,0.24555301666259766
1710891682542994200,7.944994140625,1.3162744045257568,-1.037020206451416,-0.02309703826904297
1710891682561954300,7.963954345703125,0.9903502464294434,-0.8316397666931152,-0.07207274436950684
1710891682580914200,7.9829140625,0.8466575145721436,-0.8476076126098633,-0.1336231231689453
1710891682599874300,8.001874267578126,1.0490155220031738,-0.8758034706115723,-0.231850266456604
1710891682618834400,8.02083447265625,1.274095058441162,-0.8831930160522461,-0.2752981185913086
1710891682637794600,8.039794677734376,1.8001189231872559,-1.0718021392822266,-0.2111949920654297
1710891682656754700,8.058754638671875,2.9468538761138916,-1.1581387519836426,0.005279064178466797
1710891682675714800,8.07771484375,3.3146026134490967,-0.9932394027709961,0.04206275939941406
1710891682694675000,8.096675048828125,2.5675692558288574,-0.9108448028564453,-0.2478935718536377
1710891682713634800,8.115634765625,1.9127118587493896,-0.9476995468139648,-0.5010476112365723
1710891682732595000,8.134594970703125,1.766937494277954,-1.0415382385253906,-0.36485910415649414
1710891682751555000,8.15355517578125,1.8670575618743896,-1.0910491943359375,-0.03453218936920166
1710891682770515200,8.17251513671875,1.7706148624420166,-0.8774824142456055,0.2614915370941162
1710891682789475300,8.191475341796876,1.4361488819122314,-0.24243831634521484,0.5959514379501343
1710891682808435500,8.210435546875,1.2269222736358643,0.21423053741455078,0.8230178356170654
1710891682827395600,8.2293955078125,0.8825922012329102,0.3643064498901367,0.9405473470687866
1710891682846355500,8.24835546875,0.5359772443771362,0.7369699478149414,1.1018218994140625
1710891682865315600,8.267315673828126,-0.11341452598571777,1.5407133102416992,1.0701948404312134
1710891682884275700,8.286275634765625,-1.2649130821228027,2.7608747482299805,0.5436382293701172
1710891682903235800,8.30523583984375,-1.2283430099487305,2.66756534576416,-0.4792691469192505
1710891682922196000,8.324196044921875,-0.9212727546691895,1.8237504959106445,-1.4646388292312622
1710891682941156000,8.343156005859376,-1.231005072593689,1.4241180419921875,-2.2673888206481934
1710891682960116200,8.3621162109375,-1.9832618236541748,1.1386823654174805,-2.8397395610809326
1710891682979076400,8.381076416015626,-2.8465890884399414,0.6588029861450195,-3.1261560916900635
1710891682998036500,8.400036376953125,-3.5548133850097656,0.3857460021972656,-2.9321789741516113
1710891683016996600,8.41899658203125,-4.154988765716553,0.1840343475341797,-2.3014256954193115
1710891683035956500,8.43795654296875,-4.256622314453125,-0.17066192626953125,-1.5380616188049316
1710891683054916600,8.45691650390625,-3.996666193008423,-0.3395271301269531,-0.5428800582885742
1710891683073876700,8.475876708984375,-3.5854129791259766,-0.150909423828125,0.523747444152832
1710891683092836900,8.4948369140625,-2.896941661834717,0.0006666183471679688,1.3710479736328125
1710891683111797000,8.513796875,-1.888622522354126,-0.0800466537475586,1.9289371967315674
1710891683130757000,8.532757080078126,-1.153385877609253,-0.4938688278198242,1.9734752178192139
1710891683149717200,8.55171728515625,-0.8143026828765869,-0.7387008666992188,1.335494041442871
1710891683168677400,8.570677490234376,-0.8563024401664734,-0.3596687316894531,0.4437859058380127
1710891683187637500,8.589637451171875,-1.1474791765213013,0.4983816146850586,-0.04845881462097168
1710891683206597600,8.60859765625,-1.49742591381073,1.1928720474243164,0.24595427513122559
1710891683225557800,8.627557861328125,-1.6311842203140259,1.2439727783203125,0.901634931564331
1710891683244517600,8.646517578125,-1.0570006370544434,0.5585727691650391,1.0505015850067139
1710891683263477800,8.665477783203125,-0.07834339141845703,-0.43694019317626953,0.659153938293457
1710891683282438000,8.68443798828125,0.5484343767166138,-0.8093013763427734,0.3805694580078125
1710891683301398000,8.70339794921875,0.9934844970703125,-0.64306640625,0.9215614795684814
1710891683320358100,8.722358154296876,1.474826693534851,-0.6602935791015625,1.6958811283111572
1710891683339318300,8.741318359375,1.8177037239074707,-0.7779531478881836,2.004690647125244
1710891683358278400,8.7602783203125,1.7884713411331177,-0.9432220458984375,1.7322630882263184
1710891683377238500,8.779238525390625,1.4789506196975708,-0.9566717147827148,1.1441915035247803
1710891683396198700,8.79819873046875,0.9553077220916748,-1.0341072082519531,0.43822813034057617
1710891683415158800,8.81715869140625,0.43225646018981934,-1.2510757446289062,0.04160189628601074
1710891683434119000,8.836118896484376,0.13733839988708496,-1.590789794921875,-0.461895227432251
1710891683453078800,8.855078857421875,0.1101377010345459,-1.6802825927734375,-0.7788026332855225
1710891683472039000,8.874038818359375,0.2816556692123413,-1.2060413360595703,-0.4939359426498413
1710891683490999000,8.8929990234375,0.41256725788116455,-0.5036296844482422,0.19878816604614258
1710891683509959200,8.911959228515625,0.7358536720275879,-0.04355430603027344,0.8511878252029419
1710891683528919300,8.930919189453125,1.3038032054901123,0.4621849060058594,1.2533316612243652
1710891683547879400,8.94987939453125,1.9911224842071533,1.553659439086914,1.4821836948394775
1710891683566839600,8.968839599609375,2.546311378479004,2.1335439682006836,0.7599425315856934
1710891683585799700,8.987799560546875,2.524512529373169,2.1677284240722656,-0.7980097532272339
1710891683604759800,9.006759765625,1.9668012857437134,1.8611516952514648,-1.9052870273590088
1710891683623720000,9.025719970703125,1.5776212215423584,1.4328384399414062,-2.600858688354492
1710891683642679800,9.0446796875,1.2631454467773438,1.2019329071044922,-2.8570075035095215
1710891683661640000,9.063639892578125,0.7655386924743652,1.0048494338989258,-2.8552913665771484
1710891683680600000,9.08260009765625,0.017063140869140625,0.7396640777587891,-2.7255444526672363
1710891683699560200,9.101560302734375,-0.8925042152404785,1.061354637145996,-2.20127534866333
1710891683718520300,9.120520263671875,-1.3232653141021729,1.6438636779785156,-1.0523637533187866
1710891683737480400,9.13948046875,-0.421250581741333,1.7547645568847656,-0.34435319900512695
1710891683756440600,9.158440673828125,0.9536457061767578,0.6659059524536133,-0.7706502676010132
1710891683775400700,9.177400634765625,1.616222858428955,-0.5465555191040039,-1.0661784410476685
1710891683794360800,9.19636083984375,0.5972695350646973,-1.0158648490905762,-1.263534426689148
1710891683813321000,9.215321044921875,-0.5241837501525879,-0.5729365348815918,-1.2277634143829346
1710891683832281000,9.234281005859375,-1.0976629257202148,0.2453937530517578,-1.2106379270553589
1710891683851241000,9.253240966796875,-1.2666680812835693,0.5992088317871094,-1.2945892810821533
1710891683870201000,9.272201171875,-1.4824728965759277,0.13846826553344727,-1.3381931781768799
1710891683889161200,9.2911611328125,-1.4652595520019531,-0.5809197425842285,-1.0310945510864258
1710891683908121300,9.310121337890624,-1.0941550731658936,-0.897580623626709,-0.65897536277771
1710891683927081500,9.32908154296875,-0.9412055015563965,-0.7939286231994629,-0.3630526065826416
1710891683946041600,9.34804150390625,-0.9141278266906738,-0.6825289726257324,0.0350651741027832
1710891683965001700,9.367001708984375,-1.038804531097412,-0.738100528717041,0.21245145797729492
1710891683983961600,9.385961669921874,-0.9828214645385742,-0.5795273780822754,0.07061481475830078
1710891684002921700,9.404921630859375,-1.5917973518371582,-0.4677300453186035,0.16149282455444336
1710891684021881900,9.4238818359375,-1.5536510944366455,-0.1927499771118164,0.057706356048583984
1710891684040842000,9.442842041015625,-1.4903738498687744,-0.35740089416503906,-0.02582263946533203
1710891684059802000,9.461802001953124,-1.4665894508361816,-0.5580191612243652,-0.03392171859741211
1710891684078762200,9.48076220703125,-1.1611647605895996,-0.6080007553100586,0.018761157989501953
1710891684097722400,9.499722412109374,-1.152658462524414,-0.3640313148498535,0.06290960311889648
1710891684116682500,9.5186826171875,-0.9715029001235962,-0.18240642547607422,0.06595373153686523
1710891684135642400,9.537642333984374,-0.8359634876251221,-0.3016538619995117,0.19581174850463867
1710891684154602500,9.5566025390625,-0.8526308536529541,-0.5697741508483887,0.3385958671569824
1710891684173562600,9.575562744140624,-0.5957319736480713,-0.3790760040283203,0.8475174903869629
1710891684192522800,9.594522705078125,-0.2680889368057251,-0.4703974723815918,0.6093382835388184
1710891684211483000,9.61348291015625,-0.17754197120666504,-0.554680347442627,0.6508064270019531
1710891684230443000,9.632443115234375,0.06882834434509277,-0.276214599609375,0.7052450180053711
1710891684249403100,9.651403076171874,0.3176172971725464,0.4591856002807617,0.5759339332580566
1710891684268363000,9.670363037109375,0.49825215339660645,0.3602886199951172,0.3573789596557617
1710891684287323100,9.6893232421875,0.27997732162475586,-0.0966043472290039,0.4825892448425293
1710891684306283300,9.708283203125,0.06476831436157227,-0.10624504089355469,1.1560750007629395
1710891684325243400,9.727243408203124,0.22991621494293213,-0.1100149154663086,0.8861861228942871
1710891684344203500,9.74620361328125,-0.09057480096817017,-0.2903928756713867,1.2180304527282715
1710891684363163600,9.76516357421875,0.2401191145181656,-0.5479946136474609,1.054706335067749
1710891684382123500,9.78412353515625,-0.45541179180145264,-0.46231842041015625,1.3776285648345947
1710891684401083600,9.803083740234374,-0.45534953474998474,-0.27927112579345703,1.3122961521148682
1710891684420043800,9.822043701171875,-0.35260212421417236,-0.08660125732421875,1.1064822673797607
1710891684439004000,9.84100390625,-0.41329020261764526,0.26987266540527344,1.3810806274414062
1710891684457963800,9.8599638671875,-0.5316129922866821,0.24017333984375,2.1024346351623535
1710891684476924000,9.878923828125,-0.7116758823394775,0.0022077560424804688,2.413276433944702
1710891684495884000,9.897884033203125,-0.8403017520904541,0.21538448333740234,3.3023338317871094
1710891684514844200,9.91684423828125,-1.0158649682998657,0.1709299087524414,3.166205883026123
1710891684533804300,9.93580419921875,-0.8769561052322388,0.10280990600585938,2.8986172676086426
1710891684552764400,9.954764404296874,-0.9975957870483398,0.5076560974121094,2.8915443420410156
1710891684571724300,9.973724365234375,-1.0614361763000488,0.8419113159179688,2.768889904022217
1710891684590684400,9.992684326171876,-1.3223798274993896,1.6565237045288086,2.5572052001953125
1710891684609644500,10.01164453125,-0.8296308517456055,2.327548027038574,1.9659314155578613
1710891684628604700,10.030604736328126,-0.6922159194946289,2.077615261077881,1.991565227508545
1710891684647564800,10.049564697265625,0.6822175979614258,2.8029942512512207,2.0625877380371094
1710891684666525000,10.06852490234375,1.2230334281921387,3.7000746726989746,1.6023340225219727
1710891684685484800,10.08748486328125,1.1116819381713867,3.7774524688720703,1.2210378646850586
1710891684704445000,10.10644482421875,1.370898723602295,3.6244184970855713,0.7645058631896973
1710891684723405000,10.125405029296875,1.177215337753296,3.910748243331909,0.7981348037719727
1710891684742365000,10.144364990234376,0.40175437927246094,3.8509068489074707,1.3424100875854492
1710891684761325000,10.163324951171875,0.5630521774291992,3.565264940261841,1.6068487167358398
1710891684780285200,10.18228515625,1.5787768363952637,3.2923789024353027,0.9184112548828125
1710891684799245300,10.201245361328125,1.7933406829833984,3.041044235229492,0.4711427688598633
1710891684818205400,10.220205322265626,1.289802074432373,2.9796431064605713,0.2695302963256836
1710891684837165600,10.23916552734375,-0.046851158142089844,2.8921539783477783,-0.030165672302246094
1710891684856125400,10.25812548828125,0.09202098846435547,2.8011019229888916,-1.1114134788513184
1710891684875085600,10.27708544921875,0.09983205795288086,2.143622636795044,-1.9415578842163086
1710891684894045700,10.296045654296876,0.009668350219726562,1.3818533420562744,-2.0358781814575195
1710891684913005600,10.315005615234375,-0.48630523681640625,0.6578564643859863,-2.3538599014282227
1710891684931965700,10.333965576171876,-0.8037815093994141,0.20581984519958496,-2.2588376998901367
1710891684950925800,10.35292578125,-0.45473432540893555,0.00774073600769043,-2.224241256713867
1710891684969886000,10.371885986328126,0.1538562774658203,-0.1433267593383789,-1.921579360961914
1710891684988846000,10.39084619140625,0.4263591766357422,-0.191725492477417,-1.399019718170166
1710891685007806200,10.40980615234375,-0.07403564453125,0.23901844024658203,-1.3188519477844238
1710891685026766000,10.42876611328125,0.5308032035827637,0.6878507137298584,-1.6890649795532227
1710891685045726200,10.447726318359376,0.5304760932922363,0.6051886081695557,-2.3489885330200195
1710891685064686000,10.46668603515625,-0.13516950607299805,0.596874475479126,-2.6386890411376953
1710891685083646200,10.485646240234376,0.5330343246459961,0.5531086921691895,-2.6749258041381836
1710891685102606300,10.5046064453125,0.4448890686035156,0.3448307514190674,-2.570648670196533
1710891685121566500,10.52356640625,0.846407413482666,0.458676815032959,-2.316041946411133
1710891685140526600,10.542526611328125,1.86083984375,0.20577692985534668,-2.359405517578125
1710891685159486500,10.561486572265625,1.6529505252838135,-0.1928696632385254,-2.181046485900879
1710891685178446600,10.580446533203125,1.7782533168792725,-0.04268503189086914,-1.333876609802246
1710891685197406700,10.59940673828125,1.7553906440734863,-0.20007538795471191,-0.6740827560424805
1710891685216366600,10.61836669921875,1.763206958770752,0.27307987213134766,-0.35068559646606445
1710891685235326700,10.63732666015625,2.4655275344848633,0.25205135345458984,0.17308378219604492
1710891685254286800,10.656286865234375,2.7191712856292725,-0.054346323013305664,0.43119382858276367
1710891685273247000,10.6752470703125,1.8260650634765625,0.23515915870666504,0.8977718353271484
1710891685292206800,10.694206787109374,1.1298484802246094,1.202390193939209,1.2577319145202637
1710891685311167000,10.7131669921875,0.5972771644592285,1.9284900426864624,1.3959732055664062
1710891685330127000,10.732127197265624,0.4934258460998535,2.0076839923858643,0.6397609710693359
1710891685349087200,10.751087158203125,0.9346976280212402,1.2389341592788696,-0.06536054611206055
1710891685368047000,10.770047119140624,0.05420398712158203,0.6686926484107971,-0.15623998641967773
1710891685387007200,10.78900732421875,-0.6506261825561523,1.1048681735992432,0.4966392517089844
1710891685405967000,10.807967041015624,-0.7125630378723145,0.9142638444900513,0.8317370414733887
1710891685424927200,10.82692724609375,-0.9806060791015625,0.6204754114151001,-0.3997769355773926
1710891685443887400,10.845887451171874,-1.0050487518310547,1.0585261583328247,-1.137998104095459
1710891685462847500,10.864847412109375,-1.6618328094482422,1.0927062034606934,-1.3540964126586914
1710891685481807400,10.883807373046874,-1.8712201118469238,0.5738461017608643,-1.113581657409668
1710891685500767500,10.902767578125,-2.165046215057373,0.6451246738433838,-1.3449978828430176
1710891685519727600,10.9217275390625,-1.792320728302002,0.44793736934661865,-1.6873779296875
1710891685538687700,10.940687744140625,-1.494903564453125,0.49758410453796387,-1.7772679328918457
1710891685557647600,10.959647705078124,-0.5663337707519531,0.8589599132537842,-0.6737346649169922
1710891685576607700,10.978607666015625,-0.7422924041748047,0.16385364532470703,0.34497642517089844
1710891685595567900,10.99756787109375,-0.5896172523498535,-0.623664379119873,1.876500129699707
1710891685614527700,11.01652783203125,-0.0804605484008789,-0.2728111743927002,2.1398239135742188
1710891685633488000,11.03548779296875,0.4695315361022949,-0.9432089328765869,1.858762264251709
1710891685652448000,11.054447998046875,0.368438720703125,-1.784134864807129,1.2645177841186523
1710891685671407900,11.073407958984374,-0.5798702239990234,-1.1631007194519043,0.4870452880859375
1710891685690368000,11.092367919921875,-1.1869592666625977,-0.21044588088989258,0.5071477890014648
1710891685709328100,11.111328125,-0.6752958297729492,0.27851057052612305,0.5717558860778809
1710891685728288300,11.130288330078125,-0.24406862258911133,-0.8355374336242676,0.665067195892334
1710891685747248000,11.149248046875,0.46770238876342773,-0.5666837692260742,1.1925873756408691
1710891685766208300,11.168208251953125,0.3917865753173828,-0.18825292587280273,1.5574860572814941
1710891685785168400,11.18716845703125,0.06510210037231445,-0.6667189598083496,1.6228108406066895
1710891685804128300,11.206128173828125,0.016528606414794922,-0.9604263305664062,0.9217014312744141
1710891685823088400,11.22508837890625,0.1340327262878418,-0.7422642707824707,0.39896392822265625
1710891685842048500,11.244048583984375,0.07898950576782227,-0.4749484062194824,0.8137321472167969
1710891685861008400,11.26300830078125,0.2713623046875,0.28425121307373047,1.4130182266235352
1710891685879968500,11.281968505859375,0.0852499008178711,0.21698951721191406,1.2706975936889648
1710891685898928600,11.3009287109375,-0.36739492416381836,-0.40473127365112305,0.6011404991149902
1710891685917888800,11.319888671875,-1.255298137664795,-0.5069708824157715,-0.5251035690307617
1710891685936848600,11.3388486328125,-2.953164577484131,0.0409703254699707,0.0769948959350586
1710891685955808800,11.357808837890625,-3.167725086212158,0.6421389579772949,1.4367403984069824
1710891685974769000,11.376768798828126,-1.0332798957824707,0.2606792449951172,1.1063446998596191
1710891685993728800,11.395728759765625,-0.11503362655639648,-0.5736846923828125,0.7719335556030273
1710891686012689000,11.41468896484375,-0.41713953018188477,-1.1085929870605469,0.5931658744812012
1710891686031649000,11.43364892578125,-0.09781646728515625,-0.7440948486328125,-0.2723689079284668
1710891686050609000,11.45260888671875,-0.03095388412475586,-0.4157590866088867,-0.1944751739501953
1710891686069569000,11.471569091796875,-0.019533634185791016,0.4392852783203125,0.1511702537536621
1710891686088529200,11.490529052734376,0.2880525588989258,0.45658016204833984,-0.10503721237182617
1710891686107489300,11.5094892578125,0.4096660614013672,0.11802959442138672,-0.37052297592163086
1710891686126449200,11.52844921875,0.3938779830932617,0.15244007110595703,-0.4597477912902832
1710891686145409300,11.5474091796875,0.2796058654785156,0.18776893615722656,-0.5058441162109375
1710891686164369400,11.566369384765625,0.6402053833007812,0.6567931175231934,-0.07985591888427734
1710891686183329500,11.58532958984375,0.9179539680480957,0.8781576156616211,-0.09967374801635742
1710891686202289400,11.604289306640625,0.8964428901672363,0.5072407722473145,-0.2753586769104004
1710891686221249500,11.62324951171875,1.0104856491088867,0.11551189422607422,-0.29143762588500977
1710891686240209700,11.642209716796875,0.9902663230895996,-0.060335636138916016,0.16457271575927734
1710891686259169500,11.66116943359375,0.6894021034240723,-0.5717606544494629,0.3225531578063965
1710891686278129700,11.680129638671875,0.4219985008239746,-1.0540289878845215,0.3395686149597168
1710891686297089800,11.69908984375,0.4752631187438965,-0.7529191970825195,0.4304389953613281
1710891686316050000,11.7180498046875,0.4817337989807129,-0.3988041877746582,1.3337316513061523
1710891686335009800,11.737009765625,0.6712555885314941,-0.6239938735961914,1.240037441253662
1710891686353970000,11.755969970703125,0.5365948677062988,-0.9184770584106445,1.5380449295043945
1710891686372930000,11.774929931640624,0.2179267406463623,-0.7261948585510254,1.4997587203979492
1710891686391890000,11.793889892578125,-0.6244945526123047,-0.14158153533935547,0.5595822334289551
1710891686410850000,11.81285009765625,-2.217686414718628,0.47603321075439453,-0.734494686126709
1710891686429810200,11.83181005859375,-2.8077869415283203,1.3198261260986328,-0.4751105308532715
1710891686448770300,11.850770263671874,-1.330479383468628,1.3539891242980957,-0.18784427642822266
1710891686467730400,11.86973046875,0.4062783718109131,0.2428140640258789,-0.08042621612548828
1710891686486690300,11.888690185546874,1.138519287109375,-0.8000822067260742,0.3934445381164551
1710891686505650400,11.907650390625,0.9865148067474365,-0.8475246429443359,0.32813453674316406
1710891686524610600,11.926610595703124,0.4573030471801758,-0.09293937683105469,-0.4026832580566406
1710891686543570400,11.9455703125,-0.04511237144470215,0.5178394317626953,-0.9636354446411133
1710891686562530600,11.964530517578124,-0.6659083366394043,0.5795669555664062,-0.659759521484375
1710891686581490700,11.98349072265625,-0.6847772598266602,0.3697495460510254,-0.12910842895507812
1710891686600450800,12.002450927734374,-0.3173227310180664,-0.17737388610839844,0.19658756256103516
1710891686619411000,12.021410888671875,-0.07974410057067871,-0.40370750427246094,0.36739635467529297
1710891686638370800,12.040370849609374,-0.17629456520080566,-0.15736961364746094,0.4269428253173828
1710891686657331000,12.0593310546875,-0.4500291347503662,0.0028014183044433594,0.21804571151733398
1710891686676291000,12.078291015625,-0.6087508201599121,0.08257055282592773,-0.0607762336730957
1710891686695251200,12.097251220703125,-0.7048358917236328,0.00021076202392578125,0.011627674102783203
1710891686714211000,12.116211181640624,-0.7540428638458252,-0.09978246688842773,0.04430818557739258
1710891686733171200,12.135171142578125,-0.7322244644165039,-0.2000284194946289,0.2111654281616211
1710891686752131300,12.15413134765625,-0.4780592918395996,-0.12729167938232422,0.15898561477661133
1710891686771091500,12.173091552734375,-0.3399726152420044,0.0664663314819336,0.10858726501464844
1710891686790051600,12.192051513671874,-0.22367608547210693,0.20431804656982422,0.22507905960083008
1710891686809011500,12.211011474609375,0.02574765682220459,0.04533863067626953,0.0034003257751464844
1710891686827971600,12.2299716796875,0.09529972076416016,0.02207469940185547,-0.15026092529296875
1710891686846931700,12.248931640625,0.10351395606994629,0.08013629913330078,-0.1577281951904297
1710891686865891600,12.2678916015625,0.21250700950622559,0.19498634338378906,-0.5992336273193359
1710891686884851700,12.286851806640625,-0.04610490798950195,0.24468374252319336,-1.0136933326721191
1710891686903811800,12.305811767578126,-0.14422035217285156,0.12213659286499023,-0.6583094596862793
1710891686922772000,12.32477197265625,-0.04230499267578125,0.12180280685424805,-0.12461566925048828
1710891686941732000,12.343732177734376,-0.034786105155944824,0.029010772705078125,-0.03790616989135742
1710891686960692200,12.362692138671875,-0.1636441946029663,0.03550577163696289,-0.2767019271850586
1710891686979652400,12.38165234375,-0.15182280540466309,0.06594133377075195,-0.5096659660339355
1710891686998612200,12.4006123046875,0.10662531852722168,-0.0016088485717773438,-0.35469532012939453
1710891687017572400,12.419572265625,0.36949336528778076,-0.002872467041015625,-0.19404268264770508
1710891687036532500,12.438532470703125,0.5618722438812256,-0.1624922752380371,-0.33313655853271484
1710891687055492400,12.457492431640626,0.5484451055526733,-0.27671003341674805,-0.4330620765686035
1710891687074452500,12.476452392578125,0.3450915813446045,-0.36663150787353516,-0.26815319061279297
1710891687093412600,12.49541259765625,0.2659890651702881,-0.2308359146118164,0.007062435150146484
1710891687112372700,12.514372802734375,0.21266138553619385,-0.14948701858520508,0.26477861404418945
1710891687131332900,12.533332763671876,0.2669285535812378,-0.15485858917236328,0.25462865829467773
1710891687150292700,12.552292724609375,0.3654407262802124,-0.024532794952392578,0.17404747009277344
1710891687169252900,12.5712529296875,0.24737334251403809,0.14780187606811523,0.042962074279785156
1710891687188213000,12.590212890625,0.04369759559631348,0.5858588218688965,0.15343093872070312
1710891687207173000,12.609173095703126,-0.32015395164489746,0.7196788787841797,0.38631486892700195
1710891687226133200,12.62813330078125,-0.3087862730026245,1.0274724960327148,0.3972454071044922
1710891687245093400,12.64709326171875,-0.2761857509613037,0.6368765830993652,0.48022937774658203
1710891687264053200,12.66605322265625,-0.2690112590789795,0.2540168762207031,0.5044302940368652
1710891687283013400,12.685013427734376,-0.003091096878051758,-0.19542837142944336,0.6558866500854492
1710891687301973500,12.703973388671875,0.3586452007293701,-0.5297622680664062,0.9403376579284668
1710891687320933600,12.72293359375,-0.18433082103729248,-0.42536258697509766,0.18829870223999023
1710891687339893500,12.7418935546875,-0.7333976030349731,-0.5846209526062012,-0.49044275283813477
1710891687358853600,12.760853515625,-0.4861767292022705,-0.36183691024780273,-1.1192998886108398
1710891687377813800,12.779813720703125,0.199346661567688,-0.042818546295166016,-0.8490581512451172
1710891687396774000,12.79877392578125,0.55887770652771,0.3805513381958008,-0.5014305114746094
1710891687415734000,12.817734130859375,0.41585028171539307,0.47461700439453125,-0.10006475448608398
1710891687434694000,12.83669384765625,0.4758719205856323,0.0790109634399414,-0.14377355575561523
1710891687453654000,12.855654052734375,-0.09687983989715576,0.0867013931274414,-0.4383845329284668
1710891687472614100,12.8746142578125,-0.2744954824447632,-0.08419275283813477,-0.35558080673217773
1710891687491574300,12.89357421875,-0.4784306287765503,-0.24527263641357422,-0.2005472183227539
1710891687510534400,12.912534423828125,-0.5949437618255615,-0.3315572738647461,-0.10629463195800781
1710891687529494500,12.93149462890625,-0.656085729598999,-0.19530725479125977,0.10132455825805664
1710891687548454400,12.950454345703125,-0.4479445219039917,-0.23356246948242188,0.35492610931396484
1710891687567414500,12.96941455078125,-0.20718896389007568,-0.32652711868286133,0.2688584327697754
1710891687586374700,12.988374755859375,0.09522223472595215,-0.136627197265625,0.26544666290283203
1710891687605334800,13.007334716796874,0.5939841270446777,0.5763812065124512,-0.08909988403320312
1710891687624295000,13.026294921875,1.3273545503616333,1.5647282600402832,-0.19670724868774414
1710891687643255000,13.045255126953125,1.1395167112350464,1.2690320014953613,-0.026908397674560547
1710891687662215000,13.06421484375,0.7945036888122559,0.13881349563598633,0.36681365966796875
1710891687681175000,13.083175048828124,0.43555748462677,-0.30423498153686523,0.35354137420654297
1710891687700135200,13.10213525390625,-0.04175460338592529,-0.3148612976074219,0.2977418899536133
1710891687719095300,13.12109521484375,-0.6604139804840088,-0.42404890060424805,0.1898493766784668
1710891687738055400,13.140055419921875,-0.8852096199989319,-0.5639805793762207,0.2557215690612793
1710891687757015600,13.159015625,-0.7400837540626526,-0.443972110748291,0.19115257263183594
1710891687775975700,13.1779755859375,-0.6323521733283997,-0.006984710693359375,-0.15150976181030273
1710891687794935600,13.196935546875,-0.436864972114563,0.3059883117675781,-0.28545141220092773
1710891687813895700,13.215895751953125,-0.2252013087272644,0.2944331169128418,-0.17385196685791016
1710891687832855800,13.234855712890624,-0.07598286867141724,0.09950494766235352,-0.07682037353515625
1710891687851816000,13.25381591796875,0.1678556203842163,0.01850271224975586,-0.09120702743530273
1710891687870776000,13.272776123046874,0.3581375181674957,0.16730928421020508,-0.051026344299316406
1710891687889736200,13.291736083984375,0.4129253327846527,0.23689937591552734,0.21641826629638672
1710891687908696000,13.310696044921874,0.41196301579475403,0.1551370620727539,0.48955678939819336
1710891687927656200,13.32965625,0.3370456397533417,0.07957267761230469,0.49419450759887695
1710891687946616300,13.3486162109375,0.31641823053359985,0.05485105514526367,0.2865581512451172
1710891687965576400,13.367576416015625,0.1931988000869751,-0.032660484313964844,0.1383194923400879
1710891687984536600,13.38653662109375,0.048906922340393066,-0.09453105926513672,-0.06051015853881836
1710891688003496700,13.40549658203125,-0.02064281702041626,-0.12552595138549805,-0.0021300315856933594
1710891688022456800,13.424456787109374,-0.05068153142929077,-0.18842792510986328,-0.03470039367675781
1710891688041416700,13.443416748046875,0.030925869941711426,-0.22412872314453125,-0.15162181854248047
1710891688060376800,13.462376953125,0.05718731880187988,-0.328671932220459,-0.19985532760620117
1710891688079337000,13.4813369140625,0.08754736185073853,-0.29949474334716797,-0.2697782516479492
1710891688098297000,13.500297119140624,0.088978111743927,-0.17416906356811523,-0.29653358459472656
1710891688117257200,13.51925732421875,-0.0039743781089782715,-0.10461807250976562,-0.14774703979492188
1710891688136217300,13.53821728515625,-0.03914487361907959,-0.08569049835205078,-0.07472801208496094
1710891688155177200,13.55717724609375,0.047208309173583984,-0.044362545013427734,-0.1820974349975586
1710891688174137300,13.576137451171874,0.04541200399398804,-0.0062999725341796875,-0.12079572677612305
1710891688193097500,13.595097412109375,0.0478208065032959,0.07033205032348633,0.16180992126464844
1710891688212057600,13.6140576171875,0.07442665100097656,0.035361289978027344,0.3046994209289551
1710891688231017700,13.633017822265625,0.06049001216888428,-0.039272308349609375,0.36882734298706055
1710891688249977600,13.6519775390625,0.06221580505371094,-0.15610694885253906,0.39389705657958984
1710891688268937700,13.670937744140625,0.13488984107971191,-0.19508981704711914,0.32887887954711914
1710891688287897900,13.68989794921875,0.22147530317306519,-0.1374053955078125,0.15154743194580078
1710891688306858000,13.70885791015625,0.31254029273986816,-0.0021295547485351562,0.06146383285522461
1710891688325818000,13.727818115234374,0.2691051959991455,0.07371759414672852,0.09817886352539062
1710891688344778000,13.746778076171875,0.1431681513786316,-0.02595043182373047,0.1850285530090332
1710891688363738000,13.765738037109376,-0.0035834908485412598,-0.1390695571899414,0.11598539352416992
1710891688382698200,13.7846982421875,-0.12066519260406494,-0.06974029541015625,-0.021084308624267578
1710891688401658400,13.803658447265626,-0.17759418487548828,0.09903764724731445,-0.11746025085449219
1710891688420618500,13.822618408203125,-0.15409475564956665,0.10712337493896484,-0.1353597640991211
1710891688439578400,13.841578369140626,-0.13574600219726562,0.13034868240356445,-0.14936304092407227
1710891688458538500,13.86053857421875,-0.14878904819488525,0.1222829818725586,-0.11124515533447266
1710891688477498600,13.87949853515625,-0.13087910413742065,0.12040233612060547,-0.11854124069213867
1710891688496458800,13.898458740234375,-0.16498982906341553,0.15616798400878906,-0.16362667083740234
1710891688515419000,13.9174189453125,-0.17587262392044067,0.1752157211303711,-0.1571335792541504
1710891688534379000,13.93637890625,-0.2069638967514038,0.11471700668334961,-0.03716897964477539
1710891688553339000,13.9553388671875,-0.12715846300125122,0.09172725677490234,0.07500696182250977
1710891688572299000,13.974299072265625,-0.086131751537323,0.028950214385986328,0.12344694137573242
1710891688591259100,13.993259033203126,-0.0038471221923828125,0.029496192932128906,0.059943199157714844
1710891688610219300,14.01221923828125,0.020086467266082764,0.026181697845458984,0.08404827117919922
1710891688629179400,14.031179443359376,-0.007847905158996582,-0.029430389404296875,0.2701072692871094
1710891688648139500,14.050139404296875,0.02987492084503174,-0.10899686813354492,0.2213292121887207
1710891688667099400,14.069099365234376,-0.013054192066192627,-0.16014337539672852,0.06134033203125
1710891688686059500,14.0880595703125,-0.030814826488494873,-0.06772661209106445,-0.03343772888183594
1710891688705019600,14.10701953125,-0.054968178272247314,0.05806446075439453,0.011380672454833984
1710891688723979500,14.1259794921875,-0.06454789638519287,0.08408260345458984,0.029450416564941406
1710891688742939600,14.144939697265626,-0.03343355655670166,-0.005694866180419922,0.037294864654541016
1710891688761899800,14.163899658203125,-0.031393349170684814,-0.0780949592590332,-0.006526947021484375
1710891688780860000,14.18285986328125,-0.022068262100219727,-0.07700157165527344,-0.048970699310302734
1710891688799820000,14.201820068359375,-0.026123404502868652,-0.022054195404052734,-0.07862091064453125
1710891688818780200,14.2207802734375,-0.03106170892715454,-0.01874256134033203,-0.0343775749206543
1710891688837740000,14.239739990234375,-0.027857959270477295,-0.06608152389526367,0.07734298706054688
1710891688856700200,14.2587001953125,0.007209897041320801,-0.08889389038085938,0.07726430892944336
1710891688875660300,14.277660400390625,0.058240294456481934,-0.10642576217651367,0.027939319610595703
1710891688894620200,14.2966201171875,0.1021994948387146,-0.09921455383300781,0.020977020263671875
1710891688913580300,14.315580322265625,0.11420881748199463,-0.08301210403442383,0.04719209671020508
1710891688932540400,14.33454052734375,0.12299138307571411,-0.11352729797363281,0.04381084442138672
1710891688951500500,14.35350048828125,0.11374151706695557,-0.12388467788696289,0.031710147857666016
1710891688970460700,14.372460693359375,0.11027055978775024,-0.0788722038269043,-0.005795478820800781
1710891688989420500,14.391420654296875,0.09387797117233276,0.031115055084228516,-0.010134220123291016
1710891689008380700,14.410380615234375,0.06140315532684326,0.052535057067871094,-0.03213644027709961
1710891689027340800,14.4293408203125,0.014411866664886475,0.051873207092285156,-0.03752851486206055
1710891689046300700,14.44830078125,-0.006869196891784668,0.04888629913330078,-0.00698089599609375
1710891689065260800,14.4672607421875,-0.023356497287750244,0.0956268310546875,0.024902820587158203
1710891689084221000,14.486220947265625,-0.015037298202514648,0.08906078338623047,0.036785125732421875
1710891689103181000,14.50518115234375,0.012861490249633789,-0.032012939453125,0.09420442581176758
1710891689122141000,14.524140869140625,0.06333374977111816,-0.061658382415771484,0.06345653533935547
1710891689141101000,14.54310107421875,0.10727739334106445,-0.055049896240234375,0.01693439483642578
1710891689160061200,14.562061279296875,0.15491563081741333,-0.13054466247558594,-0.06456756591796875
1710891689179021300,14.581021240234374,0.13244390487670898,-0.0751962661743164,-0.07565069198608398
1710891689197981200,14.599981201171875,0.09209567308425903,0.011994361877441406,0.07518768310546875
1710891689216941300,14.61894140625,0.07992517948150635,0.01943492889404297,0.13730335235595703
1710891689235901200,14.637901123046875,0.038389503955841064,-0.05869293212890625,0.14538145065307617
1710891689254861300,14.656861328125,-0.008177697658538818,-0.13676023483276367,0.11663389205932617
1710891689273821400,14.675821533203125,-0.0460582971572876,0.017268657684326172,0.11249113082885742
1710891689292781600,14.694781494140624,-0.04424417018890381,0.12749528884887695,0.09403324127197266
1710891689311741400,14.713741455078125,-0.04505038261413574,0.07697010040283203,0.0516200065612793
1710891689330701600,14.73270166015625,-0.05488431453704834,-0.0028595924377441406,-0.004034996032714844
1710891689349661700,14.75166162109375,-0.06107276678085327,-0.02885723114013672,0.03163433074951172
1710891689368621800,14.770621826171874,-0.061448514461517334,0.012233734130859375,0.03316164016723633
1710891689387581700,14.789581787109375,-0.036844074726104736,0.09135198593139648,-0.0009121894836425781
1710891689406541800,14.808541748046874,-0.019833087921142578,0.11254501342773438,-0.046253204345703125
1710891689425501700,14.827501708984375,-0.051160991191864014,0.19966888427734375,-0.04716205596923828
1710891689444461800,14.8464619140625,-0.10477513074874878,0.2462291717529297,0.033368587493896484
1710891689463422000,14.865421875,-0.10726773738861084,0.17731523513793945,0.053948402404785156
1710891689482381800,14.8843818359375,-0.05738496780395508,0.1044926643371582,0.03936290740966797
1710891689501342000,14.903342041015625,-0.04392582178115845,0.021085262298583984,0.08619499206542969
1710891689520302000,14.922302001953126,-0.026387572288513184,-0.006177425384521484,0.11763286590576172
1710891689539262200,14.94126220703125,0.013233363628387451,-0.04255390167236328,0.0582890510559082
1710891689558222000,14.96022216796875,0.01958411931991577,-0.03817462921142578,0.0284423828125
1710891689577182200,14.97918212890625,0.015582025051116943,0.006291866302490234,-0.011470794677734375
1710891689596142300,14.998142333984376,0.016733765602111816,-0.023190975189208984,-0.030289649963378906
1710891689615102200,15.017102294921875,0.039057016372680664,-0.08527326583862305,-0.057341575622558594
1710891689634062300,15.036062255859376,0.07801300287246704,-0.13669776916503906,-0.0812692642211914
1710891689653022200,15.055022216796875,0.08303296566009521,-0.10318756103515625,-0.09020519256591797
1710891689671982300,15.073982421875,0.04039198160171509,0.08496332168579102,-0.04636096954345703
1710891689690942200,15.092942138671875,0.005584359169006348,0.11947250366210938,0.014197826385498047
1710891689709902300,15.11190234375,-0.037960052490234375,-0.007018566131591797,0.01117563247680664
1710891689728862500,15.130862548828125,-0.02955073118209839,-0.15639257431030273,-0.07476806640625
1710891689747822300,15.149822265625,-0.011557698249816895,-0.15658855438232422,-0.0911555290222168
1710891689766782500,15.168782470703125,0.030820488929748535,-0.10550165176391602,-0.057013511657714844
1710891689785742600,15.18774267578125,0.065196692943573,-0.04882669448852539,-0.035152435302734375
1710891689804702500,15.206702392578125,0.0969083309173584,-0.017468929290771484,-0.05956411361694336
1710891689823662600,15.22566259765625,0.10979676246643066,-0.029764652252197266,-0.013173103332519531
1710891689842622700,15.244622802734375,0.08374571800231934,-0.025749683380126953,-0.01866626739501953
1710891689861582600,15.26358251953125,0.019844651222229004,0.03121662139892578,0.002131938934326172
1710891689880542700,15.282542724609375,-0.0314827561378479,0.03650951385498047,0.03161907196044922
1710891689899502600,15.301502685546875,-0.04325789213180542,0.009830951690673828,-0.02325153350830078
1710891689918462700,15.320462646484375,-0.05197638273239136,-0.01959228515625,-0.03678607940673828
1710891689937422800,15.3394228515625,-0.028752923011779785,-0.05483245849609375,0.00481414794921875
1710891689956382700,15.3583828125,0.039747536182403564,0.0024285316467285156,-0.01152801513671875
1710891689975342800,15.3773427734375,0.048507630825042725,0.020016193389892578,-0.026160240173339844
1710891689994303000,15.396302978515624,0.03209578990936279,0.001991748809814453,-0.04977130889892578
1710891690013262800,15.415262939453125,-0.007197439670562744,0.031682491302490234,-0.05401277542114258
1710891690032223000,15.434222900390624,-0.05553966760635376,0.040883541107177734,-0.020227432250976562
1710891690051182800,15.453182861328125,-0.0527152419090271,0.00162506103515625,-0.01656818389892578
1710891690070143000,15.47214306640625,-0.0455281138420105,-0.04395771026611328,0.005564212799072266
1710891690089102800,15.491102783203125,-0.02074146270751953,-0.023847579956054688,0.028050899505615234
1710891690108063000,15.51006298828125,-0.01518160104751587,-0.005298614501953125,0.01782846450805664
1710891690127022800,15.52902294921875,-0.005823612213134766,-0.002471446990966797,0.028796672821044922
1710891690145983000,15.54798291015625,-0.0029517412185668945,0.05156755447387695,0.04531145095825195
1710891690164942800,15.56694287109375,-0.03143280744552612,0.11531972885131836,0.11319684982299805
1710891690183903000,15.585903076171874,-0.0486830472946167,0.0437164306640625,0.12440729141235352
1710891690202862800,15.60486279296875,-0.09933209419250488,-0.04553031921386719,0.09853792190551758
1710891690221823000,15.623822998046874,-0.1258021593093872,-0.07772445678710938,0.04781150817871094
1710891690240782800,15.642782958984375,-0.11390912532806396,-0.008792877197265625,0.043229103088378906
1710891690259743000,15.661742919921876,-0.05399113893508911,0.03599119186401367,0.047686100006103516
1710891690278703000,15.680703125,-0.007527589797973633,0.01874256134033203,0.046990394592285156
1710891690297663000,15.6996630859375,-0.006959795951843262,-0.039721012115478516,0.05817127227783203
1710891690316623000,15.718623046875,-0.04162716865539551,-0.07105827331542969,0.10673856735229492
1710891690335583000,15.7375830078125,-0.03452110290527344,-0.05022478103637695,0.08513736724853516
1710891690354543000,15.756543212890625,-0.026879191398620605,0.008894920349121094,0.06906270980834961
1710891690373503000,15.7755029296875,-0.006201744079589844,-0.032032012939453125,0.07135486602783203
1710891690392463000,15.794463134765625,0.013187944889068604,-0.0837092399597168,0.07926273345947266
1710891690411423000,15.813423095703126,0.026218533515930176,-0.07349777221679688,0.048470497131347656
1710891690430383000,15.832383056640625,0.01061922311782837,-0.038768768310546875,0.011577606201171875
1710891690449343000,15.851343017578126,-0.0060318708419799805,-0.0053806304931640625,-0.023230552673339844
1710891690468303000,15.87030322265625,-0.003135383129119873,0.0034852027893066406,-0.0010471343994140625
1710891690487263000,15.889262939453126,0.030582010746002197,-0.013835906982421875,-0.04437971115112305
1710891690506223000,15.90822314453125,0.05927693843841553,-0.010516166687011719,-0.09930944442749023
1710891690525183000,15.927182861328125,0.04169744253158569,-0.02354288101196289,-0.04448843002319336
1710891690544143000,15.94614306640625,0.04655277729034424,-0.0618438720703125,-0.05340433120727539
1710891690563103000,15.96510302734375,0.010298490524291992,-0.08142423629760742,-0.05274677276611328
1710891690582063000,15.98406298828125,0.031531453132629395,-0.09052705764770508,-0.02821969985961914
1710891690601023000,16.00302294921875,0.09956681728363037,-0.08651542663574219,-0.07104730606079102
1710891690619983000,16.021983154296876,0.11659872531890869,-0.037806034088134766,-0.0845947265625
1710891690638943000,16.04094287109375,0.11114799976348877,0.06634330749511719,-0.004498004913330078
1710891690657903000,16.059903076171874,0.09122884273529053,0.052007198333740234,0.09955739974975586
1710891690676863000,16.078863037109375,0.12351906299591064,-0.09564065933227539,0.15539789199829102
1710891690695823000,16.097822998046876,0.15928137302398682,-0.17621946334838867,0.09140968322753906
1710891690714783000,16.116782958984373,0.23072338104248047,-0.1315011978149414,-0.0018739700317382812
1710891690733743000,16.1357431640625,0.25475871562957764,-0.02670764923095703,-0.004835605621337891
1710891690752703000,16.154702880859375,0.24625647068023682,0.10673761367797852,0.04400968551635742
1710891690771663000,16.1736630859375,0.20656925439834595,0.1312580108642578,0.07178592681884766
1710891690790623000,16.192623046875,0.1407531499862671,0.027950763702392578,0.08837890625
1710891690809583000,16.2115830078125,0.07999491691589355,-0.02355813980102539,0.008907794952392578
1710891690828543000,16.23054296875,0.05195075273513794,-0.02278900146484375,0.006468772888183594
1710891690847503000,16.249503173828124,0.09132778644561768,-0.011624813079833984,0.03310728073120117
1710891690866463000,16.268462890625,0.12486296892166138,-0.02642345428466797,0.01740741729736328
1710891690885423000,16.287423095703126,0.09715551137924194,-0.07673311233520508,0.030400753021240234
1710891690904383000,16.306383056640627,0.07036346197128296,-0.10752010345458984,0.10530233383178711
1710891690923343000,16.325343017578124,0.030038535594940186,-0.05833911895751953,0.12357568740844727
1710891690942303000,16.344302978515625,0.008100271224975586,0.03146982192993164,0.062117576599121094
1710891690961263000,16.36326318359375,-0.022257685661315918,0.0031480789184570312,0.07601404190063477
1710891690980223000,16.382222900390627,-0.06575983762741089,-0.032958030700683594,0.06316804885864258
1710891690999183000,16.40118310546875,-0.0718684196472168,-0.06718587875366211,0.0686349868774414
1710891691018143000,16.42014306640625,-0.029110372066497803,-0.018004894256591797,0.053566932678222656
1710891691037103000,16.43910302734375,-0.1069948673248291,-0.05084991455078125,0.19452285766601562
1710891691056063000,16.45806298828125,-0.13937890529632568,-0.043261051177978516,0.033014774322509766
1710891691075023000,16.477023193359376,-0.09485983848571777,0.04445457458496094,-0.10355377197265625
1710891691093983000,16.49598291015625,-0.014542877674102783,-0.025291919708251953,0.10068941116333008
1710891691112943000,16.514943115234374,-0.041884541511535645,0.06336736679077148,0.20435810089111328
1710891691131903000,16.533903076171875,-0.08000731468200684,0.05706977844238281,0.16966867446899414
1710891691150863000,16.552863037109375,-0.030155837535858154,-0.10326480865478516,0.09944725036621094
1710891691169823000,16.571822998046876,0.04070204496383667,-0.2544088363647461,0.050180912017822266
1710891691188783000,16.590783203125,0.03070122003555298,-0.19707822799682617,0.1404409408569336
1710891691207743000,16.609742919921874,0.04521840810775757,-0.060060977935791016,0.20154857635498047
1710891691226703000,16.628703125,0.08122974634170532,0.020781993865966797,0.20265626907348633
1710891691245663000,16.6476630859375,0.10249626636505127,0.08330917358398438,0.1421947479248047
1710891691264623000,16.666623046875,0.09827637672424316,0.03443098068237305,0.04623270034790039
1710891691283583000,16.6855830078125,0.09223777055740356,0.03606700897216797,-0.025261878967285156
1710891691302543000,16.704543212890623,0.11762738227844238,0.08377647399902344,-0.07847118377685547
1710891691321503000,16.7235029296875,0.09637737274169922,0.13211774826049805,-0.11245012283325195
1710891691340463000,16.742463134765625,0.052240729331970215,0.07852602005004883,-0.13951444625854492
1710891691359423000,16.761423095703126,-0.0003914833068847656,0.011914730072021484,-0.14394092559814453
1710891691378383000,16.780383056640623,-0.03909587860107422,-0.04024982452392578,-0.16329336166381836
1710891691397343000,16.799343017578124,-0.05006217956542969,-0.05705404281616211,-0.19907903671264648
1710891691416303000,16.81830322265625,-0.07058101892471313,-0.0555872917175293,-0.20067739486694336
1710891691435263200,16.83726318359375,-0.03658038377761841,-0.021087646484375,-0.23657512664794922
1710891691454223000,16.85622314453125,-0.030989885330200195,-0.004428386688232422,-0.2171168327331543
1710891691473183200,16.875183349609376,0.017835378646850586,-0.006703376770019531,-0.21920251846313477
1710891691492143000,16.89414306640625,0.034997403621673584,-0.021168231964111328,-0.1576995849609375
1710891691511103200,16.913103271484374,0.03824847936630249,-0.017742156982421875,-0.1417250633239746
1710891691530063000,16.93206298828125,0.07367110252380371,-0.024648666381835938,-0.08779525756835938
1710891691549023200,16.951023193359376,0.1218254566192627,-0.04486513137817383,-0.05334329605102539
1710891691567983000,16.969983154296877,0.15696418285369873,-0.00606536865234375,-0.08270883560180664
1710891691586943200,16.988943115234374,0.13895046710968018,0.11749982833862305,0.04134178161621094
1710891691605903000,17.007903076171875,0.15906989574432373,0.1768951416015625,0.1962428092956543
1710891691624863200,17.02686328125,0.1958816647529602,0.09779930114746094,0.17072582244873047
1710891691643823000,17.045822998046877,0.1398996114730835,-0.0028624534606933594,0.12067794799804688
1710891691662783200,17.064783203125,0.05113828182220459,0.05629253387451172,0.13102245330810547
1710891691681743000,17.0837431640625,0.01014256477355957,0.10103082656860352,0.07838296890258789
1710891691700703200,17.102703125,0.017624378204345703,0.14314508438110352,0.004492759704589844
1710891691719663000,17.1216630859375,-0.03376859426498413,0.16708612442016602,0.0043544769287109375
1710891691738623200,17.140623291015626,-0.061228036880493164,0.15671586990356445,0.03818511962890625
1710891691757583400,17.159583251953126,-0.06776261329650879,0.15119647979736328,-0.04592132568359375
1710891691776543200,17.178543212890624,-0.10359412431716919,0.11721324920654297,-0.04726552963256836
1710891691795503400,17.19750341796875,-0.11645793914794922,0.04585599899291992,0.04892301559448242
1710891691814463200,17.216463134765625,-0.07392668724060059,-0.11365175247192383,0.06312799453735352
1710891691833423400,17.23542333984375,-0.02685481309890747,-0.21111631393432617,-0.0016231536865234375
1710891691852383200,17.25438330078125,-0.02358710765838623,-0.11433601379394531,0.0009613037109375
1710891691871343400,17.27334326171875,-0.04162567853927612,0.06766700744628906,0.11736774444580078
1710891691890303200,17.29230322265625,-0.09589219093322754,0.16127824783325195,0.21903371810913086
1710891691909263400,17.311263427734374,-0.14867782592773438,0.10460233688354492,0.1900625228881836
1710891691928223500,17.330223388671875,-0.16508466005325317,0.005703926086425781,0.1830463409423828
1710891691947183400,17.349183349609376,-0.14216190576553345,-0.015411853790283203,0.0603642463684082
1710891691966143500,17.3681435546875,-0.1572619080543518,0.031271934509277344,0.009975910186767578
1710891691985103400,17.387103271484374,-0.1412891149520874,0.05557060241699219,0.03551483154296875
1710891692004063500,17.4060634765625,-0.08314865827560425,0.04933738708496094,0.011296749114990234
1710891692023023400,17.4250234375,-0.05991584062576294,0.019572734832763672,-0.10106468200683594
1710891692041983500,17.4439833984375,-0.1049642562866211,0.08593606948852539,-0.20257186889648438
1710891692060943400,17.462943359375,-0.21556463837623596,0.11149072647094727,-0.13748455047607422
1710891692079903500,17.481903564453123,-0.18268251419067383,0.031444549560546875,-0.11315155029296875
1710891692098863400,17.50086328125,-0.11028861999511719,-0.05978536605834961,-0.20099496841430664
1710891692117823500,17.519823486328125,-0.10251635313034058,-0.10969781875610352,-0.2115030288696289
1710891692136783400,17.538783447265626,-0.11441969871520996,-0.018805980682373047,-0.19895505905151367
1710891692155743500,17.557743408203127,-0.10085305571556091,0.036844730377197266,-0.20372390747070312
1710891692174703600,17.57670361328125,-0.07105261087417603,-0.05219888687133789,-0.1609816551208496
1710891692193663500,17.59566357421875,-0.06652206182479858,-0.2513608932495117,-0.1350107192993164
1710891692212623600,17.61462353515625,-0.050260335206985474,-0.5649805068969727,-0.18116474151611328
1710891692231583500,17.63358349609375,-0.001642853021621704,-0.7086834907531738,-0.2389698028564453
1710891692250543600,17.652543701171876,0.054958730936050415,-0.6138620376586914,-0.24659299850463867
1710891692269503700,17.671503662109377,0.08260664343833923,-0.2291092872619629,-0.07163238525390625
1710891692288463600,17.690463623046874,-0.0511813759803772,0.24054718017578125,0.12309980392456055
1710891692307423700,17.709423828125,-0.2427581548690796,0.49754858016967773,0.3308711051940918
1710891692326383600,17.728383544921876,-0.37492886185646057,0.32200145721435547,0.3813619613647461
1710891692345343700,17.74734375,-0.3474672734737396,-0.11853504180908203,0.3337883949279785
1710891692364304000,17.766303955078126,-0.21607330441474915,-0.42262935638427734,0.2809028625488281
1710891692383263700,17.785263671875,-0.01641586422920227,-0.40360403060913086,0.20972156524658203
1710891692402223900,17.804223876953124,0.1703495979309082,-0.1282811164855957,0.17034196853637695
1710891692421183700,17.823183837890625,0.22954557836055756,0.18200349807739258,0.12819337844848633
1710891692440144000,17.842143798828126,0.14211860299110413,0.2669839859008789,0.09700679779052734
1710891692459104000,17.86110400390625,0.06512075662612915,0.25109148025512695,0.0529022216796875
1710891692478063900,17.88006396484375,0.05167016386985779,0.13987398147583008,-0.03260231018066406
1710891692497024000,17.89902392578125,0.14823216199874878,0.0927882194519043,-0.07055139541625977
1710891692515984000,17.91798388671875,0.24242278933525085,0.1361713409423828,-0.042110443115234375
1710891692534944000,17.936944091796875,0.3294176459312439,0.14976739883422852,-0.006741046905517578
1710891692553903900,17.95590380859375,0.39524292945861816,0.0221099853515625,-0.1006922721862793
1710891692572864000,17.974864013671876,0.3676677644252777,-0.10025835037231445,-0.15399980545043945
1710891692591824100,17.99382421875,0.3045990467071533,-0.1547074317932129,-0.1434006690979004
1710891692610784000,18.012783935546874,0.2723914086818695,-0.08629131317138672,-0.1951904296875
1710891692629744000,18.031744140625,0.2705704867839813,0.027779102325439453,-0.269716739654541
1710891692648704000,18.0507041015625,0.2742953300476074,0.011989593505859375,-0.30236244201660156
1710891692667664100,18.0696640625,0.2807806432247162,-0.08711004257202148,-0.3994879722595215
1710891692686624300,18.088624267578126,0.285123348236084,-0.20133686065673828,-0.510744571685791
1710891692705584000,18.107584228515623,0.2658727765083313,-0.1269397735595703,-0.5360956192016602
1710891692724544300,18.126544189453124,0.1966007798910141,0.004609584808349609,-0.3907294273376465
1710891692743504400,18.14550439453125,0.12478764355182648,0.07666540145874023,-0.17640018463134766
1710891692762464300,18.16446435546875,0.05014035105705261,0.26903390884399414,0.02556324005126953
1710891692781424400,18.18342431640625,-0.018300414085388184,0.46280479431152344,0.11769914627075195
1710891692800384500,18.202384521484376,-0.10107666254043579,0.5021181106567383,0.3030824661254883
1710891692819344400,18.221344482421873,-0.1844852864742279,0.5483584403991699,0.3842940330505371
1710891692838304500,18.240304443359374,-0.23031625151634216,0.4996986389160156,0.43846702575683594
1710891692857264400,18.259264404296875,-0.20636335015296936,0.24837779998779297,0.4426751136779785
1710891692876224500,18.278224609375,-0.18262994289398193,-0.16455793380737305,0.33394622802734375
1710891692895184600,18.2971845703125,-0.142208069562912,-0.5401854515075684,0.15958309173583984
1710891692914144500,18.31614453125,-0.009983539581298828,-0.5692510604858398,-0.01120615005493164
1710891692933104600,18.335104736328127,0.1090230643749237,-0.500950813293457,-0.07217025756835938
1710891692952064500,18.354064453125,0.15513630211353302,-0.3577146530151367,-0.01936197280883789
1710891692971024600,18.373024658203125,0.12528669834136963,-0.1717829704284668,0.033974647521972656
1710891692989984500,18.391984619140626,0.08494849503040314,-0.04145383834838867,0.2211008071899414
1710891693008944600,18.410944580078127,0.005029946565628052,-0.0516510009765625,0.4554572105407715
1710891693027904800,18.42990478515625,-0.02541428804397583,-0.09945201873779297,0.5158233642578125
1710891693046864600,18.44886474609375,-0.09143698215484619,-0.11564922332763672,0.584017276763916
1710891693065824800,18.46782470703125,-0.06431159377098083,-0.13316679000854492,0.5184640884399414
1710891693084785000,18.486784912109375,-0.08842837810516357,-0.06116294860839844,0.4227161407470703
1710891693103744800,18.505744873046876,-0.09488481283187866,-0.015254497528076172,0.2137284278869629
1710891693122705000,18.524704833984377,-0.1310412883758545,0.025542736053466797,-0.005194664001464844
1710891693141665000,18.5436650390625,-0.20232146978378296,0.02402019500732422,-0.15407657623291016
1710891693160625000,18.562625,-0.22979670763015747,0.02350473403930664,-0.16148900985717773
1710891693179585000,18.5815849609375,-0.25162047147750854,0.08034181594848633,-0.19202280044555664
1710891693198545200,18.600545166015625,-0.27134788036346436,0.1370234489440918,-0.26997852325439453
1710891693217505000,18.619505126953126,-0.21091243624687195,0.13694477081298828,-0.2924966812133789
1710891693236465200,18.638465087890626,-0.14287728071212769,0.13336658477783203,-0.21367740631103516
1710891693255425000,18.657425048828124,-0.01816391944885254,0.12928485870361328,-0.09937143325805664
1710891693274385200,18.67638525390625,0.048929452896118164,0.036603450775146484,-0.09558248519897461
1710891693293345000,18.695344970703125,0.11053961515426636,-0.005904674530029297,-0.13244867324829102
1710891693312305200,18.71430517578125,0.17837148904800415,-0.019989013671875,-0.20979547500610352
1710891693331265300,18.733265380859375,0.2306545376777649,-0.0036573410034179688,-0.2677321434020996
1710891693350225200,18.75222509765625,0.16536837816238403,0.02833080291748047,-0.19854021072387695
1710891693369185300,18.771185302734374,0.1399427056312561,0.05301809310913086,-0.021811962127685547
1710891693388145200,18.790145263671874,0.1403205394744873,0.02252197265625,-0.07112789154052734
1710891693407105300,18.809105224609375,0.14280277490615845,-0.03401613235473633,-0.18831348419189453
1710891693426065400,18.8280654296875,0.10841375589370728,-0.033440589904785156,-0.15288400650024414
1710891693445025300,18.847025390625,0.06534022092819214,-0.01661205291748047,-0.049915313720703125
1710891693463985400,18.8659853515625,0.08119291067123413,-0.10970258712768555,0.05657482147216797
1710891693482945500,18.884945556640623,0.14105147123336792,-0.21520614624023438,0.1270580291748047
1710891693501905400,18.903905517578124,0.08535003662109375,-0.39261484146118164,-0.020272254943847656
1710891693520865500,18.922865478515625,-0.0892939567565918,-0.46641063690185547,-0.5888829231262207
1710891693539825400,18.941825439453126,-0.2000868320465088,-0.5210390090942383,-0.5407938957214355
1710891693558785500,18.96078564453125,-0.26537322998046875,-0.5085244178771973,-0.39225339889526367
1710891693577745700,18.97974560546875,-0.18341147899627686,-0.5349698066711426,-0.32283496856689453
1710891693596705500,18.99870556640625,0.025919795036315918,0.10140752792358398,0.03964424133300781
1710891693615665700,19.017665771484374,0.4237113893032074,0.7833104133605957,0.38361120223999023
1710891693634625500,19.03662548828125,0.6760118007659912,0.9020047187805176,0.8108744621276855
1710891693653585700,19.055585693359376,0.7591146230697632,0.6302142143249512,1.1528925895690918
1710891693672545800,19.0745458984375,0.6342008113861084,0.2371211051940918,1.1454730033874512
1710891693691505700,19.093505615234374,0.3591182827949524,-0.09583425521850586,0.8523592948913574
1710891693710465500,19.112465576171875,0.11316913366317749,-0.3402085304260254,0.5598201751708984
1710891693729425700,19.13142578125,-0.06013733148574829,-0.27823495864868164,0.27870655059814453
1710891693748385800,19.1503857421875,-0.17753279209136963,-0.10518217086791992,0.050244808197021484
1710891693767345700,19.169345703125,-0.24051356315612793,0.056025028228759766,0.01965951919555664
1710891693786305800,19.188305908203127,-0.3126102089881897,0.1149148941040039,0.10898828506469727
1710891693805265700,19.207265625,-0.3378128409385681,0.182952880859375,0.14748573303222656
1710891693824225800,19.226225830078125,-0.36221951246261597,0.2603321075439453,0.14176273345947266
1710891693843185700,19.245185546875,-0.31961488723754883,0.22252702713012695,0.07680988311767578
1710891693862145800,19.264145751953127,-0.2830311059951782,0.09868574142456055,0.07233524322509766
1710891693881105700,19.283105712890624,-0.3023828864097595,0.07215213775634766,0.13917922973632812
1710891693900065800,19.302065673828125,-0.24159985780715942,0.07260560989379883,0.17518186569213867
1710891693919026000,19.32102587890625,-0.1473291516304016,-0.025112152099609375,0.15136098861694336
1710891693937985800,19.33998583984375,-0.14228850603103638,-0.10118532180786133,0.04007101058959961
1710891693956946000,19.35894580078125,-0.1293562650680542,-0.11132001876831055,0.0635080337524414
1710891693975905800,19.37790576171875,-0.05529463291168213,0.06138420104980469,0.11004447937011719
1710891693994866000,19.396865966796874,0.01128154993057251,0.16720867156982422,0.1504812240600586
1710891694013825800,19.41582568359375,0.043746113777160645,0.18355655670166016,0.14614439010620117
1710891694032786000,19.434785888671875,0.040800631046295166,0.20085382461547852,0.1406402587890625
1710891694051745800,19.453745849609376,0.025215864181518555,0.10333681106567383,0.14101648330688477
1710891694070706000,19.472705810546874,0.012474775314331055,-0.02577066421508789,0.07014751434326172
1710891694089665800,19.491665771484374,0.020161151885986328,-0.039824485778808594,-0.010042667388916016
1710891694108626000,19.5106259765625,0.1152716875076294,0.030011653900146484,-0.14284896850585938
1710891694127585800,19.529585693359376,0.16741371154785156,0.10962915420532227,-0.2572488784790039
1710891694146546000,19.5485458984375,0.13858354091644287,0.29018688201904297,-0.3935551643371582
1710891694165505800,19.567505859375,0.08940410614013672,0.5022745132446289,-0.4908876419067383
1710891694184466000,19.5864658203125,0.05120968818664551,0.503753662109375,-0.5964169502258301
1710891694203426000,19.605426025390624,-0.0896226167678833,0.05736970901489258,-0.49599456787109375
1710891694222386000,19.624385986328125,-0.40718281269073486,-0.33414363861083984,-0.14218950271606445
1710891694241346000,19.643345947265626,-0.22141921520233154,-0.31394481658935547,0.5361742973327637
1710891694260306000,19.662305908203123,-0.06147944927215576,-0.4587993621826172,0.9205889701843262
1710891694279265800,19.681265869140624,0.1376093626022339,-0.6352558135986328,0.7808065414428711
1710891694298226000,19.700225830078125,0.005794048309326172,-0.36461973190307617,0.13092947006225586
1710891694317185800,19.719185791015626,-0.44770097732543945,-0.09970998764038086,-0.16122007369995117
1710891694336146000,19.73814599609375,-0.3646329641342163,0.003692626953125,-0.06534385681152344
1710891694355105800,19.757105712890624,-0.29400014877319336,0.2215442657470703,0.0026397705078125
1710891694374066000,19.77606591796875,0.22377467155456543,-0.45181894302368164,-0.2671041488647461
1710891694393025800,19.79502587890625,0.8074803352355957,-0.6345009803771973,-0.48918819427490234
1710891694411986000,19.81398583984375,1.0276296138763428,-0.35113525390625,-0.5153069496154785
1710891694430945800,19.83294580078125,1.1180517673492432,-0.1246495246887207,-0.5012006759643555
1710891694449906000,19.851906005859377,0.9146184921264648,-0.3266158103942871,-0.5953187942504883
1710891694468865800,19.87086572265625,0.3902817964553833,-0.3805203437805176,-0.34875011444091797
1710891694487826000,19.889825927734375,-0.35588860511779785,0.13965368270874023,0.039813995361328125
1710891694506785800,19.908785888671876,-0.8918968439102173,1.047128677368164,0.33640527725219727
1710891694525746000,19.927745849609376,-1.267069935798645,1.47190523147583,0.1473846435546875
1710891694544705800,19.946705810546874,-1.4197946786880493,0.9274978637695312,-0.7442336082458496
1710891694563666000,19.965666015625,-1.687523365020752,-0.10724782943725586,-0.9765315055847168
1710891694582625800,19.984625732421875,-1.4919592142105103,-0.18017339706420898,-0.8425893783569336
1710891694601585700,20.003585693359376,-0.9499815702438354,-0.03338479995727539,-0.307802677154541
1710891694620545800,20.0225458984375,-0.5730897188186646,-0.08520174026489258,-0.22531604766845703
1710891694639505700,20.041505615234374,-0.5963696241378784,-0.3868570327758789,-0.08293676376342773
1710891694658465800,20.0604658203125,-0.5451332330703735,-0.6380620002746582,0.2585639953613281
1710891694677425700,20.07942578125,-0.27357232570648193,-0.7415170669555664,0.3527073860168457
1710891694696385800,20.0983857421875,0.268110990524292,-0.3845648765563965,0.4048933982849121
1710891694715345700,20.117345703125,0.810229480266571,0.05156850814819336,0.4545607566833496
1710891694734305800,20.136305908203123,1.1869674921035767,0.17610692977905273,0.1268024444580078
1710891694753265700,20.155265625,1.2931220531463623,-0.21515321731567383,-0.264772891998291
1710891694772225500,20.1742255859375,1.1999210119247437,0.027019977569580078,-0.18858957290649414
1710891694791185700,20.193185546875,0.7409828901290894,0.17290925979614258,0.9598116874694824
1710891694810145800,20.212145751953123,0.13467073440551758,0.22137880325317383,1.4447007179260254
1710891694829105700,20.231105712890624,-0.25883233547210693,-0.35454893112182617,0.849271297454834
1710891694848065500,20.2500654296875,-0.48270487785339355,-0.8959217071533203,-0.5661716461181641
1710891694867025700,20.269025634765626,-0.833026647567749,-1.3249807357788086,-1.5364503860473633
1710891694885985500,20.287985595703127,-1.4104509353637695,-1.0090041160583496,-1.9299063682556152
1710891694904945400,20.3069453125,-2.4603519439697266,-0.4176173210144043,-2.4297537803649902
1710891694923905500,20.325905517578125,-3.054253101348877,-0.4921112060546875,-2.6304335594177246
1710891694942865400,20.344865478515626,-2.6733944416046143,-0.8981246948242188,-2.109348773956299
1710891694961825500,20.363825439453127,-1.8079900741577148,-1.0825762748718262,-2.124742031097412
1710891694980785400,20.382785400390624,-0.852452278137207,-1.2050037384033203,-2.1511316299438477
1710891694999745300,20.401745361328125,-0.32285213470458984,-1.5228519439697266,-2.151498556137085
1710891695018705400,20.420705322265626,0.08576083183288574,-1.8941688537597656,-1.7267370223999023
1710891695037665300,20.439665283203126,0.44631922245025635,-2.4847373962402344,-1.2767808437347412
1710891695056625200,20.458625244140624,0.6960309743881226,-3.0064921379089355,-1.0395045280456543
1710891695075585300,20.477585205078125,0.7644226551055908,-3.152461051940918,-1.3759522438049316
1710891695094545200,20.496545166015625,0.5792933702468872,-2.9813356399536133,-1.6009485721588135
1710891695113505000,20.515505126953126,0.762407660484314,-2.640970230102539,-0.9884312152862549
1710891695132465200,20.534465087890624,0.6513461470603943,-2.0568466186523438,-0.20356369018554688
1710891695151425000,20.553425048828124,0.8811425566673279,-1.4170150756835938,-0.23189783096313477
1710891695170385200,20.57238525390625,1.2755131721496582,-1.1515789031982422,-0.4778294563293457
1710891695189345000,20.591344970703126,1.6427960395812988,-1.2139286994934082,-0.4842534065246582
1710891695208305000,20.610304931640623,1.473050594329834,-0.9731559753417969,-0.21068763732910156
1710891695227264800,20.6292646484375,0.26594674587249756,-0.4960746765136719,-0.521392822265625
1710891695246225000,20.648224853515625,0.717581570148468,-0.1805429458618164,0.42573118209838867
1710891695265184800,20.667184814453126,0.311797559261322,-0.06434154510498047,0.4097752571105957
1710891695284144600,20.68614453125,-0.014457106590270996,0.15773296356201172,-0.14833784103393555
1710891695303104800,20.705104736328124,0.03470200300216675,0.3864865303039551,0.04514360427856445
1710891695322064600,20.724064697265625,-0.11195218563079834,0.6185398101806641,0.42638158798217773
1710891695341024500,20.7430244140625,-0.021712779998779297,0.48358726501464844,0.5515789985656738
1710891695359984600,20.761984619140627,0.2518649697303772,0.10860967636108398,0.2918868064880371
1710891695378944500,20.780944580078124,0.07775718718767166,0.15186119079589844,-0.37681055068969727
1710891695397904400,20.799904296875,0.030067771673202515,0.19486761093139648,-0.7061777114868164
1710891695416864500,20.818864501953126,0.047940656542778015,0.23770523071289062,-0.47707033157348633
1710891695435824400,20.837824462890627,0.22248464822769165,0.22400712966918945,0.09449100494384766
1710891695454784300,20.8567841796875,0.4265166223049164,0.06834125518798828,0.3598642349243164
1710891695473744100,20.875744140625,0.556347668170929,0.008720874786376953,0.42491865158081055
1710891695492704300,20.894704345703126,0.9196836352348328,0.1547999382019043,0.5615096092224121
1710891695511664000,20.9136640625,1.1382756233215332,0.3175053596496582,0.6124205589294434
1710891695530624000,20.9326240234375,1.1651495695114136,0.36502981185913086,0.5027165412902832
1710891695549584000,20.951583984375,0.7707981467247009,0.3572883605957031,-0.11069393157958984
1710891695568544000,20.9705439453125,0.7774159908294678,0.6399641036987305,-0.12611055374145508
1710891695587503900,20.98950390625,0.581121563911438,0.6452474594116211,-0.19977664947509766
1710891695606464000,21.008464111328124,0.8236258029937744,0.6276793479919434,-0.0000934600830078125
1710891695625424000,21.027423828125,1.1562166213989258,0.658454418182373,0.5785455703735352
1710891695644383700,21.0463837890625,1.289921522140503,0.4229607582092285,1.0678825378417969
1710891695663343600,21.065343505859374,1.2486310005187988,0.2797856330871582,0.9075617790222168
1710891695682303700,21.0843037109375,1.1092751026153564,0.42031335830688477,0.6494369506835938
1710891695701263600,21.103263671875,0.7040280103683472,0.9441752433776855,0.5659561157226562
1710891695720223500,21.122223388671873,0.5750077962875366,1.2028532028198242,0.7287735939025879
1710891695739183400,21.141183349609374,0.9593257904052734,1.1550407409667969,1.2670245170593262
1710891695758143500,21.1601435546875,1.1279635429382324,1.3429985046386719,1.2095508575439453
1710891695777103400,21.179103271484376,0.8583540916442871,1.3443737030029297,1.1493468284606934
1710891695796063200,21.198063232421877,0.4282379150390625,1.0800938606262207,1.1806902885437012
1710891695815023400,21.2170234375,0.43759775161743164,0.7903871536254883,1.3816633224487305
1710891695833983200,21.235983154296875,0.6794657707214355,0.8147850036621094,1.489638328552246
1710891695852943000,21.254943115234376,0.9429354667663574,0.9911403656005859,1.4845004081726074
1710891695871903000,21.273903076171877,0.39523959159851074,1.0619125366210938,1.3865361213684082
1710891695890863000,21.292863037109374,0.14767003059387207,1.186635971069336,1.075627326965332
1710891695909823000,21.311822998046875,0.25955653190612793,1.4484100341796875,1.1236634254455566
1710891695928782800,21.330782958984376,0.30124950408935547,1.4189786911010742,1.4081826210021973
1710891695947743000,21.349742919921876,0.2845804691314697,1.4230341911315918,1.7833123207092285
1710891695966702800,21.368702880859374,0.36236023902893066,1.1603522300720215,1.853135108947754
1710891695985662700,21.387662841796875,0.15807032585144043,1.0803046226501465,1.2150673866271973
1710891696004622600,21.40662255859375,0.20817279815673828,1.3083581924438477,0.8880233764648438
1710891696023582700,21.425582763671876,0.18605947494506836,1.5681653022766113,0.9299397468566895
1710891696042542600,21.44454248046875,0.14069700241088867,1.847266674041748,1.1887149810791016
1710891696061502500,21.46350244140625,0.4530975818634033,2.051514148712158,1.7157058715820312
1710891696080462300,21.48246240234375,0.7971370220184326,2.0482115745544434,2.141814708709717
1710891696099422500,21.50142236328125,0.8927381038665771,1.9032526016235352,2.1424665451049805
1710891696118382300,21.52038232421875,0.8122155666351318,1.8467931747436523,1.8330769538879395
1710891696137342200,21.53934228515625,0.5753140449523926,1.8662757873535156,1.734572410583496
1710891696156302300,21.55830224609375,0.6926999092102051,2.109468936920166,1.815544605255127
1710891696175262200,21.57726220703125,0.8993716239929199,2.1873483657836914,2.1143670082092285
1710891696194222000,21.59622216796875,0.705336332321167,1.9497556686401367,1.8424615859985352
1710891696213182200,21.61518212890625,0.9021317958831787,1.9045805931091309,1.5916056632995605
1710891696232142000,21.63414208984375,1.3162171840667725,2.0474815368652344,1.4997467994689941
1710891696251102000,21.65310205078125,1.1863458156585693,2.231472969055176,1.2928390502929688
1710891696270061800,21.672061767578125,1.2050206661224365,1.9629926681518555,1.431574821472168
1710891696289021700,21.691021728515626,1.1169795989990234,1.6993417739868164,1.0595803260803223
1710891696307981800,21.70998193359375,0.9625589847564697,1.4339723587036133,0.9138407707214355
1710891696326941700,21.728941650390624,0.7513716220855713,1.0228376388549805,1.0287055969238281
1710891696345901800,21.74790185546875,0.8093461990356445,0.7179079055786133,0.8219437599182129
1710891696364861700,21.76686181640625,0.7235546112060547,0.6607275009155273,0.5602016448974609
1710891696383821600,21.785821533203126,0.4996185302734375,0.4576420783996582,0.6389708518981934
1710891696402781400,21.804781494140624,0.36945652961730957,0.1443629264831543,0.6983695030212402
1710891696421741600,21.823741455078125,0.19790959358215332,0.22444486618041992,0.384737491607666
1710891696440701400,21.842701416015625,-0.10304546356201172,0.6559281349182129,0.21327733993530273
1710891696459661300,21.861661376953126,-0.23651456832885742,0.7397360801696777,0.3679771423339844
1710891696478621200,21.88062109375,-0.10735797882080078,0.3760099411010742,0.36728954315185547
1710891696497581300,21.899581298828124,-0.0047760009765625,0.02468729019165039,0.06552600860595703
1710891696516541200,21.918541259765625,-0.11331415176391602,0.008930683135986328,0.011569499969482422
1710891696535501300,21.937501220703126,-0.23982501029968262,0.03392314910888672,0.23189210891723633
1710891696554461200,21.956461181640623,0.081573486328125,0.04885721206665039,0.28317689895629883
1710891696573421000,21.975421142578124,0.22669005393981934,0.09320735931396484,0.2460155487060547
1710891696592381200,21.994381103515625,0.3374965190887451,0.17107868194580078,0.43070268630981445
1710891696611341000,22.013341064453126,0.3073129653930664,0.292966365814209,0.41112279891967773
1710891696630301000,22.032301025390623,0.39494967460632324,0.3713984489440918,0.4991912841796875
1710891696649260800,22.0512607421875,0.5270001888275146,0.12560749053955078,0.6291584968566895
1710891696668221000,22.070220947265625,0.612825870513916,-0.08262348175048828,0.36537647247314453
1710891696687180800,22.089180908203126,0.5789306163787842,0.043636322021484375,0.3764352798461914
1710891696706140700,22.108140625,0.5414872169494629,0.2079329490661621,0.4119296073913574
1710891696725100800,22.127100830078124,0.6040256023406982,0.24547052383422852,0.23575496673583984
1710891696744060700,22.146060791015625,0.6715936660766602,0.08352422714233398,0.17032814025878906
1710891696763020500,22.1650205078125,0.6674304008483887,0.12296342849731445,-0.17361164093017578
1710891696781980700,22.183980712890627,0.6517634391784668,0.2082686424255371,-0.33815717697143555
1710891696800940500,22.2029404296875,0.6238572597503662,0.22377395629882812,-0.47323036193847656
1710891696819900700,22.221900634765625,0.7249593734741211,0.23706769943237305,-0.5932669639587402
1710891696838860500,22.240860595703126,0.5078099966049194,-0.26642847061157227,-0.7707009315490723
1710891696857820400,22.2598203125,0.4575209617614746,-0.656247615814209,-0.9514966011047363
1710891696876780300,22.2787802734375,0.8344871997833252,-1.1866793632507324,-0.8819527626037598
1710891696895740400,22.297740478515625,1.334552526473999,-1.3834295272827148,0.02948141098022461
1710891696914700300,22.3167001953125,1.1521308422088623,-0.5059952735900879,1.2614531517028809
1710891696933660200,22.33566015625,-0.02245098352432251,0.4036712646484375,2.6926960945129395
1710891696952620300,22.354620361328124,-0.3351440727710724,-0.25976991653442383,2.7872700691223145
1710891696971580200,22.373580078125,0.04428994655609131,-1.5265889167785645,-0.7380528450012207
1710891696990540000,22.3925400390625,-0.6890577077865601,-1.7083463668823242,-3.62142276763916
1710891697009500200,22.411500244140626,-1.6790063381195068,-2.193082809448242,-3.7218313217163086
1710891697028460000,22.4304599609375,-0.7213228940963745,-2.463979959487915,-3.3657727241516113
1710891697047420200,22.449420166015624,-0.3912644684314728,-2.276226043701172,-2.944817066192627
1710891697066380000,22.468380126953125,-0.26512354612350464,-2.077364444732666,-2.5650439262390137
1710891697085340200,22.487340087890626,-0.5022534728050232,-1.9794211387634277,-3.3819632530212402
1710891697104300000,22.506300048828123,-1.2778717279434204,-2.079289436340332,-4.3685102462768555
1710891697123260000,22.525260009765624,-1.1709102392196655,-2.3274502754211426,-3.4229063987731934
1710891697142220000,22.544219970703125,-0.7929235696792603,-1.8605232238769531,-2.439980983734131
1710891697161180000,22.563179931640626,-0.39854440093040466,-1.0794286727905273,-2.2867136001586914
1710891697180139800,22.582139892578127,-0.6005476713180542,-1.6197848320007324,-2.7884278297424316
1710891697199100000,22.601099853515624,0.2286529242992401,-1.5516700744628906,-2.1040568351745605
1710891697218059800,22.620059814453125,0.41376352310180664,-0.5390853881835938,-1.0918807983398438
1710891697237019600,22.63901953125,0.16806942224502563,-0.013832569122314453,-0.33156251907348633
1710891697255979800,22.657979736328127,0.002656280994415283,-0.3888711929321289,0.31475830078125
1710891697274939600,22.676939697265624,0.24584949016571045,-1.1519412994384766,1.2253904342651367
1710891697293899500,22.6958994140625,0.6043601632118225,-1.211618423461914,1.33607816696167
1710891697312859600,22.714859619140626,0.7574783563613892,-0.9988689422607422,0.7421917915344238
1710891697331819500,22.733819580078126,0.6010380983352661,-1.1753559112548828,-0.056682586669921875
1710891697350779600,22.752779541015624,0.44948267936706543,-1.117067813873291,-0.4574451446533203
1710891697369739500,22.771739501953125,-0.04118168354034424,-0.5434727668762207,-0.5566372871398926
1710891697388699400,22.790699462890625,-0.4569413661956787,0.17213964462280273,-0.4741706848144531
1710891697407659500,22.809659423828126,-0.6899522542953491,0.31008434295654297,-0.2909078598022461
1710891697426619400,22.828619384765624,-0.9259939789772034,0.16013336181640625,-0.5820341110229492
1710891697445579500,22.84757958984375,-1.0173065662384033,-0.2079782485961914,-1.0860295295715332
1710891697464539400,22.866539306640625,-0.7715058326721191,-0.6704912185668945,-1.2571206092834473
1710891697483499500,22.88549951171875,-0.485271692276001,-0.8927884101867676,-1.1624317169189453
1710891697502459400,22.90445947265625,-0.28248322010040283,-0.7038683891296387,-1.1300759315490723
1710891697521419300,22.923419189453124,-0.07946711778640747,-0.33820343017578125,-1.2720956802368164
1710891697540379400,22.94237939453125,-0.15537559986114502,0.02467060089111328,-1.5703010559082031
1710891697559339300,22.96133935546875,-0.39129823446273804,0.41397571563720703,-1.2886147499084473
1710891697578299400,22.98029931640625,-0.6340665817260742,0.9584059715270996,-0.5537056922912598
1710891697597259300,22.99925927734375,-0.8393893241882324,1.455075740814209,0.1969585418701172
1710891697616219100,23.01821923828125,-0.9341410398483276,1.3869361877441406,0.7106361389160156
1710891697635179300,23.03717919921875,-0.6633731126785278,0.7867317199707031,0.9431452751159668
1710891697654139100,23.05613916015625,-0.24020814895629883,0.19919252395629883,0.8540787696838379
1710891697673099300,23.075099365234376,0.12820231914520264,-0.16415929794311523,0.6042618751525879
1710891697692059100,23.09405908203125,0.41424357891082764,-0.32868003845214844,0.3669123649597168
1710891697711019000,23.11301904296875,0.626646876335144,-0.2915468215942383,0.09575271606445312
1710891697729979100,23.131979248046875,0.5907137393951416,-0.07925844192504883,0.0033850669860839844
1710891697748939000,23.15093896484375,0.3957432508468628,0.23450756072998047,0.23894691467285156
1710891697767899100,23.169899169921877,0.16375184059143066,0.4249119758605957,0.45307207107543945
1710891697786859000,23.18885888671875,-0.03898131847381592,0.42371129989624023,0.5494976043701172
1710891697805819000,23.20781884765625,-0.21557772159576416,0.44305419921875,0.48251867294311523
1710891697824779000,23.226779052734376,-0.4740748405456543,0.46671533584594727,0.4436068534851074
1710891697843739000,23.24573876953125,-0.8452925682067871,0.5657939910888672,0.18509197235107422
1710891697862699000,23.264698974609374,-1.2949309349060059,0.7547335624694824,0.1125035285949707
1710891697881659000,23.283658935546875,-1.6135869026184082,0.974329948425293,0.16883039474487305
1710891697900619000,23.302618896484375,-1.657395839691162,0.8600735664367676,0.17644786834716797
1710891697919579000,23.321578857421876,-1.4307323694229126,0.3414630889892578,0.2044820785522461
1710891697938539000,23.3405390625,-0.9829726219177246,-0.2190079689025879,0.04290914535522461
1710891697957499000,23.359498779296874,-0.7067233324050903,-0.48876285552978516,-0.32277965545654297
