time,seconds_elapsed,z,y,x
1710891674655652900,0.05765283203125,0.022067490965127945,-0.02871064469218254,0.001832594396546483
1710891674674612500,0.076612548828125,0.025121813639998436,-0.08521563559770584,0.005803215317428112
1710891674693572400,0.095572265625,0.024510949850082397,-0.09834922850131989,-0.0015271619195118546
1710891674712532000,0.114531982421875,0.025121813639998436,-0.07452550530433655,-0.01282816007733345
1710891674731491600,0.13349169921875,0.02084576152265072,-0.03543015569448471,-0.012522728182375431
1710891674750451500,0.152451416015625,0.01565340906381607,-0.016798781231045723,0.003665188793092966
1710891674769411000,0.1714111328125,0.0058795735239982605,0.012522728182375431,0.025045456364750862
1710891674788371000,0.190370849609375,-0.006337722297757864,0.03909534588456154,0.015271619893610477
1710891674807330600,0.20933056640625,-0.0005345066892914474,0.023212861269712448,-0.0030543238390237093
1710891674826290400,0.22829052734375,0.0077121676877141,-0.003665188793092966,-0.013439024798572063
1710891674845250000,0.24725,0.007101302966475487,-0.01802051067352295,-0.003359756199643016
1710891674864210000,0.2662099609375,0.006185005884617567,-0.007941242307424545,0.009773836471140385
1710891674883169500,0.28516943359375,0.004046979360282421,-0.0030543238390237093,0.004581485874950886
1710891674902129200,0.304129150390625,-0.0035888305865228176,-0.002443459117785096,-0.0027488914784044027
1710891674921089000,0.323089111328125,0.0006872228696011007,-0.003359756199643016,0.0021380267571657896
1710891674940048600,0.342048583984375,0.005574141163378954,-0.011911863461136818,0.005803215317428112
1710891674959008500,0.361008544921875,-0.001450803829357028,-0.007941242307424545,0.013744457624852657
1710891674977968000,0.379968017578125,-0.012446369975805283,-0.0054977829568088055,0.01282816007733345
1710891674996928000,0.398927978515625,-0.01672242395579815,-0.015577051788568497,0.005803215317428112
1710891675015888000,0.417887939453125,-0.014278964139521122,-0.026572618633508682,0.003665188793092966
1710891675034847500,0.436847412109375,-0.01611155830323696,-0.0360410213470459,0.003359756199643016
1710891675053807000,0.45580712890625,-0.020693045109510422,-0.017715077847242355,0.01802051067352295
1710891675072767000,0.47476708984375,-0.03565923124551773,0.002443459117785096,0.01740964688360691
1710891675091726600,0.4937265625,-0.05123628303408623,-0.013133592903614044,0.01802051067352295
1710891675110686500,0.5126865234375,-0.07567087560892105,-0.04520399495959282,0.03176496922969818
1710891675129646000,0.53164599609375,-0.12759438157081604,-0.09590577334165573,0.04367683082818985
1710891675148606000,0.55060595703125,-0.2063959389925003,-0.17806708812713623,0.08124501258134842
1710891675167565600,0.569565673828125,-0.29130613803863525,-0.3170388340950012,0.12400554865598679
1710891675186525400,0.588525390625,-0.3258199989795685,-0.5506945848464966,0.16065743565559387
1710891675205485300,0.6074853515625,-0.2836703360080719,-0.8170316219329834,0.1805105358362198
1710891675224445000,0.62644482421875,-0.21830779314041138,-0.999069333076477,0.19761475920677185
1710891675243404800,0.64540478515625,-0.19448406994342804,-1.0903936624526978,0.2214384824037552
1710891675262364400,0.664364501953125,-0.2277761995792389,-1.1252129077911377,0.2565632164478302
1710891675281324300,0.68332421875,-0.27175846695899963,-1.0949751138687134,0.3087921440601349
1710891675300284000,0.702283935546875,-0.2900844216346741,-0.9929606914520264,0.37293294072151184
1710891675319243800,0.721243896484375,-0.28519749641418457,-0.8097012639045715,0.4318813979625702
1710891675338203600,0.74020361328125,-0.2784779667854309,-0.5702422857284546,0.46944957971572876
1710891675357163300,0.759163330078125,-0.2778671085834503,-0.3124573230743408,0.49999281764030457
1710891675376123100,0.778123046875,-0.2674824297428131,-0.05558869615197182,0.5119046568870544
1710891675395083000,0.7970830078125,-0.24365869164466858,0.168904110789299,0.5015199780464172
1710891675414042600,0.816042724609375,-0.21006113290786743,0.3228420317173004,0.4786125421524048
1710891675433002500,0.83500244140625,-0.18898628652095795,0.3946186602115631,0.45417797565460205
1710891675451962000,0.853962158203125,-0.17340923845767975,0.40347617864608765,0.4364628791809082
1710891675470922000,0.872921875,-0.1498909443616867,0.37812530994415283,0.4004218578338623
1710891675489881900,0.8918818359375,-0.13309216499328613,0.3185659945011139,0.34055712819099426
1710891675508841700,0.910841796875,-0.11598794907331467,0.25534147024154663,0.2776380479335785
1710891675527801300,0.92980126953125,-0.09766200929880142,0.2006690800189972,0.21991132199764252
1710891675546761200,0.94876123046875,-0.07658717036247253,0.16646064817905426,0.18142683804035187
1710891675565721000,0.96772119140625,-0.06895136088132858,0.1539379209280014,0.15668681263923645
1710891675584680700,0.9866806640625,-0.07170025259256363,0.16584978997707367,0.14691297709941864
1710891675603640600,1.005640625,-0.08239039033651352,0.1957821547985077,0.14477495849132538
1710891675622600400,1.024600341796875,-0.09613484144210815,0.22968515753746033,0.1539379209280014
1710891675641560000,1.04356005859375,-0.10774127393960953,0.2571740746498108,0.1701258420944214
1710891675660520000,1.06252001953125,-0.12209659814834595,0.2559523284435272,0.18814635276794434
1710891675679479800,1.081479736328125,-0.14744748175144196,0.2202167510986328,0.20189081132411957
1710891675698439700,1.100439697265625,-0.14714205265045166,0.15638138353824615,0.21960589289665222
1710891675717399300,1.1193994140625,-0.1608865112066269,0.09498947113752365,0.20738859474658966
1710891675736359200,1.138359130859375,-0.19387321174144745,0.01802051067352295,0.18784092366695404
1710891675755319000,1.157319091796875,-0.23021966218948364,-0.06811141967773438,0.1795942485332489
1710891675774279000,1.17627880859375,-0.252210795879364,-0.13133592903614044,0.1798996776342392
1710891675793238800,1.19523876953125,-0.2677878439426422,-0.15699224174022675,0.1692095398902893
1710891675812198400,1.214198486328125,-0.2888626754283905,-0.16768237948417664,0.14508038759231567
1710891675831158300,1.233158203125,-0.3145190179347992,-0.17837251722812653,0.12156209349632263
1710891675850118100,1.2521181640625,-0.33895358443260193,-0.1853974610567093,0.10659590363502502
1710891675869078000,1.271078125,-0.3545306324958801,-0.18631376326084137,0.10384701192378998
1710891675888038000,1.290037841796875,-0.3661370873451233,-0.189673513174057,0.10476330667734146
1710891675906997800,1.308997802734375,-0.38446301221847534,-0.20463970303535461,0.10567960888147354
1710891675925957400,1.327957275390625,-0.4107302129268646,-0.22449280321598053,0.10445787757635117
1710891675944917200,1.346917236328125,-0.43944084644317627,-0.2419024556875229,0.10720676928758621
1710891675963877000,1.365877197265625,-0.46601346135139465,-0.24984370172023773,0.12034036219120026
1710891675982837000,1.3848369140625,-0.48647743463516235,-0.25381430983543396,0.13591741025447845
1710891676001796900,1.403796875,-0.5011382102966309,-0.2611446976661682,0.1496618688106537
1710891676020756700,1.4227568359375,-0.5124391913414001,-0.27458372712135315,0.15241076052188873
1710891676039716600,1.441716552734375,-0.5240456461906433,-0.2971857190132141,0.15088360011577606
1710891676058676500,1.460676513671875,-0.5325977206230164,-0.3182605504989624,0.14721840620040894
1710891676077636000,1.479635986328125,-0.5405389666557312,-0.3347539007663727,0.14996729791164398
1710891676096596000,1.498595947265625,-0.5423715710639954,-0.3436114490032196,0.15302163362503052
1710891676115556000,1.51755615234375,-0.5368737578392029,-0.35613417625427246,0.15057817101478577
1710891676134515700,1.536515625,-0.5225184559822083,-0.3842339515686035,0.15149445831775665
1710891676153475600,1.5554755859375,-0.4840339720249176,-0.42913252115249634,0.16310089826583862
1710891676172435500,1.574435546875,-0.422947496175766,-0.4786125421524048,0.16615521907806396
1710891676191395300,1.593395263671875,-0.37316203117370605,-0.5406153202056885,0.15027274191379547
1710891676210355200,1.612355224609375,-0.33681556582450867,-0.5937605500221252,0.11972949653863907
1710891676229315000,1.631315185546875,-0.30107998847961426,-0.6267472505569458,0.09376774728298187
1710891676248275000,1.65027490234375,-0.2629009187221527,-0.6200277805328369,0.0818558782339096
1710891676267234800,1.66923486328125,-0.24029892683029175,-0.5729911923408508,0.08643736690282822
1710891676286194700,1.688194580078125,-0.22899793088436127,-0.5042688846588135,0.10079269111156464
1710891676305154600,1.707154541015625,-0.21464261412620544,-0.42882707715034485,0.11575887352228165
1710891676324114400,1.726114501953125,-0.1911243200302124,-0.36163195967674255,0.11698060482740402
1710891676343074300,1.74507421875,-0.16791145503520966,-0.32009315490722656,0.10873392969369888
1710891676362034200,1.7640341796875,-0.1505018174648285,-0.3042106628417969,0.10018182545900345
1710891676380994000,1.782994140625,-0.15783219039440155,-0.30451610684394836,0.08429934084415436
1710891676399954000,1.801953857421875,-0.17463096976280212,-0.3393353819847107,0.05497783049941063
1710891676418913800,1.820913818359375,-0.1865428388118744,-0.4004218578338623,0.016798781231045723
1710891676437873700,1.839873779296875,-0.18745912611484528,-0.4663952589035034,-0.01649334840476513
1710891676456833800,1.858833740234375,-0.16791145503520966,-0.5064069032669067,-0.049480047076940536
1710891676475793700,1.877793701171875,-0.14103341102600098,-0.5061014890670776,-0.06841685622930527
1710891676494753500,1.89675341796875,-0.11568251997232437,-0.4740310609340668,-0.0769689604640007
1710891676513713400,1.91571337890625,-0.09124792367219925,-0.42363473773002625,-0.07269290834665298
1710891676532673300,1.93467333984375,-0.07689260691404343,-0.36254823207855225,-0.057726722210645676
1710891676551633200,1.953633056640625,-0.07567087560892105,-0.3069595396518707,-0.04276053607463837
1710891676570593000,1.972593017578125,-0.07994692772626877,-0.25870123505592346,-0.03298669680953026
1710891676589553000,1.991552978515625,-0.07719803601503372,-0.21838416159152985,-0.0308486707508564
1710891676608512800,2.0105126953125,-0.07200568914413452,-0.19181154668331146,-0.04825831577181816
1710891676627472600,2.02947265625,-0.07078395783901215,-0.17806708812713623,-0.06322450190782547
1710891676646432800,2.048432861328125,-0.06528617441654205,-0.17684535682201385,-0.07391463965177536
1710891676665392600,2.067392578125,-0.055512335151433945,-0.18875721096992493,-0.09560033679008484
1710891676684352500,2.0863525390625,-0.03932442143559456,-0.20952661335468292,-0.11698060482740402
1710891676703312400,2.1053125,-0.024663666263222694,-0.23854269087314606,-0.13072505593299866
1710891676722272300,2.124272216796875,-0.018555017188191414,-0.28496840596199036,-0.13255766034126282
1710891676741232000,2.143232177734375,-0.018860450014472008,-0.34605491161346436,-0.1288924664258957
1710891676760192000,2.16219189453125,-0.02130390889942646,-0.40744680166244507,-0.12705987691879272
1710891676779152100,2.181152099609375,-0.02130390889942646,-0.44348782300949097,-0.12095122784376144
1710891676798112000,2.200112060546875,-0.019471315667033195,-0.4465421438217163,-0.11178825795650482
1710891676817071900,2.21907177734375,-0.01183550525456667,-0.435241162776947,-0.10323614627122879
1710891676836031700,2.23803173828125,-0.007254019379615784,-0.42271843552589417,-0.10018182545900345
1710891676854991600,2.25699169921875,-0.015500693581998348,-0.4166097939014435,-0.09987638890743256
1710891676873951500,2.275951416015625,-0.01672242395579815,-0.4150826036930084,-0.08979712426662445
1710891676892911600,2.29491162109375,-0.011530072428286076,-0.41416633129119873,-0.07330377399921417
1710891676911871500,2.31387158203125,-0.008170315995812416,-0.4101957082748413,-0.05803215503692627
1710891676930831400,2.332831298828125,-0.012751801870763302,-0.4153880476951599,-0.047952886670827866
1710891676949791200,2.351791259765625,-0.0243582334369421,-0.42882707715034485,-0.043371398001909256
1710891676968751400,2.37075146484375,-0.04298960790038109,-0.45417797565460205,-0.0412333719432354
1710891676987711200,2.389711181640625,-0.05673406645655632,-0.48533207178115845,-0.03817904740571976
1710891677006671000,2.408671142578125,-0.0680350661277771,-0.5119046568870544,-0.034208428114652634
1710891677025631000,2.427630859375,-0.083306685090065,-0.5290089249610901,-0.029016077518463135
1710891677044591000,2.446591064453125,-0.09705114364624023,-0.5332849621772766,-0.018325943499803543
1710891677063551000,2.465551025390625,-0.10499238222837448,-0.5235111117362976,-0.007024944759905338
1710891677082510800,2.4845107421875,-0.10865757614374161,-0.5155698657035828,0.00946840364485979
1710891677101470700,2.503470703125,-0.1092684343457222,-0.49632763862609863,0.02626718580722809
1710891677120430800,2.522430908203125,-0.12179116904735565,-0.4871646761894226,0.03634645417332649
1710891677139390700,2.541390625,-0.14225514233112335,-0.48105600476264954,0.03695731982588768
1710891677158350600,2.5603505859375,-0.16332997381687164,-0.4761691093444824,0.029016077518463135
1710891677177310500,2.579310546875,-0.17799071967601776,-0.46608981490135193,0.0256563201546669
1710891677196270300,2.598270263671875,-0.1963166743516922,-0.45967575907707214,0.01649334840476513
1710891677215230500,2.61723046875,-0.21616977453231812,-0.46517354249954224,0.000305432389723137
1710891677234190300,2.6361904296875,-0.23541201651096344,-0.4633409380912781,-0.01282816007733345
1710891677253150500,2.655150390625,-0.24701844155788422,-0.4425715208053589,-0.01802051067352295
1710891677272110300,2.6741103515625,-0.2638172209262848,-0.40714138746261597,-0.02718348242342472
1710891677291070200,2.6930703125,-0.27664539217948914,-0.3659079968929291,-0.04520399495959282
1710891677310030000,2.712030029296875,-0.2830594778060913,-0.3136790692806244,-0.07116574794054031
1710891677328990200,2.730990234375,-0.2772562503814697,-0.25870123505592346,-0.10018182545900345
1710891677347950000,2.7499501953125,-0.2644280791282654,-0.21441353857517242,-0.1334739476442337
1710891677366910000,2.768909912109375,-0.2574031352996826,-0.17745621502399445,-0.1695149689912796
1710891677385869800,2.787869873046875,-0.2622900605201721,-0.1493564397096634,-0.20250166952610016
1710891677404830000,2.806829833984375,-0.2543488144874573,-0.1386663019657135,-0.21655155718326569
1710891677423789800,2.825789794921875,-0.2164752036333084,-0.13744457066059113,-0.20799945294857025
1710891677442750000,2.84475,-0.1660788655281067,-0.1328630894422531,-0.18417572975158691
1710891677461709800,2.863709716796875,-0.11843141168355942,-0.14294235408306122,-0.14660754799842834
1710891677480669700,2.882669677734375,-0.07261654734611511,-0.1637117564678192,-0.0873536616563797
1710891677499629800,2.9016298828125,-0.032910339534282684,-0.18234314024448395,-0.03329212963581085
1710891677518589700,2.920589599609375,-0.0057268571108579636,-0.19181154668331146,-0.000305432389723137
1710891677537549600,2.939549560546875,0.016569707542657852,-0.18784092366695404,0.003665188793092966
1710891677556509700,2.958509765625,0.046196650713682175,-0.15821397304534912,-0.026572618633508682
1710891677575469600,2.977469482421875,0.0654388889670372,-0.10109812021255493,-0.08643736690282822
1710891677594429400,2.996429443359375,0.06879864633083344,-0.028099779039621353,-0.14477495849132538
1710891677613389600,3.0153896484375,0.06788235157728195,0.04459312930703163,-0.1948658674955368
1710891677632349400,3.034349365234375,0.06757691502571106,0.11117739230394363,-0.23396120965480804
1710891677651309300,3.053309326171875,0.06360629200935364,0.1737910360097885,-0.2519817352294922
1710891677670269200,3.072269287109375,0.07368556410074234,0.23426663875579834,-0.2522871494293213
1710891677689229300,3.091229248046875,0.08376483619213104,0.2809978127479553,-0.24923282861709595
1710891677708189200,3.110189208984375,0.08834631741046906,0.31001389026641846,-0.24220788478851318
1710891677727149300,3.1291494140625,0.09506583213806152,0.3136790692806244,-0.2370155304670334
1710891677746109200,3.148109130859375,0.09353867173194885,0.28588470816612244,-0.23426663875579834
1710891677765069300,3.1670693359375,0.0862082913517952,0.24037529528141022,-0.22693626582622528
1710891677784029200,3.186029296875,0.08315397053956985,0.20433427393436432,-0.20341797173023224
1710891677802989000,3.204989013671875,0.08987347781658173,0.19211697578430176,-0.17073670029640198
1710891677821949200,3.22394921875,0.1014799103140831,0.19242240488529205,-0.1493564397096634
1710891677840909000,3.242908935546875,0.1066722646355629,0.19211697578430176,-0.1337793916463852
1710891677859869200,3.261869140625,0.10881029069423676,0.1997527778148651,-0.12125665694475174
1710891677878829000,3.2808291015625,0.10606139898300171,0.21868959069252014,-0.11545344442129135
1710891677897789000,3.299788818359375,0.10819942504167557,0.23793183267116547,-0.10995566099882126
1710891677916749000,3.3187490234375,0.1115591824054718,0.2519817352294922,-0.10231985151767731
1710891677935709000,3.337708984375,0.1115591824054718,0.26419901847839355,-0.07910698652267456
1710891677954668800,3.356668701171875,0.11308634281158447,0.27916520833969116,-0.04001164436340332
1710891677973629000,3.37562890625,0.11400263756513596,0.2922987937927246,0.0015271619195118546
1710891677992588800,3.3945888671875,0.11094831675291061,0.29901832342147827,0.04153880476951599
1710891678011549000,3.413548828125,0.09995274990797043,0.3072649836540222,0.08368847519159317
1710891678030508800,3.4325087890625,0.09812015295028687,0.31490078568458557,0.12125665694475174
1710891678049469000,3.451468994140625,0.11308634281158447,0.3222311735153198,0.15699224174022675
1710891678068428800,3.4704287109375,0.1326340138912201,0.32528549432754517,0.19120067358016968
1710891678087388700,3.489388671875,0.1476002037525177,0.33017241954803467,0.23273947834968567
1710891678106348800,3.508348876953125,0.1634826809167862,0.34208428859710693,0.27488914132118225
1710891678125308700,3.52730859375,0.17081306874752045,0.3704894781112671,0.3197877109050751
1710891678144268800,3.546268798828125,0.168675035238266,0.4007273018360138,0.35582873225212097
1710891678163228700,3.565228759765625,0.1579848974943161,0.43310311436653137,0.38240134716033936
1710891678182188800,3.584188720703125,0.15462514758110046,0.48075059056282043,0.3995055556297302
1710891678201148700,3.603148681640625,0.15004366636276245,0.5277871489524841,0.406530499458313
1710891678220108800,3.62210888671875,0.15615230798721313,0.573602020740509,0.3992001414299011
1710891678239068700,3.641068603515625,0.16989676654338837,0.6133082509040833,0.3738492429256439
1710891678258028800,3.66002880859375,0.16531528532505035,0.6456840634346008,0.3448331654071808
1710891678276988700,3.67898876953125,0.15370884537696838,0.6795870661735535,0.3121519088745117
1710891678295948800,3.69794873046875,0.1521816849708557,0.7070759534835815,0.2922987937927246
1710891678314908700,3.71690869140625,0.1530979871749878,0.7107411623001099,0.2629773020744324
1710891678333868500,3.73586865234375,0.13324488699436188,0.7021890878677368,0.21899501979351044
1710891678352828700,3.75482861328125,0.10056361556053162,0.6902772188186646,0.1698204129934311
1710891678371788500,3.77378857421875,0.08743002265691757,0.6743947267532349,0.12705987691879272
1710891678390748700,3.792748779296875,0.10209077596664429,0.6630937457084656,0.08979712426662445
1710891678409708500,3.81170849609375,0.12316560745239258,0.6615665555000305,0.049480047076940536
1710891678428668700,3.830668701171875,0.14026983082294464,0.6627882719039917,0.010079269297420979
1710891678447628500,3.849628662109375,0.15431971848011017,0.6633991599082947,-0.01802051067352295
1710891678466588700,3.868588623046875,0.17050762474536896,0.6673697829246521,-0.03329212963581085
1710891678485548500,3.887548583984375,0.17417281866073608,0.6667588949203491,-0.04673115536570549
1710891678504508400,3.90650830078125,0.15615230798721313,0.6429351568222046,-0.05955931544303894
1710891678523468500,3.925468505859375,0.1274416595697403,0.6078104376792908,-0.0720820426940918
1710891678542428400,3.944428466796875,0.11461350321769714,0.5827649831771851,-0.07635809481143951
1710891678561388500,3.963388427734375,0.12163844704627991,0.5555815100669861,-0.06475166976451874
1710891678580348400,3.982348388671875,0.13813179731369019,0.5232056975364685,-0.05100720748305321
1710891678599308500,4.00130859375,0.16409355401992798,0.5155698657035828,-0.030543239787220955
1710891678618268400,4.020268310546875,0.18791727721691132,0.5381718873977661,-0.023212861269712448
1710891678637228500,4.039228515625,0.18089233338832855,0.562911868095398,-0.06383536756038666
1710891678656188400,4.0581884765625,0.12163844704627991,0.5589412450790405,-0.1646280586719513
1710891678675148500,4.0771484375,0.052916161715984344,0.5287034511566162,-0.24770566821098328
1710891678694108400,4.0961083984375,0.04069886729121208,0.48075059056282043,-0.2730565667152405
1710891678713068500,4.115068603515625,0.06849320977926254,0.4266890585422516,-0.2519817352294922
1710891678732028400,4.1340283203125,0.08743002265691757,0.3851502537727356,-0.21899501979351044
1710891678750988500,4.152988525390625,0.09964732080698013,0.37201663851737976,-0.1844811588525772
1710891678769948400,4.171948486328125,0.1430187225341797,0.3805687427520752,-0.1484401375055313
1710891678788908500,4.190908447265625,0.21784965693950653,0.37781986594200134,-0.1441640853881836
1710891678807868400,4.209868408203125,0.28993168473243713,0.337808221578598,-0.16829325258731842
1710891678826828500,4.22882861328125,0.32016950845718384,0.24526220560073853,-0.19730933010578156
1710891678845788400,4.247788330078125,0.29878923296928406,0.10537417232990265,-0.21716243028640747
1710891678864748500,4.26674853515625,0.2398407906293869,-0.03237583488225937,-0.20891575515270233
1710891678883708400,4.28570849609375,0.1885281354188919,-0.13041962683200836,-0.16737695038318634
1710891678902668500,4.30466845703125,0.16989676654338837,-0.11148282140493393,-0.17195843160152435
1710891678921628400,4.32362841796875,0.20196716487407684,-0.003665188793092966,-0.18173226714134216
1710891678940588500,4.342588623046875,0.23403756320476532,0.1432477980852127,-0.08155044913291931
1710891678959548400,4.36154833984375,0.266107976436615,0.2419024556875229,0.022907428443431854
1710891678978508500,4.380508544921875,0.27313292026519775,0.3347539007663727,0.14172062277793884
1710891678997468400,4.399468505859375,0.2248746007680893,0.5412262082099915,0.2981020212173462
1710891679016428500,4.418428466796875,0.12102758139371872,0.8026763200759888,0.4618137776851654
1710891679035388400,4.437388427734375,0.021456625312566757,0.924849271774292,0.583375871181488
1710891679054348500,4.4563486328125,-0.11537708342075348,0.8390227556228638,0.685084879398346
1710891679073308400,4.475308349609375,-0.2900844216346741,0.6560688018798828,0.7953459620475769
1710891679092268500,4.4942685546875,-0.4009563624858856,0.48533207178115845,0.8527672290802002
1710891679111228400,4.513228515625,-0.38140869140625,0.3964512348175049,0.8371901512145996
1710891679130188500,4.5321884765625,-0.3139081299304962,0.3909534513950348,0.8261946439743042
1710891679149148400,4.5511484375,-0.2934441566467285,0.4627300798892975,0.7803797721862793
1710891679168108500,4.570108642578125,-0.33895358443260193,0.5711585879325867,0.7122683525085449
1710891679187068400,4.589068359375,-0.3817141354084015,0.6835576891899109,0.6789761781692505
1710891679206028500,4.608028564453125,-0.40034550428390503,0.785877525806427,0.6789761781692505
1710891679224988400,4.626988525390625,-0.41897687315940857,0.814588189125061,0.6340776681900024
1710891679243948500,4.645948486328125,-0.46112653613090515,0.7174606919288635,0.6142245531082153
1710891679262908400,4.664908447265625,-0.49105891585350037,0.5613847374916077,0.6050615906715393
1710891679281868500,4.68386865234375,-0.5115228891372681,0.4172206521034241,0.5748237371444702
1710891679300828400,4.702828369140625,-0.5420661568641663,0.2571740746498108,0.5717694163322449
1710891679319788500,4.72178857421875,-0.5267944931983948,0.08093958348035812,0.5803215503692627
1710891679338748400,4.74074853515625,-0.49594584107398987,-0.07330377399921417,0.5879573225975037
1710891679357708500,4.75970849609375,-0.4843394160270691,-0.08032871782779694,0.5558869242668152
1710891679376668400,4.77866845703125,-0.47212210297584534,0.09376774728298187,0.526565432548523
1710891679395628500,4.797628662109375,-0.4489092528820038,0.34147340059280396,0.526870846748352
1710891679414588400,4.81658837890625,-0.40401068329811096,0.5564978122711182,0.49632763862609863
1710891679433548500,4.835548583984375,-0.3664425015449524,0.7278453707695007,0.5122101306915283
1710891679452508400,4.85450830078125,-0.34292420744895935,0.8225294351577759,0.5128209590911865
1710891679471468500,4.873468505859375,-0.32612544298171997,0.8225294351577759,0.48930269479751587
1710891679490428400,4.892428466796875,-0.3099375069141388,0.7220421433448792,0.4984656572341919
1710891679509388500,4.911388427734375,-0.2699258625507355,0.5561923980712891,0.49632763862609863
1710891679528348400,4.930348388671875,-0.22472187876701355,0.4202749729156494,0.467006117105484
1710891679547308500,4.94930859375,-0.16913318634033203,0.337808221578598,0.4557051360607147
1710891679566268700,4.9682685546875,-0.12148573249578476,0.32131487131118774,0.47097674012184143
1710891679585228500,4.987228515625,-0.1443931609392166,0.3084867000579834,0.4618137776851654
1710891679604188700,5.006188720703125,-0.14133884012699127,0.16310089826583862,0.3961458206176758
1710891679623148500,5.0251484375,-0.11384992301464081,0.10751219838857651,0.41416633129119873
1710891679642108700,5.044108642578125,-0.12179116904735565,0.047952886670827866,0.4367683231830597
1710891679661068500,5.063068603515625,-0.12820523977279663,-0.11117739230394363,0.4685332775115967
1710891679680028700,5.082028564453125,-0.05062541738152504,-0.4251618981361389,0.49968740344047546
1710891679698988500,5.100988525390625,0.11125374585390091,-0.629496157169342,0.518318772315979
1710891679717948700,5.11994873046875,0.245338574051857,-0.9001092314720154,0.5708531141281128
1710891679736908500,5.138908447265625,0.2044106274843216,-1.015562653541565,0.8194751143455505
1710891679755868700,5.15786865234375,-0.0057268571108579636,-1.1099413633346558,1.2214241027832031
1710891679774828500,5.17682861328125,-0.1352301836013794,-1.0277799367904663,1.4737112522125244
1710891679793788700,5.19578857421875,-0.03779725730419159,-0.8249728679656982,1.324354887008667
1710891679812748500,5.21474853515625,0.14454588294029236,-0.7764091491699219,0.942258894443512
1710891679831708700,5.233708740234375,0.16042836010456085,-0.528092622756958,0.5332849621772766
1710891679850668800,5.252668701171875,0.1115591824054718,0.2767217457294464,0.007024944759905338
1710891679869628700,5.271628662109375,-0.14897464215755463,1.3084723949432373,-0.3430005609989166
1710891679888588800,5.2905888671875,-0.4730384051799774,2.0161592960357666,-0.6780598759651184
1710891679907548700,5.309548583984375,-0.478841632604599,1.9312490224838257,-0.8029817342758179
1710891679926508800,5.3285087890625,-0.28550294041633606,1.1172716617584229,-0.7776308655738831
1710891679945468700,5.34746875,-0.1193477064371109,0.20372340083122253,-0.6829468011856079
1710891679964428800,5.3664287109375,-0.03352120518684387,-0.9135482907295227,-0.6181951761245728
1710891679983388700,5.385388671875,0.043142326176166534,-1.7718132734298706,-0.6017017960548401
1710891680002348800,5.404348876953125,0.07276926934719086,-2.036317825317383,-0.6710349321365356
1710891680021308700,5.42330859375,0.09689842909574509,-1.7067562341690063,-0.6881392002105713
1710891680040268800,5.442268798828125,0.09445496648550034,-1.056185245513916,-0.7147117853164673
1710891680059228700,5.461228759765625,0.03153589367866516,-0.30543237924575806,-0.8063415288925171
1710891680078188800,5.480188720703125,-0.05978839099407196,0.2660316228866577,-0.897665798664093
1710891680097148700,5.499148681640625,-0.12087486684322357,0.4773908257484436,-0.9230166673660278
1710891680116108800,5.51810888671875,-0.1352301836013794,0.36163195967674255,-0.906828761100769
1710891680135068700,5.537068603515625,-0.10346522182226181,0.12522727251052856,-0.8698714375495911
1710891680154028800,5.55602880859375,-0.0524580143392086,-0.10506874322891235,-0.8258891701698303
1710891680172988700,5.57498876953125,0.0022143847309052944,-0.2315177470445633,-0.7831286191940308
1710891680191948800,5.59394873046875,0.0758235901594162,-0.33017241954803467,-0.7703005075454712
1710891680210908700,5.61290869140625,0.152487114071846,-0.4367683231830597,-0.7510582208633423
1710891680229868800,5.631868896484375,0.21235187351703644,-0.5864301919937134,-0.7440332770347595
1710891680248828700,5.65082861328125,0.23800818622112274,-0.7486147880554199,-0.7467821836471558
1710891680267788800,5.669788818359375,0.28840452432632446,-0.8222240209579468,-0.7076868414878845
1710891680286749000,5.6887490234375,0.3171151876449585,-0.7822123765945435,-0.6777544617652893
1710891680305708800,5.707708740234375,0.3131445646286011,-0.721431314945221,-0.713184654712677
1710891680324669000,5.7266689453125,0.32933247089385986,-0.36835145950317383,-0.7012727856636047
1710891680343628800,5.74562890625,0.2719111740589142,-0.009773836471140385,-0.6212494969367981
1710891680362589000,5.7645888671875,0.20654866099357605,0.17226386070251465,-0.676227331161499
1710891680381548800,5.783548828125,0.16012293100357056,0.33047783374786377,-0.7174606919288635
1710891680400509000,5.802509033203125,0.1326340138912201,0.4046979248523712,-0.6841685771942139
1710891680419468800,5.82146875,0.11858412623405457,0.3084867000579834,-0.6258309483528137
1710891680438429000,5.840428955078125,0.14088068902492523,0.12186752259731293,-0.5561923980712891
1710891680457388800,5.859388916015625,0.21571162343025208,0.02932151034474373,-0.5946768522262573
1710891680476349000,5.878348876953125,0.29878923296928406,0.10567960888147354,-0.7107411623001099
1710891680495309000,5.89730908203125,0.3571268320083618,0.1948658674955368,-0.8026763200759888
1710891680514269000,5.91626904296875,0.39805474877357483,0.14538581669330597,-0.924238383769989
1710891680533229000,5.93522900390625,0.3742310404777527,-0.030543239787220955,-1.0708459615707397
1710891680552189000,5.95418896484375,0.3006218373775482,-0.12461641430854797,-1.2654063701629639
1710891680571149000,5.973149169921875,0.20288346707820892,-0.1282816082239151,-1.5476258993148804
1710891680590109000,5.99210888671875,0.06910407543182373,-0.19792018830776215,-1.8396192789077759
1710891680609069000,6.011069091796875,-0.009392046369612217,-0.28038692474365234,-2.065028429031372
1710891680628029000,6.03002880859375,0.02023489587008953,-0.268169641494751,-2.2678353786468506
1710891680646989000,6.048989013671875,0.06391172856092453,-0.1698204129934311,-2.3982551097869873
1710891680665949200,6.06794921875,0.08804088830947876,-0.08124501258134842,-2.361603260040283
1710891680684909000,6.086908935546875,0.18272492289543152,0.013133592903614044,-2.234848737716675
1710891680703869200,6.105869140625,0.2722166180610657,0.24037529528141022,-1.9953898191452026
1710891680722829000,6.1248291015625,0.18119776248931885,0.6227766275405884,-1.250134825706482
1710891680741789200,6.1437890625,0.1369100660085678,0.8051197528839111,-0.8194751143455505
1710891680760749000,6.1627490234375,0.10942115634679794,0.6640099883079529,-0.9007201194763184
1710891680779709200,6.181709228515625,0.15187625586986542,0.03329212963581085,-0.9587522745132446
1710891680798669300,6.20066943359375,0.297872930765152,-0.5613847374916077,-0.8634573817253113
1710891680817629200,6.219629150390625,0.49854201078414917,-0.9621120095252991,-0.8133664727210999
1710891680836589300,6.23858935546875,0.5605447888374329,-1.1957677602767944,-0.8643736839294434
1710891680855549200,6.257549072265625,0.35101816058158875,-1.323133111000061,-0.8362739086151123
1710891680874509300,6.27650927734375,0.06085740402340889,-1.322827696800232,-0.6499601006507874
1710891680893469200,6.29546923828125,-0.21036656200885773,-0.9886846542358398,-0.3854556679725647
1710891680912429300,6.31442919921875,-0.30107998847961426,-0.5021308660507202,-0.16187916696071625
1710891680931389200,6.33338916015625,-0.17188207805156708,-0.3848448097705841,-0.09346231073141098
1710891680950349300,6.352349365234375,0.16073378920555115,-0.8698714375495911,-0.021685699000954628
1710891680969309400,6.371309326171875,0.5330559015274048,-1.6624685525894165,0.13652828335762024
1710891680988269300,6.390269287109375,0.7373901605606079,-2.428187608718872,0.3631591200828552
1710891681007229400,6.4092294921875,0.8064178824424744,-2.9385650157928467,0.6090322136878967
1710891681026189300,6.428189208984375,0.9240093231201172,-2.9828526973724365,0.8830050230026245
1710891681045149400,6.4471494140625,0.9698241949081421,-2.509432554244995,1.1594213247299194
1710891681064109600,6.466109619140625,0.8519272804260254,-1.6337578296661377,1.4043781757354736
1710891681083069400,6.4850693359375,0.7025708556175232,-0.518318772315979,1.6059634685516357
1710891681102029600,6.504029541015625,0.5923097729682922,0.6181951761245728,1.6893465518951416
1710891681120989700,6.52298974609375,0.5217548608779907,1.5760310888290405,1.712559461593628
1710891681139949600,6.541949462890625,0.5666534304618835,2.2036945819854736,1.6859867572784424
1710891681158909700,6.56090966796875,0.719369649887085,2.4688100814819336,1.5784746408462524
1710891681177869600,6.57986962890625,0.8476512432098389,2.413832187652588,1.397353172302246
1710891681196829700,6.59882958984375,0.8687260746955872,2.134972333908081,1.2418880462646484
1710891681215789800,6.617789794921875,0.7810669541358948,1.7595959901809692,1.1114684343338013
1710891681234749700,6.636749755859375,0.6310997009277344,1.351232886314392,1.025641918182373
1710891681253709800,6.655709716796875,0.5180897116661072,0.9199623465538025,0.981354296207428
1710891681272670000,6.674669921875,0.46463900804519653,0.49144071340560913,1.0207550525665283
1710891681291629800,6.6936298828125,0.34582582116127014,0.14508038759231567,1.1059707403182983
1710891681310590000,6.71258984375,0.10483966767787933,-0.08674279600381851,1.1441497802734375
1710891681329549800,6.7315498046875,-0.13278673589229584,-0.2370155304670334,1.0787872076034546
1710891681348510000,6.750510009765625,-0.19753839075565338,-0.2669478952884674,0.9615011811256409
1710891681367470000,6.769469970703125,-0.14683662354946136,-0.11759147047996521,0.8545998334884644
1710891681386430000,6.788429931640625,-0.15233440697193146,0.17195843160152435,0.833219587802887
1710891681405390000,6.80739013671875,-0.28519749641418457,0.457843154668808,0.9037744402885437
1710891681424350200,6.82635009765625,-0.478841632604599,0.6386591196060181,1.005788803100586
1710891681443310300,6.845310302734375,-0.6214785575866699,0.7568614482879639,1.0937533378601074
1710891681462270200,6.864270263671875,-0.6627119183540344,0.7614429593086243,1.1065815687179565
1710891681481230300,6.883230224609375,-0.5988765358924866,0.6136136651039124,1.0219768285751343
1710891681500190500,6.9021904296875,-0.44035714864730835,0.24709481000900269,0.9144645929336548
1710891681519150300,6.921150390625,-0.21067199110984802,-0.19181154668331146,0.8249728679656982
1710891681538110500,6.9401103515625,0.0345902182161808,-0.5253437161445618,0.6963858604431152
1710891681557070300,6.9590703125,0.25725042819976807,-0.5656607747077942,0.5329795479774475
1710891681576030500,6.978030517578125,0.43867728114128113,-0.30085089802742004,0.4156934916973114
1710891681594990600,6.996990478515625,0.5309178233146667,0.24465134739875793,0.3536907136440277
1710891681613950700,7.01595068359375,0.5199222564697266,0.9266818761825562,0.3759872615337372
1710891681632910600,7.03491064453125,0.4453967809677124,1.5314379930496216,0.42424559593200684
1710891681651870700,7.05387060546875,0.3360520005226135,1.8952080011367798,0.4068359434604645
1710891681670830800,7.072830810546875,0.28260132670402527,1.9034546613693237,0.28954991698265076
1710891681689791000,7.091791015625,0.3128391206264496,1.5613703727722168,0.12247838824987411
1710891681708750800,7.110750732421875,0.33574655652046204,0.9758564829826355,-0.047036588191986084
1710891681727711000,7.1297109375,0.3278053104877472,0.287106454372406,-0.2000582218170166
1710891681746671000,7.148671142578125,0.3180314898490906,-0.34788748621940613,-0.31093016266822815
1710891681765631000,7.167630859375,0.29970553517341614,-0.8271108865737915,-0.3753764033317566
1710891681784591000,7.186591064453125,0.29878923296928406,-1.117882490158081,-0.39278605580329895
1710891681803551200,7.20555126953125,0.312228262424469,-1.2085959911346436,-0.36132651567459106
1710891681822511000,7.224510986328125,0.3027598559856415,-1.1111630201339722,-0.32681265473365784
1710891681841471200,7.24347119140625,0.2972620725631714,-0.8286380767822266,-0.2611446976661682
1710891681860431400,7.262431396484375,0.29817837476730347,-0.36682429909706116,-0.189673513174057
1710891681879391500,7.2813916015625,0.32444554567337036,0.20616686344146729,-0.12095122784376144
1710891681898351600,7.3003515625,0.3424660563468933,0.8103121519088745,-0.04306596517562866
1710891681917311500,7.3193115234375,0.31955865025520325,1.313359260559082,0.05711585655808449
1710891681936271600,7.338271728515625,0.25755587220191956,1.5906919240951538,0.09560033679008484
1710891681955231700,7.357231689453125,0.17081306874752045,1.6704097986221313,0.08613193035125732
1710891681974191600,7.376191650390625,0.13568833470344543,1.5760310888290405,0.009162971749901772
1710891681993151700,7.39515185546875,0.17692171037197113,1.3866630792617798,-0.061391908675432205
1710891682012112000,7.41411181640625,0.20532692968845367,1.2611303329467773,-0.1750127524137497
1710891682031072000,7.433072021484375,0.12011128664016724,1.2452478408813477,-0.30451610684394836
1710891682050032000,7.4520322265625,0.00007635809743078426,1.2709041833877563,-0.36774060130119324
1710891682068992000,7.470991943359375,-0.03932442143559456,1.211039423942566,-0.36712974309921265
1710891682087952100,7.4899521484375,-0.06192641705274582,0.9874629378318787,-0.4425715208053589
1710891682106912300,7.508912353515625,-0.0680350661277771,0.6133082509040833,-0.6765327453613281
1710891682125872400,7.527872314453125,-0.0988837331533432,0.19150610268115997,-1.0586286783218384
1710891682144832300,7.546832275390625,-0.18715369701385498,-0.26389357447624207,-1.477987289428711
1710891682163792400,7.56579248046875,-0.27084216475486755,-0.674700140953064,-1.8243476152420044
1710891682182752500,7.58475244140625,-0.29680392146110535,-1.0778708457946777,-2.1135921478271484
1710891682201712600,7.603712646484375,-0.3053560256958008,-1.40559983253479,-2.226602077484131
1710891682220672800,7.6226728515625,-0.29619306325912476,-1.4669917821884155,-2.290742874145508
1710891682239632600,7.641632568359375,-0.3499491512775421,-1.0152572393417358,-1.617875337600708
1710891682258592800,7.6605927734375,-0.3343721032142639,-0.00946840364485979,-0.9975422024726868
1710891682277553000,7.679552978515625,-0.44463321566581726,0.3756818473339081,-0.8182533979415894
1710891682296513000,7.698512939453125,-0.6416370868682861,0.10567960888147354,-0.8353576064109802
1710891682315473200,7.71747314453125,-0.73204505443573,-0.24923282861709595,-0.8356630206108093
1710891682334433300,7.736433349609375,-0.6285035014152527,-0.6270527243614197,-0.7751874327659607
1710891682353393200,7.75539306640625,-0.4531853199005127,-1.0323615074157715,-0.6368265151977539
1710891682372353300,7.774353271484375,-0.35880669951438904,-1.275791049003601,-0.3970620930194855
1710891682391313400,7.7933134765625,-0.3914879560470581,-1.2904518842697144,-0.18875721096992493
1710891682410273500,7.8122734375,-0.42997244000434875,-1.1166608333587646,-0.09529490768909454
1710891682429233700,7.831233642578125,-0.427528977394104,-0.8097012639045715,-0.04367683082818985
1710891682448193500,7.850193603515625,-0.4983893036842346,-0.4838049113750458,0.05192350596189499
1710891682467153700,7.869153564453125,-0.6468294262886047,-0.17592905461788177,0.20250166952610016
1710891682486113800,7.88811376953125,-0.6883682608604431,0.0720820426940918,0.3494146466255188
1710891682505074000,7.907073974609375,-0.6254491806030273,0.2415970265865326,0.411722868680954
1710891682524034000,7.926033935546875,-0.5087739825248718,0.31062474846839905,0.41935867071151733
1710891682542994200,7.944994140625,-0.42966702580451965,0.26358816027641296,0.40714138746261597
1710891682561954300,7.963954345703125,-0.43058329820632935,0.054672397673130035,0.389120876789093
1710891682580914200,7.9829140625,-0.43424850702285767,-0.2211330533027649,0.37812530994415283
1710891682599874300,8.001874267578126,-0.38965538144111633,-0.40897396206855774,0.36621344089508057
1710891682618834400,8.02083447265625,-0.3340666890144348,-0.48075059056282043,0.37751442193984985
1710891682637794600,8.039794677734376,-0.2699258625507355,-0.36835145950317383,0.4462367296218872
1710891682656754700,8.058754638671875,-0.2729802131652832,-0.07086031138896942,0.6530144214630127
1710891682675714800,8.07771484375,-0.35391977429389954,0.1594357043504715,0.9312633275985718
1710891682694675000,8.096675048828125,-0.3713294267654419,0.168904110789299,1.0668753385543823
1710891682713634800,8.115634765625,-0.27572908997535706,0.0717766135931015,1.0228930711746216
1710891682732595000,8.134594970703125,-0.13645191490650177,-0.009162971749901772,0.9175189137458801
1710891682751555000,8.15355517578125,-0.04298960790038109,-0.009162971749901772,0.8833104968070984
1710891682770515200,8.17251513671875,-0.004505127668380737,0.06811141967773438,0.9337068200111389
1710891682789475300,8.191475341796876,-0.02130390889942646,0.1997527778148651,1.010064959526062
1710891682808435500,8.210435546875,-0.08819360285997391,0.3903425931930542,1.1032217741012573
1710891682827395600,8.2293955078125,-0.18257221579551697,0.6212494969367981,1.2067633867263794
1710891682846355500,8.24835546875,-0.25007277727127075,0.9184352159500122,1.2812888622283936
1710891682865315600,8.267315673828126,-0.1547778695821762,1.0977239608764648,1.2461642026901245
1710891682884275700,8.286275634765625,-0.00022907429956831038,1.00762140750885,1.0134246349334717
1710891682903235800,8.30523583984375,0.018402300775051117,0.868955135345459,0.6609556674957275
1710891682922196000,8.324196044921875,0.07796161621809006,0.7654135823249817,0.26939135789871216
1710891682941156000,8.343156005859376,0.15951207280158997,0.5549706816673279,-0.06230820715427399
1710891682960116200,8.3621162109375,0.2603047490119934,0.1750127524137497,-0.24923282861709595
1710891682979076400,8.381076416015626,0.38125598430633545,-0.21288637816905975,-0.2929096519947052
1710891682998036500,8.400036376953125,0.4863247275352478,-0.4718930423259735,-0.2721402645111084
1710891683016996600,8.41899658203125,0.5461894869804382,-0.7733548283576965,-0.22846342623233795
1710891683035956500,8.43795654296875,0.5947532057762146,-1.1013891696929932,-0.19425499439239502
1710891683054916600,8.45691650390625,0.6472876071929932,-1.3600903749465942,-0.1637117564678192
1710891683073876700,8.475876708984375,0.6317105293273926,-1.4556907415390015,-0.17531819641590118
1710891683092836900,8.4948369140625,0.5559632778167725,-1.2907572984695435,-0.22907429933547974
1710891683111797000,8.513796875,0.47380200028419495,-0.8622356653213501,-0.29046618938446045
1710891683130757000,8.532757080078126,0.4087449014186859,-0.37171122431755066,-0.37140578031539917
1710891683149717200,8.55171728515625,0.44234246015548706,0.06597339361906052,-0.47494736313819885
1710891683168677400,8.570677490234376,0.5461894869804382,0.37629270553588867,-0.5296197533607483
1710891683187637500,8.589637451171875,0.6158280372619629,0.5595521330833435,-0.5143481492996216
1710891683206597600,8.60859765625,0.5208385586738586,0.5314523577690125,-0.45448338985443115
1710891683225557800,8.627557861328125,0.18058690428733826,0.2626718580722809,-0.3695732057094574
1710891683244517600,8.646517578125,-0.2574031352996826,-0.08338304609060287,-0.3399462401866913
1710891683263477800,8.665477783203125,-0.5075522661209106,-0.35613417625427246,-0.2889390289783478
1710891683282438000,8.68443798828125,-0.46662431955337524,-0.47067132592201233,-0.314289927482605
1710891683301398000,8.70339794921875,-0.3462839722633362,-0.3484983444213867,-0.3860665261745453
1710891683320358100,8.722358154296876,-0.3139081299304962,-0.03848448023200035,-0.4355465769767761
1710891683339318300,8.741318359375,-0.3878227770328522,0.3533852696418762,-0.36774060130119324
1710891683358278400,8.7602783203125,-0.5063305497169495,0.7021890878677368,-0.22296564280986786
1710891683377238500,8.779238525390625,-0.6065123677253723,0.9398154616355896,-0.050090912729501724
1710891683396198700,8.79819873046875,-0.6480512022972107,1.0390809774398804,0.09560033679008484
1710891683415158800,8.81715869140625,-0.686535656452179,0.9853248596191406,0.19608759880065918
1710891683434119000,8.836118896484376,-0.6617956161499023,0.7819069027900696,0.27580544352531433
1710891683453078800,8.855078857421875,-0.5093848705291748,0.5375609993934631,0.3659079968929291
1710891683472039000,8.874038818359375,-0.30138540267944336,0.40744680166244507,0.49113526940345764
1710891683490999000,8.8929990234375,-0.15447242558002472,0.42332929372787476,0.5659661889076233
1710891683509959200,8.911959228515625,-0.042684175074100494,0.6142245531082153,0.6078104376792908
1710891683528919300,8.930919189453125,0.08895718306303024,0.9514219164848328,0.5451968312263489
1710891683547879400,8.94987939453125,0.08376483619213104,1.2428044080734253,0.360410213470459
1710891683566839600,8.968839599609375,-0.03535379841923714,1.3045017719268799,0.10995566099882126
1710891683585799700,8.987799560546875,-0.06589704006910324,1.1004729270935059,-0.2608392536640167
1710891683604759800,9.006759765625,-0.08300124853849411,0.6304124593734741,-0.693026065826416
1710891683623720000,9.025719970703125,-0.05154171586036682,0.07055488228797913,-1.109025001525879
1710891683642679800,9.0446796875,0.011988221667706966,-0.3741546869277954,-1.4587451219558716
1710891683661640000,9.063639892578125,0.041004300117492676,-0.7278453707695007,-1.7110322713851929
1710891683680600000,9.08260009765625,0.13935352861881256,-1.148120403289795,-1.7925827503204346
1710891683699560200,9.101560302734375,0.28932082653045654,-1.5540399551391602,-1.8280128240585327
1710891683718520300,9.120520263671875,0.43256860971450806,-2.017380952835083,-1.9901974201202393
1710891683737480400,9.13948046875,0.4148535430431366,-2.2531747817993164,-2.106567144393921
1710891683756440600,9.158440673828125,0.32994332909584045,-2.003025531768799,-2.017686367034912
1710891683775400700,9.177400634765625,0.26427537202835083,-1.5039490461349487,-1.6954551935195923
1710891683794360800,9.19636083984375,0.2596938908100128,-1.1902700662612915,-1.3912445306777954
1710891683813321000,9.215321044921875,0.30489787459373474,-1.145371437072754,-1.24769127368927
1710891683832281000,9.234281005859375,0.31894776225090027,-1.2641847133636475,-1.1572833061218262
1710891683851241000,9.253240966796875,0.28351762890815735,-1.431867003440857,-1.083979606628418
1710891683870201000,9.272201171875,0.297872930765152,-1.673769474029541,-1.0677915811538696
1710891683889161200,9.2911611328125,0.3388008773326874,-1.9242240190505981,-0.9746347665786743
1710891683908121300,9.310121337890624,0.37270388007164,-2.092211961746216,-0.8121446967124939
1710891683927081500,9.32908154296875,0.3528507649898529,-2.109316110610962,-0.6139190793037415
1710891683946041600,9.34804150390625,0.3021489977836609,-2.0576980113983154,-0.4422661066055298
1710891683965001700,9.367001708984375,0.25786128640174866,-2.0186026096343994,-0.2507599890232086
1710891683983961600,9.385961669921874,0.20502148568630219,-1.831372618675232,-0.09498947113752365
1710891684002921700,9.404921630859375,0.12591449916362762,-1.795026183128357,0.039706211537122726
1710891684021881900,9.4238818359375,0.021151192486286163,-1.7232495546340942,0.12644900381565094
1710891684040842000,9.442842041015625,-0.06650790572166443,-1.6966769695281982,0.2306014597415924
1710891684059802000,9.461802001953124,-0.1813504844903946,-1.6606359481811523,0.3237583339214325
1710891684078762200,9.48076220703125,-0.2934441566467285,-1.5286891460418701,0.4581485986709595
1710891684097722400,9.499722412109374,-0.4128682315349579,-1.4434734582901,0.5326740741729736
1710891684116682500,9.5186826171875,-0.5139663815498352,-1.3964369297027588,0.5968148708343506
1710891684135642400,9.537642333984374,-0.5829941034317017,-1.4202606678009033,0.6484329700469971
1710891684154602500,9.5566025390625,-0.6526326537132263,-1.362228512763977,0.6478220820426941
1710891684173562600,9.575562744140624,-0.7427352070808411,-1.3939933776855469,0.6120865345001221
1710891684192522800,9.594522705078125,-0.8114575147628784,-1.2528836727142334,0.6319395899772644
1710891684211483000,9.61348291015625,-0.8520799875259399,-1.0986403226852417,0.6487383842468262
1710891684230443000,9.632443115234375,-0.8975894451141357,-0.972496747970581,0.68386310338974
1710891684249403100,9.651403076171874,-0.9495129585266113,-0.897665798664093,0.6725621223449707
1710891684268363000,9.670363037109375,-0.9965495467185974,-0.8203914165496826,0.7180715203285217
1710891684287323100,9.6893232421875,-0.9702823162078857,-0.7898481488227844,0.7794634699821472
1710891684306283300,9.708283203125,-0.9156099557876587,-0.7605266571044922,0.8527672290802002
1710891684325243400,9.727243408203124,-0.8917862176895142,-0.619722306728363,0.953559935092926
1710891684344203500,9.74620361328125,-0.8190932869911194,-0.5513054728507996,1.0470222234725952
1710891684363163600,9.76516357421875,-0.742429792881012,-0.4373791813850403,1.1560616493225098
1710891684382123500,9.78412353515625,-0.6532435417175293,-0.31093016266822815,1.2302817106246948
1710891684401083600,9.803083740234374,-0.47120583057403564,-0.35246896743774414,1.3142756223678589
1710891684420043800,9.822043701171875,-0.3239873945713043,-0.1695149689912796,1.3729186058044434
1710891684439004000,9.84100390625,-0.10132719576358795,-0.15027274191379547,1.3939933776855469
1710891684457963800,9.8599638671875,0.19708025455474854,-0.12064579129219055,1.3878847360610962
1710891684476924000,9.878923828125,0.6646972298622131,-0.015577051788568497,1.296255111694336
1710891684495884000,9.897884033203125,1.1976767778396606,0.10995566099882126,1.2189806699752808
1710891684514844200,9.91684423828125,1.745011568069458,0.0616973415017128,1.1542290449142456
1710891684533804300,9.93580419921875,2.315253973007202,-0.08002328872680664,1.1325433254241943
1710891684552764400,9.954764404296874,2.859534502029419,-0.37720900774002075,1.1523964405059814
1710891684571724300,9.973724365234375,3.2462117671966553,-0.6750055551528931,1.3173298835754395
1710891684590684400,9.992684326171876,3.37724232673645,-0.8817833065986633,1.4749330282211304
1710891684609644500,10.01164453125,3.4645960330963135,-1.053741693496704,1.728441834449768
1710891684628604700,10.030604736328126,3.540954113006592,-1.1869102716445923,2.1105377674102783
1710891684647564800,10.049564697265625,3.4731481075286865,-1.0769546031951904,2.2898266315460205
1710891684666525000,10.06852490234375,3.334787130355835,-0.8964440822601318,2.388481378555298
1710891684685484800,10.08748486328125,3.1793220043182373,-0.8576541543006897,2.411694049835205
1710891684704445000,10.10644482421875,3.122817039489746,-0.9086613655090332,2.4263548851013184
1710891684723405000,10.125405029296875,3.1322855949401855,-0.8158099055290222,2.4040584564208984
1710891684742365000,10.144364990234376,3.1328964233398438,-0.6172788739204407,2.1865904331207275
1710891684761325000,10.163324951171875,3.004920244216919,-0.6258309483528137,1.897346019744873
1710891684780285200,10.18228515625,2.8213553428649902,-0.4990765154361725,1.8154901266098022
1710891684799245300,10.201245361328125,2.7584362030029297,-0.057726722210645676,1.7791436910629272
1710891684818205400,10.220205322265626,2.716897487640381,0.6618719696998596,1.5460987091064453
1710891684837165600,10.23916552734375,2.5672357082366943,0.8167262077331543,1.1798852682113647
1710891684856125400,10.25812548828125,2.3222787380218506,0.7831286191940308,0.906828761100769
1710891684875085600,10.27708544921875,2.0983967781066895,0.7220421433448792,0.7990111112594604
1710891684894045700,10.296045654296876,1.9997422695159912,0.7254019379615784,0.6692023873329163
1710891684913005600,10.315005615234375,1.996687889099121,0.648127555847168,0.48563748598098755
1710891684931965700,10.333965576171876,1.9273546934127808,0.2254091054201126,0.1805105358362198
1710891684950925800,10.35292578125,1.8033491373062134,-0.129197895526886,-0.036651886999607086
1710891684969886000,10.371885986328126,1.7053053379058838,-0.14141519367694855,-0.10873392969369888
1710891684988846000,10.39084619140625,1.6607122421264648,0.04886918142437935,-0.1695149689912796
1710891685007806200,10.40980615234375,1.5431207418441772,0.08002328872680664,-0.39858928322792053
1710891685026766000,10.42876611328125,1.2709804773330688,0.2864955961704254,-0.6316341757774353
1710891685045726200,10.447726318359376,1.1014655828475952,0.4770853817462921,-0.7730493545532227
1710891685064686000,10.46668603515625,0.9854012727737427,0.4734202027320862,-0.972496747970581
1710891685083646200,10.485646240234376,0.8827759623527527,0.43463030457496643,-1.1939351558685303
1710891685102606300,10.5046064453125,0.737695574760437,0.17256930470466614,-1.2941170930862427
1710891685121566500,10.52356640625,0.5791761875152588,-0.16829325258731842,-1.5262455940246582
1710891685140526600,10.542526611328125,0.4289034307003021,-0.1792888194322586,-1.6346741914749146
1710891685159486500,10.561486572265625,0.44325876235961914,-0.21349723637104034,-1.7873903512954712
1710891685178446600,10.580446533203125,0.39622217416763306,-0.1948658674955368,-1.8994840383529663
1710891685197406700,10.59940673828125,0.3326922357082367,-0.17806708812713623,-1.943160891532898
1710891685216366600,10.61836669921875,0.2700785994529724,-0.1902843713760376,-2.039371967315674
1710891685235326700,10.63732666015625,0.07002037763595581,-0.18295399844646454,-2.0155482292175293
1710891685254286800,10.656286865234375,-0.05734493210911751,-0.12400554865598679,-1.9382739067077637
1710891685273247000,10.6752470703125,-0.03413207083940506,0.10537417232990265,-1.9178099632263184
1710891685292206800,10.694206787109374,0.004352411720901728,0.3610210716724396,-2.0192134380340576
1710891685311167000,10.7131669921875,-0.07506000995635986,0.347582072019577,-2.1529929637908936
1710891685330127000,10.732127197265624,-0.20517420768737793,0.4068359434604645,-2.2345433235168457
1710891685349087200,10.751087158203125,-0.35727953910827637,0.35705047845840454,-2.175900459289551
1710891685368047000,10.770047119140624,-0.376827210187912,0.22204934060573578,-2.174373149871826
1710891685387007200,10.78900732421875,-0.35850125551223755,0.19700388610363007,-2.2427899837493896
1710891685405967000,10.807967041015624,-0.4733438491821289,0.5067123174667358,-2.229351043701172
1710891685424927200,10.82692724609375,-0.5185478329658508,0.526870846748352,-2.3115122318267822
1710891685443887400,10.845887451171874,-0.6275871992111206,0.48441576957702637,-2.3093743324279785
1710891685462847500,10.864847412109375,-0.899116575717926,0.4944950342178345,-2.1325290203094482
1710891685481807400,10.883807373046874,-1.1434625387191772,0.34574946761131287,-1.9947789907455444
1710891685500767500,10.902767578125,-1.3587923049926758,0.11942406743764877,-1.831372618675232
1710891685519727600,10.9217275390625,-1.5979459285736084,0.013439024798572063,-1.5601485967636108
1710891685538687700,10.940687744140625,-1.6605595350265503,-0.19150610268115997,-1.4300343990325928
1710891685557647600,10.959647705078124,-1.767155408859253,-0.2315177470445633,-1.2483022212982178
1710891685576607700,10.978607666015625,-1.7760130167007446,-0.1893680840730667,-1.1899645328521729
1710891685595567900,10.99756787109375,-1.706068992614746,-0.1649334877729416,-1.1811070442199707
1710891685614527700,11.01652783203125,-1.6245185136795044,-0.0821613147854805,-1.1691951751708984
1710891685633488000,11.03548779296875,-1.5539636611938477,0.07483093440532684,-1.0687079429626465
1710891685652448000,11.054447998046875,-1.3294708728790283,0.19150610268115997,-0.9602794051170349
1710891685671407900,11.073407958984374,-0.9959386587142944,0.2162461280822754,-0.970969557762146
1710891685690368000,11.092367919921875,-0.9143882393836975,0.007330377586185932,-1.082757830619812
1710891685709328100,11.111328125,-0.9693660736083984,-0.32528549432754517,-1.0244202613830566
1710891685728288300,11.130288330078125,-0.8893427848815918,-0.5112938284873962,-0.962722897529602
1710891685747248000,11.149248046875,-0.7961859107017517,-0.49418962001800537,-0.9498947262763977
1710891685766208300,11.168208251953125,-0.6636282205581665,-0.314289927482605,-0.9199623465538025
1710891685785168400,11.18716845703125,-0.5154935121536255,-0.17776164412498474,-0.9584468603134155
1710891685804128300,11.206128173828125,-0.39454227685928345,-0.2162461280822754,-0.9135482907295227
1710891685823088400,11.22508837890625,-0.2943604588508606,-0.28985533118247986,-0.8561269640922546
1710891685842048500,11.244048583984375,-0.23877176642417908,-0.1905898153781891,-0.8545998334884644
1710891685861008400,11.26300830078125,-0.2625955045223236,-0.021991131827235222,-0.8625410795211792
1710891685879968500,11.281968505859375,-0.31848961114883423,0.1847866028547287,-0.78648841381073
1710891685898928600,11.3009287109375,-0.29130613803863525,0.2932150959968567,-0.6520981788635254
1710891685917888800,11.319888671875,-0.07444914430379868,0.27916520833969116,-0.43432486057281494
1710891685936848600,11.3388486328125,0.1472947746515274,0.06536252796649933,-0.37171122431755066
1710891685955808800,11.357808837890625,0.09995274990797043,-0.2929096519947052,-0.4676169753074646
1710891685974769000,11.376768798828126,-0.02741255611181259,-0.4376846253871918,-0.36743515729904175
1710891685993728800,11.395728759765625,-0.0023671009112149477,-0.34605491161346436,-0.0818558782339096
1710891686012689000,11.41468896484375,0.08345939964056015,-0.29565855860710144,0.13011419773101807
1710891686031649000,11.43364892578125,0.08193223923444748,-0.28588470816612244,0.1997527778148651
1710891686050609000,11.45260888671875,0.07124210149049759,-0.3283398151397705,0.24556763470172882
1710891686069569000,11.471569091796875,-0.007254019379615784,-0.38759371638298035,0.1805105358362198
1710891686088529200,11.490529052734376,-0.05887209251523018,-0.42088583111763,0.09926552325487137
1710891686107489300,11.5094892578125,-0.03932442143559456,-0.4205803871154785,-0.010384701192378998
1710891686126449200,11.52844921875,-0.008781181648373604,-0.4303542375564575,-0.11209368705749512
1710891686145409300,11.5474091796875,0.053832460194826126,-0.4211912751197815,-0.24006985127925873
1710891686164369400,11.566369384765625,0.06635518372058868,-0.3588830530643463,-0.38820457458496094
1710891686183329500,11.58532958984375,-0.07414371520280838,-0.28985533118247986,-0.5189296007156372
1710891686202289400,11.604289306640625,-0.2378554791212082,-0.28038692474365234,-0.6169734001159668
1710891686221249500,11.62324951171875,-0.3456731140613556,-0.2254091054201126,-0.6893609166145325
1710891686240209700,11.642209716796875,-0.39942920207977295,-0.1695149689912796,-0.7134900689125061
1710891686259169500,11.66116943359375,-0.42447465658187866,-0.05436696484684944,-0.7544180154800415
1710891686278129700,11.680129638671875,-0.432721346616745,0.003970621153712273,-0.7922916412353516
1710891686297089800,11.69908984375,-0.41378453373908997,0.020158538594841957,-0.8237511515617371
1710891686316050000,11.7180498046875,-0.432110458612442,0.09590577334165573,-0.7739656567573547
1710891686335009800,11.737009765625,-0.4516581594944,0.42882707715034485,-0.7189878225326538
1710891686353970000,11.755969970703125,-0.36247187852859497,0.7052434086799622,-0.601396381855011
1710891686372930000,11.774929931640624,-0.25984659790992737,0.9178243279457092,-0.4572322964668274
1710891686391890000,11.793889892578125,-0.023136503994464874,1.0577123165130615,-0.3231474757194519
1710891686410850000,11.81285009765625,0.4493674039840698,0.905912458896637,-0.30634868144989014
1710891686429810200,11.83181005859375,0.617660641670227,0.40775224566459656,-0.5119046568870544
1710891686448770300,11.850770263671874,0.3073413372039795,-0.12125665694475174,-0.6875283122062683
1710891686467730400,11.86973046875,0.041004300117492676,-0.23457208275794983,-0.6151408553123474
1710891686486690300,11.888690185546874,0.024510949850082397,0.01893680728971958,-0.4379900395870209
1710891686505650400,11.907650390625,0.1329394429922104,0.3811796307563782,-0.30634868144989014
1710891686524610600,11.926610595703124,0.1417969912290573,0.49052441120147705,-0.3326158821582794
1710891686543570400,11.9455703125,0.10453423857688904,0.3341430425643921,-0.4272999167442322
1710891686562530600,11.964530517578124,0.11491893976926804,0.09651663154363632,-0.5476402640342712
1710891686581490700,11.98349072265625,0.14026983082294464,-0.0769689604640007,-0.6560688018798828
1710891686600450800,12.002450927734374,0.18211406469345093,-0.13652828335762024,-0.68386310338974
1710891686619411000,12.021410888671875,0.2566395699977875,-0.06780599057674408,-0.619722306728363
1710891686638370800,12.040370849609374,0.2853502035140991,0.04459312930703163,-0.5140427350997925
1710891686657331000,12.0593310546875,0.2541961073875427,0.09315688163042068,-0.40408703684806824
1710891686676291000,12.078291015625,0.23587016761302948,0.07910698652267456,-0.2813032269477844
1710891686695251200,12.097251220703125,0.20807582139968872,0.04673115536570549,-0.20250166952610016
1710891686714211000,12.116211181640624,0.1986074149608612,0.032681263983249664,-0.12278381735086441
1710891686733171200,12.135171142578125,0.20746494829654694,0.05558869615197182,-0.04306596517562866
1710891686752131300,12.15413134765625,0.1995237022638321,0.06719512492418289,0.004886918235570192
1710891686771091500,12.173091552734375,0.21571162343025208,0.10934479534626007,0.03176496922969818
1710891686790051600,12.192051513671874,0.21632249653339386,0.17898337543010712,0.015577051788568497
1710891686809011500,12.211011474609375,0.1787542998790741,0.2458730787038803,-0.030543239787220955
1710891686827971600,12.2299716796875,0.17692171037197113,0.3329212963581085,-0.05955931544303894
1710891686846931700,12.248931640625,0.14637847244739532,0.4059196412563324,-0.09987638890743256
1710891686865891600,12.2678916015625,0.07399099320173264,0.39186975359916687,-0.08582650125026703
1710891686884851700,12.286851806640625,-0.04909825697541237,0.2153298407793045,-0.05100720748305321
1710891686903811800,12.305811767578126,-0.09644027799367905,0.08918625861406326,-0.06566796451807022
1710891686922772000,12.32477197265625,-0.05917752534151077,0.12553271651268005,-0.06902772188186646
1710891686941732000,12.343732177734376,-0.05429060757160187,0.1954767256975174,-0.02871064469218254
1710891686960692200,12.362692138671875,-0.07170025259256363,0.18264856934547424,0.06414080411195755
1710891686979652400,12.38165234375,-0.10590868443250656,0.12705987691879272,0.13011419773101807
1710891686998612200,12.4006123046875,-0.12362375855445862,0.11606431007385254,0.1637117564678192
1710891687017572400,12.419572265625,-0.14836378395557404,0.1340848207473755,0.17104214429855347
1710891687036532500,12.438532470703125,-0.20731224119663239,0.14691297709941864,0.15485422313213348
1710891687055492400,12.457492431640626,-0.2219729870557785,0.11545344442129135,0.1178968995809555
1710891687074452500,12.476452392578125,-0.17676898837089539,0.05711585655808449,0.06230820715427399
1710891687093412600,12.49541259765625,-0.08544471114873886,0.010995565913617611,-0.0015271619195118546
1710891687112372700,12.514372802734375,-0.0057268571108579636,-0.013439024798572063,-0.051618073135614395
1710891687131332900,12.533332763671876,0.05352702736854553,-0.0308486707508564,-0.08155044913291931
1710891687150292700,12.552292724609375,0.08559742569923401,-0.01588248461484909,-0.1078176349401474
1710891687169252900,12.5712529296875,0.091400645673275,-0.007635809946805239,-0.12736530601978302
1710891687188213000,12.590212890625,0.0907897800207138,0.010384701192378998,-0.1847866028547287
1710891687207173000,12.609173095703126,0.08498656004667282,-0.02779434807598591,-0.14233149588108063
1710891687226133200,12.62813330078125,-0.034437503665685654,-0.09498947113752365,-0.17318016290664673
1710891687245093400,12.64709326171875,-0.11782054603099823,-0.1389717310667038,-0.14202606678009033
1710891687264053200,12.66605322265625,-0.14317142963409424,-0.09987638890743256,-0.12125665694475174
1710891687283013400,12.685013427734376,-0.0475710928440094,0.0412333719432354,-0.05222893878817558
1710891687301973500,12.703973388671875,0.06421715766191483,0.3454440236091614,0.09071341902017593
1710891687320933600,12.72293359375,0.10881029069423676,0.5913171172142029,0.18845178186893463
1710891687339893500,12.7418935546875,0.19494222104549408,0.5210676789283752,0.2816086709499359
1710891687358853600,12.760853515625,0.24136795103549957,0.2938259541988373,0.26878049969673157
1710891687377813800,12.779813720703125,0.2138790339231491,0.10018182545900345,0.29443681240081787
1710891687396774000,12.79877392578125,0.12774710357189178,0.09040798991918564,0.32131487131118774
1710891687415734000,12.817734130859375,0.051389001309871674,0.25900667905807495,0.3075704276561737
1710891687434694000,12.83669384765625,0.00007635809743078426,0.4172206521034241,0.3182605504989624
1710891687453654000,12.855654052734375,-0.0524580143392086,0.5006036758422852,0.2660316228866577
1710891687472614100,12.8746142578125,-0.056428633630275726,0.4770853817462921,0.21716243028640747
1710891687491574300,12.89357421875,-0.056428633630275726,0.47525280714035034,0.15790854394435883
1710891687510534400,12.912534423828125,-0.07108938694000244,0.4685332775115967,0.1334739476442337
1710891687529494500,12.93149462890625,-0.09308052062988281,0.42332929372787476,0.12370011955499649
1710891687548454400,12.950454345703125,-0.083306685090065,0.38301220536231995,0.16554436087608337
1710891687567414500,12.96941455078125,0.0397825688123703,0.3451386094093323,0.2528980076313019
1710891687586374700,12.988374755859375,0.1943313628435135,0.2831358313560486,0.29413139820098877
1710891687605334800,13.007334716796874,0.24594943225383759,0.168904110789299,0.13744457066059113
1710891687624295000,13.026294921875,0.12499820441007614,-0.001832594396546483,-0.16676609218120575
1710891687643255000,13.045255126953125,0.0012980876490473747,-0.14538581669330597,-0.36254823207855225
1710891687662215000,13.06421484375,0.0345902182161808,-0.05039634555578232,-0.44318240880966187
1710891687681175000,13.083175048828124,0.2089921087026596,0.12950333952903748,-0.48533207178115845
1710891687700135200,13.10213525390625,0.36598435044288635,0.12553271651268005,-0.5290089249610901
1710891687719095300,13.12109521484375,0.446007639169693,0.03848448023200035,-0.4923570156097412
1710891687738055400,13.140055419921875,0.44845110177993774,0.05925388261675835,-0.370184063911438
1710891687757015600,13.159015625,0.3778962194919586,0.1594357043504715,-0.21899501979351044
1710891687775975700,13.1779755859375,0.24136795103549957,0.17531819641590118,-0.09529490768909454
1710891687794935600,13.196935546875,0.06788235157728195,0.1185077652335167,0.009162971749901772
1710891687813895700,13.215895751953125,-0.06956222653388977,0.07055488228797913,0.0818558782339096
1710891687832855800,13.234855712890624,-0.13248129189014435,0.057726722210645676,0.11942406743764877
1710891687851816000,13.25381591796875,-0.15935935080051422,0.04886918142437935,0.13194678723812103
1710891687870776000,13.272776123046874,-0.14133884012699127,0.03390299528837204,0.11026109009981155
1710891687889736200,13.291736083984375,-0.07261654734611511,0.024740023538470268,0.0461202897131443
1710891687908696000,13.310696044921874,0.0193185992538929,0.023518294095993042,-0.03298669680953026
1710891687927656200,13.32965625,0.09506583213806152,0.012522728182375431,-0.0873536616563797
1710891687946616300,13.3486162109375,0.14362958073616028,0.025350889191031456,-0.0922405794262886
1710891687965576400,13.367576416015625,0.18577924370765686,0.008857538923621178,-0.06627883017063141
1710891687984536600,13.38653662109375,0.19494222104549408,-0.05528326332569122,-0.057726722210645676
1710891688003496700,13.40549658203125,0.17539454996585846,-0.08002328872680664,-0.05955931544303894
1710891688022456800,13.424456787109374,0.14668390154838562,-0.08124501258134842,-0.05864302068948746
1710891688041416700,13.443416748046875,0.095982126891613,-0.06933315098285675,-0.035735588520765305
1710891688060376800,13.462376953125,0.03672824427485466,-0.04917461425065994,-0.006414080038666725
1710891688079337000,13.4813369140625,-0.024052800610661507,-0.025350889191031456,0.017104214057326317
1710891688098297000,13.500297119140624,-0.05887209251523018,0.0027488914784044027,0.0308486707508564
1710891688117257200,13.51925732421875,-0.07780890166759491,0.029016077518463135,0.02871064469218254
1710891688136217300,13.53821728515625,-0.11049016565084457,0.028099779039621353,0.02412915788590908
1710891688155177200,13.55717724609375,-0.14103341102600098,-0.003970621153712273,0.024434590712189674
1710891688174137300,13.576137451171874,-0.13889537751674652,-0.029016077518463135,0.029016077518463135
1710891688193097500,13.595097412109375,-0.11384992301464081,-0.012522728182375431,0.017104214057326317
1710891688212057600,13.6140576171875,-0.10010546445846558,-0.01588248461484909,0.017715077847242355
1710891688231017700,13.633017822265625,-0.08941533416509628,-0.01802051067352295,0.007330377586185932
1710891688249977600,13.6519775390625,-0.045738499611616135,-0.02718348242342472,0.003359756199643016
1710891688268937700,13.670937744140625,0.026343543082475662,-0.04214967042207718,-0.003359756199643016
1710891688287897900,13.68989794921875,0.05994110554456711,-0.04886918142437935,-0.0256563201546669
1710891688306858000,13.70885791015625,0.04864010959863663,-0.05558869615197182,-0.04428769648075104
1710891688325818000,13.727818115234374,0.03764454275369644,-0.04673115536570549,-0.06383536756038666
1710891688344778000,13.746778076171875,0.05933023989200592,-0.004276053514331579,-0.07269290834665298
1710891688363738000,13.765738037109376,0.091400645673275,0.031154103577136993,-0.07147117704153061
1710891688382698200,13.7846982421875,0.10606139898300171,0.02718348242342472,-0.06566796451807022
1710891688401658400,13.803658447265626,0.09750928729772568,0.000305432389723137,-0.06811141967773438
1710891688420618500,13.822618408203125,0.07276926934719086,-0.018325943499803543,-0.06933315098285675
1710891688439578400,13.841578369140626,0.05933023989200592,-0.008552107028663158,-0.061391908675432205
1710891688458538500,13.86053857421875,0.04528035223484039,0.015271619893610477,-0.05436696484684944
1710891688477498600,13.87949853515625,0.028787001967430115,0.030543239787220955,-0.05192350596189499
1710891688496458800,13.898458740234375,0.011377356946468353,0.02626718580722809,-0.054672397673130035
1710891688515419000,13.9174189453125,0.006185005884617567,0.014660755172371864,-0.05436696484684944
1710891688534379000,13.93637890625,0.004963276442140341,0.002443459117785096,-0.043982263654470444
1710891688553339000,13.9553388671875,-0.004810560029000044,-0.001221729558892548,-0.04764745384454727
1710891688572299000,13.974299072265625,-0.0023671009112149477,0.000610864779446274,-0.019242240116000175
1710891688591259100,13.993259033203126,-0.03321577236056328,0.013133592903614044,-0.04214967042207718
1710891688610219300,14.01221923828125,-0.03168861195445061,0.008246674202382565,-0.03634645417332649
1710891688629179400,14.031179443359376,-0.01977674663066864,0.02779434807598591,-0.02779434807598591
1710891688648139500,14.050139404296875,-0.00511599238961935,0.07299833744764328,-0.003359756199643016
1710891688667099400,14.069099365234376,0.01107192412018776,0.08093958348035812,0.02260199747979641
1710891688686059500,14.0880595703125,0.02176205813884735,0.06352993845939636,0.03298669680953026
1710891688705019600,14.10701953125,0.02542724646627903,0.039706211537122726,0.028099779039621353
1710891688723979500,14.1259794921875,0.013515383005142212,0.021991131827235222,0.02871064469218254
1710891688742939600,14.144939697265626,-0.003283398225903511,0.01893680728971958,0.03543015569448471
1710891688761899800,14.163899658203125,0.004963276442140341,0.023212861269712448,0.04001164436340332
1710891688780860000,14.18285986328125,0.008933897130191326,0.022296564653515816,0.04001164436340332
1710891688799820000,14.201820068359375,-0.009697478264570236,0.01435532234609127,0.04367683082818985
1710891688818780200,14.2207802734375,-0.026190826669335365,0.004581485874950886,0.05497783049941063
1710891688837740000,14.239739990234375,-0.025579962879419327,-0.002443459117785096,0.059864748269319534
1710891688856700200,14.2587001953125,-0.01977674663066864,0.004886918235570192,0.05864302068948746
1710891688875660300,14.277660400390625,-0.020387612283229828,0.001832594396546483,0.0565049909055233
1710891688894620200,14.2966201171875,-0.024052800610661507,-0.017104214057326317,0.05253437161445618
1710891688913580300,14.315580322265625,-0.025274530053138733,-0.03237583488225937,0.04428769648075104
1710891688932540400,14.33454052734375,-0.017027854919433594,-0.03176496922969818,0.03848448023200035
1710891688951500500,14.35350048828125,-0.003283398225903511,-0.021380268037319183,0.03390299528837204
1710891688970460700,14.372460693359375,0.008628465235233307,-0.019242240116000175,0.025350889191031456
1710891688989420500,14.391420654296875,0.009850194677710533,-0.014966187067329884,0.008552107028663158
1710891689008380700,14.410380615234375,0.00007635809743078426,-0.020158538594841957,-0.002443459117785096
1710891689027340800,14.4293408203125,-0.011224640533328056,-0.023823726922273636,-0.007941242307424545
1710891689046300700,14.44830078125,-0.0191658828407526,-0.01954767294228077,-0.010995565913617611
1710891689065260800,14.4672607421875,-0.0322994738817215,-0.01282816007733345,-0.020769402384757996
1710891689084221000,14.486220947265625,-0.045738499611616135,-0.008246674202382565,-0.024740023538470268
1710891689103181000,14.50518115234375,-0.060093823820352554,0.0030543238390237093,-0.020769402384757996
1710891689122141000,14.524140869140625,-0.06925679743289948,0.020158538594841957,-0.013439024798572063
1710891689141101000,14.54310107421875,-0.07597630470991135,0.028099779039621353,-0.004276053514331579
1710891689160061200,14.562061279296875,-0.06742420047521591,0.022907428443431854,0.006414080038666725
1710891689179021300,14.581021240234374,-0.046654798090457916,0.03237583488225937,0.000305432389723137
1710891689197981200,14.599981201171875,-0.04085158184170723,0.035124726593494415,-0.014660755172371864
1710891689216941300,14.61894140625,-0.04634936526417732,0.021685699000954628,-0.022296564653515816
1710891689235901200,14.637901123046875,-0.042073313146829605,0.019853105768561363,-0.02871064469218254
1710891689254861300,14.656861328125,-0.015500693581998348,0.015271619893610477,-0.028099779039621353
1710891689273821400,14.675821533203125,0.015958841890096664,0.010079269297420979,-0.02107483521103859
1710891689292781600,14.694781494140624,0.010766491293907166,0.002443459117785096,-0.02107483521103859
1710891689311741400,14.713741455078125,-0.018555017188191414,-0.006108647678047419,-0.019242240116000175
1710891689330701600,14.73270166015625,-0.0191658828407526,-0.010995565913617611,-0.000610864779446274
1710891689349661700,14.75166162109375,0.0012980876490473747,0.0021380267571657896,0.01282816007733345
1710891689368621800,14.770621826171874,0.015042545273900032,0.01649334840476513,0.02260199747979641
1710891689387581700,14.789581787109375,0.01870773360133171,0.012217295356094837,0.02779434807598591
1710891689406541800,14.808541748046874,0.019624030217528343,-0.0054977829568088055,0.03145953640341759
1710891689425501700,14.827501708984375,0.02328922040760517,-0.014660755172371864,0.02932151034474373
1710891689444461800,14.8464619140625,0.02390008419752121,-0.023212861269712448,0.018631376326084137
1710891689463422000,14.865421875,0.01259908638894558,-0.039706211537122726,0.01740964688360691
1710891689482381800,14.8843818359375,0.014126247726380825,-0.047952886670827866,0.02718348242342472
1710891689501342000,14.903342041015625,0.019929463043808937,-0.04367683082818985,0.03634645417332649
1710891689520302000,14.922302001953126,0.028176138177514076,-0.03329212963581085,0.04428769648075104
1710891689539262200,14.94126220703125,0.03825540840625763,-0.02260199747979641,0.050090912729501724
1710891689558222000,14.96022216796875,0.04711294546723366,-0.014049889519810677,0.043982263654470444
1710891689577182200,14.97918212890625,0.051389001309871674,-0.008857538923621178,0.032681263983249664
1710891689596142300,14.998142333984376,0.049250971525907516,-0.012522728182375431,0.026572618633508682
1710891689615102200,15.017102294921875,0.04741837829351425,-0.018631376326084137,0.024740023538470268
1710891689634062300,15.036062255859376,0.060551971197128296,-0.024740023538470268,0.025961752980947495
1710891689653022200,15.055022216796875,0.07918334752321243,-0.026572618633508682,0.021685699000954628
1710891689671982300,15.073982421875,0.08498656004667282,-0.010384701192378998,0.007941242307424545
1710891689690942200,15.092942138671875,0.05780307948589325,-0.011606430634856224,0.000305432389723137
1710891689709902300,15.11190234375,0.0193185992538929,-0.02412915788590908,-0.001221729558892548
1710891689728862500,15.130862548828125,0.004657844081521034,-0.033597562462091446,0.010995565913617611
1710891689747822300,15.149822265625,0.011988221667706966,-0.04214967042207718,0.020158538594841957
1710891689766782500,15.168782470703125,0.02023489587008953,-0.047036588191986084,0.01740964688360691
1710891689785742600,15.18774267578125,0.00923932995647192,-0.048563748598098755,0.006414080038666725
1710891689804702500,15.206702392578125,-0.008781181648373604,-0.05253437161445618,-0.007635809946805239
1710891689823662600,15.22566259765625,-0.013668099418282509,-0.053145237267017365,-0.01954767294228077
1710891689842622700,15.244622802734375,0.002825249684974551,-0.04978547990322113,-0.027488915249705315
1710891689861582600,15.26358251953125,0.015347977168858051,-0.04153880476951599,-0.038789913058280945
1710891689880542700,15.282542724609375,0.006490438245236874,-0.05345066636800766,-0.04520399495959282
1710891689899502600,15.301502685546875,-0.015500693581998348,-0.06994401663541794,-0.04673115536570549
1710891689918462700,15.320462646484375,-0.023441936820745468,-0.07116574794054031,-0.036651886999607086
1710891689937422800,15.3394228515625,-0.023441936820745468,-0.06566796451807022,-0.024740023538470268
1710891689956382700,15.3583828125,-0.020998476073145866,-0.05222893878817558,-0.020158538594841957
1710891689975342800,15.3773427734375,-0.02741255611181259,-0.03145953640341759,-0.01954767294228077
1710891689994303000,15.396302978515624,-0.03657552972435951,-0.021685699000954628,-0.018631376326084137
1710891690013262800,15.415262939453125,-0.041157014667987823,-0.026878049597144127,-0.023212861269712448
1710891690032223000,15.434222900390624,-0.046654798090457916,-0.03329212963581085,-0.028405211865901947
1710891690051182800,15.453182861328125,-0.04940368980169296,-0.035124726593494415,-0.02626718580722809
1710891690070143000,15.47214306640625,-0.04604393243789673,-0.030543239787220955,-0.024434590712189674
1710891690089102800,15.491102783203125,-0.04512763395905495,-0.023823726922273636,-0.025350889191031456
1710891690108063000,15.51006298828125,-0.04085158184170723,-0.017715077847242355,-0.025350889191031456
1710891690127022800,15.52902294921875,-0.02802342176437378,-0.01954767294228077,-0.021685699000954628
1710891690145983000,15.54798291015625,-0.012140937149524689,-0.015271619893610477,-0.023823726922273636
1710891690164942800,15.56694287109375,-0.013668099418282509,-0.002443459117785096,-0.029932374134659767
1710891690183903000,15.585903076171874,-0.027717988938093185,-0.004886918235570192,-0.02412915788590908
1710891690202862800,15.60486279296875,-0.029245151206851006,-0.006108647678047419,-0.008552107028663158
1710891690221823000,15.623822998046874,-0.015500693581998348,-0.008552107028663158,-0.000610864779446274
1710891690240782800,15.642782958984375,0.0016035200096666813,-0.020158538594841957,-0.003665188793092966
1710891690259743000,15.661742919921876,0.0022143847309052944,-0.031154103577136993,-0.009162971749901772
1710891690278703000,15.680703125,-0.00603228947147727,-0.03237583488225937,-0.009773836471140385
1710891690297663000,15.6996630859375,-0.002672533504664898,-0.024434590712189674,-0.003665188793092966
1710891690316623000,15.718623046875,0.012904518283903599,-0.018631376326084137,0.000610864779446274
1710891690335583000,15.7375830078125,0.02756527252495289,-0.022907428443431854,0.004581485874950886
1710891690354543000,15.756543212890625,0.03214675933122635,-0.01802051067352295,0.0021380267571657896
1710891690373503000,15.7755029296875,0.030314164236187935,-0.016187917441129684,0.001832594396546483
1710891690392463000,15.794463134765625,0.03764454275369644,-0.013439024798572063,0.010690134018659592
1710891690411423000,15.813423095703126,0.047723811119794846,-0.006108647678047419,0.01740964688360691
1710891690430383000,15.832383056640625,0.04802924394607544,-0.0030543238390237093,0.017715077847242355
1710891690449343000,15.851343017578126,0.05047270283102989,-0.007635809946805239,0.009773836471140385
1710891690468303000,15.87030322265625,0.05199986323714256,-0.011300998739898205,-0.000610864779446274
1710891690487263000,15.889262939453126,0.04650207981467247,-0.010384701192378998,-0.004581485874950886
1710891690506223000,15.90822314453125,0.04069886729121208,-0.004581485874950886,-0.001832594396546483
1710891690525183000,15.927182861328125,0.03275762498378754,0.0054977829568088055,-0.0009162971982732415
1710891690544143000,15.94614306640625,0.020540328696370125,0.018631376326084137,0.000610864779446274
1710891690563103000,15.96510302734375,0.010155626572668552,0.03176496922969818,0
1710891690582063000,15.98406298828125,0.0058795735239982605,0.04520399495959282,-0.0009162971982732415
1710891690601023000,16.00302294921875,0.006490438245236874,0.043982263654470444,0.0009162971982732415
1710891690619983000,16.021983154296876,-0.0011453714687377214,0.04276053607463837,-0.000305432389723137
1710891690638943000,16.04094287109375,-0.022220205515623093,0.056810423731803894,-0.007941242307424545
1710891690657903000,16.059903076171874,-0.04085158184170723,0.06963858753442764,-0.019242240116000175
1710891690676863000,16.078863037109375,-0.044211339205503464,0.0766635313630104,-0.02412915788590908
1710891690695823000,16.097822998046876,-0.030466880649328232,0.07941242307424545,-0.022296564653515816
1710891690714783000,16.116782958984373,-0.00755945174023509,0.08002328872680664,-0.02626718580722809
1710891690733743000,16.1357431640625,0.00954476185142994,0.08032871782779694,-0.039706211537122726
1710891690752703000,16.154702880859375,0.00923932995647192,0.07360920310020447,-0.056810423731803894
1710891690771663000,16.1736630859375,-0.0017562361899763346,0.06566796451807022,-0.07483093440532684
1710891690790623000,16.192623046875,-0.009086613543331623,0.05864302068948746,-0.0818558782339096
1710891690809583000,16.2115830078125,-0.00511599238961935,0.04214967042207718,-0.08277218043804169
1710891690828543000,16.23054296875,-0.0017562361899763346,0.015271619893610477,-0.08552107214927673
1710891690847503000,16.249503173828124,-0.014278964139521122,-0.013744457624852657,-0.08796452730894089
1710891690866463000,16.268462890625,-0.03260490670800209,-0.026572618633508682,-0.08460476994514465
1710891690885423000,16.287423095703126,-0.02649625949561596,-0.01954767294228077,-0.07269290834665298
1710891690904383000,16.306383056640627,-0.002672533504664898,0.0015271619195118546,-0.07024945318698883
1710891690923343000,16.325343017578124,0.022067490965127945,0.018325943499803543,-0.07513637095689774
1710891690942303000,16.344302978515625,0.027870705351233482,0.014966187067329884,-0.07269290834665298
1710891690961263000,16.36326318359375,0.02023489587008953,0.005192350596189499,-0.05803215503692627
1710891690980223000,16.382222900390627,0.011682788841426373,0.001221729558892548,-0.05100720748305321
1710891690999183000,16.40118310546875,0.012904518283903599,0.001832594396546483,-0.0565049909055233
1710891691018143000,16.42014306640625,0.031841326504945755,0.018631376326084137,-0.06352993845939636
1710891691037103000,16.43910302734375,0.022067490965127945,0.050090912729501724,-0.04764745384454727
1710891691056063000,16.45806298828125,-0.046654798090457916,0.03634645417332649,-0.025350889191031456
1710891691075023000,16.477023193359376,-0.058566659688949585,-0.032681263983249664,-0.010690134018659592
1710891691093983000,16.49598291015625,-0.009086613543331623,-0.06200277432799339,0.000610864779446274
1710891691112943000,16.514943115234374,0.025121813639998436,-0.023212861269712448,0.003665188793092966
1710891691131903000,16.533903076171875,0.00923932995647192,-0.013744457624852657,-0.002443459117785096
1710891691150863000,16.552863037109375,-0.029856016859412193,-0.05345066636800766,-0.013133592903614044
1710891691169823000,16.571822998046876,-0.030161447823047638,-0.07055488228797913,-0.013744457624852657
1710891691188783000,16.590783203125,0.011377356946468353,-0.05436696484684944,-0.004886918235570192
1710891691207743000,16.609742919921874,0.05199986323714256,-0.029016077518463135,0.005803215317428112
1710891691226703000,16.628703125,0.07399099320173264,-0.024434590712189674,0.01588248461484909
1710891691245663000,16.6476630859375,0.08712458610534668,-0.03481929376721382,0.01740964688360691
1710891691264623000,16.666623046875,0.09964732080698013,-0.04153880476951599,0.017715077847242355
1710891691283583000,16.6855830078125,0.11614066362380981,-0.047036588191986084,0.013133592903614044
1710891691302543000,16.704543212890623,0.13019055128097534,-0.04459312930703163,0.000610864779446274
1710891691321503000,16.7235029296875,0.12255474925041199,-0.0461202897131443,-0.010384701192378998
1710891691340463000,16.742463134765625,0.10453423857688904,-0.047036588191986084,-0.013133592903614044
1710891691359423000,16.761423095703126,0.08956804871559143,-0.03543015569448471,-0.016187917441129684
1710891691378383000,16.780383056640623,0.07338013499975204,-0.021380268037319183,-0.005192350596189499
1710891691397343000,16.799343017578124,0.0553596206009388,-0.010384701192378998,0.015271619893610477
1710891691416303000,16.81830322265625,0.030314164236187935,-0.0009162971982732415,0.03787361457943916
1710891691435263200,16.83726318359375,0.008017600513994694,0.004886918235570192,0.05436696484684944
1710891691454223000,16.85622314453125,-0.01672242395579815,0.011300998739898205,0.06414080411195755
1710891691473183200,16.875183349609376,-0.03657552972435951,0.014660755172371864,0.07238747924566269
1710891691492143000,16.89414306640625,-0.05367974191904068,0.021380268037319183,0.08002328872680664
1710891691511103200,16.913103271484374,-0.07383827865123749,0.019853105768561363,0.08460476994514465
1710891691530063000,16.93206298828125,-0.08697187155485153,0.008857538923621178,0.09193515032529831
1710891691549023200,16.951023193359376,-0.09460768103599548,-0.004581485874950886,0.09560033679008484
1710891691567983000,16.969983154296877,-0.08147408813238144,-0.008246674202382565,0.08307760953903198
1710891691586943200,16.988943115234374,-0.06772962957620621,0.004276053514331579,0.05742128938436508
1710891691605903000,17.007903076171875,-0.07903063297271729,0.004581485874950886,0.0360410213470459
1710891691624863200,17.02686328125,-0.09521854668855667,0.00946840364485979,0.023212861269712448
1710891691643823000,17.045822998046877,-0.08513928204774857,0.0256563201546669,0.015271619893610477
1710891691662783200,17.064783203125,-0.06467530876398087,0.03940077871084213,0.005192350596189499
1710891691681743000,17.0837431640625,-0.06742420047521591,0.032070402055978775,-0.0030543238390237093
1710891691700703200,17.102703125,-0.08910989761352539,0.0027488914784044027,0.001221729558892548
1710891691719663000,17.1216630859375,-0.11079560220241547,-0.023212861269712448,0.007635809946805239
1710891691738623200,17.140623291015626,-0.12759438157081604,-0.034208428114652634,0.007941242307424545
1710891691757583400,17.159583251953126,-0.12026400119066238,-0.043371398001909256,-0.000305432389723137
1710891691776543200,17.178543212890624,-0.104076087474823,-0.04673115536570549,-0.01802051067352295
1710891691795503400,17.19750341796875,-0.09246965497732162,-0.04153880476951599,-0.03481929376721382
1710891691814463200,17.216463134765625,-0.07933606207370758,-0.032070402055978775,-0.0308486707508564
1710891691833423400,17.23542333984375,-0.05734493210911751,0.000305432389723137,-0.021380268037319183
1710891691852383200,17.25438330078125,-0.017027854919433594,0.05039634555578232,-0.016798781231045723
1710891691871343400,17.27334326171875,0.029703300446271896,0.1029307171702385,-0.023823726922273636
1710891691890303200,17.29230322265625,0.05933023989200592,0.1432477980852127,-0.043371398001909256
1710891691909263400,17.311263427734374,0.07429642975330353,0.16218459606170654,-0.05406153202056885
1710891691928223500,17.330223388671875,0.09567669779062271,0.16096286475658417,-0.04001164436340332
1710891691947183400,17.349183349609376,0.13049599528312683,0.15546508133411407,-0.02412915788590908
1710891691966143500,17.3681435546875,0.1631772518157959,0.1545487940311432,-0.03145953640341759
1710891691985103400,17.387103271484374,0.1787542998790741,0.1585194170475006,-0.0461202897131443
1710891692004063500,17.4060634765625,0.18150319159030914,0.1695149689912796,-0.044898562133312225
1710891692023023400,17.4250234375,0.18547381460666656,0.1744018942117691,-0.02626718580722809
1710891692041983500,17.4439833984375,0.1992182731628418,0.1698204129934311,-0.010995565913617611
1710891692060943400,17.462943359375,0.194025918841362,0.15485422313213348,-0.013439024798572063
1710891692079903500,17.481903564453123,0.16226094961166382,0.12614357471466064,-0.011300998739898205
1710891692098863400,17.50086328125,0.14882193505764008,0.1178968995809555,0.004581485874950886
1710891692117823500,17.519823486328125,0.15706861019134521,0.13011419773101807,0.018631376326084137
1710891692136783400,17.538783447265626,0.1424078494310379,0.1328630894422531,0.025350889191031456
1710891692155743500,17.557743408203127,0.09689842909574509,0.10537417232990265,0.028099779039621353
1710891692174703600,17.57670361328125,0.06238456442952156,0.0769689604640007,0.023823726922273636
1710891692193663500,17.59566357421875,0.04894553869962692,0.0720820426940918,0.013439024798572063
1710891692212623600,17.61462353515625,0.04528035223484039,0.06902772188186646,0.008246674202382565
1710891692231583500,17.63358349609375,0.05047270283102989,0.05558869615197182,0.004886918235570192
1710891692250543600,17.652543701171876,0.05199986323714256,0.05253437161445618,0.0009162971982732415
1710891692269503700,17.671503662109377,0.05566505342721939,0.06261363625526428,-0.0009162971982732415
1710891692288463600,17.690463623046874,0.037949975579977036,0.07147117704153061,-0.015271619893610477
1710891692307423700,17.709423828125,-0.02741255611181259,0.04214967042207718,-0.027488915249705315
1710891692326383600,17.728383544921876,-0.10163262486457825,-0.03787361457943916,-0.017715077847242355
1710891692345343700,17.74734375,-0.1196531355381012,-0.09651663154363632,0.010995565913617611
1710891692364304000,17.766303955078126,-0.07536543905735016,-0.08307760953903198,0.038789913058280945
1710891692383263700,17.785263671875,-0.018860450014472008,-0.036651886999607086,0.06597339361906052
1710891692402223900,17.804223876953124,-0.0017562361899763346,0.00946840364485979,0.08399390429258347
1710891692421183700,17.823183837890625,-0.012751801870763302,0.046425722539424896,0.0873536616563797
1710891692440144000,17.842143798828126,-0.02283107116818428,0.05528326332569122,0.0769689604640007
1710891692459104000,17.86110400390625,-0.019471315667033195,0.03237583488225937,0.05711585655808449
1710891692478063900,17.88006396484375,-0.010613775812089443,-0.023212861269712448,0.048563748598098755
1710891692497024000,17.89902392578125,0.004352411720901728,-0.07024945318698883,0.05039634555578232
1710891692515984000,17.91798388671875,0.015042545273900032,-0.07941242307424545,0.044898562133312225
1710891692534944000,17.936944091796875,0.008017600513994694,-0.06475166976451874,0.0308486707508564
1710891692553903900,17.95590380859375,-0.004810560029000044,-0.037262752652168274,0.024434590712189674
1710891692572864000,17.974864013671876,-0.00022907429956831038,-0.001221729558892548,0.01954767294228077
1710891692591824100,17.99382421875,0.014431680552661419,0.025350889191031456,0.011606430634856224
1710891692610784000,18.012783935546874,0.03153589367866516,0.03634645417332649,0.006719512399286032
1710891692629744000,18.031744140625,0.03886627033352852,0.04001164436340332,0.0021380267571657896
1710891692648704000,18.0507041015625,0.039477135986089706,0.03634645417332649,-0.014660755172371864
1710891692667664100,18.0696640625,0.043753188103437424,0.029932374134659767,-0.03634645417332649
1710891692686624300,18.088624267578126,0.054443322122097015,0.031154103577136993,-0.04886918142437935
1710891692705584000,18.107584228515623,0.06727148592472076,0.05406153202056885,-0.04917461425065994
1710891692724544300,18.126544189453124,0.05566505342721939,0.0717766135931015,-0.048563748598098755
1710891692743504400,18.14550439453125,0.015958841890096664,0.07605266571044922,-0.04214967042207718
1710891692762464300,18.16446435546875,-0.02741255611181259,0.08765909820795059,-0.02626718580722809
1710891692781424400,18.18342431640625,-0.07597630470991135,0.09193515032529831,-0.015271619893610477
1710891692800384500,18.202384521484376,-0.12851068377494812,0.05803215503692627,-0.016798781231045723
1710891692819344400,18.221344482421873,-0.17371466755867004,0.00946840364485979,-0.020158538594841957
1710891692838304500,18.240304443359374,-0.21586434543132782,-0.024434590712189674,-0.02626718580722809
1710891692857264400,18.259264404296875,-0.24457497894763947,-0.047036588191986084,-0.03817904740571976
1710891692876224500,18.278224609375,-0.23632831871509552,-0.05528326332569122,-0.053756099194288254
1710891692895184600,18.2971845703125,-0.20945025980472565,-0.06352993845939636,-0.060781046748161316
1710891692914144500,18.31614453125,-0.1810450553894043,-0.06444623321294785,-0.05345066636800766
1710891692933104600,18.335104736328127,-0.15447242558002472,-0.057726722210645676,-0.036651886999607086
1710891692952064500,18.354064453125,-0.12789981067180634,-0.05833758786320686,-0.01740964688360691
1710891692971024600,18.373024658203125,-0.10071633011102676,-0.05864302068948746,-0.0054977829568088055
1710891692989984500,18.391984619140626,-0.07414371520280838,-0.04550942778587341,0.01282816007733345
1710891693008944600,18.410944580078127,-0.04634936526417732,-0.05528326332569122,0.033597562462091446
1710891693027904800,18.42990478515625,0.013515383005142212,-0.05100720748305321,0.053756099194288254
1710891693046864600,18.44886474609375,0.09414953738451004,-0.036651886999607086,0.040317077189683914
1710891693065824800,18.46782470703125,0.18089233338832855,-0.03390299528837204,0.022907428443431854
1710891693084785000,18.486784912109375,0.24717116355895996,-0.054672397673130035,-0.007330377586185932
1710891693103744800,18.505744873046876,0.2758817970752716,-0.0717766135931015,-0.036651886999607086
1710891693122705000,18.524704833984377,0.28993168473243713,-0.08582650125026703,-0.06108647957444191
1710891693141665000,18.5436650390625,0.29329144954681396,-0.09498947113752365,-0.07971785217523575
1710891693160625000,18.562625,0.27863070368766785,-0.09529490768909454,-0.08857539296150208
1710891693179585000,18.5815849609375,0.2569449841976166,-0.09682206809520721,-0.09376774728298187
1710891693198545200,18.600545166015625,0.2041051983833313,-0.11239911615848541,-0.07024945318698883
1710891693217505000,18.619505126953126,0.13324488699436188,-0.14019346237182617,-0.02626718580722809
1710891693236465200,18.638465087890626,0.04589121788740158,-0.16646064817905426,0.0204639695584774
1710891693255425000,18.657425048828124,-0.024052800610661507,-0.1588248461484909,0.06963858753442764
1710891693274385200,18.67638525390625,-0.07078395783901215,-0.11453714966773987,0.11026109009981155
1710891693293345000,18.695344970703125,-0.11507165431976318,-0.0565049909055233,0.14172062277793884
1710891693312305200,18.71430517578125,-0.15844304859638214,-0.02107483521103859,0.16646064817905426
1710891693331265300,18.733265380859375,-0.18532110750675201,-0.014966187067329884,0.17043127119541168
1710891693350225200,18.75222509765625,-0.19020801782608032,-0.028405211865901947,0.15546508133411407
1710891693369185300,18.771185302734374,-0.19540037214756012,-0.047952886670827866,0.13439024984836578
1710891693388145200,18.790145263671874,-0.20883940160274506,-0.07086031138896942,0.11636973917484283
1710891693407105300,18.809105224609375,-0.22044582664966583,-0.1078176349401474,0.10018182545900345
1710891693426065400,18.8280654296875,-0.23571744561195374,-0.14172062277793884,0.08826996386051178
1710891693445025300,18.847025390625,-0.28122687339782715,-0.1533270627260208,0.07513637095689774
1710891693463985400,18.8659853515625,-0.3618610203266144,-0.13530655205249786,0.07269290834665298
1710891693482945500,18.884945556640623,-0.4904480576515198,-0.04764745384454727,0.10598503798246384
1710891693501905400,18.903905517578124,-0.6578249931335449,0.1334739476442337,0.17837251722812653
1710891693520865500,18.922865478515625,-0.751592755317688,0.3634645342826843,0.25473061203956604
1710891693539825400,18.941825439453126,-0.7903826832771301,0.5106829404830933,0.30512696504592896
1710891693558785500,18.96078564453125,-0.7305179238319397,0.42974337935447693,0.2770271897315979
1710891693577745700,18.97974560546875,-0.6245328783988953,0.2052505612373352,0.20952661335468292
1710891693596705500,18.99870556640625,-0.5967385172843933,-0.026878049597144127,0.17043127119541168
1710891693615665700,19.017665771484374,-0.5768854022026062,-0.20463970303535461,0.1496618688106537
1710891693634625500,19.03662548828125,-0.49197521805763245,-0.2556469142436981,0.07605266571044922
1710891693653585700,19.055585693359376,-0.3850739002227783,-0.18723005056381226,0.017715077847242355
1710891693672545800,19.0745458984375,-0.2827540338039398,-0.06322450190782547,0.013133592903614044
1710891693691505700,19.093505615234374,-0.16699515283107758,0.021380268037319183,0.008246674202382565
1710891693710465500,19.112465576171875,-0.049709122627973557,0.027488915249705315,-0.013744457624852657
1710891693729425700,19.13142578125,0.04039343446493149,-0.008552107028663158,-0.036651886999607086
1710891693748385800,19.1503857421875,0.09231694042682648,-0.03298669680953026,-0.05864302068948746
1710891693767345700,19.169345703125,0.12163844704627991,-0.039706211537122726,-0.08063415437936783
1710891693786305800,19.188305908203127,0.13843722641468048,-0.034208428114652634,-0.09193515032529831
1710891693805265700,19.207265625,0.14546217024326324,-0.006719512399286032,-0.07391463965177536
1710891693824225800,19.226225830078125,0.147905632853508,0.011606430634856224,-0.030543239787220955
1710891693843185700,19.245185546875,0.13660463690757751,-0.0030543238390237093,0.015271619893610477
1710891693862145800,19.264145751953127,0.12896881997585297,-0.015577051788568497,0.04917461425065994
1710891693881105700,19.283105712890624,0.14332415163516998,-0.003665188793092966,0.05894844979047775
1710891693900065800,19.302065673828125,0.1421024203300476,-0.012522728182375431,0.05406153202056885
1710891693919026000,19.32102587890625,0.12560907006263733,-0.029626941308379173,0.0565049909055233
1710891693937985800,19.33998583984375,0.1430187225341797,-0.04276053607463837,0.0565049909055233
1710891693956946000,19.35894580078125,0.17447824776172638,-0.057726722210645676,0.047952886670827866
1710891693975905800,19.37790576171875,0.19066616892814636,-0.07452550530433655,0.05345066636800766
1710891693994866000,19.396865966796874,0.18608468770980835,-0.09621120244264603,0.06566796451807022
1710891694013825800,19.41582568359375,0.17600540816783905,-0.12125665694475174,0.07574722915887833
1710891694032786000,19.434785888671875,0.16592614352703094,-0.143553227186203,0.0772743970155716
1710891694051745800,19.453745849609376,0.17234022915363312,-0.1533270627260208,0.07391463965177536
1710891694070706000,19.472705810546874,0.21051926910877228,-0.15515965223312378,0.05955931544303894
1710891694089665800,19.491665771484374,0.26396992802619934,-0.1542433500289917,0.054672397673130035
1710891694108626000,19.5106259765625,0.2954294681549072,-0.1640172004699707,0.08521563559770584
1710891694127585800,19.529585693359376,0.3165042996406555,-0.17165300250053406,0.13744457066059113
1710891694146546000,19.5485458984375,0.33452481031417847,-0.15118902921676636,0.17592905461788177
1710891694165505800,19.567505859375,0.30306529998779297,-0.1844811588525772,0.16340632736682892
1710891694184466000,19.5864658203125,0.13538290560245514,-0.30604326725006104,0.10201441496610641
1710891694203426000,19.605426025390624,-0.0631481483578682,-0.5904008150100708,0.04062250629067421
1710891694222386000,19.624385986328125,-0.0243582334369421,-0.9789108037948608,-0.03787361457943916
1710891694241346000,19.643345947265626,0.12866339087486267,-1.0231984853744507,-0.09529490768909454
1710891694260306000,19.662305908203123,0.30367615818977356,-0.7812960743904114,-0.12461641430854797
1710891694279265800,19.681265869140624,0.4001927971839905,-0.6765327453613281,-0.07483093440532684
1710891694298226000,19.700225830078125,0.4084394574165344,-0.5946768522262573,0.06566796451807022
1710891694317185800,19.719185791015626,0.45242172479629517,-0.5980366468429565,0.12705987691879272
1710891694336146000,19.73814599609375,0.48388126492500305,-0.5445859432220459,0.1695149689912796
1710891694355105800,19.757105712890624,0.43684467673301697,-0.44348782300949097,0.16157373785972595
1710891694374066000,19.77606591796875,0.3580431044101715,-0.370184063911438,0.13561198115348816
1710891694393025800,19.79502587890625,0.2654971182346344,-0.23762640357017517,0.10048725455999374
1710891694411986000,19.81398583984375,0.21021384000778198,-0.007635809946805239,-0.019853105768561363
1710891694430945800,19.83294580078125,0.1628718227148056,0.2559523284435272,-0.19914191961288452
1710891694449906000,19.851906005859377,0.11888955533504486,0.4917461574077606,-0.3075704276561737
1710891694468865800,19.87086572265625,0.08681915700435638,0.6640099883079529,-0.32009315490722656
1710891694487826000,19.889825927734375,0.07246383279561996,0.9117156863212585,-0.16187916696071625
1710891694506785800,19.908785888671876,0.1011744812130928,1.0708459615707397,-0.05955931544303894
1710891694525746000,19.927745849609376,-0.06559160351753235,0.9972367286682129,0.029016077518463135
1710891694544705800,19.946705810546874,-0.16913318634033203,0.7779362797737122,0.04367683082818985
1710891694563666000,19.965666015625,-0.24885104596614838,0.5705476999282837,-0.023212861269712448
1710891694582625800,19.984625732421875,-0.24090979993343353,0.29016077518463135,-0.08765909820795059
1710891694601585700,20.003585693359376,-0.2781725525856018,0.1640172004699707,-0.11911863088607788
1710891694620545800,20.0225458984375,-0.38843363523483276,0.11698060482740402,-0.06108647957444191
1710891694639505700,20.041505615234374,-0.3609447181224823,0.1490510106086731,-0.039706211537122726
1710891694658465800,20.0604658203125,-0.3047451674938202,0.18234314024448395,-0.014049889519810677
1710891694677425700,20.07942578125,-0.25129449367523193,0.1182023361325264,0.08338304609060287
1710891694696385800,20.0983857421875,-0.2070067971944809,0.12522727251052856,0.16676609218120575
1710891694715345700,20.117345703125,-0.24090979993343353,0.1078176349401474,0.19883649051189423
1710891694734305800,20.136305908203123,-0.3514763116836548,0.044898562133312225,0.16584978997707367
1710891694753265700,20.155265625,-0.4589885175228119,-0.26878049969673157,0.11698060482740402
1710891694772225500,20.1742255859375,-0.4061487317085266,-0.5491674542427063,-0.002443459117785096
1710891694791185700,20.193185546875,-0.1813504844903946,-0.5732966065406799,-0.1230892539024353
1710891694810145800,20.212145751953123,0.12621992826461792,-0.360410213470459,-0.19639302790164948
1710891694829105700,20.231105712890624,0.2648862302303314,-0.09590577334165573,-0.25809037685394287
1710891694848065500,20.2500654296875,0.20166173577308655,0.2968802750110626,-0.3042106628417969
1710891694867025700,20.269025634765626,0.005268708802759647,0.6637045741081238,-0.3081812858581543
1710891694885985500,20.287985595703127,-0.335288405418396,0.9871574640274048,-0.06444623321294785
1710891694904945400,20.3069453125,-0.621783971786499,1.0891718864440918,0.2571740746498108
1710891694923905500,20.325905517578125,-0.7470112442970276,0.84177166223526,0.5192350745201111
1710891694942865400,20.344865478515626,-0.8985057473182678,0.6087267398834229,0.6075050234794617
1710891694961825500,20.363825439453127,-1.0945932865142822,0.47097674012184143,0.6059778332710266
1710891694980785400,20.382785400390624,-1.3386337757110596,0.4465421438217163,0.6447677612304688
1710891694999745300,20.401745361328125,-1.509981393814087,0.44990190863609314,0.7250964641571045
1710891695018705400,20.420705322265626,-1.509981393814087,0.5174024701118469,0.7757982611656189
1710891695037665300,20.439665283203126,-1.4119375944137573,0.7037162184715271,0.850018322467804
1710891695056625200,20.458625244140624,-1.353905439376831,0.9682206511497498,0.8994984030723572
1710891695075585300,20.477585205078125,-1.2864048480987549,1.0118975639343262,0.9282090067863464
1710891695094545200,20.496545166015625,-1.0170135498046875,0.8316923975944519,0.8316923975944519
1710891695113505000,20.515505126953126,-0.568027913570404,0.7507528066635132,0.6411026120185852
1710891695132465200,20.534465087890624,-0.1969275325536728,0.7779362797737122,0.40805765986442566
1710891695151425000,20.553425048828124,-0.03107774630188942,0.7278453707695007,0.21471896767616272
1710891695170385200,20.57238525390625,0.03153589367866516,0.5879573225975037,0.10140355676412582
1710891695189345000,20.591344970703126,0.1417969912290573,0.4764745235443115,0.09621120244264603
1710891695208305000,20.610304931640623,0.3177260458469391,0.5192350745201111,0.07513637095689774
1710891695227264800,20.6292646484375,0.5501601099967957,0.5500837564468384,-0.06933315098285675
1710891695246225000,20.648224853515625,0.654617965221405,0.6878337264060974,-0.18081597983837128
1710891695265184800,20.667184814453126,0.6317105293273926,0.7776308655738831,-0.3280344009399414
1710891695284144600,20.68614453125,0.6283507943153381,0.7638863921165466,-0.4465421438217163
1710891695303104800,20.705104736328124,0.7132610082626343,0.7345649003982544,-0.5195404887199402
1710891695322064600,20.724064697265625,0.7502183318138123,0.7428115606307983,-0.5616901516914368
1710891695341024500,20.7430244140625,0.701349139213562,0.7614429593086243,-0.5723803043365479
1710891695359984600,20.761984619140627,0.6127737164497375,0.776103675365448,-0.5021308660507202
1710891695378944500,20.780944580078124,0.4771617650985718,0.7565560340881348,-0.4468475878238678
1710891695397904400,20.799904296875,0.36109745502471924,0.6633991599082947,-0.4202749729156494
1710891695416864500,20.818864501953126,0.32536184787750244,0.5702422857284546,-0.3601047992706299
1710891695435824400,20.837824462890627,0.31894776225090027,0.5876519083976746,-0.31031930446624756
1710891695454784300,20.8567841796875,0.3067304790019989,0.6542361974716187,-0.28435754776000977
1710891695473744100,20.875744140625,0.26244276762008667,0.6765327453613281,-0.231212317943573
1710891695492704300,20.894704345703126,0.21174100041389465,0.695164144039154,-0.14141519367694855
1710891695511664000,20.9136640625,0.1170569658279419,0.7779362797737122,-0.07086031138896942
1710891695530624000,20.9326240234375,0.03245219215750694,0.888502836227417,-0.04581485688686371
1710891695549584000,20.951583984375,0.00679587060585618,0.9285144805908203,-0.07941242307424545
1710891695568544000,20.9705439453125,-0.048792824149131775,0.8912517428398132,-0.1389717310667038
1710891695587503900,20.98950390625,-0.07994692772626877,0.7168498039245605,-0.2458730787038803
1710891695606464000,21.008464111328124,-0.07903063297271729,0.5073232054710388,-0.27916520833969116
1710891695625424000,21.027423828125,-0.053985174745321274,0.4016436040401459,-0.29626941680908203
1710891695644383700,21.0463837890625,0.0019089524867013097,0.36835145950317383,-0.337808221578598
1710891695663343600,21.065343505859374,0.09262236952781677,0.3689623177051544,-0.40897396206855774
1710891695682303700,21.0843037109375,0.23617559671401978,0.37232208251953125,-0.5134318470954895
1710891695701263600,21.103263671875,0.35559967160224915,0.3194822669029236,-0.6719512343406677
1710891695720223500,21.122223388671873,0.3934732675552368,0.21868959069252014,-0.7641918659210205
1710891695739183400,21.141183349609374,0.3381900191307068,0.17287473380565643,-0.7156280875205994
1710891695758143500,21.1601435546875,0.29481860995292664,0.2614501118659973,-0.6499601006507874
1710891695777103400,21.179103271484376,0.2923751473426819,0.41783151030540466,-0.5971203446388245
1710891695796063200,21.198063232421877,0.26824599504470825,0.4920515716075897,-0.583375871181488
1710891695815023400,21.2170234375,0.17050762474536896,0.49480047821998596,-0.5659661889076233
1710891695833983200,21.235983154296875,0.07246383279561996,0.5858193039894104,-0.528092622756958
1710891695852943000,21.254943115234376,0.08651372790336609,0.7235693335533142,-0.45387253165245056
1710891695871903000,21.273903076171877,0.17722713947296143,0.7141009569168091,-0.4101957082748413
1710891695890863000,21.292863037109374,0.16103923320770264,0.5445859432220459,-0.4477638900279999
1710891695909823000,21.311822998046875,0.022678354755043983,0.3530798554420471,-0.5180133581161499
1710891695928782800,21.330782958984376,-0.13675735890865326,0.28924447298049927,-0.5534434914588928
1710891695947743000,21.349742919921876,-0.2170860767364502,0.27000224590301514,-0.5170970559120178
1710891695966702800,21.368702880859374,-0.1908188909292221,0.27519458532333374,-0.40347617864608765
1710891695985662700,21.387662841796875,-0.19876012206077576,0.24037529528141022,-0.27488914132118225
1710891696004622600,21.40662255859375,-0.28000515699386597,0.1902843713760376,-0.1701258420944214
1710891696023582700,21.425582763671876,-0.38446301221847534,0.09682206809520721,-0.07299833744764328
1710891696042542600,21.44454248046875,-0.3508654534816742,-0.009773836471140385,-0.035124726593494415
1710891696061502500,21.46350244140625,-0.23052509129047394,-0.12247838824987411,-0.034208428114652634
1710891696080462300,21.48246240234375,-0.1556941568851471,-0.17745621502399445,-0.05345066636800766
1710891696099422500,21.50142236328125,-0.16394083201885223,-0.18845178186893463,-0.02932151034474373
1710891696118382300,21.52038232421875,-0.20303617417812347,-0.1945604383945465,0.05833758786320686
1710891696137342200,21.53934228515625,-0.2216675579547882,-0.20708316564559937,0.16157373785972595
1710891696156302300,21.55830224609375,-0.1908188909292221,-0.14782927930355072,0.268169641494751
1710891696175262200,21.57726220703125,-0.11659881472587585,-0.035735588520765305,0.3338375985622406
1710891696194222000,21.59622216796875,-0.04909825697541237,0.03298669680953026,0.3130682110786438
1710891696213182200,21.61518212890625,-0.08300124853849411,-0.06322450190782547,0.3451386094093323
1710891696232142000,21.63414208984375,-0.14347685873508453,-0.18845178186893463,0.430659681558609
1710891696251102000,21.65310205078125,-0.11812597513198853,-0.18845178186893463,0.37171122431755066
1710891696270061800,21.672061767578125,-0.03840812295675278,-0.15179990231990814,0.1899789422750473
1710891696289021700,21.691021728515626,0.06238456442952156,-0.17898337543010712,0.043982263654470444
1710891696307981800,21.70998193359375,0.17417281866073608,-0.21197007596492767,-0.1185077652335167
1710891696326941700,21.728941650390624,0.23159411549568176,-0.28557929396629333,-0.23182319104671478
1710891696345901800,21.74790185546875,0.25938844680786133,-0.3546070158481598,-0.25350889563560486
1710891696364861700,21.76686181640625,0.32078036665916443,-0.38820457458496094,-0.2409861534833908
1710891696383821600,21.785821533203126,0.3690386712551117,-0.38270679116249084,-0.23884813487529755
1710891696402781400,21.804781494140624,0.37575820088386536,-0.3433060050010681,-0.258395791053772
1710891696421741600,21.823741455078125,0.37667450308799744,-0.28924447298049927,-0.281914085149765
1710891696440701400,21.842701416015625,0.39072439074516296,-0.2813032269477844,-0.2874118685722351
1710891696459661300,21.861661376953126,0.35040730237960815,-0.3017672002315521,-0.28557929396629333
1710891696478621200,21.88062109375,0.25816673040390015,-0.33017241954803467,-0.2528980076313019
1710891696497581300,21.899581298828124,0.19677481055259705,-0.3707949221134186,-0.16310089826583862
1710891696516541200,21.918541259765625,0.18058690428733826,-0.39339691400527954,-0.08307760953903198
1710891696535501300,21.937501220703126,0.1628718227148056,-0.406530499458313,-0.03909534588456154
1710891696554461200,21.956461181640623,0.11430807411670685,-0.37232208251953125,0
1710891696573421000,21.975421142578124,0.0651334598660469,-0.3582721948623657,0.047952886670827866
1710891696592381200,21.994381103515625,0.008017600513994694,-0.36835145950317383,0.1127045527100563
1710891696611341000,22.013341064453126,-0.03138317912817001,-0.4205803871154785,0.14599667489528656
1710891696630301000,22.032301025390623,-0.05123628303408623,-0.45326167345046997,0.15302163362503052
1710891696649260800,22.0512607421875,-0.06131555140018463,-0.462424635887146,0.1597411334514618
1710891696668221000,22.070220947265625,-0.0319940410554409,-0.4926624298095703,0.18600831925868988
1710891696687180800,22.089180908203126,0.01718057133257389,-0.4871646761894226,0.18906265497207642
1710891696706140700,22.108140625,0.033979352563619614,-0.4608974754810333,0.17165300250053406
1710891696725100800,22.127100830078124,0.0397825688123703,-0.4514290690422058,0.16523891687393188
1710891696744060700,22.146060791015625,0.05199986323714256,-0.4630354940891266,0.185092031955719
1710891696763020500,22.1650205078125,0.06421715766191483,-0.5393936038017273,0.18875721096992493
1710891696781980700,22.183980712890627,0.08651372790336609,-0.6343830823898315,0.14599667489528656
1710891696800940500,22.2029404296875,0.15401428937911987,-0.749531090259552,0.07330377399921417
1710891696819900700,22.221900634765625,0.16165009140968323,-0.8475748896598816,0.03176496922969818
1710891696838860500,22.240860595703126,0.02695440873503685,-1.1517854928970337,0.0513126403093338
1710891696857820400,22.2598203125,-0.12270746380090714,-1.795026183128357,0.10537417232990265
1710891696876780300,22.2787802734375,-0.25037819147109985,-2.202167510986328,0.11728604137897491
1710891696895740400,22.297740478515625,-0.2622900605201721,-2.1920883655548096,0.012217295356094837
1710891696914700300,22.3167001953125,0.027870705351233482,-1.821904182434082,-0.11514800786972046
1710891696933660200,22.33566015625,0.6127737164497375,-1.4098758697509766,-0.1853974610567093
1710891696952620300,22.354620361328124,0.9991456866264343,-0.8811724185943604,-0.3023780584335327
1710891696971580200,22.373580078125,0.9020181894302368,-0.518318772315979,-0.22785256803035736
1710891696990540000,22.3925400390625,0.6885209679603577,-0.5467239618301392,-0.056199558079242706
1710891697009500200,22.411500244140626,0.5522981286048889,-0.9590576887130737,0.012522728182375431
1710891697028460000,22.4304599609375,0.3943895697593689,-0.9193515181541443,0.11606431007385254
1710891697047420200,22.449420166015624,0.2551124095916748,-0.42271843552589417,0.17318016290664673
1710891697066380000,22.468380126953125,-0.07536543905735016,0.12553271651268005,0.23243404924869537
1710891697085340200,22.487340087890626,-0.6046797633171082,0.287106454372406,0.40255987644195557
1710891697104300000,22.506300048828123,-0.8129846453666687,-0.07880155742168427,0.4682278633117676
1710891697123260000,22.525260009765624,-0.6981421113014221,-0.29596397280693054,0.40286532044410706
1710891697142220000,22.544219970703125,-0.586048424243927,-0.20677772164344788,0.32650721073150635
1710891697161180000,22.563179931640626,-0.8502474427223206,-0.28435754776000977,0.36254823207855225
1710891697180139800,22.582139892578127,-1.0738239288330078,-0.7394518256187439,0.3381136655807495
1710891697199100000,22.601099853515624,-0.9430988430976868,-0.8503237962722778,0.22999058663845062
1710891697218059800,22.620059814453125,-0.7528144717216492,-0.7816014885902405,0.1747073233127594
1710891697237019600,22.63901953125,-0.7598394155502319,-0.9859357476234436,0.07788526266813278
1710891697255979800,22.657979736328127,-0.8105412125587463,-1.0870338678359985,-0.003970621153712273
1710891697274939600,22.676939697265624,-0.6819541454315186,-1.0277799367904663,0
1710891697293899500,22.6958994140625,-0.3493382930755615,-0.7269290685653687,0.03695731982588768
1710891697312859600,22.714859619140626,-0.09308052062988281,-0.3494146466255188,-0.050090912729501724
1710891697331819500,22.733819580078126,-0.0057268571108579636,-0.1542433500289917,-0.13133592903614044
1710891697350779600,22.752779541015624,0.03611737862229347,-0.05100720748305321,-0.15088360011577606
1710891697369739500,22.771739501953125,0.14057525992393494,0.036651886999607086,-0.1847866028547287
1710891697388699400,22.790699462890625,0.2557232677936554,0.06780599057674408,-0.24892739951610565
1710891697407659500,22.809659423828126,0.21693335473537445,0.11667517572641373,-0.24312418699264526
1710891697426619400,22.828619384765624,0.08498656004667282,0.09040798991918564,-0.18814635276794434
1710891697445579500,22.84757958984375,-0.011224640533328056,-0.018325943499803543,-0.1285870373249054
1710891697464539400,22.866539306640625,-0.07506000995635986,-0.04764745384454727,-0.020769402384757996
1710891697483499500,22.88549951171875,-0.11110103130340576,0.008552107028663158,0.08399390429258347
1710891697502459400,22.90445947265625,-0.1446985900402069,0.11026109009981155,0.14508038759231567
1710891697521419300,22.923419189453124,-0.22319471836090088,0.2214384824037552,0.17562362551689148
1710891697540379400,22.94237939453125,-0.3142135739326477,0.23212862014770508,0.1853974610567093
1710891697559339300,22.96133935546875,-0.3615556061267853,0.13622283935546875,0.1945604383945465
1710891697578299400,22.98029931640625,-0.39973464608192444,0.010079269297420979,0.1902843713760376
1710891697597259300,22.99925927734375,-0.4571559429168701,-0.11972949653863907,0.17195843160152435
1710891697616219100,23.01821923828125,-0.5506182312965393,-0.2834412455558777,0.17256930470466614
1710891697635179300,23.03717919921875,-0.6187296509742737,-0.43004879355430603,0.22204934060573578
1710891697654139100,23.05613916015625,-0.6129264235496521,-0.45998117327690125,0.27366742491722107
1710891697673099300,23.075099365234376,-0.528932511806488,-0.36163195967674255,0.2816086709499359
1710891697692059100,23.09405908203125,-0.408592164516449,-0.20769402384757996,0.2214384824037552
1710891697711019000,23.11301904296875,-0.30077454447746277,-0.09285144507884979,0.12675444781780243
1710891697729979100,23.131979248046875,-0.19784383475780487,-0.03940077871084213,0.038789913058280945
1710891697748939000,23.15093896484375,-0.1037706509232521,-0.047952886670827866,-0.020158538594841957
1710891697767899100,23.169899169921877,-0.04634936526417732,-0.06811141967773438,-0.0616973415017128
1710891697786859000,23.18885888671875,-0.020998476073145866,-0.06322450190782547,-0.08918625861406326
