time,seconds_elapsed,z,y,x
1710957690659816200,0.055816162109375,0.31230461597442627,-0.11835505068302155,0.27053675055503845
1710957690678775600,0.074775634765625,0.33460119366645813,-0.12354740500450134,0.2671769857406616
1710957690697735200,0.093735107421875,0.3565923273563385,-0.2328922003507614,0.2570977210998535
1710957690716694800,0.11269482421875,0.347123920917511,-0.43172869086265564,0.2638172209262848
1710957690735654100,0.131654052734375,0.19501857459545135,-0.7380773425102234,0.20547963678836823
1710957690754613800,0.15061376953125,-0.3620901107788086,-1.4301871061325073,0.04909825697541237
1710957690773573000,0.169572998046875,-0.504421591758728,-1.900247573852539,-0.05810851231217384
1710957690792532700,0.18853271484375,-0.7487674951553345,-2.1079416275024414,-0.1320231556892395
1710957690811492400,0.207492431640625,-0.8025236129760742,-2.0056216716766357,-0.22304199635982513
1710957690830451700,0.22645166015625,-1.0441206693649292,-1.8293873071670532,-0.2804632782936096
1710957690849411300,0.245411376953125,-1.4314088821411133,-1.5920662879943848,-0.3494910001754761
1710957690868370700,0.26437060546875,-1.5276200771331787,-1.4628684520721436,-0.5345830321311951
1710957690887330300,0.283330322265625,-1.6177226305007935,-1.578932762145996,-0.8296307325363159
1710957690906290000,0.3022900390625,-1.8226678371429443,-1.844048023223877,-1.1741584539413452
1710957690925249300,0.321249267578125,-1.9869904518127441,-2.1641411781311035,-1.4618757963180542
1710957690944209000,0.340208984375,-2.081368923187256,-2.3822200298309326,-1.7068325281143188
1710957690963168300,0.359168212890625,-2.2539384365081787,-2.5547893047332764,-1.9325470924377441
1710957690982127900,0.3781279296875,-2.4265077114105225,-2.754847526550293,-2.127718448638916
1710957691001087500,0.39708740234375,-2.40848708152771,-2.861748695373535,-2.1994950771331787
1710957691020046800,0.416046875,-2.2398884296417236,-3.029431104660034,-2.283794403076172
1710957691039006500,0.43500634765625,-2.0996949672698975,-3.1757333278656006,-2.381838083267212
1710957691057965800,0.4539658203125,-1.9417864084243774,-3.1784820556640625,-2.451171398162842
1710957691076925400,0.472925537109375,-1.668118953704834,-3.2783584594726562,-2.4334561824798584
1710957691095884800,0.491884765625,-1.2392919063568115,-3.2649195194244385,-2.3021202087402344
1710957691114844400,0.510844482421875,-0.8064942359924316,-3.202000379562378,-2.1408519744873047
1710957691133804000,0.529803955078125,-0.5936078429222107,-3.0523386001586914,-1.931936264038086
1710957691152763400,0.548763427734375,-0.4787652790546417,-2.8125741481781006,-1.609399676322937
1710957691171723000,0.567722900390625,-0.3321577310562134,-2.5804455280303955,-1.2996912002563477
1710957691190682600,0.5866826171875,-0.2948949635028839,-2.447277069091797,-1.0342704057693481
1710957691209642000,0.60564208984375,-0.2945895493030548,-2.170555353164673,-0.6149117350578308
1710957691228601300,0.624601318359375,-0.13912445306777954,-1.6925536394119263,-0.249920055270195
1710957691247561000,0.64356103515625,-0.041386090219020844,-1.1675152778625488,0.0631481483578682
1710957691266520600,0.6625205078125,-0.07620538026094437,-0.5612320303916931,0.4113410711288452
1710957691285480000,0.68147998046875,-0.11468986421823502,0.04627300798892975,0.5668061375617981
1710957691304439600,0.700439453125,-0.21426081657409668,0.5206094980239868,0.5845212340354919
1710957691323399200,0.719399169921875,-0.29672756791114807,0.9137009978294373,0.5527562499046326
1710957691342358500,0.738358642578125,-0.2606865465641022,1.0621411800384521,0.48250681161880493
1710957691361318100,0.757318115234375,-0.281455934047699,0.8547525405883789,0.385990172624588
1710957691380277500,0.776277587890625,-0.25274530053138733,0.6195695996284485,0.32795801758766174
1710957691399237000,0.795237060546875,-0.25702136754989624,0.5380191802978516,0.13767364621162415
1710957691418196500,0.814196533203125,-0.4454731345176697,0.4754055142402649,-0.11308634281158447
1710957691437156000,0.833156005859375,-0.6177369952201843,0.18310672044754028,-0.31039565801620483
1710957691456115700,0.85211572265625,-0.670576810836792,-0.15317434072494507,-0.40721774101257324
1710957691475075000,0.871074951171875,-0.670576810836792,-0.540768027305603,-0.5584067702293396
1710957691494034700,0.89003466796875,-0.5386300086975098,-0.8251255750656128,-0.5916988849639893
1710957691512994300,0.908994384765625,-0.41615164279937744,-0.8706350326538086,-0.49945831298828125
1710957691531953700,0.92795361328125,-0.3196350038051605,-0.8205441236495972,-0.43715012073516846
1710957691550913300,0.946913330078125,-0.23533566296100616,-0.7832813858985901,-0.3638463318347931
1710957691569872600,0.96587255859375,-0.17608177661895752,-0.698676586151123,-0.29359689354896545
1710957691588832300,0.984832275390625,-0.14981459081172943,-0.5991056561470032,-0.24258968234062195
1710957691607791900,1.0037919921875,-0.07406735420227051,-0.6751583218574524,-0.3739255964756012
1710957691626751200,1.022751220703125,0.11682789027690887,-0.605519711971283,-0.4398989975452423
1710957691645710800,1.0417109375,0.23136503994464874,0.0795651376247406,-0.17478369176387787
1710957691664670200,1.060670166015625,0.20143266022205353,0.5826122760772705,0.07689260691404343
1710957691683629800,1.0796298828125,0.27320927381515503,0.6165152788162231,0.10163262486457825
1710957691702589400,1.09858935546875,0.3663661479949951,0.35934120416641235,0.03474293276667595
1710957691721548800,1.117548828125,0.49892380833625793,-0.07498364895582199,-0.019013166427612305
1710957691740508400,1.13650830078125,0.6592758297920227,-0.4754055142402649,-0.11980585753917694
1710957691759468000,1.155468017578125,0.7506000995635986,-0.6507236957550049,-0.22365286946296692
1710957691778427400,1.174427490234375,0.7878628373146057,-0.5933024287223816,-0.3571268320083618
1710957691797387000,1.193386962890625,0.735633909702301,-0.41615164279937744,-0.3904189467430115
1710957691816346600,1.2123466796875,0.6015490889549255,-0.21975859999656677,-0.3934732675552368
1710957691835306000,1.231305908203125,0.5215258002281189,-0.06276635825634003,-0.37026041746139526
1710957691854265600,1.250265625,0.5096139311790466,0.05818486958742142,-0.3082576394081116
1710957691873225200,1.26922509765625,0.5401571989059448,0.08292489498853683,-0.21265730261802673
1710957691892184600,1.2881845703125,0.6067414283752441,0.001679878099821508,-0.1427132785320282
1710957691911144200,1.307144287109375,0.6351466774940491,-0.08261945843696594,-0.08437569439411163
1710957691930103800,1.326103759765625,0.6382009983062744,-0.23533566296100616,-0.07215840369462967
1710957691949063200,1.345063232421875,0.5722275972366333,-0.29886558651924133,-0.07124210149049759
1710957691968022800,1.364022705078125,0.5120574235916138,-0.19960007071495056,-0.057497646659612656
1710957691986982400,1.382982421875,0.4864010810852051,-0.05818486958742142,0.00755945174023509
1710957692005941800,1.401941650390625,0.48762279748916626,0.07742711156606674,0.07933606207370758
1710957692024901400,1.4209013671875,0.47174033522605896,0.10399972647428513,0.06620246917009354
1710957692043861000,1.439861083984375,0.37949973344802856,-0.02153298258781433,0.018555017188191414
1710957692062820600,1.458820556640625,0.2735147178173065,-0.13912445306777954,-0.0501672700047493
1710957692081780000,1.477780029296875,0.26679518818855286,-0.15897755324840546,-0.12866339087486267
1710957692100739600,1.496739501953125,0.2848156988620758,-0.06123919412493706,-0.18058690428733826
1710957692119699200,1.51569921875,0.27687445282936096,0.14767655730247498,-0.19158247113227844
1710957692138658600,1.534658447265625,0.21212279796600342,0.3572031855583191,-0.15370884537696838
1710957692157618200,1.5536181640625,0.11591159552335739,0.4381427764892578,-0.1833357959985733
1710957692176577800,1.572577880859375,0.06704241037368774,0.4436405599117279,-0.2089921087026596
1710957692195537400,1.591537353515625,0.06734783947467804,0.407599538564682,-0.2242637276649475
1710957692214496800,1.610496826171875,0.05329795181751251,0.3046688139438629,-0.18455752730369568
1710957692233456400,1.629456298828125,0.016340631991624832,0.14737112820148468,-0.11522436887025833
1710957692252416000,1.648416015625,0.050549060106277466,-0.01359174121171236,-0.07735075056552887
1710957692271375600,1.667375732421875,0.2026543915271759,-0.11713331937789917,-0.08926261961460114
1710957692290335200,1.686335205078125,0.3269653618335724,-0.24327689409255981,-0.024816380813717842
1710957692309294600,1.705294677734375,0.3715584874153137,-0.32879796624183655,0.15172353386878967
1710957692328254200,1.724254150390625,0.3404043912887573,-0.2854265570640564,0.3157407343387604
1710957692347213800,1.7432138671875,0.2683223485946655,-0.21609342098236084,0.3820195496082306
1710957692366173400,1.76217333984375,0.24816381931304932,-0.01206457894295454,0.4745655655860901
1710957692385133000,1.781133056640625,0.2490801066160202,0.16905683279037476,0.5842158198356628
1710957692404092400,1.800092529296875,0.22495095431804657,0.19135339558124542,0.678288996219635
1710957692423052000,1.819052001953125,0.18005239963531494,0.05543597787618637,0.6376664638519287
1710957692442011600,1.83801171875,0.08750637620687485,-0.1974620372056961,0.5154935121536255
1710957692460971300,1.85697119140625,-0.025503603741526604,-0.2799287736415863,0.38354671001434326
1710957692479930600,1.8759306640625,-0.11316270381212234,-0.208152174949646,0.26687154173851013
1710957692498890200,1.89489013671875,-0.1153007298707962,-0.16539163887500763,0.18868085741996765
1710957692517849900,1.913849853515625,-0.11163553595542908,0.007788525894284248,0.20273074507713318
1710957692536809500,1.9328095703125,-0.145843967795372,0.30344706773757935,0.21067199110984802
1710957692555769000,1.95176904296875,-0.2386954128742218,0.6088794469833374,0.2164752036333084
1710957692574728700,1.970728759765625,-0.38438665866851807,0.7698423266410828,0.27603453397750854
1710957692593688300,1.989688232421875,-0.47174033522605896,0.7478511929512024,0.35330891609191895
1710957692612648000,2.00864794921875,-0.5080868005752563,0.5645917654037476,0.303523451089859
1710957692631607300,2.027607177734375,-0.5270236134529114,0.3468184769153595,0.14622575044631958
1710957692650567000,2.04656689453125,-0.615293562412262,0.14431680738925934,0.020387612283229828
1710957692669526500,2.065526611328125,-0.7683151960372925,-0.06979130208492279,-0.06604975461959839
1710957692688486100,2.084486083984375,-0.8275690674781799,-0.17608177661895752,-0.13477204740047455
1710957692707445800,2.10344580078125,-0.799774706363678,-0.11438442766666412,-0.06666062027215958
1710957692726405400,2.1224052734375,-0.7680097222328186,0.10888664424419403,0.03260490670800209
1710957692745365000,2.141364990234375,-0.7032580971717834,0.3727802336215973,0.08544471114873886
1710957692764324600,2.16032470703125,-0.5291616320610046,0.568562388420105,0.14744748175144196
1710957692783284000,2.179283935546875,-0.4558578431606293,0.6470585465431213,0.26167920231819153
1710957692802243600,2.19824365234375,-0.3770562708377838,0.5765036344528198,0.38996079564094543
1710957692821203200,2.217203125,-0.2897026240825653,0.5374082922935486,0.5167152285575867
1710957692840162800,2.236162841796875,-0.03527744114398956,0.40576693415641785,0.6562978625297546
1710957692859122400,2.255122314453125,0.03130681812763214,0.5312996506690979,0.743346095085144
1710957692878082000,2.27408203125,-0.19349141418933868,0.4949531853199005,0.6312524080276489
1710957692897041700,2.293041748046875,-0.6488910913467407,0.25671592354774475,0.5292379856109619
1710957692916001300,2.312001220703125,-0.8110756874084473,-0.18677189946174622,0.4369973838329315
1710957692934961000,2.3309609375,-0.5484038591384888,-0.4137081801891327,0.37835437059402466
1710957692953920500,2.34992041015625,-0.2503018379211426,-0.4644099473953247,0.29374960064888
1710957692972880100,2.368880126953125,-0.18371757864952087,-0.4271472096443176,0.1712712198495865
1710957692991839500,2.387839599609375,-0.2750418782234192,-0.12476912885904312,0.09705114364624023
1710957693010799000,2.406799072265625,-0.25060728192329407,0.2845102846622467,0.08391755074262619
1710957693029759000,2.425759033203125,-0.12018764764070511,0.47723811864852905,0.14256057143211365
1710957693048718300,2.44471826171875,-0.01847865991294384,0.4173733592033386,0.11782054603099823
1710957693067678000,2.463677978515625,0.019700389355421066,0.15439607203006744,0.13064870238304138
1710957693086637600,2.482637451171875,0.05513054504990578,-0.05451968312263489,0.1911243200302124
1710957693105597200,2.50159716796875,0.08781181275844574,-0.11102467030286789,0.23419028520584106
1710957693124556800,2.520556884765625,0.1253799945116043,-0.0948367565870285,0.25129449367523193
1710957693143516400,2.539516357421875,0.17119485139846802,-0.07131846249103546,0.24426954984664917
1710957693162476000,2.55847607421875,0.21487168967723846,-0.064598947763443,0.2225838601589203
1710957693181435600,2.577435546875,0.2441931962966919,-0.05604684352874756,0.23877176642417908
1710957693200395300,2.596395263671875,0.29367324709892273,-0.0386371985077858,0.2378554791212082
1710957693219355000,2.61535498046875,0.35445427894592285,-0.05024362727999687,0.17951788008213043
1710957693238314500,2.634314453125,0.4378373324871063,-0.13209950923919678,0.12179116904735565
1710957693257274000,2.653274169921875,0.5062541961669922,-0.21731515228748322,0.10468695312738419
1710957693276233700,2.672233642578125,0.4842630624771118,-0.3358229100704193,0.14714205265045166
1710957693295193300,2.691193359375,0.35934120416641235,-0.4079049527645111,0.24029892683029175
1710957693314153000,2.710153076171875,0.19501857459545135,-0.4124864339828491,0.25068363547325134
1710957693333112600,2.729112548828125,0.10735948383808136,-0.35414886474609375,0.22411102056503296
1710957693352072200,2.748072265625,0.15867212414741516,-0.2328922003507614,0.16943861544132233
1710957693371031800,2.76703173828125,0.26282456517219543,-0.06520981341600418,0.12576179206371307
1710957693389991400,2.785991455078125,0.3159697949886322,0.1052214577794075,0.05612320080399513
1710957693408951000,2.804950927734375,0.2890917658805847,0.2026543915271759,-0.07765618711709976
1710957693427910700,2.82391064453125,0.2594648003578186,0.3156643807888031,-0.18639011681079865
1710957693446870500,2.84287060546875,0.25641047954559326,0.40698865056037903,-0.23739732801914215
1710957693465830000,2.861829833984375,0.23625195026397705,0.46257734298706055,-0.26702427864074707
1710957693484789800,2.880789794921875,0.17119485139846802,0.4839576184749603,-0.3018435537815094
1710957693503749400,2.899749267578125,0.15592323243618011,0.44791659712791443,-0.3360520005226135
1710957693522709000,2.918708984375,0.1614210158586502,0.34987279772758484,-0.38186684250831604
1710957693541668600,2.937668701171875,0.13332124054431915,0.18280129134655,-0.41699156165122986
1710957693560628200,2.956628173828125,0.08689551800489426,0.04657844081521034,-0.41302093863487244
1710957693579587800,2.975587890625,0.08628465235233307,-0.03252854943275452,-0.3876700699329376
1710957693598547500,2.99454736328125,0.17821979522705078,-0.007483093533664942,-0.38095054030418396
1710957693617507000,3.013507080078125,0.2606865465641022,0.05971203371882439,-0.3430769443511963
1710957693636466700,3.032466796875,0.21090106666088104,0.08659008145332336,-0.2603047490119934
1710957693655426600,3.051426513671875,0.09605848789215088,0.007177661173045635,-0.16592614352703094
1710957693674386200,3.07038623046875,0.031612250953912735,-0.0792597085237503,-0.10392337292432785
1710957693693345800,3.089345703125,0.005345067009329796,-0.1818849891424179,-0.09353867173194885
1710957693712305400,3.108305419921875,-0.033139415085315704,-0.22128576040267944,-0.06299543380737305
1710957693731265000,3.12726513671875,-0.040775224566459656,-0.08017600327730179,-0.06421715766191483
1710957693750224600,3.146224609375,0.0010690133785828948,0.2078467458486557,-0.10483966767787933
1710957693769184300,3.165184326171875,0.0007635809597559273,0.3657552897930145,-0.08804088830947876
1710957693788143900,3.184143798828125,-0.07101303339004517,0.4017963111400604,-0.13568833470344543
1710957693807103500,3.203103515625,-0.13423752784729004,0.43081238865852356,-0.20105087757110596
1710957693826063400,3.2220634765625,-0.11377356201410294,0.4066832363605499,-0.11980585753917694
1710957693845023000,3.24102294921875,-0.02764163166284561,0.2383899837732315,-0.04253146052360535
1710957693863982600,3.259982666015625,0.06765327602624893,0.011148282326757908,0.0319940410554409
1710957693882942200,3.278942138671875,0.11621702462434769,-0.2292270064353943,0.028328854590654373
1710957693901901800,3.29790185546875,0.10155627131462097,-0.40546149015426636,-0.013209951110184193
1710957693920861400,3.316861328125,0.0487164668738842,-0.45677414536476135,-0.015347977168858051
1710957693939821000,3.335821044921875,0.01206457894295454,-0.39629852771759033,0.10102175921201706
1710957693958781000,3.354781005859375,0.005039634648710489,-0.13820815086364746,0.21525347232818604
1710957693977740500,3.373740478515625,0.034666575491428375,0.1773035079240799,0.2485456019639969
1710957693996700200,3.3927001953125,0.04627300798892975,0.35873034596443176,0.20395247638225555
1710957694015659800,3.41165966796875,0.020311253145337105,0.3095557391643524,0.15325069427490234
1710957694034619400,3.430619384765625,0.02977965772151947,0.07192932814359665,0.17432554066181183
1710957694053579000,3.4495791015625,0.07651081681251526,-0.15897755324840546,0.26534438133239746
1710957694072539000,3.468538818359375,0.09117157012224197,-0.3324631452560425,0.2992473840713501
1710957694091498500,3.48749853515625,0.03802633285522461,-0.3715584874153137,0.3105483949184418
1710957694110458000,3.5064580078125,-0.02458730712532997,-0.33368489146232605,0.35239261388778687
1710957694129417700,3.525417724609375,-0.03741546720266342,-0.29764387011528015,0.38354671001434326
1710957694148377300,3.54437744140625,-0.010537417605519295,-0.2029598206281662,0.33162322640419006
1710957694167337000,3.5633369140625,-0.10980294644832611,-0.07803797721862793,0.23541201651096344
1710957694186296600,3.582296630859375,-0.24174973368644714,-0.02000582218170166,0.19387321174144745
1710957694205256400,3.60125634765625,-0.2386954128742218,-0.0007635809597559273,0.20456334948539734
1710957694224216000,3.620216064453125,-0.1204930767416954,0.024281874299049377,0.26534438133239746
1710957694243175700,3.63917578125,-0.012980876490473747,0.009621120058000088,0.20334161818027496
1710957694262135300,3.65813525390625,-0.019700389355421066,-0.009926552884280682,0.124845489859581
1710957694281095000,3.677094970703125,-0.05451968312263489,-0.06887500733137131,0.11629338562488556
1710957694300054800,3.6960546875,-0.07498364895582199,-0.15592323243618011,0.19020801782608032
1710957694319014400,3.715014404296875,-0.08872810751199722,-0.19654574990272522,0.2641226649284363
1710957694337974000,3.73397412109375,-0.07254019379615784,-0.20082180202007294,0.2732856273651123
1710957694356933600,3.75293359375,-0.012370011769235134,-0.15958842635154724,0.25587597489356995
1710957694375893200,3.771893310546875,0.04627300798892975,-0.1055268943309784,0.2992473840713501
1710957694394853000,3.79085302734375,0.04199695214629173,-0.11438442766666412,0.2641226649284363
1710957694413812700,3.809812744140625,0.0001527161948615685,-0.08567378669977188,0.09644027799367905
1710957694432772400,3.8287724609375,-0.045967575162649155,-0.03558287397027016,0.0319940410554409
1710957694451732000,3.84773193359375,-0.04474584385752678,0.0694858655333519,0.10010546445846558
1710957694470691600,3.866691650390625,-0.021227551624178886,0.11316270381212234,0.19784383475780487
1710957694489651500,3.8856513671875,-0.02825249545276165,0.0334448479115963,0.1453094631433487
1710957694508611000,3.904611083984375,-0.06520981341600418,-0.08384118974208832,0.08055779337882996
1710957694527570700,3.92357080078125,-0.0642935186624527,-0.19837833940982819,0.04298960790038109
1710957694546530300,3.9425302734375,-0.04993819445371628,-0.21700970828533173,0.05001455545425415
1710957694565490000,3.961489990234375,-0.0435241162776947,-0.14706569910049438,0.07383827865123749
1710957694584449800,3.98044970703125,-0.03405570983886719,-0.028557928279042244,0.11384992301464081
1710957694603409400,3.999409423828125,-0.018173227086663246,0.01847865991294384,0.1651625633239746
1710957694622369000,4.018369140625,0.008704823441803455,-0.031001387163996696,0.16638429462909698
1710957694641328600,4.03732861328125,0.04810560122132301,-0.12415826320648193,0.15722131729125977
1710957694660288300,4.056288330078125,0.08842267841100693,-0.19410228729248047,0.14378230273723602
1710957694679248100,4.075248046875,0.13759729266166687,-0.22464552521705627,0.1505018174648285
1710957694698207700,4.094207763671875,0.16355904936790466,-0.2582430839538574,0.17402009665966034
1710957694717167400,4.11316748046875,0.1623373180627823,-0.3107774555683136,0.19204062223434448
1710957694736127000,4.132126953125,0.14401137828826904,-0.3459021747112274,0.19204062223434448
1710957694755086600,4.151086669921875,0.10949750989675522,-0.37033677101135254,0.18990258872509003
1710957694774046500,4.17004638671875,0.13790272176265717,-0.3657552897930145,0.22930335998535156
1710957694793006000,4.189006103515625,0.21487168967723846,-0.2955058515071869,0.2644280791282654
1710957694811965700,4.207965576171875,0.24144430458545685,-0.258853942155838,0.26106834411621094
1710957694830925300,4.22692529296875,0.2084576040506363,-0.2750418782234192,0.23419028520584106
1710957694849885000,4.245885009765625,0.14278964698314667,-0.23716825246810913,0.22441644966602325
1710957694868844800,4.2648447265625,0.041386090219020844,-0.13515383005142212,0.20914483070373535
1710957694887804400,4.283804443359375,0.009926552884280682,0.031612250953912735,0.1553887277841568
1710957694906764000,4.302763916015625,0.07559451460838318,0.20082180202007294,0.07903063297271729
1710957694925723600,4.3217236328125,0.1415679156780243,0.28237223625183105,0.002672533504664898
1710957694944683300,4.340683349609375,0.1669187992811203,0.24602578580379486,-0.03275762498378754
1710957694963643100,4.35964306640625,0.1922696828842163,0.1519526094198227,-0.06696604937314987
1710957694982602800,4.378602783203125,0.2032652497291565,0.0951421856880188,-0.02756527252495289
1710957695001562400,4.397562255859375,0.21975859999656677,0.004734201822429895,0.01183550525456667
1710957695020522000,4.41652197265625,0.2292270064353943,-0.012675444595515728,0.04940368980169296
1710957695039481900,4.43548193359375,0.22067490220069885,0.02519817277789116,0.09949459880590439
1710957695058441500,4.45444140625,0.21487168967723846,0.1003345400094986,0.1303432732820511
1710957695077401000,4.473401123046875,0.22006404399871826,0.13271036744117737,0.1862373948097229
1710957695096360700,4.492360595703125,0.2331976294517517,0.17027856409549713,0.3151298761367798
1710957695115320300,4.5113203125,0.2176205813884735,0.0792597085237503,0.3966803252696991
1710957695134280200,4.5302802734375,0.18493930995464325,-0.017867794260382652,0.3762163519859314
1710957695153239800,4.54923974609375,0.1724165827035904,-0.13759729266166687,0.34720027446746826
1710957695172199400,4.568199462890625,0.187382772564888,-0.2393062710762024,0.33895358443260193
1710957695191159000,4.587158935546875,0.17944152653217316,-0.26251915097236633,0.31635159254074097
1710957695210118700,4.60611865234375,0.15317434072494507,-0.28817546367645264,0.23938263952732086
1710957695229078500,4.62507861328125,0.11438442766666412,-0.2796233594417572,0.17432554066181183
1710957695248038100,4.6440380859375,0.1204930767416954,-0.24174973368644714,0.18837542831897736
1710957695266997800,4.662997802734375,0.1314886510372162,-0.2078467458486557,0.2430478185415268
1710957695285957400,4.681957275390625,0.08200860023498535,-0.19501857459545135,0.2531270980834961
1710957695304917000,4.7009169921875,0.002290742937475443,-0.1406516134738922,0.20975568890571594
1710957695323876900,4.719876953125,0.005955931730568409,-0.05024362727999687,0.15233440697193146
1710957695342836500,4.73883642578125,0.06368265300989151,0.07162389904260635,0.1398116797208786
1710957695361796000,4.757796142578125,0.1055268943309784,0.15592323243618011,0.12698352336883545
1710957695380755700,4.776755615234375,0.09666935354471207,0.18096868693828583,0.06039925664663315
1710957695399715300,4.79571533203125,0.05696314200758934,0.09880737960338593,-0.055970486253499985
1710957695418675200,4.81467529296875,0.019394956529140472,0.02611446939408779,-0.11125374585390091
1710957695437634800,4.833634765625,0.03252854943275452,0.01908952370285988,-0.08407026529312134
1710957695456594400,4.852594482421875,0.03527744114398956,0.025809036567807198,-0.012904518283903599
1710957695475554300,4.87155419921875,-0.02672533318400383,0.020922118797898293,0.09582941234111786
1710957695494513700,4.890513671875,-0.08323032408952713,-0.04108065739274025,0.1404225379228592
1710957695513473500,4.9094736328125,-0.07131846249103546,-0.0847574844956398,0.1291215419769287
1710957695532433200,4.92843310546875,-0.02458730712532997,-0.12782345712184906,0.06498073786497116
1710957695551392800,4.947392822265625,0.03802633285522461,-0.145843967795372,-0.002825249684974551
1710957695570352400,4.966352294921875,0.10888664424419403,-0.1409570425748825,0.011530072428286076
1710957695589312000,4.98531201171875,0.15867212414741516,-0.07528908550739288,0.0011453714687377214
1710957695608272000,5.00427197265625,0.1366809904575348,-0.031612250953912735,-0.095982126891613
1710957695627231500,5.0232314453125,0.08109229803085327,-0.006872228812426329,-0.11430807411670685
1710957695646191000,5.042191162109375,0.0639880821108818,0.030390523374080658,-0.04405862092971802
1710957695665150700,5.061150634765625,0.06582067906856537,0.19868376851081848,0.03565923124551773
1710957695684110300,5.0801103515625,0.04016435891389847,0.295811265707016,-0.003741546766832471
1710957695703070200,5.0990703125,0.045967575162649155,0.2649625837802887,-0.02756527252495289
1710957695722029800,5.11802978515625,0.039248060435056686,0.12812888622283936,-0.0449749194085598
1710957695740989400,5.136989501953125,0.07131846249103546,-0.04260781779885292,-0.0862082913517952
1710957695759949000,5.155948974609375,0.08292489498853683,-0.14889828860759735,-0.18547381460666656
1710957695778908700,5.17490869140625,0.08689551800489426,-0.18310672044754028,-0.22884522378444672
1710957695797868300,5.193868408203125,0.11438442766666412,-0.061850059777498245,-0.17203480005264282
1710957695816828000,5.212827880859375,0.1513417512178421,0.11591159552335739,-0.1011744812130928
1710957695835787800,5.231787841796875,0.15531237423419952,0.20723587274551392,-0.061162836849689484
1710957695854747400,5.250747314453125,0.1207985132932663,0.19379685819149017,-0.06268999725580215
1710957695873707000,5.26970703125,0.11774418503046036,0.19471314549446106,-0.1011744812130928
1710957695892666600,5.28866650390625,0.13271036744117737,0.2130390852689743,-0.15920662879943848
1710957695911626200,5.307626220703125,0.13209950923919678,0.27168211340904236,-0.19585852324962616
1710957695930586000,5.326586181640625,0.09880737960338593,0.33399030566215515,-0.245338574051857
1710957695949545700,5.345545654296875,0.04535670951008797,0.40057456493377686,-0.31375542283058167
1710957695968505300,5.36450537109375,0.041386090219020844,0.4699077308177948,-0.3836994469165802
1710957695987465000,5.38346484375,0.04169152304530144,0.4705185890197754,-0.4289034307003021
1710957696006424600,5.402424560546875,0.03375028073787689,0.4399753510951996,-0.44906195998191833
1710957696025384200,5.42138427734375,-0.0025961752980947495,0.4176788032054901,-0.4823541045188904
1710957696044344000,5.440343994140625,-0.07131846249103546,0.3513999581336975,-0.4878518879413605
1710957696063303700,5.4593037109375,-0.12873975932598114,0.26221370697021484,-0.48388126492500305
1710957696082263300,5.47826318359375,-0.15256348252296448,0.12263110280036926,-0.4820486605167389
1710957696101223000,5.497222900390625,-0.09056070446968079,0.021227551624178886,-0.4160752594470978
1710957696120182500,5.5161826171875,-0.0010690133785828948,0.0795651376247406,-0.3586539924144745
1710957696139142100,5.53514208984375,0.05513054504990578,0.05329795181751251,-0.3006218373775482
1710957696158101800,5.554101806640625,0.04505127668380737,0.11957678198814392,-0.22120940685272217
1710957696177061400,5.573061279296875,0.002290742937475443,0.12812888622283936,-0.2352592945098877
1710957696196021200,5.592021240234375,-0.01511890348047018,0.10094540566205978,-0.21723878383636475
1710957696214980900,5.61098095703125,-0.017562363296747208,0.09056070446968079,-0.19188790023326874
1710957696233940500,5.6299404296875,-0.02672533318400383,-0.013286309316754341,-0.19555309414863586
1710957696252900000,5.648900146484375,-0.04260781779885292,-0.08017600327730179,-0.20593778789043427
1710957696271859700,5.667859619140625,-0.018784092739224434,-0.15500694513320923,-0.21601705253124237
1710957696290819300,5.6868193359375,0.001679878099821508,-0.22128576040267944,-0.12011128664016724
1710957696309779200,5.705779296875,-0.03497200831770897,-0.2240346521139145,-0.044669486582279205
1710957696328738600,5.724738525390625,-0.12751802802085876,-0.1357647031545639,-0.07521272450685501
1710957696347698400,5.743698486328125,-0.14889828860759735,0.024892739951610565,0.0017562361899763346
1710957696366658000,5.762657958984375,-0.050549060106277466,0.18310672044754028,0.14653119444847107
1710957696385617700,5.78161767578125,0.04016435891389847,0.26710063219070435,0.1908188909292221
1710957696404577300,5.800577392578125,0.10399972647428513,0.2704603672027588,0.18409937620162964
1710957696423537000,5.819536865234375,0.13515383005142212,0.14828743040561676,0.17188207805156708
1710957696442496500,5.83849658203125,0.19960007071495056,0.07345648854970932,0.22838707268238068
1710957696461456400,5.857456298828125,0.24236060678958893,0.011453714221715927,0.24579671025276184
1710957696480415700,5.876415771484375,0.2658788859844208,-0.12140937149524689,0.2830594778060913
1710957696499375600,5.895375732421875,0.2631300091743469,-0.20082180202007294,0.303523451089859
1710957696518335200,5.914335205078125,0.27137666940689087,-0.2591593861579895,0.2943604588508606
1710957696537294800,5.933294921875,0.3095557391643524,-0.2808450758457184,0.2998582422733307
1710957696556254500,5.95225439453125,0.33307403326034546,-0.2591593861579895,0.33192864060401917
1710957696575214000,5.971214111328125,0.33001968264579773,-0.29275694489479065,0.3493382930755615
1710957696594173700,5.990173583984375,0.32421648502349854,-0.3877464234828949,0.33773186802864075
1710957696613133300,6.00913330078125,0.2860374450683594,-0.47265663743019104,0.3285689055919647
1710957696632093000,6.028093017578125,0.25274530053138733,-0.502894401550293,0.24488042294979095
1710957696651052800,6.047052734375,0.2652680277824402,-0.48884454369544983,0.10621411353349686
1710957696670012400,6.066012451171875,0.2582430839538574,-0.43233954906463623,0.010919207707047462
1710957696688972000,6.084971923828125,0.2441931962966919,-0.3168860971927643,-0.07338013499975204
1710957696707931600,6.103931640625,0.17088942229747772,-0.22647811472415924,-0.15431971848011017
1710957696726891300,6.122891357421875,0.10247256606817245,-0.22434009611606598,-0.21204642951488495
1710957696745851000,6.141850830078125,0.0896444097161293,-0.3040579557418823,-0.24808746576309204
1710957696764810500,6.160810546875,0.12996147572994232,-0.4042397737503052,-0.3216966688632965
1710957696783770000,6.17977001953125,0.19349141418933868,-0.48273590207099915,-0.3742310404777527
1710957696802730000,6.19872998046875,0.24663665890693665,-0.39141160249710083,-0.3644571900367737
1710957696821689600,6.217689697265625,0.2643517255783081,-0.4659371078014374,-0.31497713923454285
1710957696840649200,6.236649169921875,0.26129740476608276,-0.49831295013427734,-0.2251800298690796
1710957696859608800,6.25560888671875,0.2857320010662079,-0.4598284661769867,-0.1115591824054718
1710957696878568400,6.274568359375,0.23747368156909943,-0.3257436454296112,-0.02756527252495289
1710957696897528000,6.293528076171875,0.15256348252296448,-0.17486004531383514,0.014584396965801716
1710957696916487700,6.31248779296875,0.07040216773748398,-0.11255183815956116,0.04024071618914604
1710957696935447300,6.331447265625,0.05940660089254379,-0.08628465235233307,0.03352120518684387
1710957696954407200,6.3504072265625,0.0591011680662632,-0.10216713696718216,-0.004352411720901728
1710957696973366800,6.36936669921875,0.05604684352874756,-0.15012001991271973,-0.05169443041086197
1710957696992326400,6.388326416015625,0.05940660089254379,-0.18860450387001038,-0.1164461001753807
1710957697011286000,6.4072861328125,0.07223475724458694,-0.17394374310970306,-0.16989676654338837
1710957697030245600,6.42624560546875,0.07773254066705704,-0.05635227635502815,-0.2251800298690796
1710957697049205200,6.445205322265625,0.06520981341600418,0.11194097250699997,-0.30306529998779297
1710957697068164900,6.464164794921875,0.04169152304530144,0.2811505198478699,-0.3626246154308319
1710957697087124500,6.48312451171875,0.017256930470466614,0.4292852282524109,-0.43226319551467896
1710957697106084400,6.50208447265625,-0.0795651376247406,0.5484038591384888,-0.492127925157547
1710957697125044000,6.5210439453125,-0.1464548259973526,0.7310523986816406,-0.5590176582336426
1710957697144003600,6.540003662109375,-0.10247256606817245,0.9338595271110535,-0.7404444813728333
1710957697162963200,6.558963134765625,-0.26190826296806335,1.068860650062561,-0.6613374948501587
1710957697181922800,6.5779228515625,-0.36880961060523987,1.113759160041809,-0.5898662805557251
1710957697200882400,6.59688232421875,-0.3410152494907379,0.9405790567398071,-0.5251146554946899
1710957697219842300,6.61584228515625,-0.3361283540725708,0.6363683938980103,-0.36048656702041626
1710957697238802000,6.634802001953125,-0.33887723088264465,0.281455934047699,-0.15615230798721313
1710957697257761500,6.653761474609375,-0.3413206934928894,-0.17791436612606049,-0.07368556410074234
1710957697276721200,6.67272119140625,-0.30894485116004944,-0.5410735011100769,-0.03061959706246853
1710957697295680800,6.6916806640625,-0.2741255760192871,-0.6253728270530701,0.03871355578303337
1710957697314640600,6.710640625,-0.30833399295806885,-0.4787652790546417,0.14225514233112335
1710957697333600000,6.72960009765625,-0.37400195002555847,-0.22556181252002716,0.2699258625507355
1710957697352559900,6.748559814453125,-0.46838057041168213,0.06734783947467804,0.3862956166267395
1710957697371519500,6.76751953125,-0.5447386503219604,0.33399030566215515,0.4440223276615143
1710957697390479000,6.78647900390625,-0.5312996506690979,0.4598284661769867,0.4027889668941498
1710957697409438700,6.805438720703125,-0.4915934205055237,0.3119991719722748,0.23877176642417908
1710957697428398300,6.8243984375,-0.40118545293807983,0.049021899700164795,0.05154171586036682
1710957697447358200,6.843358154296875,-0.2961167097091675,-0.10797034949064255,-0.11400263756513596
1710957697466317800,6.86231787109375,-0.2179260104894638,-0.09392046183347702,-0.2554178237915039
1710957697485277400,6.88127734375,-0.12110394239425659,0.005345067009329796,-0.3788125216960907
1710957697504237000,6.900237060546875,-0.061850059777498245,0.04321868345141411,-0.4964039921760559
1710957697523196700,6.91919677734375,-0.012980876490473747,-0.11713331937789917,-0.6088030934333801
1710957697542156300,6.93815625,0.10674861818552017,-0.35048365592956543,-0.6485093235969543
1710957697561116200,6.9571162109375,0.25243985652923584,-0.35995206236839294,-0.5251146554946899
1710957697580075800,6.97607568359375,0.4045451879501343,-0.2331976294517517,-0.36140286922454834
1710957697599035400,6.995035400390625,0.614682674407959,-0.08109229803085327,-0.3027598559856415
1710957697617995000,7.0139951171875,0.6757691502571106,0.2890917658805847,-0.07948877662420273
1710957697636954600,7.03295458984375,0.6287325620651245,0.7240274548530579,0.10102175921201706
1710957697655914500,7.05191455078125,0.6412553191184998,0.8871283531188965,0.12851068377494812
1710957697674874000,7.0708740234375,0.6507236957550049,0.790611743927002,0.11140646785497665
1710957697693833700,7.089833740234375,0.5853611826896667,0.5349648594856262,0.06650790572166443
1710957697712793300,7.10879345703125,0.541989803314209,0.31780239939689636,0.013057234697043896
1710957697731753000,7.1277529296875,0.5166388750076294,0.10674861818552017,-0.07765618711709976
1710957697750712800,7.146712890625,0.4915934205055237,-0.043829549103975296,-0.13935352861881256
1710957697769672400,7.16567236328125,0.4445568323135376,0.04505127668380737,-0.05780307948589325
1710957697788632000,7.184632080078125,0.35475972294807434,0.18493930995464325,0.09949459880590439
1710957697807591700,7.203591796875,0.4298960864543915,0.2594648003578186,0.08758273720741272
1710957697826551300,7.22255126953125,0.49373146891593933,0.4335612654685974,0.14286600053310394
1710957697845511200,7.24151123046875,0.3825540542602539,0.490066260099411,0.14622575044631958
1710957697864470800,7.260470703125,0.09208786487579346,0.48212501406669617,0.16271910071372986
1710957697883430400,7.279430419921875,-0.0154243353754282,0.6476693749427795,0.027107125148177147
1710957697902390000,7.29839013671875,0.016035201027989388,0.641866147518158,-0.1320231556892395
1710957697921350000,7.317349853515625,0.055741410702466965,0.4271472096443176,-0.2193768173456192
1710957697940309500,7.3363095703125,0.0591011680662632,0.23503021895885468,-0.3183369040489197
1710957697959269000,7.35526904296875,-0.09850194305181503,0.1461493968963623,-0.38583746552467346
1710957697978228700,7.374228759765625,-0.2649625837802887,0.0798705667257309,-0.41790786385536194
1710957697997188400,7.393188232421875,-0.3761399984359741,0.02214384824037552,-0.4347066581249237
1710957698016148200,7.412148193359375,-0.4848739206790924,-0.014813470654189587,-0.45333802700042725
1710957698035107800,7.43110791015625,-0.6495019793510437,-0.061850059777498245,-0.45272716879844666
1710957698054067500,7.4500673828125,-0.8370374441146851,-0.15073087811470032,-0.3836994469165802
1710957698073027000,7.469027099609375,-0.8129082918167114,-0.2631300091743469,-0.3430769443511963
1710957698091986700,7.487986572265625,-0.5807796716690063,-0.2383899837732315,-0.26732969284057617
1710957698110946600,7.506946533203125,-0.4595230221748352,0.453719824552536,0.08636100590229034
1710957698129906200,7.52590625,-0.5114465355873108,0.7612902522087097,0.2421315312385559
1710957698148865800,7.54486572265625,-0.6174315810203552,0.7240274548530579,0.36338818073272705
1710957698167825400,7.563825439453125,-0.6821832656860352,0.5566505193710327,0.31726789474487305
1710957698186785300,7.582785400390625,-0.6717985272407532,0.32879796624183655,0.20547963678836823
1710957698205745000,7.601744873046875,-0.7869465351104736,-0.08384118974208832,0.07536543905735016
1710957698224704500,7.62070458984375,-0.9521854519844055,-0.6287325620651245,-0.08315397053956985
1710957698243664400,7.639664306640625,-0.920115053653717,-0.873078465461731,-0.24930918216705322
1710957698262623700,7.658623779296875,-0.6430879235267639,-0.8037453293800354,-0.36048656702041626
1710957698281583600,7.67758349609375,-0.31780239939689636,-0.5765036344528198,-0.17111849784851074
1710957698300543200,7.696543212890625,-0.12324196845293045,-0.15592323243618011,0.07383827865123749
1710957698319502800,7.7155029296875,-0.04413498193025589,0.360868364572525,0.0939968153834343
1710957698338462700,7.734462646484375,-0.04474584385752678,0.4653262495994568,0.016416991129517555
1710957698357422300,7.75342236328125,-0.1409570425748825,0.19501857459545135,-0.10025817900896072
1710957698376382000,7.7723818359375,-0.20082180202007294,-0.25702136754989624,-0.14943279325962067
1710957698395341600,7.791341552734375,-0.08414662629365921,-0.605519711971283,-0.17753258347511292
1710957698414301400,7.810301513671875,0.12415826320648193,-0.6464476585388184,-0.07948877662420273
1710957698433261000,7.829260986328125,0.2328922003507614,-0.346513032913208,0.0295505840331316
1710957698452220700,7.848220703125,0.1049160286784172,0.022449281066656113,0.10743584483861923
1710957698471180500,7.8671806640625,-0.01847865991294384,0.2331976294517517,0.16852232813835144
1710957698490140200,7.88614013671875,-0.0032070400193333626,0.23747368156909943,0.24488042294979095
1710957698509099800,7.905099853515625,0.1305723488330841,0.1406516134738922,0.28183773159980774
1710957698528059400,7.924059326171875,0.23655737936496735,-0.0206166859716177,0.2986365258693695
1710957698547019300,7.943019287109375,0.29275694489479065,-0.16050471365451813,0.31757333874702454
1710957698565979000,7.961978759765625,0.32268932461738586,-0.2341139316558838,0.31604617834091187
1710957698584938500,7.9809384765625,0.3254382014274597,-0.212733656167984,0.325514554977417
1710957698603898000,7.999898193359375,0.32910341024398804,-0.11835505068302155,0.3707185685634613
1710957698622857700,8.018857666015625,0.337350070476532,-0.07345648854970932,0.44493862986564636
1710957698641817600,8.037817626953125,0.3452913165092468,-0.05940660089254379,0.5408443808555603
1710957698660777200,8.056777099609375,0.35445427894592285,-0.10583232343196869,0.6401099562644958
1710957698679736800,8.07573681640625,0.3773617148399353,-0.23167046904563904,0.6385827660560608
1710957698698696400,8.094696533203125,0.36544984579086304,-0.346513032913208,0.612621009349823
1710957698717656300,8.11365625,0.35964664816856384,-0.37919431924819946,0.5979602336883545
1710957698736616000,8.132615966796875,0.43661558628082275,-0.3966039717197418,0.5869646668434143
1710957698755575600,8.151575439453126,0.5212203860282898,-0.3358229100704193,0.5252673625946045
1710957698774535400,8.170535400390625,0.5203040838241577,-0.16386447846889496,0.4589885175228119
1710957698793495000,8.1894951171875,0.5392408967018127,-0.07528908550739288,0.4061487317085266
1710957698812454700,8.20845458984375,0.5517635941505432,-0.013286309316754341,0.3759109079837799
1710957698831414300,8.227414306640625,0.5169443488121033,0.09636391699314117,0.3264308571815491
1710957698850374100,8.2463740234375,0.4790706932544708,0.22036947309970856,0.28580835461616516
1710957698869333800,8.265333740234375,0.4610501825809479,0.3400989770889282,0.2632063627243042
1710957698888293400,8.28429345703125,0.48334676027297974,0.3379609286785126,0.21525347232818604
1710957698907253200,8.303253173828125,0.5166388750076294,0.2848156988620758,0.20028728246688843
1710957698926212900,8.322212890625,0.490066260099411,0.3199404180049896,0.17951788008213043
1710957698945172500,8.34117236328125,0.4079049527645111,0.29703301191329956,0.07719803601503372
1710957698964132000,8.360132080078126,0.3208567202091217,0.13393209874629974,0.014584396965801716
1710957698983092000,8.379092041015625,0.3269653618335724,-0.020922118797898293,0.01763872057199478
1710957699002051600,8.398051513671875,0.3938550651073456,-0.037720900028944016,0.04696023091673851
1710957699021011200,8.41701123046875,0.45616328716278076,0.12721258401870728,0.050930850207805634
1710957699039971000,8.43597119140625,0.41706791520118713,0.29764387011528015,0.04543306678533554
1710957699058930700,8.4549306640625,0.25549420714378357,0.4451677203178406,0.0322994738817215
1710957699077890300,8.473890380859375,0.11102467030286789,0.3966039717197418,0.0029779658652842045
1710957699096850000,8.492849853515626,0.11804962158203125,0.12873975932598114,-0.0022143847309052944
1710957699115809800,8.511809814453125,0.21578797698020935,-0.1568395346403122,-0.008323032408952713
1710957699134769400,8.530769287109376,0.2594648003578186,-0.2390008419752121,-0.01259908638894558
1710957699153729000,8.54972900390625,0.19410228729248047,-0.258853942155838,-0.026038112118840218
1710957699172688600,8.568688720703125,0.10705405473709106,-0.2643517255783081,-0.025121813639998436
1710957699191648500,8.5876484375,0.09789107739925385,-0.21029019355773926,-0.022678354755043983
1710957699210608000,8.606608154296875,0.13942988216876984,-0.052076224237680435,-0.02328922040760517
1710957699229567700,8.625567626953124,0.13851359486579895,0.10094540566205978,0.00022907429956831038
1710957699248527600,8.644527587890625,0.12476912885904312,0.2582430839538574,0.042073313146829605
1710957699267487200,8.6634873046875,0.10369429737329483,0.3565923273563385,0.05948295816779137
1710957699286446800,8.68244677734375,0.07651081681251526,0.351705402135849,0.046654798090457916
1710957699305406500,8.701406494140626,0.04505127668380737,0.2380845546722412,0.03260490670800209
1710957699324366300,8.720366455078125,0.04046979174017906,0.10583232343196869,0.026801692321896553
1710957699343326000,8.739325927734376,0.03436114266514778,0.08628465235233307,0.06406444311141968
1710957699362285600,8.75828564453125,0.01359174121171236,0.08414662629365921,0.08819360285997391
1710957699381245200,8.7772451171875,-0.03711003437638283,0.1052214577794075,0.13187043368816376
1710957699400204800,8.796204833984374,-0.08414662629365921,0.1418733447790146,0.17951788008213043
1710957699419164700,8.81516455078125,-0.11316270381212234,0.1510363221168518,0.17768529057502747
1710957699438124300,8.834124267578124,-0.11591159552335739,0.08170316368341446,0.12759438157081604
1710957699457084000,8.853083984375,-0.11682789027690887,-0.017867794260382652,0.10102175921201706
1710957699476043800,8.872043701171876,-0.10827577859163284,-0.0591011680662632,0.12728895246982574
1710957699495003400,8.89100341796875,-0.08200860023498535,-0.08872810751199722,0.14744748175144196
1710957699513963000,8.909962890625,-0.055741410702466965,-0.07009673118591309,0.09613484144210815
1710957699532922600,8.928922607421875,-0.0487164668738842,-0.012675444595515728,0.05948295816779137
1710957699551882200,8.94788232421875,-0.06979130208492279,0.05451968312263489,0.06192641705274582
1710957699570842000,8.966842041015624,-0.09728021919727325,0.11285726726055145,0.07658717036247253
1710957699589801700,8.9858017578125,-0.0792597085237503,0.1003345400094986,0.0781143307685852
1710957699608761300,9.00476123046875,-0.02367101050913334,0.04108065739274025,0.09796743839979172
1710957699627721000,9.023720947265625,0.020311253145337105,-0.05299251899123192,0.09674570709466934
1710957699646680800,9.042680908203126,0.09728021919727325,-0.11927134543657303,0.07658717036247253
1710957699665640400,9.061640380859375,0.17058399319648743,0.02519817277789116,0.0524580143392086
1710957699684600000,9.08060009765625,0.18371757864952087,0.388051837682724,0.09460768103599548
1710957699703559700,9.0995595703125,0.16569706797599792,0.6659952998161316,0.009086613543331623
1710957699722519300,9.118519287109375,0.19868376851081848,0.7325795888900757,-0.024510949850082397
1710957699741479200,9.137479248046875,0.19654574990272522,0.7680097222328186,-0.036422811448574066
1710957699760438800,9.156438720703125,0.1519526094198227,0.7353284955024719,-0.015347977168858051
1710957699779398400,9.1753984375,0.15378521382808685,0.605519711971283,0.020998476073145866
1710957699798358000,9.19435791015625,0.21945317089557648,0.36025750637054443,0.05123628303408623
1710957699817317600,9.213317626953126,0.268627792596817,0.19929464161396027,0.047265663743019104
1710957699836277500,9.232277587890625,0.3000873327255249,0.05940660089254379,-0.0009926552884280682
1710957699855236900,9.25123681640625,0.3724747896194458,0.16905683279037476,-0.0012980876490473747
1710957699874196700,9.27019677734375,0.5031998753547668,0.4500546157360077,-0.055970486253499985
1710957699893156400,9.28915625,0.708450436592102,0.7982475757598877,-0.10972658544778824
1710957699912116000,9.308115966796874,0.9689842462539673,1.3907864093780518,-0.08773545175790787
1710957699931075600,9.32707568359375,1.0609194040298462,2.2872304916381836,-0.11522436887025833
1710957699950035200,9.34603515625,0.6885973215103149,2.9127559661865234,-0.081015944480896
1710957699968995000,9.3649951171875,0.3633118271827698,2.881296396255493,0.06528617441654205
1710957699987954700,9.38395458984375,0.3248273432254791,2.3712244033813477,0.18837542831897736
1710957700006914300,9.402914306640625,0.37430739402770996,1.2313506603240967,0.18837542831897736
1710957700025874000,9.4218740234375,0.2493855506181717,0.02764163166284561,0.2577085793018341
1710957700044833500,9.44083349609375,0.03741546720266342,-0.7851139307022095,0.42478010058403015
1710957700063793200,9.459793212890625,-0.09575305134057999,-1.3046544790267944,0.548480212688446
1710957700082753000,9.4787529296875,-0.10888664424419403,-1.6491822004318237,0.6211731433868408
1710957700101712400,9.49771240234375,-0.058795735239982605,-1.8727587461471558,0.6572141647338867
1710957700120672300,9.51667236328125,-0.025503603741526604,-2.0544910430908203,0.6999746561050415
1710957700139631900,9.5356318359375,-0.028863361105322838,-2.2930335998535156,0.6340012550354004
1710957700158591500,9.554591552734376,0.006872228812426329,-2.271958827972412,0.5292379856109619
1710957700177551000,9.573551025390625,0.046883873641490936,-1.8324415683746338,0.48250681161880493
1710957700196510700,9.5925107421875,0.019394956529140472,-1.3122903108596802,0.4592939615249634
1710957700215470300,9.61147021484375,-0.011453714221715927,-0.8743002414703369,0.4388299882411957
1710957700234430200,9.63043017578125,-0.033139415085315704,-0.4589121639728546,0.4107302129268646
1710957700253389800,9.649389892578125,-0.09422589093446732,-0.34376415610313416,0.35758498311042786
1710957700272349400,9.668349365234375,-0.09575305134057999,-0.46196648478507996,0.2699258625507355
1710957700291309000,9.68730908203125,-0.025809036567807198,-0.41095927357673645,0.2167806327342987
1710957700310268700,9.7062685546875,-0.0032070400193333626,-0.3013090491294861,0.18196134269237518
1710957700329228300,9.725228271484376,-0.07681624591350555,-0.23136503994464874,0.18348850309848785
1710957700348188000,9.74418798828125,-0.13332124054431915,-0.23625195026397705,0.16271910071372986
1710957700367147500,9.7631474609375,-0.09789107739925385,-0.2845102846622467,0.1349247545003891
1710957700386107100,9.782107177734375,-0.09575305134057999,-0.39599308371543884,0.20028728246688843
1710957700405067000,9.80106689453125,-0.14370593428611755,-0.4631882309913635,0.24060437083244324
1710957700424026400,9.8200263671875,-0.12935061752796173,-0.4045451879501343,0.16424626111984253
1710957700442986200,9.838986328125,-0.1049160286784172,-0.27320927381515503,0.09246965497732162
1710957700461945900,9.85794580078125,-0.14217877388000488,-0.06765327602624893,0.07108938694000244
1710957700480905500,9.876905517578125,-0.1773035079240799,0.14798198640346527,0.027717988938093185
1710957700499865000,9.895864990234376,-0.17974695563316345,0.2441931962966919,-0.03367391973733902
1710957700518824700,9.91482470703125,-0.12324196845293045,0.20998476445674896,-0.06207913160324097
1710957700537784300,9.933784423828126,-0.08109229803085327,0.09575305134057999,-0.07796161621809006
1710957700556744000,9.952743896484375,-0.07162389904260635,-0.07803797721862793,-0.06391172856092453
1710957700575703600,9.97170361328125,-0.07040216773748398,-0.22098033130168915,-0.031230462715029716
1710957700594663200,9.9906630859375,-0.058795735239982605,-0.23747368156909943,-0.011988221667706966
1710957700613622800,10.009622802734375,-0.06826414167881012,-0.22708898782730103,0.013973532244563103
1710957700632582400,10.02858251953125,-0.09697478264570236,-0.24694208800792694,0.014584396965801716
1710957700651542000,10.0475419921875,-0.09605848789215088,-0.26282456517219543,0.020998476073145866
1710957700670501600,10.066501708984376,-0.0591011680662632,-0.27809619903564453,0.022220205515623093
1710957700689461200,10.085461181640625,-0.03375028073787689,-0.2802342176437378,0.018555017188191414
1710957700708420900,10.1044208984375,-0.027030766010284424,-0.28817546367645264,-0.004963276442140341
1710957700727380500,10.12338037109375,0.007177661173045635,-0.281455934047699,-0.00923932995647192
1710957700746340000,10.142340087890625,0.05696314200758934,-0.2084576040506363,-0.012293653562664986
1710957700765299700,10.1612998046875,0.0844520553946495,-0.11743875592947006,-0.01107192412018776
1710957700784259300,10.18025927734375,0.05329795181751251,-0.0206166859716177,-0.07246383279561996
1710957700803219200,10.19921923828125,-0.009010255336761475,0.07162389904260635,-0.17722713947296143
1710957700822178600,10.218178466796875,-0.04321868345141411,0.12690715491771698,-0.21174100041389465
1710957700841138200,10.23713818359375,-0.02764163166284561,0.1418733447790146,-0.14576761424541473
1710957700860098000,10.25609814453125,-0.013897174037992954,0.09239330142736435,-0.06177370250225067
1710957700879057400,10.275057373046875,0.014508038759231567,0.0591011680662632,-0.010766491293907166
1710957700898017000,10.29401708984375,0.031001387163996696,0.0487164668738842,-0.011377356946468353
1710957700916976600,10.3129765625,0.06307178735733032,0.026419902220368385,-0.00923932995647192
1710957700935936300,10.331936279296874,0.0792597085237503,0.01847865991294384,-0.018402300775051117
1710957700954896000,10.350895751953125,0.08139773458242416,0.05787943676114082,-0.027259841561317444
1710957700973855500,10.36985546875,0.09056070446968079,0.08323032408952713,-0.008323032408952713
1710957700992815000,10.388815185546875,0.10674861818552017,0.04413498193025589,0.025579962879419327
1710957701011774700,10.407774658203126,0.10063996911048889,0.005955931730568409,0.07658717036247253
1710957701030734300,10.426734375,0.08536835014820099,0.022449281066656113,0.16638429462909698
1710957701049694000,10.44569384765625,0.029474224895238876,0.041386090219020844,0.23021966218948364
1710957701068653600,10.464653564453124,-0.014813470654189587,0.06826414167881012,0.23938263952732086
1710957701087613200,10.48361328125,-0.03283398225903511,0.09147699922323227,0.2638172209262848
1710957701106572800,10.50257275390625,-0.03375028073787689,0.04810560122132301,0.23357942700386047
1710957701125532400,10.521532470703125,0.01511890348047018,0.005039634648710489,0.2271653413772583
1710957701144492000,10.540491943359376,0.05146535858511925,-0.10705405473709106,0.25068363547325134
1710957701163451600,10.55945166015625,0.05177079141139984,-0.19532401859760284,0.2638172209262848
1710957701182411300,10.578411376953126,0.02977965772151947,-0.2087630331516266,0.22288928925991058
1710957701201370600,10.59737060546875,0.009621120058000088,-0.11866047978401184,0.15752676129341125
1710957701220330500,10.61633056640625,-0.003512472379952669,-0.0792597085237503,0.09246965497732162
1710957701239290000,10.6352900390625,-0.013286309316754341,-0.13515383005142212,0.06772962957620621
1710957701258249500,10.65424951171875,-0.007788525894284248,-0.24174973368644714,0.09002619981765747
1710957701277209000,10.673208984375,-0.009010255336761475,-0.2835939824581146,0.10835213959217072
1710957701296168700,10.692168701171875,-0.017867794260382652,-0.281455934047699,0.10132719576358795
1710957701315128300,10.71112841796875,-0.008093958720564842,-0.18646647036075592,0.09705114364624023
1710957701334088000,10.730087890625,0.0013744457392022014,-0.049632761627435684,0.09766200929880142
1710957701353047600,10.749047607421875,-0.020311253145337105,0.029474224895238876,0.07475458085536957
1710957701372007200,10.768007080078124,-0.05085449293255806,0.027030766010284424,0.027717988938093185
1710957701390966800,10.786966796875,-0.0591011680662632,-0.0062613640911877155,0.007254019379615784
1710957701409926400,10.805926513671874,-0.0487164668738842,-0.02367101050913334,-0.010461059398949146
1710957701428886000,10.824885986328125,-0.028557928279042244,-0.0206166859716177,-0.036422811448574066
1710957701447845600,10.843845703125,-0.03894263133406639,-0.02153298258781433,-0.06421715766191483
1710957701466805000,10.862804931640625,-0.06215549260377884,-0.06001746281981468,-0.06971494108438492
1710957701485764600,10.8817646484375,-0.050549060106277466,-0.08414662629365921,-0.05169443041086197
1710957701504724200,10.90072412109375,-0.01511890348047018,-0.05482511222362518,-0.02909243479371071
1710957701523683800,10.919683837890625,-0.0001527161948615685,-0.006872228812426329,-0.02756527252495289
1710957701542643500,10.9386435546875,-0.005039634648710489,0.01908952370285988,-0.041004300117492676
1710957701561603000,10.95760302734375,-0.010537417605519295,-0.03802633285522461,-0.041615162044763565
1710957701580562700,10.976562744140624,-0.0001527161948615685,-0.16936226189136505,-0.012293653562664986
1710957701599522300,10.995522216796875,0.005955931730568409,-0.19532401859760284,0.011530072428286076
1710957701618481700,11.014481689453126,0.027336198836565018,-0.1311832070350647,0.01824958436191082
1710957701637441300,11.033441162109375,0.023976443335413933,-0.05238165333867073,0.01763872057199478
1710957701656401000,11.05240087890625,0.006872228812426329,0.020922118797898293,0.011224640533328056
1710957701675360500,11.071360595703124,-0.004428769461810589,0.052076224237680435,0.006337722297757864
1710957701694320000,11.090320068359375,0.0019853105768561363,0.06154462695121765,-0.005574141163378954
1710957701713279700,11.10927978515625,0.014813470654189587,0.018173227086663246,-0.031230462715029716
1710957701732239400,11.1282392578125,0.012370011769235134,-0.0639880821108818,-0.059024810791015625
1710957701751199000,11.147198974609376,0.00045814859913662076,-0.06979130208492279,-0.0862082913517952
1710957701770158300,11.166158447265625,-0.014202605932950974,0.0010690133785828948,-0.13355031609535217
1710957701789118000,11.185117919921876,-0.02611446939408779,0.16294817626476288,-0.16500984132289886
1710957701808077600,11.20407763671875,-0.0591011680662632,0.3095557391643524,-0.2810741662979126
1710957701827037200,11.223037109375,-0.07834340631961823,0.4234820008277893,-0.32994332909584045
1710957701845996800,11.241996826171874,-0.05329795181751251,0.378888875246048,-0.32078036665916443
1710957701864956400,11.260956298828125,-0.031612250953912735,0.24510949850082397,-0.26794055104255676
1710957701883916000,11.279916015625,-0.025809036567807198,0.03252854943275452,-0.1534034162759781
1710957701902875600,11.298875732421875,-0.02519817277789116,-0.2084576040506363,-0.1579848974943161
1710957701921835000,11.3178349609375,-0.02764163166284561,-0.37491825222969055,-0.16653701663017273
1710957701940794600,11.336794677734375,-0.04230238497257233,-0.4405862092971802,-0.16012293100357056
1710957701959754200,11.355754150390625,-0.07345648854970932,-0.3984365463256836,-0.12408190965652466
1710957701978713900,11.3747138671875,-0.08414662629365921,-0.31841325759887695,-0.057497646659612656
1710957701997673500,11.393673583984375,-0.07589995115995407,-0.1314886510372162,0.01000291109085083
1710957702016633000,11.412633056640624,-0.03711003437638283,-0.016035201027989388,-0.008933897130191326
1710957702035592700,11.4315927734375,-0.0386371985077858,-0.016340631991624832,-0.02909243479371071
1710957702054552300,11.45055224609375,-0.0798705667257309,-0.08536835014820099,-0.04955640435218811
1710957702073511700,11.46951171875,-0.08781181275844574,-0.1815795600414276,-0.07857248187065125
1710957702092471300,11.48847119140625,-0.05238165333867073,-0.2741255760192871,-0.10453423857688904
1710957702111431000,11.507430908203125,-0.017867794260382652,-0.2643517255783081,-0.1118646115064621
1710957702130390500,11.526390625,-0.0062613640911877155,-0.17974695563316345,-0.1219438835978508
1710957702149350100,11.54535009765625,-0.010842849500477314,-0.025503603741526604,-0.11950042098760605
1710957702168309800,11.564309814453125,-0.027947064489126205,0.1562286615371704,-0.08712458610534668
1710957702187269400,11.583269287109376,-0.0206166859716177,0.281455934047699,-0.024205517023801804
1710957702206229000,11.60222900390625,-0.007483093533664942,0.3159697949886322,0.00847574882209301
1710957702225188400,11.621188232421876,-0.0038179049734026194,0.2338084876537323,-0.01259908638894558
1710957702244148000,11.64014794921875,-0.0032070400193333626,0.06856957077980042,-0.024205517023801804
1710957702263107600,11.659107666015625,-0.013897174037992954,-0.13271036744117737,-0.043142326176166534
1710957702282067200,11.678067138671874,-0.019700389355421066,-0.2735147178173065,-0.0654388889670372
1710957702301026800,11.69702685546875,-0.02367101050913334,-0.2842048406600952,-0.09201150387525558
1710957702319986400,11.715986328125,-0.027336198836565018,-0.17363831400871277,-0.1378263682126999
1710957702338946000,11.734946044921875,-0.05329795181751251,-0.021227551624178886,-0.20135630667209625
1710957702357905400,11.753905517578126,-0.09117157012224197,0.10919208079576492,-0.22395829856395721
1710957702376865000,11.772864990234375,-0.10858121514320374,0.23991714417934418,-0.19005531072616577
1710957702395824600,11.79182470703125,-0.13332124054431915,0.2790125012397766,-0.21815508604049683
1710957702414784500,11.810784423828125,-0.1464548259973526,0.2887863218784332,-0.27404922246932983
1710957702433744000,11.829743896484375,-0.1104138121008873,0.25793763995170593,-0.266107976436615
1710957702452703500,11.848703369140624,-0.09178243577480316,0.2228129357099533,-0.2603047490119934
1710957702471663000,11.8676630859375,-0.12202023714780807,0.18127411603927612,-0.3064250349998474
1710957702490622700,11.886622802734376,-0.20479241013526917,0.05940660089254379,-0.34002259373664856
1710957702509582300,11.905582275390625,-0.2796233594417572,-0.0902552679181099,-0.31864234805107117
1710957702528542000,11.9245419921875,-0.3046688139438629,-0.25702136754989624,-0.2749654948711395
1710957702547501600,11.94350146484375,-0.30894485116004944,-0.35384342074394226,-0.24839289486408234
1710957702566461000,11.9624609375,-0.29703301191329956,-0.4271472096443176,-0.26794055104255676
1710957702585420500,11.981420654296874,-0.2591593861579895,-0.476321816444397,-0.34643667936325073
1710957702604380200,12.000380126953125,-0.2023489624261856,-0.4754055142402649,-0.367511510848999
1710957702623339800,12.01933984375,-0.17363831400871277,-0.26160284876823425,-0.34490951895713806
1710957702642299400,12.03829931640625,-0.18280129134655,-0.10063996911048889,-0.36109745502471924
1710957702661259000,12.057259033203126,-0.16447533667087555,-0.14248420298099518,-0.3314704895019531
1710957702680218600,12.076218505859375,-0.10430516302585602,-0.1815795600414276,-0.266107976436615
1710957702699178200,12.09517822265625,-0.0591011680662632,-0.18493930995464325,-0.2401462197303772
1710957702718137600,12.1141376953125,-0.00045814859913662076,-0.18585561215877533,-0.1983019858598709
1710957702737097500,12.133097412109375,0.0383317656815052,-0.20693044364452362,-0.17600540816783905
1710957702756057000,12.15205712890625,0.060933761298656464,-0.26618432998657227,-0.152487114071846
1710957702775016400,12.171016357421875,0.06520981341600418,-0.35537058115005493,-0.10300707072019577
1710957702793976000,12.18997607421875,0.07376192510128021,-0.40118545293807983,-0.05474875494837761
1710957702812935700,12.208935791015625,0.07803797721862793,-0.2955058515071869,-0.008933897130191326
1710957702831895300,12.227895263671876,0.08720094710588455,-0.1418733447790146,0.01824958436191082
1710957702850855000,12.24685498046875,0.07651081681251526,0.029474224895238876,0.03840812295675278
1710957702869814500,12.265814453125,0.03649916872382164,0.31352636218070984,0.10254892706871033
1710957702888774100,12.284774169921874,0.005955931730568409,0.5175551772117615,0.1352301836013794
1710957702907733800,12.303733642578125,-0.00045814859913662076,0.5352702736854553,0.14408773183822632
1710957702926693000,12.322693115234374,0.014813470654189587,0.36911505460739136,0.15813761949539185
1710957702945652700,12.34165283203125,0.0154243353754282,0.20723587274551392,0.1862373948097229
1710957702964612600,12.360612548828126,-0.026419902220368385,0.08536835014820099,0.16852232813835144
1710957702983572000,12.379572021484375,-0.07162389904260635,0.017562363296747208,0.14286600053310394
1710957703002531600,12.398531494140625,-0.07773254066705704,0.0038179049734026194,0.14347685873508453
1710957703021491200,12.4174912109375,-0.036804601550102234,-0.042913250625133514,0.20059272646903992
1710957703040450800,12.436450927734375,0.008093958720564842,-0.01908952370285988,0.2680932879447937
1710957703059410400,12.455410400390624,0.03222311660647392,0.04413498193025589,0.24610215425491333
1710957703078370000,12.4743701171875,0.050549060106277466,0.11102467030286789,0.21036656200885773
1710957703097329700,12.49332958984375,0.012980876490473747,0.11163553595542908,0.18745912611484528
1710957703116289300,12.512289306640625,-0.052076224237680435,0.0591011680662632,0.18440480530261993
1710957703135249000,12.531248779296876,-0.05635227635502815,0.12018764764070511,0.19509494304656982
1710957703154208500,12.55020849609375,0.0025961752980947495,0.1818849891424179,0.1758527010679245
1710957703173168000,12.569168212890625,0.07101303339004517,0.11133010685443878,0.10132719576358795
1710957703192127500,12.58812744140625,0.07162389904260635,-0.07498364895582199,0.03504836559295654
1710957703211087000,12.607087158203125,0.03436114266514778,-0.1980729103088379,0.0057268571108579636
1710957703230046700,12.626046630859374,0.04657844081521034,-0.17638720571994781,0.04024071618914604
1710957703249006300,12.64500634765625,0.08933897316455841,-0.06215549260377884,0.05215258151292801
1710957703267966000,12.663966064453126,0.09850194305181503,0.04505127668380737,0.022220205515623093
1710957703286925600,12.682925537109375,0.025503603741526604,0.1156061589717865,-0.010766491293907166
1710957703305885200,12.70188525390625,-0.03436114266514778,0.12293653935194016,-0.03886627033352852
1710957703324844800,12.7208447265625,-0.044440411031246185,0.14401137828826904,-0.03306305781006813
1710957703343804400,12.739804443359375,-0.03802633285522461,0.16019928455352783,-0.00923932995647192
1710957703362764000,12.758763916015624,-0.03588830679655075,0.11255183815956116,0.00511599238961935
1710957703381723600,12.7777236328125,-0.03649916872382164,0.10186170041561127,0.0524580143392086
1710957703400683300,12.796683349609374,-0.04413498193025589,0.09269873052835464,0.011530072428286076
1710957703419643000,12.815642822265625,-0.027947064489126205,0.06765327602624893,0.0023671009112149477
1710957703438602500,12.8346025390625,-0.031612250953912735,0.024892739951610565,0.0683404952287674
1710957703457562000,12.85356201171875,-0.04474584385752678,-0.04046979174017906,0.11751510947942734
1710957703476521500,12.872521484375,-0.023976443335413933,-0.10613775253295898,0.16974404454231262
1710957703495481300,12.8914814453125,0.012980876490473747,-0.14431680738925934,0.2015090137720108
1710957703514441000,12.91044091796875,0.03558287397027016,-0.21029019355773926,0.1813504844903946
1710957703533400300,12.929400390625,0.06795870512723923,-0.3520108163356781,0.19906556606292725
1710957703552360000,12.94835986328125,0.08078686892986298,-0.39110618829727173,0.20853395760059357
1710957703571319600,12.967319580078126,0.08231402933597565,-0.35048365592956543,0.2320522516965866
1710957703590279200,12.986279052734375,0.06795870512723923,-0.2906189262866974,0.21067199110984802
1710957703609238800,13.00523876953125,0.06612611562013626,-0.18585561215877533,0.2222784161567688
1710957703628198400,13.024198486328125,0.08414662629365921,-0.09544762223958969,0.22502730786800385
1710957703647158000,13.043157958984375,0.09422589093446732,-0.01908952370285988,0.19784383475780487
1710957703666117600,13.06211767578125,0.08872810751199722,-0.004123337101191282,0.15783219039440155
1710957703685077200,13.0810771484375,0.07895427197217941,-0.07498364895582199,0.12240202724933624
1710957703704036900,13.100036865234374,0.07192932814359665,-0.14920371770858765,0.12118030339479446
1710957703722996500,13.11899658203125,0.05513054504990578,-0.17424917221069336,0.104076087474823
1710957703741956000,13.1379560546875,0.054214250296354294,-0.15317434072494507,0.07994692772626877
1710957703760915700,13.156915771484375,0.052076224237680435,-0.15317434072494507,0.07506000995635986
1710957703779875300,13.175875244140625,0.05849030241370201,-0.14217877388000488,0.11232276260852814
1710957703798834700,13.194834716796874,0.07040216773748398,-0.13820815086364746,0.09644027799367905
1710957703817794600,13.213794677734375,0.0639880821108818,-0.11316270381212234,0.06131555140018463
1710957703836754200,13.232754150390624,0.05757400393486023,0.0539088174700737,-0.023594651371240616
1710957703855713500,13.251713623046875,0.06856957077980042,0.3523162603378296,-0.091400645673275
1710957703874673200,13.270673095703126,0.04657844081521034,0.5401571989059448,-0.11491893976926804
1710957703893632800,13.2896328125,0.004428769461810589,0.5667297840118408,-0.14057525992393494
1710957703912592400,13.30859228515625,0.01359174121171236,0.5004509687423706,-0.14454588294029236
1710957703931552000,13.327552001953125,0.013286309316754341,0.30802857875823975,-0.1677587330341339
1710957703950511600,13.34651171875,-0.013897174037992954,0.0948367565870285,-0.17967060208320618
1710957703969471200,13.36547119140625,-0.02825249545276165,-0.11896591633558273,-0.13904809951782227
1710957703988430800,13.384430908203125,-0.014202605932950974,-0.20021092891693115,-0.04802924394607544
1710957704007390500,13.403390380859374,-0.0062613640911877155,-0.19135339558124542,-0.01107192412018776
1710957704026350000,13.42235009765625,-0.029474224895238876,-0.10277800261974335,-0.028176138177514076
1710957704045309700,13.441309814453126,-0.018173227086663246,0.01206457894295454,-0.04344775900244713
1710957704064269300,13.460269287109375,0.004734201822429895,0.1815795600414276,-0.04741837829351425
1710957704083229000,13.47922900390625,0.025503603741526604,0.29306238889694214,-0.09231694042682648
1710957704102188500,13.4981884765625,0.03802633285522461,0.28298309445381165,-0.14882193505764008
1710957704121148200,13.517148193359375,0.040775224566459656,0.1415679156780243,-0.19158247113227844
1710957704140107800,13.536107666015624,0.05604684352874756,-0.029474224895238876,-0.19524765014648438
1710957704159067400,13.5550673828125,0.06062832847237587,-0.12354740500450134,-0.17600540816783905
1710957704178027000,13.574027099609374,0.039248060435056686,-0.18005239963531494,-0.15187625586986542
1710957704196986400,13.592986328125,0.034666575491428375,-0.16539163887500763,-0.1323285847902298
1710957704215946200,13.6119462890625,0.036193739622831345,-0.1409570425748825,-0.1582903414964676
1710957704234905900,13.63090576171875,0.0019853105768561363,-0.13881902396678925,-0.23312127590179443
1710957704253865200,13.649865234375,-0.06765327602624893,-0.17119485139846802,-0.34552037715911865
1710957704272824800,13.668824951171874,-0.13209950923919678,-0.2545779049396515,-0.44325876235961914
1710957704291784400,13.687784423828125,-0.1467602699995041,-0.3254382014274597,-0.5174788236618042
1710957704310744000,13.706744140625,-0.1055268943309784,-0.45310893654823303,-0.5446622967720032
1710957704329703700,13.72570361328125,-0.0899498388171196,-0.3556760251522064,-0.5495492219924927
1710957704348663300,13.744663330078126,-0.1003345400094986,-0.18860450387001038,-0.6179660558700562
1710957704367623000,13.763622802734375,-0.1510363221168518,-0.08048143237829208,-0.7004328370094299
1710957704386582500,13.78258251953125,-0.20601414144039154,-0.07254019379615784,-0.7431933879852295
1710957704405542100,13.801542236328125,-0.23197589814662933,-0.13179408013820648,-0.6958513259887695
1710957704424501800,13.820501708984375,-0.1721111536026001,-0.0386371985077858,-0.6616429090499878
1710957704443461400,13.83946142578125,-0.07040216773748398,-0.020922118797898293,-0.6365974545478821
1710957704462420700,13.858420654296875,-0.01511890348047018,0.03375028073787689,-0.5584067702293396
1710957704481380400,13.87738037109375,0.0062613640911877155,0.1302669197320938,-0.5067886710166931
1710957704500340000,13.896340087890625,0.0032070400193333626,0.16569706797599792,-0.47838348150253296
1710957704519299600,13.915299560546876,-0.03558287397027016,0.1308777779340744,-0.4252382516860962
1710957704538259200,13.93425927734375,-0.060322895646095276,0.12354740500450134,-0.3388008773326874
1710957704557218800,13.95321875,-0.03130681812763214,0.13454297184944153,-0.2658025324344635
1710957704576178400,13.972178466796874,0.01511890348047018,0.12690715491771698,-0.18608468770980835
1710957704595138000,13.991137939453125,0.037720900028944016,0.08659008145332336,-0.11980585753917694
1710957704614097700,14.01009765625,0.054214250296354294,0.012370011769235134,-0.08345939964056015
1710957704633057300,14.029057373046875,0.053603384643793106,-0.049632761627435684,-0.053832460194826126
1710957704652017000,14.048016845703126,0.06001746281981468,-0.11285726726055145,-0.004352411720901728
1710957704670976300,14.066976318359375,0.06826414167881012,-0.17883066833019257,0.07261654734611511
1710957704689936000,14.085935791015626,0.058795735239982605,-0.23014330863952637,0.1547778695821762
1710957704708895500,14.1048955078125,0.04016435891389847,-0.2380845546722412,0.23388485610485077
1710957704727855000,14.123855224609375,0.028557928279042244,-0.17547090351581573,0.3093266487121582
1710957704746814700,14.142814697265624,0.036193739622831345,-0.05971203371882439,0.3395644724369049
1710957704765774300,14.1617744140625,0.06765327602624893,0.08017600327730179,0.32673630118370056
1710957704784734000,14.18073388671875,0.09269873052835464,0.21945317089557648,0.30657777190208435
1710957704803693600,14.199693603515625,0.09147699922323227,0.3727802336215973,0.274812787771225
1710957704822653000,14.21865283203125,0.09728021919727325,0.5557342171669006,0.2589302957057953
1710957704841612500,14.237612548828125,0.11927134543657303,0.6806560754776001,0.21586434543132782
1710957704860572200,14.256572265625,0.10735948383808136,0.7509055137634277,0.1816559135913849
1710957704879531800,14.27553173828125,0.13423752784729004,0.9020945429801941,0.16271910071372986
1710957704898491400,14.294491455078125,0.1815795600414276,1.0013600587844849,0.10468695312738419
1710957704917451000,14.313450927734374,0.19685117900371552,0.8633046746253967,0.03932442143559456
1710957704936410400,14.332410400390625,0.20021092891693115,0.5728384256362915,-0.029397867619991302
1710957704955370000,14.351369873046876,0.18982623517513275,0.19471314549446106,-0.09292780607938766
1710957704974329600,14.37032958984375,0.2133445292711258,-0.13423752784729004,-0.14698933064937592
1710957704993289200,14.389289306640626,0.26618432998657227,-0.2842048406600952,-0.20196716487407684
1710957705012248800,14.408248779296875,0.2738201320171356,-0.263435423374176,-0.23159411549568176
1710957705031208400,14.42720849609375,0.27168211340904236,-0.11896591633558273,-0.20807582139968872
1710957705050167800,14.446167724609374,0.2897026240825653,0.04780016839504242,-0.15584687888622284
1710957705069127400,14.46512744140625,0.30772313475608826,0.18341214954853058,-0.13507747650146484
1710957705088087000,14.484087158203126,0.3095557391643524,0.378888875246048,-0.13080142438411713
1710957705107046700,14.503046630859375,0.2942841053009033,0.5484038591384888,-0.13843722641468048
1710957705126006300,14.52200634765625,0.32330018281936646,0.6314814686775208,-0.19524765014648438
1710957705144965600,14.540965576171875,0.3605629503726959,0.6223185062408447,-0.23098324239253998
1710957705163925200,14.55992529296875,0.3352120518684387,0.5484038591384888,-0.24686573445796967
1710957705182884900,14.578884765625,0.2845102846622467,0.5364919900894165,-0.30917394161224365
1710957705201844500,14.597844482421875,0.3208567202091217,0.5716167092323303,-0.34521496295928955
1710957705220804000,14.61680419921875,0.3565923273563385,0.6571378111839294,-0.20288346707820892
1710957705239763500,14.635763427734375,0.3199404180049896,0.7441860437393188,-0.07948877662420273
1710957705258723000,14.65472314453125,0.2386954128742218,0.8098539710044861,-0.06391172856092453
1710957705277682700,14.6736826171875,0.1363755613565445,0.7396045327186584,-0.09384410083293915
1710957705296642300,14.692642333984375,0.07620538026094437,0.485484778881073,-0.13324488699436188
1710957705315601700,14.7116015625,0.05146535858511925,0.291229784488678,-0.13110685348510742
1710957705334561300,14.730561279296875,-0.007788525894284248,0.13698641955852509,-0.1417969912290573
1710957705353521000,14.74952099609375,-0.12263110280036926,-0.0386371985077858,-0.17539454996585846
1710957705372480500,14.76848046875,-0.2328922003507614,-0.15042544901371002,-0.11919499188661575
1710957705391440100,14.787440185546876,-0.32788166403770447,-0.18616104125976562,-0.08865175396203995
1710957705410399500,14.8063994140625,-0.4143190383911133,-0.2444986253976822,-0.08773545175790787
1710957705429359000,14.825359130859376,-0.4540252387523651,-0.3263545036315918,-0.11339177191257477
1710957705448318700,14.844318603515624,-0.37003132700920105,-0.37491825222969055,-0.12621992826461792
1710957705467278300,14.8632783203125,-0.2900080680847168,-0.36544984579086304,-0.14332415163516998
1710957705486237700,14.88223779296875,-0.35475972294807434,-0.31780239939689636,-0.1784488707780838
1710957705505197300,14.901197265625,-0.4699077308177948,-0.23961171507835388,-0.22090397775173187
1710957705524157000,14.920156982421876,-0.5343539714813232,-0.22769984602928162,-0.2771035432815552
1710957705543116500,14.939116455078125,-0.5826122760772705,-0.2176205813884735,-0.2908479869365692
1710957705562076000,14.958075927734376,-0.6595812439918518,-0.19685117900371552,-0.27435463666915894
1710957705581035500,14.977035400390625,-0.6892082095146179,-0.2136499583721161,-0.26396992802619934
1710957705599995100,14.9959951171875,-0.5838339924812317,-0.2545779049396515,-0.30489787459373474
1710957705618954500,15.01495458984375,-0.46227192878723145,-0.32940882444381714,-0.32414013147354126
1710957705637914000,15.0339140625,-0.3727802336215973,-0.4072940945625305,-0.2969566285610199
1710957705656873700,15.052873779296876,-0.27137666940689087,-0.39110618829727173,-0.23770275712013245
1710957705675833300,15.071833251953125,-0.16294817626476288,-0.14492766559123993,-0.09476039558649063
1710957705694792700,15.090792724609376,-0.1568395346403122,0.30283620953559875,0.14805835485458374
1710957705713752300,15.10975244140625,-0.21517711877822876,0.6159043908119202,0.3746891915798187
1710957705732712000,15.1287119140625,-0.22586725652217865,0.6400335431098938,0.5384009480476379
1710957705751671300,15.14767138671875,-0.22556181252002716,0.5664243698120117,0.6727911829948425
1710957705770631000,15.166630859375,-0.27168211340904236,0.3730856776237488,0.704861581325531
1710957705789590500,15.185590576171874,-0.3006981909275055,0.1568395346403122,0.6019308567047119
1710957705808550000,15.2045498046875,-0.3355174660682678,0.02519817277789116,0.5399280786514282
1710957705827509500,15.223509521484376,-0.41523534059524536,-0.33887723088264465,0.4324159026145935
1710957705846469000,15.24246923828125,-0.388051837682724,-0.6458367705345154,0.14805835485458374
1710957705865428500,15.261428466796875,-0.24999640882015228,-0.6693550944328308,0.02649625949561596
1710957705884388000,15.28038818359375,-0.15531237423419952,-0.5410735011100769,0.07658717036247253
1710957705903347700,15.29934765625,-0.10583232343196869,-0.3407098352909088,-0.054443322122097015
1710957705922307000,15.31830712890625,-0.07406735420227051,-0.08628465235233307,-0.17020219564437866
1710957705941266700,15.3372666015625,-0.064598947763443,0.16081015765666962,-0.18669554591178894
1710957705960226300,15.356226318359376,-0.03588830679655075,0.33948808908462524,-0.1326340138912201
1710957705979185700,15.375185546875,-0.03894263133406639,0.41706791520118713,-0.04283689334988594
1710957705998145300,15.394145263671875,-0.07070759683847427,0.30863943696022034,-0.041004300117492676
1710957706017105000,15.41310498046875,-0.0795651376247406,0.06734783947467804,-0.05352702736854553
1710957706036064500,15.432064453125,-0.03497200831770897,-0.1101083755493164,-0.034895651042461395
1710957706055023900,15.45102392578125,0.012675444595515728,-0.17394374310970306,-0.015042545273900032
1710957706073983200,15.469983154296875,0.021227551624178886,-0.17547090351581573,-0.0012980876490473747
1710957706092942800,15.48894287109375,0.0154243353754282,-0.11468986421823502,0.04451677203178406
1710957706111902500,15.50790234375,0.014202605932950974,-0.01359174121171236,0.08055779337882996
1710957706130862000,15.526862060546875,0.01206457894295454,0.08170316368341446,0.10499238222837448
1710957706149821400,15.545821533203124,0.02000582218170166,0.10461059212684631,0.09460768103599548
1710957706168781000,15.564781005859375,0.03894263133406639,0.12690715491771698,0.08452841639518738
1710957706187740400,15.583740478515624,0.08811724185943604,0.18035782873630524,0.07108938694000244
1710957706206700000,15.602699951171875,0.12140937149524689,0.21731515228748322,0.04329504072666168
1710957706225659400,15.621659423828126,0.1363755613565445,0.24174973368644714,0.05520690605044365
1710957706244619000,15.640618896484375,0.13881902396678925,0.2591593861579895,0.08177952468395233
1710957706263578600,15.65957861328125,0.13759729266166687,0.21914774179458618,0.0628427118062973
1710957706282538000,15.6785380859375,0.1467602699995041,0.19532401859760284,0.06131555140018463
1710957706301497600,15.69749755859375,0.17302745580673218,0.16814053058624268,0.08116865903139114
1710957706320457200,15.716457275390624,0.18646647036075592,0.14278964698314667,0.0836121141910553
1710957706339416600,15.73541650390625,0.18921536207199097,0.08323032408952713,0.07933606207370758
1710957706358376000,15.7543759765625,0.20723587274551392,0.05604684352874756,0.20822852849960327
1710957706377335600,15.77333544921875,0.23167046904563904,-0.015729768201708794,0.2213621288537979
1710957706396295200,15.792295166015625,0.22220206260681152,-0.08078686892986298,0.21372631192207336
1710957706415254500,15.811254638671874,0.20967933535575867,-0.16294817626476288,0.212504580616951
1710957706434214100,15.830214111328125,0.20509785413742065,-0.18524473905563354,0.19234605133533478
1710957706453173800,15.849173828125,0.23716825246810913,-0.16264274716377258,0.1712712198495865
1710957706472133000,15.868133056640625,0.2753472924232483,-0.1363755613565445,0.1251509189605713
1710957706491092700,15.8870927734375,0.29184064269065857,-0.1049160286784172,0.09124792367219925
1710957706510052000,15.906052001953125,0.27809619903564453,-0.0844520553946495,0.05154171586036682
1710957706529011700,15.92501171875,0.2756527364253998,-0.0591011680662632,0.03871355578303337
1710957706547971000,15.94397119140625,0.27809619903564453,-0.04199695214629173,0.06406444311141968
1710957706566930700,15.9629306640625,0.268627792596817,-0.0792597085237503,0.10865757614374161
1710957706585890000,15.98189013671875,0.23594652116298676,-0.17302745580673218,0.13125957548618317
1710957706604849700,16.000849609375,0.20173808932304382,-0.2851211428642273,0.1398116797208786
1710957706623809300,16.019809326171874,0.191964253783226,-0.35995206236839294,0.15416699647903442
1710957706642768600,16.0387685546875,0.20112723112106323,-0.40057456493377686,0.17524182796478271
1710957706661728300,16.057728271484375,0.21029019355773926,-0.4298960864543915,0.23846633732318878
1710957706680687600,16.0766875,0.22495095431804657,-0.4534143805503845,0.28153231739997864
1710957706699647000,16.09564697265625,0.2530507445335388,-0.4586067199707031,0.25037819147109985
1710957706718606600,16.114606689453126,0.2741255760192871,-0.4237874448299408,0.21036656200885773
1710957706737566200,16.133566162109375,0.24633121490478516,-0.35873034596443176,0.212504580616951
1710957706756525600,16.152525634765624,0.1922696828842163,-0.25641047954559326,0.25526511669158936
1710957706775485200,16.171485107421876,0.15928299725055695,-0.1727220118045807,0.212504580616951
1710957706794444500,16.190444580078125,0.15470150113105774,-0.09880737960338593,0.12270746380090714
1710957706813404200,16.209404052734374,0.15317434072494507,-0.011759147047996521,0.053374309092760086
1710957706832363800,16.22836376953125,0.14523309469223022,0.07712167501449585,-0.013820815831422806
1710957706851323100,16.2473232421875,0.12446369975805283,0.12110394239425659,-0.10239620506763458
1710957706870282500,16.266282470703125,0.10063996911048889,0.08903354406356812,-0.18028147518634796
1710957706889242000,16.2852421875,0.07528908550739288,0.07620538026094437,-0.2395353466272354
1710957706908201500,16.304201416015626,0.009315688163042068,0.10338886082172394,-0.29359689354896545
1710957706927161000,16.3231611328125,-0.07712167501449585,0.11988221108913422,-0.3116174042224884
1710957706946120700,16.34212060546875,-0.1302669197320938,0.1101083755493164,-0.3180314898490906
1710957706965080000,16.361080078125,-0.16478078067302704,0.0798705667257309,-0.39591673016548157
1710957706984039700,16.380039794921874,-0.19960007071495056,0.04108065739274025,-0.46860963106155396
1710957707002999000,16.3989990234375,-0.2438877671957016,0.039248060435056686,-0.5122864842414856
1710957707021958700,16.417958740234376,-0.30741769075393677,0.10063996911048889,-0.5727620720863342
1710957707040918000,16.43691796875,-0.40057456493377686,0.17363831400871277,-0.5858956575393677
1710957707059877600,16.455877685546874,-0.494647741317749,0.2503018379211426,-0.5764272809028625
1710957707078837000,16.4748369140625,-0.5554288029670715,0.3251327872276306,-0.6143009066581726
1710957707097796600,16.493796630859375,-0.5743656158447266,0.4143190383911133,-0.5935314893722534
1710957707116756000,16.512755859375,-0.6155989766120911,0.4298960864543915,-0.5205331444740295
1710957707135715600,16.531715576171877,-0.7108938694000244,0.34468045830726624,-0.4673879146575928
1710957707154675000,16.550675048828126,-0.7857248187065125,0.29764387011528015,-0.3525453209877014
1710957707173634600,16.569634521484375,-0.8040507435798645,0.24480405449867249,-0.21326816082000732
1710957707192594200,16.58859423828125,-0.7820596098899841,0.07040216773748398,-0.1989128440618515
1710957707211553500,16.607553466796876,-0.744491457939148,-0.12965604662895203,-0.2297615110874176
1710957707230513200,16.62651318359375,-0.718224287033081,-0.31230461597442627,-0.2395353466272354
1710957707249472500,16.645472412109374,-0.6788234710693359,-0.46257734298706055,-0.3274998664855957
1710957707268432000,16.664431884765627,-0.6409498453140259,-0.40088000893592834,-0.43226319551467896
1710957707287391500,16.6833916015625,-0.5056433081626892,-0.2380845546722412,-0.5092321634292603
1710957707306351000,16.70235107421875,-0.31352636218070984,-0.0062613640911877155,-0.4869355857372284
1710957707325310500,16.721310546875,-0.20479241013526917,0.4140135943889618,-0.4545597434043884
1710957707344270000,16.74027001953125,-0.15531237423419952,0.6953168511390686,-0.4618901312351227
1710957707363229400,16.7592294921875,-0.14981459081172943,0.8672752976417542,-0.4145480990409851
1710957707382189000,16.77818896484375,-0.15989385545253754,0.7860302329063416,-0.4618901312351227
1710957707401148700,16.797148681640625,-0.19562944769859314,0.5810851454734802,-0.4811323583126068
1710957707420108000,16.81610791015625,-0.2023489624261856,0.3410152494907379,-0.4160752594470978
1710957707439067400,16.8350673828125,-0.1776089370250702,0.1360701322555542,-0.32352927327156067
1710957707458027000,16.854027099609375,-0.1928805559873581,-0.04718930274248123,-0.23922991752624512
1710957707476986600,16.872986572265624,-0.2438877671957016,-0.15745039284229279,-0.19066616892814636
1710957707495946000,16.891946044921873,-0.2753472924232483,-0.14248420298099518,-0.16531528532505035
1710957707514905600,16.910905517578126,-0.2380845546722412,-0.07803797721862793,-0.12133301794528961
1710957707533865000,16.929864990234375,-0.20723587274551392,-0.06643154472112656,-0.046807512640953064
1710957707552824600,16.948824462890624,-0.2286161482334137,-0.19471314549446106,0.0005345066892914474
1710957707571784200,16.9677841796875,-0.2704603672027588,-0.4243983030319214,0.012751801870763302
1710957707590743600,16.98674365234375,-0.26771149039268494,-0.6128500699996948,0.000839939049910754
1710957707609703000,17.005702880859374,-0.2539670467376709,-0.6537780165672302,-0.04833467677235603
1710957707628662500,17.02466259765625,-0.28176137804985046,-0.5841394662857056,-0.09048434346914291
1710957707647622100,17.0436220703125,-0.3263545036315918,-0.44700029492378235,-0.06666062027215958
1710957707666581500,17.06258154296875,-0.32971426844596863,-0.26221370697021484,0.01977674663066864
1710957707685541000,17.081541015625,-0.3058905303478241,-0.07009673118591309,0.07231111824512482
1710957707704500700,17.100500732421875,-0.2854265570640564,0.07589995115995407,0.07047852128744125
1710957707723460000,17.119460205078123,-0.30833399295806885,0.13729186356067657,0.06620246917009354
1710957707742419700,17.138419677734376,-0.3663661479949951,0.054214250296354294,0.028328854590654373
1710957707761379000,17.157379150390625,-0.3724747896194458,-0.042913250625133514,0.04512763395905495
1710957707780338700,17.176338623046874,-0.3061959743499756,-0.10888664424419403,0.11873684078454971
1710957707799298000,17.195298095703127,-0.24113887548446655,-0.21090106666088104,0.1547778695821762
1710957707818257700,17.214257568359375,-0.2023489624261856,-0.25641047954559326,0.1505018174648285
1710957707837217300,17.23321728515625,-0.16997312009334564,-0.314748078584671,0.13278673589229584
1710957707856176600,17.2521767578125,-0.1571449637413025,-0.15928299725055695,0.13706278800964355
1710957707875136300,17.27113623046875,-0.14492766559123993,-0.06856957077980042,0.1712712198495865
1710957707894095600,17.290095703125,-0.13515383005142212,0.002901607658714056,0.20059272646903992
1710957707913055200,17.30905517578125,-0.11377356201410294,0.0850629210472107,0.2274707704782486
1710957707932014600,17.3280146484375,-0.1104138121008873,0.08536835014820099,0.21616977453231812
1710957707950974200,17.34697412109375,-0.16966769099235535,0.0383317656815052,0.1300378441810608
1710957707969933800,17.365933837890626,-0.2548833191394806,-0.09117157012224197,0.03627009689807892
1710957707988893200,17.38489306640625,-0.3104720115661621,-0.145843967795372,0.048792824149131775
1710957708007852800,17.403852783203124,-0.32330018281936646,-0.10125083476305008,0.07750347256660461
1710957708026812400,17.4228125,-0.3428478538990021,-0.03436114266514778,0.07628174126148224
1710957708045771800,17.441771728515626,-0.34926193952560425,0.0019853105768561363,0.09552398324012756
1710957708064731100,17.460731201171875,-0.3733910918235779,0.09789107739925385,0.17676898837089539
1710957708083690800,17.479690673828124,-0.3929387629032135,0.13912445306777954,0.23877176642417908
1710957708102650400,17.498650390625,-0.41157013177871704,0.14767655730247498,0.23480114340782166
1710957708121609700,17.517609619140625,-0.3816377818584442,0.10063996911048889,0.20975568890571594
1710957708140569300,17.5365693359375,-0.24694208800792694,0.1302669197320938,0.2067013680934906
1710957708159529000,17.555529052734375,-0.10277800261974335,0.14828743040561676,0.1761581301689148
1710957708178488300,17.57448828125,-0.08292489498853683,0.1000291109085083,0.1349247545003891
1710957708197448000,17.593447998046877,-0.09453132748603821,0.04321868345141411,0.093691386282444
1710957708216407300,17.6124072265625,-0.06520981341600418,0.006872228812426329,0.08086322247982025
1710957708235367000,17.631366943359374,-0.04046979174017906,-0.05085449293255806,0.06742420047521591
1710957708254326500,17.650326416015623,0.001679878099821508,-0.3874409794807434,0.0371863916516304
1710957708273286100,17.6692861328125,0.04169152304530144,-0.9308052062988281,0.02802342176437378
1710957708292245500,17.68824560546875,0.14004075527191162,-1.0279327630996704,0.09613484144210815
1710957708311205000,17.707205078125,0.1974620372056961,-0.8394809365272522,0.18348850309848785
1710957708330164500,17.72616455078125,0.08384118974208832,-0.539851725101471,0.24701844155788422
1710957708349124000,17.7451240234375,-0.06582067906856537,-0.3156643807888031,0.2430478185415268
1710957708368083700,17.764083740234376,-0.1311832070350647,-0.21517711877822876,0.23632831871509552
1710957708387043000,17.78304296875,-0.09972367435693741,-0.1715002804994583,0.2070067971944809
1710957708406002700,17.802002685546874,-0.017562363296747208,-0.1663079410791397,0.13217586278915405
1710957708424962300,17.82096240234375,0.0487164668738842,-0.17547090351581573,0.05673406645655632
1710957708443921700,17.839921630859376,0.06643154472112656,-0.11866047978401184,0.005421424750238657
1710957708462881300,17.85888134765625,0.07895427197217941,-0.06337722390890121,-0.07948877662420273
1710957708481840600,17.877840576171874,0.12171480804681778,-0.04505127668380737,-0.1735619604587555
1710957708500800300,17.89680029296875,0.15347976982593536,-0.007788525894284248,-0.19494222104549408
1710957708519760000,17.915759765625,0.1455385386943817,0.018173227086663246,-0.1534034162759781
1710957708538719500,17.934719482421876,0.12751802802085876,0.017562363296747208,-0.14546217024326324
1710957708557678800,17.953678955078125,0.1204930767416954,-0.023365577682852745,-0.1937204897403717
1710957708576638500,17.972638427734374,0.1049160286784172,-0.1207985132932663,-0.24167338013648987
1710957708595597800,17.991597900390627,0.0951421856880188,-0.15012001991271973,-0.22762349247932434
1710957708614557400,18.010557373046876,0.0795651376247406,-0.10980294644832611,-0.24839289486408234
1710957708633517000,18.02951708984375,0.06368265300989151,-0.027030766010284424,-0.28962627053260803
1710957708652476700,18.0484765625,0.08017600327730179,0.13240493834018707,-0.3171151876449585
1710957708671436000,18.06743603515625,0.08292489498853683,0.29275694489479065,-0.28321218490600586
1710957708690395600,18.086395751953123,0.04932733252644539,0.3165806829929352,-0.27313292026519775
1710957708709355000,18.10535498046875,0.08139773458242416,0.21120649576187134,-0.2917642891407013
1710957708728314600,18.124314697265625,0.1363755613565445,0.2393062710762024,-0.261526495218277
1710957708747274200,18.143274169921874,0.21609342098236084,0.017867794260382652,-0.33085963129997253
1710957708766233900,18.16223388671875,0.27107125520706177,0.07528908550739288,-0.26366451382637024
1710957708785193200,18.181193115234375,0.24022257328033447,0.21120649576187134,-0.20746494829654694
1710957708804152800,18.20015283203125,0.22250749170780182,0.15592323243618011,-0.16592614352703094
1710957708823112200,18.2191123046875,0.19532401859760284,0.2683223485946655,0.044211339205503464
1710957708842071800,18.23807177734375,0.08689551800489426,0.2698495090007782,0.10621411353349686
1710957708861031400,18.257031494140627,-0.05513054504990578,0.16905683279037476,0.13309216499328613
1710957708879991000,18.275990966796876,-0.054214250296354294,-0.005039634648710489,0.10071633011102676
1710957708898950700,18.29495068359375,0.018173227086663246,-0.16966769099235535,0.06956222653388977
1710957708917910000,18.313909912109374,0.04780016839504242,-0.23075416684150696,0.09491311758756638
1710957708936869600,18.33286962890625,0.037720900028944016,-0.13545925915241241,0.14805835485458374
1710957708955829000,18.3518291015625,-0.002290742937475443,0.008704823441803455,0.19295690953731537
1710957708974788600,18.37078857421875,-0.028863361105322838,0.2124282270669937,0.26534438133239746
1710957708993748200,18.389748291015625,-0.08170316368341446,0.33490660786628723,0.2977202236652374
1710957709012707800,18.408707763671874,-0.09330959618091583,0.2735147178173065,0.2903898358345032
1710957709031667200,18.427667236328126,-0.07620538026094437,0.14431680738925934,0.2543488144874573
1710957709050626800,18.446626708984375,-0.10399972647428513,0.0435241162776947,0.19784383475780487
1710957709069586400,18.46558642578125,-0.11621702462434769,0.011148282326757908,0.13706278800964355
1710957709088545800,18.4845458984375,-0.13454297184944153,0.01206457894295454,0.1352301836013794
1710957709107505400,18.50350537109375,-0.1623373180627823,0.11346813291311264,0.15355613827705383
1710957709126465000,18.522465087890627,-0.17333288490772247,0.19074252247810364,0.15233440697193146
1710957709145424400,18.54142431640625,-0.19624030590057373,0.14767655730247498,0.0939968153834343
1710957709164384000,18.560384033203125,-0.21487168967723846,-0.01206457894295454,0.015806125476956367
1710957709183343600,18.579343505859374,-0.22250749170780182,-0.1204930767416954,0.023136503994464874
1710957709202303200,18.59830322265625,-0.22983787953853607,-0.16905683279037476,0.010613775812089443
1710957709221262600,18.6172626953125,-0.29703301191329956,-0.14431680738925934,-0.06482802331447601
1710957709240222200,18.63622216796875,-0.3871355652809143,0.009010255336761475,-0.08529199659824371
1710957709259181600,18.655181640625,-0.3969093859195709,-0.03497200831770897,-0.12774710357189178
1710957709278141200,18.67414111328125,-0.30344706773757935,-0.02306014485657215,-0.055970486253499985
1710957709297100800,18.693100830078127,-0.24480405449867249,0.18402300775051117,-0.08987347781658173
1710957709316060400,18.712060302734375,-0.17394374310970306,0.141262486577034,-0.18211406469345093
1710957709335020000,18.73102001953125,-0.13484840095043182,0.12446369975805283,-0.12041672319173813
1710957709353979400,18.7499794921875,-0.058795735239982605,0.16508620977401733,-0.08987347781658173
1710957709372939000,18.76893896484375,0.06887500733137131,0.1519526094198227,-0.015958841890096664
1710957709391898400,18.7878984375,0.16294817626476288,0.029474224895238876,0.047265663743019104
1710957709410858000,18.80685791015625,0.23686282336711884,-0.15928299725055695,0.12209659814834595
1710957709429817600,18.825817626953125,0.28848087787628174,-0.3116937577724457,0.26656612753868103
1710957709448777200,18.844777099609374,0.3358229100704193,-0.4427242577075958,0.38965538144111633
1710957709467736600,18.863736572265626,0.42562004923820496,-0.5264127254486084,0.46173742413520813
1710957709486696200,18.8826962890625,0.5752819180488586,-0.6030762791633606,0.4953349828720093
1710957709505655800,18.90165576171875,0.6809614896774292,-0.6922625303268433,0.4733438491821289
1710957709524615200,18.920615234375,0.7041743993759155,-0.7099775671958923,0.44096800684928894
1710957709543574800,18.93957470703125,0.7218894362449646,-0.6397281289100647,0.43455392122268677
1710957709562534400,18.958534423828127,0.7744238376617432,-0.48792824149131775,0.44463321566581726
1710957709581493800,18.97749365234375,0.8666644096374512,-0.27717989683151245,0.4159225523471832
1710957709600453400,18.996453369140625,0.9182825088500977,-0.055741410702466965,0.33773186802864075
1710957709619413000,19.0154130859375,0.9155336022377014,0.16752967238426208,0.29191699624061584
1710957709638372400,19.034372314453126,0.9772309064865112,0.31780239939689636,0.23663374781608582
1710957709657332000,19.05333203125,1.1155917644500732,0.09819651395082474,0.129426971077919
1710957709676291600,19.07229150390625,1.0374010801315308,0.0334448479115963,0.026190826669335365
1710957709695251000,19.0912509765625,0.9592103958129883,0.11255183815956116,-0.026343543082475662
1710957709714210600,19.11021044921875,0.8773545622825623,0.06062832847237587,-0.10056361556053162
1710957709733170200,19.129170166015626,0.753654420375824,0.07376192510128021,-0.15859577059745789
1710957709752129800,19.1481298828125,0.6580541133880615,0.20418155193328857,-0.18028147518634796
1710957709771089200,19.167089111328124,0.541989803314209,0.3116937577724457,-0.17172935605049133
1710957709790048800,19.186048828125,0.41584619879722595,0.27779075503349304,-0.28351762890815735
1710957709809008000,19.205008056640626,0.3107774555683136,0.07192932814359665,-0.33941173553466797
1710957709827967700,19.2239677734375,0.27748534083366394,-0.1925751268863678,-0.3901135325431824
1710957709846927400,19.24292724609375,0.30833399295806885,-0.3782780170440674,-0.44845110177993774
1710957709865887000,19.261886962890625,0.3318522870540619,-0.34437501430511475,-0.44814568758010864
1710957709884846300,19.280846435546874,0.18463388085365295,-0.18585561215877533,-0.43684467673301697
1710957709903806000,19.299805908203126,-0.030390523374080658,-0.029474224895238876,-0.4298197329044342
1710957709922765300,19.318765380859375,-0.18646647036075592,0.028863361105322838,-0.38614290952682495
1710957709941725000,19.337724853515624,-0.1366809904575348,0.07223475724458694,-0.33483025431632996
1710957709960684500,19.3566845703125,0.009315688163042068,0.06704241037368774,-0.31986406445503235
1710957709979644000,19.375643798828126,0.05024362727999687,0.11102467030286789,-0.2816850244998932
1710957709998603500,19.394603515625,0.016035201027989388,0.2542724609375,-0.1983019858598709
1710957710017563100,19.413563232421875,-0.04199695214629173,0.2838993966579437,-0.15493057668209076
1710957710036522500,19.4325224609375,0.056657709181308746,0.1977674663066864,-0.08559742569923401
1710957710055482000,19.451482177734373,0.06704241037368774,0.5575668215751648,0.2277761995792389
1710957710074441500,19.47044140625,-0.06765327602624893,0.6363683938980103,0.2528216540813446
1710957710093401000,19.489401123046875,-0.030695954337716103,0.45677414536476135,0.1508072465658188
1710957710112360700,19.508360595703124,-0.09330959618091583,0.2948949635028839,0.124845489859581
1710957710131320300,19.5273203125,-0.07681624591350555,-0.02519817277789116,-0.0077121676877141
1710957710150279700,19.54627978515625,0.017256930470466614,-0.20937390625476837,-0.1576794683933258
1710957710169239300,19.5652392578125,0.005345067009329796,-0.18646647036075592,-0.21326816082000732
1710957710188198700,19.58419873046875,-0.0062613640911877155,0.03283398225903511,-0.1735619604587555
1710957710207158300,19.603158203125,0.0062613640911877155,0.24022257328033447,-0.12713623046875
1710957710226118000,19.622117919921877,0.09269873052835464,0.3217730224132538,-0.07765618711709976
1710957710245077200,19.6410771484375,0.10216713696718216,0.3013090491294861,-0.08009964227676392
1710957710264036900,19.660036865234375,-0.022754713892936707,0.1663079410791397,-0.17661628127098083
1710957710282996500,19.67899658203125,-0.12782345712184906,0.05818486958742142,-0.3336085379123688
1710957710301955800,19.697955810546876,-0.2124282270669937,0.051159925758838654,-0.43715012073516846
1710957710320915200,19.716915283203125,-0.3578140437602997,0.06551524996757507,-0.41179922223091125
1710957710339874800,19.735874755859374,-0.4637990891933441,0.047494735568761826,-0.33421939611434937
1710957710358834400,19.75483447265625,-0.40546149015426636,-0.049632761627435684,-0.3070359230041504
1710957710377793800,19.773793701171876,-0.3355174660682678,-0.2338084876537323,-0.2596938908100128
1710957710396753400,19.79275341796875,-0.34498587250709534,-0.39049530029296875,-0.23770275712013245
1710957710415713000,19.811713134765625,-0.34865108132362366,-0.1974620372056961,-0.11003202199935913
1710957710434672400,19.83067236328125,-0.3251327872276306,0.2854265570640564,0.1703549176454544
1710957710453632000,19.849632080078123,-0.26618432998657227,0.6125446557998657,0.5103011727333069
1710957710472591400,19.86859130859375,-0.1663079410791397,0.5954404473304749,0.6672934293746948
1710957710491551000,19.887551025390625,-0.023365577682852745,0.35995206236839294,0.6049851775169373
1710957710510510300,19.90651025390625,0.06276635825634003,0.1357647031545639,0.5726093649864197
1710957710529470000,19.925469970703126,0.13454297184944153,0.049021899700164795,0.49258607625961304
1710957710548429600,19.9444296875,0.12690715491771698,0.2854265570640564,0.38324129581451416
1710957710567389000,19.963388916015624,0.1366809904575348,0.35475972294807434,0.28214317560195923
1710957710586348500,19.9823486328125,0.346513032913208,0.24694208800792694,0.2836703360080719
1710957710605308000,20.001307861328126,0.4298960864543915,0.4140135943889618,0.3759109079837799
1710957710624267500,20.020267578125,0.41584619879722595,0.514195442199707,0.42019861936569214
1710957710643227000,20.039226806640624,0.4384481906890869,0.4326449930667877,0.4941132366657257
1710957710662186500,20.0581865234375,0.47845983505249023,0.3214675784111023,0.6138427257537842
1710957710681145900,20.077145751953125,0.5083922147750854,0.22036947309970856,0.7488438487052917
1710957710700105500,20.09610546875,0.5456549525260925,0.16905683279037476,0.7445678114891052
1710957710719065000,20.115065185546875,0.5917752385139465,0.05543597787618637,0.6926442980766296
1710957710738024400,20.1340244140625,0.5694786906242371,-0.03436114266514778,0.6581304669380188
1710957710756984000,20.152984130859377,0.5303833484649658,0.10980294644832611,0.6514109373092651
1710957710775943400,20.171943359375,0.5083922147750854,0.41645705699920654,0.5603920817375183
1710957710794903000,20.190903076171875,0.3767508566379547,0.6058251261711121,0.40431612730026245
1710957710813862400,20.2098623046875,0.18616104125976562,0.755181610584259,0.2018144577741623
1710957710832822000,20.228822021484376,-0.049021899700164795,0.8810197114944458,-0.04192059487104416
1710957710851781400,20.247781494140625,-0.19074252247810364,0.8718567490577698,-0.3000109791755676
1710957710870741000,20.266740966796874,-0.23136503994464874,1.1769837141036987,-0.4863247275352478
1710957710889700400,20.285700439453127,-0.32360562682151794,1.5709915161132812,-0.7230347990989685
1710957710908660000,20.304659912109376,-0.513279139995575,1.753334641456604,-1.0076978206634521
1710957710927619300,20.323619384765625,-0.6006327867507935,1.8883357048034668,-1.3146573305130005
1710957710946579000,20.342578857421874,-0.42103853821754456,2.002872943878174,-1.543426275253296
1710957710965538600,20.36153857421875,-0.18982623517513275,1.6256638765335083,-1.6045126914978027
1710957710984498000,20.380497802734375,-0.249690979719162,0.8571959733963013,-1.4081196784973145
1710957711003457300,20.399457275390624,-0.42745262384414673,-0.11713331937789917,-1.3183225393295288
1710957711022417000,20.4184169921875,-0.13973531126976013,-0.8324559926986694,-1.4527127742767334
1710957711041376300,20.437376220703126,0.14737112820148468,-0.7716749310493469,-1.338175654411316
1710957711060335900,20.4563359375,0.30253079533576965,-0.10888664424419403,-1.1952333450317383
1710957711079295200,20.475295166015623,0.4124864339828491,0.24480405449867249,-1.3357322216033936
1710957711098254800,20.4942548828125,0.4970912039279938,0.2900080680847168,-1.569998860359192
1710957711117214200,20.513214111328125,0.5838339924812317,0.19349141418933868,-1.7389029264450073
1710957711136173800,20.532173828125,0.541378915309906,-0.3474293351173401,-1.8406119346618652
1710957711155133200,20.55113330078125,0.5438223481178284,-0.33307403326034546,-1.8589378595352173
1710957711174092800,20.5700927734375,0.6534726023674011,0.021227551624178886,-1.9334633350372314
1710957711193052200,20.58905224609375,0.5429060459136963,-0.04718930274248123,-1.9520947933197021
1710957711212011800,20.60801171875,0.2545779049396515,-0.1672242283821106,-1.8616868257522583
1710957711230971100,20.62697119140625,0.07070759683847427,-0.0948367565870285,-1.8244240283966064
1710957711249930800,20.6459306640625,-0.039248060435056686,-0.16355904936790466,-1.6145919561386108
1710957711268890000,20.66489013671875,-0.23564109206199646,-0.5490147471427917,-1.403843641281128
1710957711287849500,20.683849365234376,-0.5422952175140381,-1.0728312730789185,-1.3057998418807983
1710957711306809000,20.70280908203125,-0.6717985272407532,-1.0819942951202393,-1.300912857055664
1710957711325768400,20.7217685546875,-0.8578068614006042,-0.7096721529960632,-1.2480731010437012
1710957711344728000,20.74072802734375,-0.9995275139808655,-0.6669116020202637,-1.2043962478637695
1710957711363687400,20.7596875,-1.1559088230133057,-0.6296488642692566,-1.2242493629455566
1710957711382647000,20.77864697265625,-1.3458877801895142,-0.550541877746582,-1.2554035186767578
1710957711401606400,20.7976064453125,-1.576183795928955,-0.4842630624771118,-1.3024400472640991
1710957711420566000,20.81656591796875,-1.7386739253997803,-0.3822486400604248,-1.2819761037826538
1710957711439525400,20.835525390625,-1.8642065525054932,-0.3407098352909088,-1.2633447647094727
1710957711458485000,20.854485107421876,-1.9918773174285889,-0.2802342176437378,-1.318933367729187
1710957711477444400,20.8734443359375,-2.0694570541381836,-0.2961167097091675,-1.2554035186767578
1710957711496404000,20.892404052734374,-2.0914483070373535,-0.41462448239326477,-1.0214422941207886
1710957711515363300,20.91136328125,-2.01692271232605,-0.5270236134529114,-0.8061124086380005
1710957711534322700,20.93032275390625,-2.037692070007324,-0.7799215912818909,-0.6839394569396973
1710957711553282300,20.9492822265625,-2.1387903690338135,-1.0056360960006714,-0.5932260751724243
1710957711572241700,20.96824169921875,-2.132376194000244,-1.012661099433899,-0.48876819014549255
1710957711591201300,20.987201171875,-2.0529637336730957,-0.8370374441146851,-0.42126762866973877
1710957711610160600,21.00616064453125,-1.9799654483795166,-0.9729548692703247,-0.3210858106613159
1710957711629120000,21.0251201171875,-1.9482004642486572,-1.1207841634750366,-0.36567893624305725
1710957711648079600,21.04407958984375,-1.8022037744522095,-1.0813833475112915,-0.4759400188922882
1710957711667039000,21.0630390625,-1.6555962562561035,-0.9048434495925903,-0.5419133901596069
1710957711685998300,21.081998291015626,-1.640019178390503,-0.7936660647392273,-0.4652498960494995
1710957711704958000,21.1009580078125,-1.6543744802474976,-0.6904299259185791,-0.5183951258659363
1710957711723917300,21.119917236328124,-1.8657337427139282,-0.5539016127586365,-0.8085559010505676
1710957711742877000,21.138876953125,-2.0715951919555664,-0.5404626131057739,-0.746858537197113
1710957711761836300,21.157836181640626,-2.0080652236938477,-0.471129447221756,-0.49273881316185
1710957711780796000,21.1767958984375,-1.9747731685638428,-0.3767508566379547,-0.43776097893714905
1710957711799755300,21.19575537109375,-1.957363486289978,-0.3104720115661621,-0.4802160859107971
1710957711818714600,21.214714599609376,-1.9353723526000977,-0.1409570425748825,-0.49915286898612976
1710957711837674200,21.23367431640625,-1.8516838550567627,0.017256930470466614,-0.32994332909584045
1710957711856633600,21.252633544921874,-1.751807451248169,0.11957678198814392,-0.17050762474536896
1710957711875593200,21.27159326171875,-1.5413645505905151,0.10430516302585602,-0.07246383279561996
1710957711894552600,21.290552490234376,-1.419497013092041,0.08109229803085327,-0.16103923320770264
1710957711913512200,21.30951220703125,-1.3825397491455078,-0.014202605932950974,-0.11827868968248367
1710957711932471600,21.328471435546874,-1.170875072479248,0.08323032408952713,0.06589704006910324
1710957711951431000,21.347430908203126,-0.8483384847640991,0.28787001967430115,0.13553562760353088
1710957711970390500,21.366390625,-0.8119919896125793,0.3627009689807892,0.07903063297271729
1710957711989350000,21.385349853515624,-0.7832813858985901,0.3303251266479492,0.08147408813238144
1710957712008309500,21.4043095703125,-0.8819360136985779,0.4143190383911133,-0.06910407543182373
1710957712027268900,21.423268798828126,-1.1220059394836426,0.18677189946174622,-0.010766491293907166
1710957712046228200,21.442228271484375,-1.3290890455245972,0.31871870160102844,0.10285435616970062
1710957712065187800,21.461187744140624,-1.4048362970352173,0.7154753804206848,0.09582941234111786
1710957712084147200,21.480147216796876,-1.3993384838104248,0.8046616315841675,0.10193806141614914
1710957712103106600,21.4991064453125,-1.353829026222229,0.7426588535308838,0.12056943774223328
1710957712122066200,21.518066162109374,-1.30923593044281,0.7020363211631775,0.170965775847435
1710957712141025500,21.537025634765627,-1.3251184225082397,0.5471821427345276,0.21555891633033752
1710957712159985200,21.555985107421876,-1.3364194631576538,0.5086976289749146,0.28092142939567566
1710957712178944500,21.574944580078125,-1.195920467376709,0.6562215089797974,0.2949713170528412
1710957712197904000,21.59390380859375,-0.930499792098999,0.6769908666610718,0.3447568118572235
1710957712216863500,21.612863525390626,-0.6934842467308044,0.6140718460083008,0.4134790897369385
1710957712235822800,21.63182275390625,-0.6116283535957336,0.531605064868927,0.428139865398407
1710957712254782500,21.650782470703124,-0.5523744821548462,0.4860956370830536,0.40004006028175354
1710957712273741800,21.669741943359377,-0.4030180275440216,0.3938550651073456,0.2992473840713501
1710957712292701400,21.688701416015626,-0.22617268562316895,0.3584249019622803,0.19998185336589813
1710957712311660800,21.707660888671874,-0.14492766559123993,0.3400989770889282,0.036880962550640106
1710957712330620200,21.7266201171875,-0.16752967238426208,0.2695440948009491,-0.06727148592472076
1710957712349579800,21.745579833984376,-0.13179408013820648,0.30375251173973083,-0.22059854865074158
1710957712368539100,21.7645390625,0.014813470654189587,0.2851211428642273,-0.4408152997493744
1710957712387498800,21.783498779296874,0.11713331937789917,0.020922118797898293,-0.7178424596786499
1710957712406458000,21.8024580078125,0.19135339558124542,-0.35445427894592285,-0.9560797214508057
1710957712425417700,21.821417724609375,0.2845102846622467,-0.4995346665382385,-0.9747111201286316
1710957712444377000,21.840377197265624,0.38072147965431213,-0.402407169342041,-0.8565087914466858
1710957712463336400,21.85933642578125,0.5056433081626892,-0.34834563732147217,-0.7071523666381836
1710957712482296000,21.878296142578126,0.5841394662857056,-0.2536616027355194,-0.5941423773765564
1710957712501255400,21.89725537109375,0.6259836554527283,-0.09392046183347702,-0.5645154118537903
1710957712520214800,21.91621484375,0.5960513353347778,-0.02519817277789116,-0.5831468105316162
1710957712539174400,21.93517431640625,0.5975784659385681,-0.09605848789215088,-0.5581013560295105
1710957712558133800,21.9541337890625,0.6400335431098938,-0.07498364895582199,-0.5492438077926636
1710957712577093400,21.97309326171875,0.6495019793510437,0.04810560122132301,-0.5807033181190491
1710957712596052700,21.992052734375,0.6931788325309753,0.1824958473443985,-0.5941423773765564
1710957712615012400,22.011012451171876,0.716086208820343,0.1773035079240799,-0.5379427671432495
1710957712633971700,22.0299716796875,0.70753413438797,0.1256854236125946,-0.4298197329044342
1710957712652931300,22.048931396484374,0.6727148294448853,0.16294817626476288,-0.42859798669815063
1710957712671890700,22.067890625,0.607046902179718,0.21151192486286163,-0.48296496272087097
1710957712690850300,22.086850341796875,0.5826122760772705,0.38499751687049866,-0.5128973126411438
1710957712709809700,22.1058095703125,0.5273290276527405,0.4610501825809479,-0.516257107257843
1710957712728769300,22.124769287109373,0.502894401550293,0.45677414536476135,-0.47929978370666504
1710957712747728600,22.143728759765626,0.41034841537475586,0.4805978536605835,-0.5052615404129028
1710957712766688300,22.162688232421875,0.25274530053138733,0.5441278219223022,-0.6656135320663452
1710957712785647600,22.181647705078124,0.13912445306777954,0.46227192878723145,-0.7288380265235901
1710957712804607000,22.20060693359375,0.12354740500450134,0.3614792227745056,-0.6372083425521851
1710957712823566600,22.219566650390625,0.1773035079240799,0.3303251266479492,-0.44234246015548706
1710957712842526000,22.23852587890625,0.29184064269065857,0.3556760251522064,-0.37545275688171387
1710957712861485600,22.257485595703123,0.27320927381515503,0.40118545293807983,-0.35529422760009766
1710957712880445000,22.27644482421875,0.21456626057624817,0.25610506534576416,-0.25358524918556213
1710957712899404500,22.295404541015625,0.15042544901371002,-0.0102319847792387,-0.09964732080698013
1710957712918364000,22.314364013671874,0.1815795600414276,-0.10613775253295898,0.03168861195445061
1710957712937323500,22.333323486328126,0.3269653618335724,0.011759147047996521,0.16852232813835144
1710957712956283000,22.352282958984375,0.36453354358673096,0.18982623517513275,0.2632063627243042
1710957712975242500,22.371242431640624,0.3614792227745056,0.09086613357067108,0.3249036967754364
1710957712994201900,22.390201904296877,0.28787001967430115,-0.1510363221168518,0.3765217661857605
1710957713013161500,22.409161376953126,0.17791436612606049,-0.09056070446968079,0.40004006028175354
1710957713032120800,22.428120849609375,0.020922118797898293,0.08689551800489426,0.4134790897369385
1710957713051080400,22.44708056640625,-0.004428769461810589,0.10919208079576492,0.5051088333129883
1710957713070039800,22.466039794921876,0.12263110280036926,0.03130681812763214,0.4272235631942749
1710957713088999400,22.48499951171875,0.052076224237680435,-0.15806126594543457,0.22624903917312622
1710957713107958800,22.503958740234374,-0.1971566081047058,-0.301003634929657,0.1251509189605713
1710957713126918400,22.52291845703125,-0.29336780309677124,-0.16386447846889496,0.08666644245386124
1710957713145877800,22.541877685546876,-0.3110828995704651,-0.027947064489126205,-0.08681915700435638
1710957713164837400,22.56083740234375,-0.31871870160102844,-0.13271036744117737,-0.18455752730369568
1710957713183796700,22.579796630859374,-0.2698495090007782,-0.22495095431804657,-0.2044106274843216
1710957713202756400,22.59875634765625,-0.1314886510372162,-0.09972367435693741,-0.22609633207321167
1710957713221716000,22.617716064453123,0.028863361105322838,-0.0038179049734026194,-0.24411684274673462
1710957713240675300,22.63667529296875,0.05940660089254379,-0.08139773458242416,-0.24136795103549957
1710957713259634700,22.655634765625,0.07773254066705704,-0.08872810751199722,-0.22151483595371246
1710957713278594300,22.67459423828125,0.22525638341903687,0.06704241037368774,-0.2871828079223633
1710957713297553700,22.6935537109375,0.35384342074394226,0.23777911067008972,-0.3950004279613495
1710957713316513300,22.71251318359375,0.41462448239326477,0.20387612283229828,-0.36201372742652893
1710957713335473000,22.731472900390624,0.47235119342803955,0.12293653935194016,-0.28870996832847595
1710957713354432300,22.750432373046873,0.46838057041168213,0.09758564829826355,-0.2505309283733368
1710957713373392000,22.769391845703126,0.3718639314174652,0.1879936307668686,-0.2920697331428528
1710957713392351200,22.788351318359375,0.281455934047699,0.20998476445674896,-0.41118836402893066
1710957713411310800,22.807310791015624,0.07284562289714813,-0.009621120058000088,-0.42340564727783203
1710957713430270200,22.826270263671876,0.08872810751199722,-0.08384118974208832,-0.4658607542514801
1710957713449229800,22.845229736328125,0.12690715491771698,0.10461059212684631,-0.4951822757720947
1710957713468189200,22.864189208984374,0.08139773458242416,0.21700970828533173,-0.42615455389022827
1710957713487148800,22.883148681640623,0.1409570425748825,0.01206457894295454,-0.30245441198349
1710957713506108400,22.9021083984375,0.20570871233940125,-0.003512472379952669,-0.2502254843711853
1710957713525067800,22.92106787109375,0.2292270064353943,0.2942841053009033,-0.20349432528018951
1710957713544027400,22.94002734375,0.1928805559873581,0.3220784664154053,-0.12072215229272842
1710957713562987000,22.958987060546875,0.10827577859163284,0.26679518818855286,-0.12927426397800446
1710957713581946400,22.9779462890625,0.04474584385752678,0.2637408673763275,-0.11369720846414566
1710957713600905700,22.99690576171875,0.018784092739224434,0.21945317089557648,-0.06268999725580215
1710957713619865300,23.015865234375,0.0062613640911877155,0.07651081681251526,-0.04864010959863663
1710957713638825000,23.034824951171874,-0.02916879393160343,-0.020311253145337105,-0.03428478538990021
1710957713657784300,23.053784423828127,0.034666575491428375,-0.02825249545276165,-0.023594651371240616
1710957713676744000,23.072743896484376,0.14920371770858765,0.03558287397027016,0.053985174745321274
1710957713695703600,23.09170361328125,0.11682789027690887,-0.08078686892986298,0.20578506588935852
1710957713714663000,23.110662841796874,-0.004734201822429895,-0.17638720571994781,0.2677878439426422
1710957713733622500,23.12962255859375,-0.07864884287118912,-0.03558287397027016,0.24121522903442383
1710957713752582000,23.148581787109375,0.02519817277789116,0.028863361105322838,0.20425790548324585
1710957713771541500,23.16754150390625,0.08048143237829208,-0.1302669197320938,0.1813504844903946
1710957713790501000,23.186501220703125,0.10338886082172394,-0.29275694489479065,0.08513928204774857
1710957713809460500,23.20546044921875,0.024892739951610565,-0.4243983030319214,0.03840812295675278
