time,seconds_elapsed,z,y,x
1711551350994271700,0.115271728515625,-0.011606430634856224,-0.06994401663541794,-0.014660755172371864
1711551351013232000,0.134232177734375,-0.002443459117785096,-0.08643736690282822,-0.016187917441129684
1711551351032192500,0.153192626953125,0.0015271619195118546,-0.07483093440532684,-0.018631376326084137
1711551351051152600,0.172152587890625,-0.0015271619195118546,-0.038789913058280945,-0.017715077847242355
1711551351070113000,0.191113037109375,0,0.0021380267571657896,-0.020158538594841957
1711551351089073200,0.2100732421875,-0.001221729558892548,0.04214967042207718,-0.019242240116000175
1711551351108033500,0.229033447265625,-0.003665188793092966,0.054672397673130035,-0.014966187067329884
1711551351126993700,0.24799365234375,-0.003665188793092966,0.0461202897131443,-0.01435532234609127
1711551351145954000,0.2669541015625,0.000305432389723137,0.025350889191031456,-0.014660755172371864
1711551351164914400,0.28591455078125,0.003359756199643016,0.009773836471140385,-0.013439024798572063
1711551351183874600,0.30487451171875,0.002443459117785096,-0.005192350596189499,-0.011911863461136818
1711551351202835000,0.3238349609375,-0.003665188793092966,-0.010384701192378998,-0.005803215317428112
1711551351221795000,0.342795166015625,-0.004886918235570192,-0.018325943499803543,-0.005192350596189499
1711551351240755500,0.36175537109375,-0.001221729558892548,-0.036651886999607086,-0.006108647678047419
1711551351259715600,0.380715576171875,0.0030543238390237093,-0.046425722539424896,-0.006108647678047419
1711551351278676000,0.399676025390625,0.0015271619195118546,-0.047036588191986084,-0.006108647678047419
1711551351297636000,0.418635986328125,-0.0009162971982732415,-0.043371398001909256,-0.007635809946805239
1711551351316596500,0.437596435546875,0.001221729558892548,-0.04428769648075104,-0.007024944759905338
1711551351335556600,0.456556640625,-0.0015271619195118546,-0.04764745384454727,-0.000610864779446274
1711551351354517000,0.47551708984375,-0.001221729558892548,-0.05864302068948746,-0.0009162971982732415
1711551351373477000,0.49447705078125,-0.003359756199643016,-0.07055488228797913,-0.003359756199643016
1711551351392437500,0.5134375,-0.006108647678047419,-0.0821613147854805,-0.004276053514331579
1711551351411397600,0.532397705078125,-0.008246674202382565,-0.07391463965177536,-0.007024944759905338
1711551351430358000,0.55135791015625,-0.00946840364485979,-0.0717766135931015,0
1711551351449318100,0.570318115234375,-0.011606430634856224,-0.08032871782779694,0.0054977829568088055
1711551351468278500,0.589278564453125,-0.012217295356094837,-0.09040798991918564,0.001832594396546483
1711551351487239000,0.608239013671875,-0.0204639695584774,-0.08949168771505356,0.006108647678047419
1711551351506199000,0.627198974609375,-0.018631376326084137,-0.09957095980644226,0.007330377586185932
1711551351525159400,0.646159423828125,-0.007330377586185932,-0.11881320178508759,0.010384701192378998
1711551351544119600,0.66511962890625,-0.013133592903614044,-0.15027274191379547,0.006414080038666725
1711551351563080000,0.684079833984375,-0.034208428114652634,-0.1438586562871933,0.006108647678047419
1711551351582040000,0.7030400390625,-0.0412333719432354,-0.14477495849132538,0.020769402384757996
1711551351601000400,0.72200048828125,-0.029626941308379173,-0.14996729791164398,0.022296564653515816
1711551351619960600,0.740960693359375,-0.013133592903614044,-0.1792888194322586,0.01740964688360691
1711551351638921000,0.7599208984375,-0.004581485874950886,-0.23212862014770508,0.011606430634856224
1711551351657881300,0.77888134765625,-0.010384701192378998,-0.3222311735153198,0.004886918235570192
1711551351676841500,0.797841552734375,-0.0054977829568088055,-0.4364628791809082,-0.008246674202382565
1711551351695801900,0.8168017578125,-0.004581485874950886,-0.5436696410179138,-0.02871064469218254
1711551351714762000,0.835761962890625,-0.013744457624852657,-0.6801979541778564,-0.039706211537122726
1711551351733722400,0.854722412109375,0.011911863461136818,-0.7892373204231262,-0.04825831577181816
1711551351752682800,0.873682861328125,0.04459312930703163,-0.9388991594314575,-0.06994401663541794
1711551351771643000,0.892642822265625,0.0766635313630104,-1.0955859422683716,-0.13255766034126282
1711551351790603300,0.911603271484375,0.10079269111156464,-1.1740821599960327,-0.16768237948417664
1711551351809563400,0.9305634765625,0.1026252806186676,-1.1798852682113647,-0.17256930470466614
1711551351828523800,0.949523681640625,0.1490510106086731,-1.237917423248291,-0.09834922850131989
1711551351847484000,0.96848388671875,0.08491020649671555,-1.181717872619629,-0.16798780858516693
1711551351866444300,0.9874443359375,0.08032871782779694,-1.0091485977172852,-0.1185077652335167
1711551351885404400,1.006404296875,0.09987638890743256,-0.9379828572273254,-0.08826996386051178
1711551351904364800,1.02536474609375,0.037262752652168274,-0.6557633280754089,-0.09590577334165573
1711551351923325200,1.0443251953125,-0.011606430634856224,-0.28588470816612244,-0.05955931544303894
1711551351942285300,1.063285400390625,0.011911863461136818,-0.07941242307424545,0.021991131827235222
1711551351961245700,1.08224560546875,0.04825831577181816,-0.06750056147575378,0.07849612087011337
1711551351980206000,1.1012060546875,0.07452550530433655,-0.17043127119541168,0.0977383628487587
1711551351999166200,1.120166259765625,0.11453714966773987,-0.3591884970664978,0.08002328872680664
1711551352018126600,1.139126708984375,0.1484401375055313,-0.5412262082099915,0.05253437161445618
1711551352037086700,1.158086669921875,0.15729768574237823,-0.6527090072631836,0.01435532234609127
1711551352056047000,1.177047119140625,0.13225223124027252,-0.6734784245491028,-0.008246674202382565
1711551352075007500,1.196007568359375,0.09834922850131989,-0.6618719696998596,0.0054977829568088055
1711551352093968000,1.2149677734375,0.07391463965177536,-0.619722306728363,0.039706211537122726
1711551352112928000,1.233927978515625,0.06383536756038666,-0.5659661889076233,0.07880155742168427
1711551352131888400,1.252888427734375,0.053756099194288254,-0.4825831651687622,0.10079269111156464
1711551352150848500,1.2718486328125,0.018631376326084137,-0.37659814953804016,0.09590577334165573
1711551352169809000,1.290808837890625,-0.02626718580722809,-0.24434591829776764,0.08307760953903198
1711551352188769300,1.309769287109375,-0.08765909820795059,-0.11484257876873016,0.11178825795650482
1711551352207729400,1.3287294921875,-0.17776164412498474,-0.025045456364750862,0.19394956529140472
1711551352226689800,1.347689697265625,-0.2159406989812851,-0.024740023538470268,0.24740023910999298
1711551352245650000,1.36664990234375,-0.168904110789299,-0.0766635313630104,0.23854269087314606
1711551352264610300,1.3856103515625,-0.10079269111156464,-0.14110976457595825,0.17715078592300415
1711551352283570700,1.40457080078125,-0.08491020649671555,-0.18845178186893463,0.13255766034126282
1711551352302531000,1.423531005859375,-0.13072505593299866,-0.22693626582622528,0.13194678723812103
1711551352321491200,1.4424912109375,-0.1750127524137497,-0.24465134739875793,0.14508038759231567
1711551352340451600,1.46145166015625,-0.14233149588108063,-0.22785256803035736,0.12705987691879272
1711551352359412000,1.480411865234375,-0.09865466505289078,-0.1695149689912796,0.11056652665138245
1711551352378372400,1.499372314453125,-0.10354158282279968,-0.09285144507884979,0.10537417232990265
1711551352397332500,1.51833251953125,-0.1441640853881836,-0.004276053514331579,0.1334739476442337
1711551352416292900,1.53729296875,-0.19394956529140472,0.06047561392188072,0.16004657745361328
1711551352435253200,1.556253173828125,-0.23915356397628784,0.051618073135614395,0.16279546916484833
1711551352454213400,1.57521337890625,-0.24526220560073853,-0.07422006875276566,0.11392628401517868
1711551352473173800,1.594173828125,-0.19639302790164948,-0.2107483446598053,0.06230820715427399
1711551352492134100,1.613134033203125,-0.17256930470466614,-0.27397283911705017,0.04581485688686371
1711551352511094500,1.632094482421875,-0.1954767256975174,-0.2202167510986328,0.09346231073141098
1711551352530054700,1.6510546875,-0.21319180727005005,-0.09468404203653336,0.22204934060573578
1711551352549015000,1.67001513671875,-0.16157373785972595,0.07360920310020447,0.38270679116249084
1711551352567975400,1.688975341796875,-0.06780599057674408,0.23304490745067596,0.517707884311676
1711551352586935600,1.707935546875,0.035735588520765305,0.37690356373786926,0.6579013466835022
1711551352605896000,1.72689599609375,0.12950333952903748,0.4569268524646759,0.7996219992637634
1711551352624856300,1.745856201171875,0.21227550506591797,0.45448338985443115,0.9208786487579346
1711551352643816700,1.764816650390625,0.30024003982543945,0.36774060130119324,1.0030399560928345
1711551352662777000,1.783777099609375,0.42271843552589417,0.26419901847839355,1.036637544631958
1711551352681737200,1.8027373046875,0.5794052481651306,0.2367101013660431,1.0516036748886108
1711551352700697600,1.821697509765625,0.7168498039245605,0.3601047992706299,1.099861979484558
1711551352719658000,1.840657958984375,0.7431169748306274,0.6056724190711975,1.230892539024353
1711551352738618400,1.859618408203125,0.68386310338974,0.8475748896598816,1.3866630792617798
1711551352757578800,1.878578857421875,0.630107045173645,0.9758564829826355,1.4914263486862183
1711551352776539000,1.897538818359375,0.6322450637817383,0.9969313144683838,1.5363249778747559
1711551352795499300,1.916499267578125,0.6801979541778564,0.9602794051170349,1.543655276298523
1711551352814459600,1.935459716796875,0.6997455954551697,0.8936951756477356,1.515555500984192
1711551352833420000,1.954419921875,0.6713404059410095,0.8188642263412476,1.4654645919799805
1711551352852380400,1.97338037109375,0.6071996092796326,0.7260127663612366,1.4196497201919556
1711551352871340500,1.992340576171875,0.5329795479774475,0.6624828577041626,1.3961313962936401
1711551352890301000,2.011301025390625,0.46914416551589966,0.6826413869857788,1.3915499448776245
1711551352909261300,2.03026123046875,0.4108065664768219,0.7742711305618286,1.3836086988449097
1711551352928221700,2.0492216796875,0.3035998046398163,0.8991929292678833,1.3863576650619507
1711551352947182000,2.06818212890625,0.0974329337477684,0.9673043489456177,1.4104868173599243
1711551352966142500,2.087142578125,-0.15546508133411407,0.9553925395011902,1.4208714962005615
1711551352985102800,2.106102783203125,-0.33017241954803467,0.8200859427452087,1.37078058719635
1711551353004063000,2.12506298828125,-0.3546070158481598,0.5412262082099915,1.240360975265503
1711551353023023400,2.1440234375,-0.26939135789871216,0.2009745091199875,1.0580178499221802
1711551353041983700,2.162983642578125,-0.21288637816905975,-0.14141519367694855,0.8665117025375366
1711551353060944100,2.181944091796875,-0.20341797173023224,-0.4196641147136688,0.6777544617652893
1711551353079904500,2.200904541015625,-0.1649334877729416,-0.5079340934753418,0.5137372612953186
1711551353098865000,2.219864990234375,-0.1081230640411377,-0.37781986594200134,0.40897396206855774
1711551353117825300,2.2388251953125,-0.07086031138896942,-0.09132428467273712,0.35277441143989563
1711551353136785700,2.25778564453125,-0.02871064469218254,0.2315177470445633,0.31001389026641846
1711551353155746000,2.27674609375,0.011911863461136818,0.4834994673728943,0.2510654330253601
1711551353174706200,2.2957060546875,0.04001164436340332,0.6001746654510498,0.17898337543010712
1711551353193666800,2.314666748046875,0.06261363625526428,0.574212908744812,0.09498947113752365
1711551353212627000,2.333626953125,0.08949168771505356,0.4269944727420807,0.007024944759905338
1711551353231587300,2.35258740234375,0.11636973917484283,0.21838416159152985,-0.060781046748161316
1711551353250547700,2.371547607421875,0.14691297709941864,0.014660755172371864,-0.10323614627122879
1711551353269508000,2.390508056640625,0.17104214429855347,-0.13927717506885529,-0.12095122784376144
1711551353288468500,2.409468505859375,0.17287473380565643,-0.1899789422750473,-0.12278381735086441
1711551353307428900,2.428428955078125,0.14263692498207092,-0.16004657745361328,-0.10629047453403473
1711551353326389200,2.44738916015625,0.09162971377372742,-0.0925460159778595,-0.07880155742168427
1711551353345349600,2.466349609375,0.05222893878817558,-0.007024944759905338,-0.044898562133312225
1711551353364310000,2.48531005859375,0.04062250629067421,0.06902772188186646,-0.013133592903614044
1711551353383270400,2.5042705078125,0.04001164436340332,0.10995566099882126,0.010079269297420979
1711551353402230800,2.523230712890625,0.04153880476951599,0.10629047453403473,0.0256563201546669
1711551353421191200,2.542191162109375,0.03481929376721382,0.07910698652267456,0.03298669680953026
1711551353440151600,2.561151611328125,0.03817904740571976,0.02871064469218254,0.043371398001909256
1711551353459112000,2.58011181640625,0.06352993845939636,-0.013439024798572063,0.05925388261675835
1711551353478072300,2.599072265625,0.08674279600381851,-0.04306596517562866,0.07788526266813278
1711551353497032700,2.61803271484375,0.09010255336761475,-0.05558869615197182,0.09651663154363632
1711551353515993000,2.6369931640625,0.08582650125026703,-0.04459312930703163,0.11331541836261749
1711551353534953500,2.655953369140625,0.0766635313630104,-0.015577051788568497,0.12217295914888382
1711551353553913900,2.674913818359375,0.053756099194288254,0.006414080038666725,0.12461641430854797
1711551353572874200,2.693874267578125,0.03848448023200035,0.022907428443431854,0.12614357471466064
1711551353591834600,2.712834716796875,0.033597562462091446,0.043982263654470444,0.13041962683200836
1711551353610795000,2.731794921875,0.03940077871084213,0.06200277432799339,0.13164135813713074
1711551353629755400,2.75075537109375,0.05283980444073677,0.07299833744764328,0.13194678723812103
1711551353648715800,2.7697158203125,0.05070177838206291,0.07941242307424545,0.12614357471466064
1711551353667676200,2.78867626953125,0.0412333719432354,0.06627883017063141,0.1178968995809555
1711551353686636500,2.807636474609375,0.02871064469218254,0.04367683082818985,0.11087195575237274
1711551353705597000,2.826596923828125,0.019853105768561363,0.014966187067329884,0.10506874322891235
1711551353724557300,2.845557373046875,0.014660755172371864,-0.014660755172371864,0.08918625861406326
1711551353743517700,2.864517578125,0.006719512399286032,-0.034208428114652634,0.06414080411195755
1711551353762478000,2.88347802734375,-0.004886918235570192,-0.04153880476951599,0.0360410213470459
1711551353781438500,2.9024384765625,-0.004886918235570192,-0.039706211537122726,0.010384701192378998
1711551353800398800,2.92139892578125,-0.007330377586185932,-0.03023780696094036,-0.010079269297420979
1711551353819359200,2.940359130859375,-0.023518294095993042,-0.01588248461484909,-0.02779434807598591
1711551353838319600,2.959319580078125,-0.041844237595796585,0.004581485874950886,-0.04214967042207718
1711551353857280000,2.978280029296875,-0.05253437161445618,0.019853105768561363,-0.051618073135614395
1711551353876240400,2.997240478515625,-0.053756099194288254,0.01954767294228077,-0.06230820715427399
1711551353895200800,3.01620068359375,-0.04734202101826668,0.0054977829568088055,-0.0720820426940918
1711551353914161200,3.0351611328125,-0.035735588520765305,-0.015577051788568497,-0.07452550530433655
1711551353933121500,3.05412158203125,-0.02626718580722809,-0.03787361457943916,-0.06933315098285675
1711551353952082000,3.07308203125,-0.020158538594841957,-0.04886918142437935,-0.06780599057674408
1711551353971042600,3.09204248046875,-0.016798781231045723,-0.05589412897825241,-0.06627883017063141
1711551353990003000,3.1110029296875,-0.015577051788568497,-0.05345066636800766,-0.060781046748161316
1711551354008963300,3.12996337890625,-0.01954767294228077,-0.04917461425065994,-0.053145237267017365
1711551354027923700,3.148923828125,-0.03176496922969818,-0.05222893878817558,-0.04734202101826668
1711551354046884000,3.167884033203125,-0.04367683082818985,-0.04550942778587341,-0.04153880476951599
1711551354065844500,3.186844482421875,-0.047036588191986084,-0.04886918142437935,-0.03695731982588768
1711551354084804900,3.205804931640625,-0.04245510324835777,-0.0668896958231926,-0.03634645417332649
1711551354103765200,3.22476513671875,-0.044898562133312225,-0.07544180005788803,-0.03481929376721382
1711551354122725600,3.2437255859375,-0.05222893878817558,-0.07941242307424545,-0.030543239787220955
1711551354141686000,3.26268603515625,-0.05803215503692627,-0.08063415437936783,-0.0308486707508564
1711551354160646400,3.281646484375,-0.05558869615197182,-0.08155044913291931,-0.03237583488225937
1711551354179607000,3.30060693359375,-0.03848448023200035,-0.07024945318698883,-0.032681263983249664
1711551354198567400,3.3195673828125,-0.013439024798572063,-0.0513126403093338,-0.03237583488225937
1711551354217527600,3.338527587890625,0.002443459117785096,-0.03023780696094036,-0.03237583488225937
1711551354236488000,3.357488037109375,0.008552107028663158,-0.01954767294228077,-0.029932374134659767
1711551354255448600,3.376448486328125,0.01954767294228077,-0.009162971749901772,-0.02626718580722809
1711551354274409000,3.395408935546875,0.032681263983249664,0.008552107028663158,-0.021991131827235222
1711551354293369300,3.414369384765625,0.044898562133312225,0.021991131827235222,-0.019242240116000175
1711551354312329700,3.433329833984375,0.05925388261675835,0.019853105768561363,-0.021685699000954628
1711551354331290000,3.4522900390625,0.06841685622930527,0.006108647678047419,-0.028405211865901947
1711551354350250500,3.47125048828125,0.07422006875276566,-0.00946840364485979,-0.039706211537122726
1711551354369211000,3.4902109375,0.07269290834665298,-0.01649334840476513,-0.04673115536570549
1711551354388171500,3.509171630859375,0.06780599057674408,-0.019242240116000175,-0.05070177838206291
1711551354407132000,3.5281318359375,0.06505709886550903,-0.01588248461484909,-0.04917461425065994
1711551354426092300,3.54709228515625,0.059864748269319534,-0.014049889519810677,-0.0461202897131443
1711551354445052700,3.566052734375,0.0513126403093338,-0.014966187067329884,-0.04428769648075104
1711551354464013000,3.585012939453125,0.037262752652168274,-0.010690134018659592,-0.04245510324835777
1711551354482973400,3.603973388671875,0.02626718580722809,-0.009773836471140385,-0.03634645417332649
1711551354501933800,3.622933837890625,0.01435532234609127,-0.012522728182375431,-0.03023780696094036
1711551354520894200,3.641894287109375,0.000305432389723137,-0.013744457624852657,-0.024434590712189674
1711551354539854600,3.6608544921875,-0.007330377586185932,-0.004886918235570192,-0.023212861269712448
1711551354558815000,3.67981494140625,-0.009773836471140385,-0.001832594396546483,-0.021380268037319183
1711551354577775400,3.698775390625,-0.007941242307424545,-0.01649334840476513,-0.017104214057326317
1711551354596736000,3.717736083984375,-0.01282816007733345,-0.025045456364750862,-0.01282816007733345
1711551354615696400,3.7366962890625,-0.013439024798572063,-0.0256563201546669,-0.014049889519810677
1711551354634656800,3.75565673828125,-0.006719512399286032,-0.025961752980947495,-0.015577051788568497
1711551354653617200,3.7746171875,0.003665188793092966,-0.019853105768561363,-0.011911863461136818
1711551354672577500,3.79357763671875,0.013439024798572063,-0.003359756199643016,-0.010995565913617611
1711551354691538000,3.812537841796875,0.019853105768561363,0.008552107028663158,-0.009162971749901772
1711551354710498300,3.831498291015625,0.021380268037319183,0.011911863461136818,-0.006108647678047419
1711551354729458700,3.850458740234375,0.028099779039621353,0.00946840364485979,-0.005803215317428112
1711551354748419300,3.86941943359375,0.04245510324835777,0.005803215317428112,-0.008857538923621178
1711551354767379700,3.888379638671875,0.0513126403093338,-0.0021380267571657896,-0.013133592903614044
1711551354786340000,3.907340087890625,0.05100720748305321,-0.007635809946805239,-0.01588248461484909
1711551354805300500,3.926300537109375,0.04978547990322113,-0.0021380267571657896,-0.016187917441129684
1711551354824260900,3.9452607421875,0.05070177838206291,0.014966187067329884,-0.015271619893610477
1711551354843221200,3.96422119140625,0.04917461425065994,0.016798781231045723,-0.016798781231045723
1711551354862181600,3.983181640625,0.038789913058280945,0.011911863461136818,-0.01893680728971958
1711551354881142000,4.00214208984375,0.03634645417332649,0.008246674202382565,-0.01954767294228077
1711551354900102700,4.0211025390625,0.04306596517562866,0.004581485874950886,-0.020769402384757996
1711551354919063000,4.04006298828125,0.05192350596189499,-0.0015271619195118546,-0.025350889191031456
1711551354938023400,4.0590234375,0.054672397673130035,-0.01282816007733345,-0.028099779039621353
1711551354956983800,4.07798388671875,0.049480047076940536,-0.021685699000954628,-0.027488915249705315
1711551354975944200,4.096944091796875,0.04734202101826668,-0.028405211865901947,-0.02412915788590908
1711551354994904600,4.115904541015625,0.05070177838206291,-0.026572618633508682,-0.019853105768561363
1711551355013865000,4.134864990234375,0.05803215503692627,-0.028099779039621353,-0.015271619893610477
1711551355032825300,4.153825439453125,0.06383536756038666,-0.02718348242342472,-0.019853105768561363
1711551355051785700,4.17278564453125,0.06597339361906052,-0.028405211865901947,-0.02412915788590908
1711551355070746000,4.19174609375,0.07299833744764328,-0.03145953640341759,-0.02718348242342472
1711551355089706500,4.21070654296875,0.08124501258134842,-0.026572618633508682,-0.028099779039621353
1711551355108667100,4.229667236328125,0.08429934084415436,-0.026878049597144127,-0.028405211865901947
1711551355127627500,4.24862744140625,0.08093958348035812,-0.032681263983249664,-0.029016077518463135
1711551355146588000,4.267587890625,0.07635809481143951,-0.03543015569448471,-0.030543239787220955
1711551355165548300,4.28654833984375,0.07544180005788803,-0.03329212963581085,-0.040317077189683914
1711551355184508700,4.3055087890625,0.07116574794054031,-0.032070402055978775,-0.043982263654470444
1711551355203469000,4.324468994140625,0.06322450190782547,-0.02107483521103859,-0.039706211537122726
1711551355222429400,4.343429443359375,0.05925388261675835,-0.003359756199643016,-0.03298669680953026
1711551355241389800,4.362389892578125,0.06414080411195755,0.0054977829568088055,-0.029932374134659767
1711551355260350500,4.3813505859375,0.06963858753442764,-0.000610864779446274,-0.029932374134659767
1711551355279310800,4.400310791015625,0.06841685622930527,-0.000305432389723137,-0.0308486707508564
1711551355298271200,4.419271240234375,0.07513637095689774,0.007024944759905338,-0.0308486707508564
1711551355317231600,4.438231689453125,0.08368847519159317,0.007024944759905338,-0.02779434807598591
1711551355336192000,4.45719189453125,0.08491020649671555,-0.0015271619195118546,-0.01740964688360691
1711551355355152400,4.47615234375,0.0870482325553894,0.006414080038666725,-0.006414080038666725
1711551355374112800,4.49511279296875,0.0818558782339096,0.029016077518463135,0.000610864779446274
1711551355393073200,4.5140732421875,0.07544180005788803,0.04367683082818985,0.001832594396546483
1711551355412033500,4.533033447265625,0.07971785217523575,0.044898562133312225,-0.003359756199643016
1711551355430994000,4.551993896484375,0.09498947113752365,0.03176496922969818,-0.012217295356094837
1711551355449954300,4.570954345703125,0.10720676928758621,0.005192350596189499,-0.019242240116000175
1711551355468915000,4.5899150390625,0.1185077652335167,-0.012217295356094837,-0.02107483521103859
1711551355487875300,4.608875244140625,0.12431098520755768,-0.0204639695584774,-0.023212861269712448
1711551355506835700,4.627835693359375,0.12583814561367035,-0.0256563201546669,-0.025961752980947495
1711551355525796000,4.646796142578125,0.12980876863002777,-0.026572618633508682,-0.029932374134659767
1711551355544756500,4.665756591796875,0.13255766034126282,-0.018631376326084137,-0.03451386094093323
1711551355563716900,4.684716796875,0.13225223124027252,-0.010690134018659592,-0.03695731982588768
1711551355582677200,4.70367724609375,0.129197895526886,-0.017715077847242355,-0.03543015569448471
1711551355601637600,4.7226376953125,0.12950333952903748,-0.030543239787220955,-0.03481929376721382
1711551355620598000,4.741597900390625,0.13530655205249786,-0.0360410213470459,-0.032070402055978775
1711551355639558400,4.760558349609375,0.13775001466274261,-0.05436696484684944,-0.029016077518463135
1711551355658518800,4.779518798828125,0.1536324918270111,-0.07452550530433655,-0.029626941308379173
1711551355677479400,4.7984794921875,0.17134757339954376,-0.0870482325553894,-0.0360410213470459
1711551355696439800,4.817439697265625,0.17256930470466614,-0.08888082206249237,-0.03787361457943916
1711551355715400000,4.83639990234375,0.17165300250053406,-0.06261363625526428,-0.03543015569448471
1711551355734360600,4.855360595703125,0.1802051067352295,-0.020158538594841957,-0.03543015569448471
1711551355753321000,4.874321044921875,0.19120067358016968,0.016187917441129684,-0.035735588520765305
1711551355772281300,4.89328125,0.20372340083122253,0.0409279391169548,-0.03817904740571976
1711551355791241700,4.91224169921875,0.21135921776294708,0.05894844979047775,-0.040317077189683914
1711551355810202000,4.9312021484375,0.20952661335468292,0.06383536756038666,-0.0461202897131443
1711551355829162500,4.95016259765625,0.21441353857517242,0.05528326332569122,-0.05742128938436508
1711551355848123000,4.969122802734375,0.22815799713134766,0.0409279391169548,-0.06383536756038666
1711551355867083300,4.988083251953125,0.24801109731197357,0.03787361457943916,-0.06322450190782547
1711551355886043600,5.007043701171875,0.2666424810886383,0.04520399495959282,-0.06017018109560013
1711551355905004000,5.026004150390625,0.281914085149765,0.056810423731803894,-0.05558869615197182
1711551355923964400,5.04496435546875,0.2987128794193268,0.07116574794054031,-0.04428769648075104
1711551355942925000,5.063925048828125,0.3225366175174713,0.07788526266813278,-0.023212861269712448
1711551355961885400,5.082885498046875,0.34605491161346436,0.07605266571044922,-0.001832594396546483
1711551355980845600,5.101845458984375,0.3738492429256439,0.07299833744764328,0.007941242307424545
1711551355999806200,5.12080615234375,0.40927940607070923,0.0766635313630104,0.008246674202382565
1711551356018766600,5.1397666015625,0.45539969205856323,0.08277218043804169,0.0021380267571657896
1711551356037727000,5.15872705078125,0.4929678738117218,0.07635809481143951,-0.000305432389723137
1711551356056687400,5.177687255859375,0.518318772315979,0.07086031138896942,-0.001221729558892548
1711551356075647700,5.196647705078125,0.5351175665855408,0.06780599057674408,-0.012522728182375431
1711551356094608100,5.215608154296875,0.5430588126182556,0.06536252796649933,-0.03451386094093323
1711551356113568500,5.234568603515625,0.5464185476303101,0.08277218043804169,-0.05589412897825241
1711551356132529000,5.25352880859375,0.5464185476303101,0.11026109009981155,-0.07513637095689774
1711551356151489300,5.2724892578125,0.5415316224098206,0.12644900381565094,-0.09437860548496246
1711551356170449700,5.29144970703125,0.5467239618301392,0.1438586562871933,-0.12278381735086441
1711551356189410000,5.31041015625,0.56382817029953,0.143553227186203,-0.15790854394435883
1711551356208370400,5.329370361328125,0.601396381855011,0.16096286475658417,-0.18417572975158691
1711551356227330800,5.348330810546875,0.6331613659858704,0.21135921776294708,-0.19639302790164948
1711551356246291200,5.367291259765625,0.6322450637817383,0.2678641974925995,-0.20250166952610016
1711551356265251600,5.38625146484375,0.6004800796508789,0.32070401310920715,-0.20311254262924194
1711551356284212000,5.4052119140625,0.5592467188835144,0.34636032581329346,-0.20769402384757996
1711551356303172400,5.42417236328125,0.5210676789283752,0.3191768527030945,-0.2110537886619568
1711551356322132700,5.4431328125,0.4935787320137024,0.26022839546203613,-0.22204934060573578
1711551356341093000,5.462093017578125,0.4786125421524048,0.18692462146282196,-0.23182319104671478
1711551356360053500,5.481053466796875,0.4725039005279541,0.1178968995809555,-0.22968515753746033
1711551356379014000,5.500013916015625,0.47006043791770935,0.06536252796649933,-0.21807873249053955
1711551356397974300,5.518974365234375,0.4627300798892975,0.02626718580722809,-0.19700388610363007
1711551356416934700,5.5379345703125,0.42974337935447693,0.024434590712189674,-0.17165300250053406
1711551356435895000,5.55689501953125,0.3964512348175049,-0.017104214057326317,-0.13439024984836578
1711551356454855700,5.575855712890625,0.3484983444213867,-0.0616973415017128,-0.09590577334165573
1711551356473815800,5.59481591796875,0.2929096519947052,-0.07024945318698883,-0.05711585655808449
1711551356492776200,5.613776123046875,0.25931209325790405,-0.07788526266813278,-0.024740023538470268
1711551356511736800,5.63273681640625,0.24526220560073853,-0.09498947113752365,-0.004886918235570192
1711551356530697000,5.651697021484375,0.23029601573944092,-0.12186752259731293,0.005803215317428112
1711551356549657300,5.6706572265625,0.20219624042510986,-0.1539379209280014,0.01282816007733345
1711551356568617700,5.68961767578125,0.17531819641590118,-0.189673513174057,0.015271619893610477
1711551356587578000,5.708578125,0.1585194170475006,-0.21441353857517242,0.011300998739898205
1711551356606538500,5.72753857421875,0.1490510106086731,-0.21227550506591797,0.007941242307424545
1711551356625499000,5.746498779296875,0.12644900381565094,-0.17745621502399445,0.003359756199643016
1711551356644459500,5.76545947265625,0.09132428467273712,-0.12950333952903748,-0.004276053514331579
1711551356663419600,5.784419677734375,0.06811141967773438,-0.06566796451807022,-0.01954767294228077
1711551356682380000,5.803380126953125,0.06383536756038666,-0.001221729558892548,-0.03634645417332649
1711551356701340700,5.822340576171875,0.06841685622930527,0.04367683082818985,-0.05558869615197182
1711551356720300800,5.84130078125,0.07269290834665298,0.0461202897131443,-0.0769689604640007
1711551356739261200,5.86026123046875,0.07391463965177536,0.02718348242342472,-0.09682206809520721
1711551356758221800,5.879221923828125,0.07360920310020447,0.01282816007733345,-0.11331541836261749
1711551356777182000,5.898181884765625,0.06536252796649933,0.005803215317428112,-0.13164135813713074
1711551356796142300,5.917142333984375,0.053145237267017365,0.0030543238390237093,-0.14721840620040894
1711551356815103000,5.93610302734375,0.037262752652168274,0.0030543238390237093,-0.15210533142089844
1711551356834063000,5.95506298828125,0.02107483521103859,-0.001832594396546483,-0.14630211889743805
1711551356853023500,5.9740234375,0.01802051067352295,-0.006108647678047419,-0.14202606678009033
1711551356871983900,5.99298388671875,0.013133592903614044,-0.007635809946805239,-0.14110976457595825
1711551356890944300,6.0119443359375,-0.0030543238390237093,-0.010384701192378998,-0.13775001466274261
1711551356909904600,6.030904541015625,-0.011300998739898205,-0.01893680728971958,-0.12736530601978302
1711551356928865000,6.049864990234375,-0.003970621153712273,-0.03695731982588768,-0.11881320178508759
1711551356947825400,6.068825439453125,0.009162971749901772,-0.05742128938436508,-0.11575887352228165
1711551356966785800,6.087785888671875,0.018631376326084137,-0.05528326332569122,-0.11362084746360779
1711551356985746200,6.10674609375,0.022296564653515816,-0.05192350596189499,-0.10690133273601532
1711551357004706800,6.125706787109375,0.018325943499803543,-0.05497783049941063,-0.0922405794262886
1711551357023667000,6.1446669921875,0.009773836471140385,-0.038789913058280945,-0.07605266571044922
1711551357042627300,6.16362744140625,0.011911863461136818,-0.01588248461484909,-0.06230820715427399
1711551357061588000,6.182587890625,0.020158538594841957,-0.01282816007733345,-0.05100720748305321
1711551357080548000,6.201548095703125,0.022296564653515816,-0.03634645417332649,-0.0461202897131443
1711551357099508500,6.220508544921875,0.03023780696094036,-0.06719512492418289,-0.043982263654470444
1711551357118469000,6.23946923828125,0.046425722539424896,-0.09804379940032959,-0.04276053607463837
1711551357137429500,6.258429443359375,0.06322450190782547,-0.1182023361325264,-0.04459312930703163
1711551357156389600,6.2773896484375,0.07269290834665298,-0.11209368705749512,-0.04764745384454727
1711551357175350000,6.29635009765625,0.07269290834665298,-0.09193515032529831,-0.05039634555578232
1711551357194310700,6.315310546875,0.07330377399921417,-0.06719512492418289,-0.05192350596189499
1711551357213270800,6.334270751953125,0.07544180005788803,-0.04734202101826668,-0.053145237267017365
1711551357232231200,6.353231201171875,0.07269290834665298,-0.04459312930703163,-0.05345066636800766
1711551357251191800,6.37219189453125,0.0665842592716217,-0.053756099194288254,-0.0616973415017128
1711551357270152200,6.391152099609375,0.06230820715427399,-0.06933315098285675,-0.07086031138896942
1711551357289112300,6.4101123046875,0.053145237267017365,-0.0766635313630104,-0.0769689604640007
1711551357308073000,6.429072998046875,0.0412333719432354,-0.08582650125026703,-0.07910698652267456
1711551357327033300,6.448033447265625,0.035735588520765305,-0.09162971377372742,-0.08063415437936783
1711551357345993700,6.46699365234375,0.028405211865901947,-0.08582650125026703,-0.08093958348035812
1711551357364954000,6.4859541015625,0.02260199747979641,-0.06230820715427399,-0.08307760953903198
1711551357383914500,6.50491455078125,0.025961752980947495,-0.03237583488225937,-0.0824667438864708
1711551357402875000,6.523875,0.026572618633508682,-0.028099779039621353,-0.07757982611656189
1711551357421835300,6.542835205078125,0.023518294095993042,-0.04245510324835777,-0.07086031138896942
1711551357440795600,6.561795654296875,0.020769402384757996,-0.03695731982588768,-0.06505709886550903
1711551357459756000,6.580756103515625,0.011911863461136818,-0.016798781231045723,-0.060781046748161316
1711551357478716400,6.59971630859375,0.0015271619195118546,-0.0030543238390237093,-0.0565049909055233
1711551357497676800,6.6186767578125,-0.0009162971982732415,0.0015271619195118546,-0.05558869615197182
1711551357516637200,6.63763720703125,0.002443459117785096,-0.009162971749901772,-0.06017018109560013
1711551357535597600,6.65659765625,0.01588248461484909,-0.036651886999607086,-0.0668896958231926
1711551357554558000,6.675557861328125,0.033597562462091446,-0.06475166976451874,-0.0766635313630104
1711551357573518300,6.694518310546875,0.04764745384454727,-0.07788526266813278,-0.08918625861406326
1711551357592478700,6.713478759765625,0.05711585655808449,-0.09285144507884979,-0.09987638890743256
1711551357611439000,6.732439208984375,0.06597339361906052,-0.10720676928758621,-0.1026252806186676
1711551357630399500,6.7513994140625,0.07024945318698883,-0.10873392969369888,-0.1026252806186676
1711551357649360000,6.77035986328125,0.07635809481143951,-0.09132428467273712,-0.1026252806186676
1711551357668320300,6.7893203125,0.08093958348035812,-0.08155044913291931,-0.09926552325487137
1711551357687280600,6.80828076171875,0.08277218043804169,-0.08888082206249237,-0.09804379940032959
1711551357706241300,6.8272412109375,0.08460476994514465,-0.10140355676412582,-0.09712749719619751
1711551357725201700,6.84620166015625,0.09101885557174683,-0.10965022444725037,-0.09926552325487137
1711551357744161800,6.865161865234375,0.10079269111156464,-0.10965022444725037,-0.11026109009981155
1711551357763122400,6.884122314453125,0.10751219838857651,-0.11392628401517868,-0.12278381735086441
1711551357782082800,6.903082763671875,0.1127045527100563,-0.12431098520755768,-0.1285870373249054
1711551357801043200,6.922043212890625,0.1185077652335167,-0.13500112295150757,-0.12614357471466064
1711551357820003600,6.941003662109375,0.12736530601978302,-0.14538581669330597,-0.12278381735086441
1711551357838964000,6.9599638671875,0.1331685185432434,-0.1545487940311432,-0.11698060482740402
1711551357857924400,6.97892431640625,0.13469567894935608,-0.15668681263923645,-0.11087195575237274
1711551357876884700,6.997884765625,0.13133592903614044,-0.14752385020256042,-0.11087195575237274
1711551357895845000,7.01684521484375,0.12553271651268005,-0.1493564397096634,-0.11026109009981155
1711551357914805500,7.035805419921875,0.13439024984836578,-0.16249002516269684,-0.10720676928758621
1711551357933766000,7.054765869140625,0.1438586562871933,-0.1737910360097885,-0.10140355676412582
1711551357952726300,7.073726318359375,0.14202606678009033,-0.17867794632911682,-0.10354158282279968
1711551357971687000,7.09268701171875,0.129197895526886,-0.18203771114349365,-0.1078176349401474
1711551357990647300,7.111647216796875,0.1282816082239151,-0.19120067358016968,-0.10598503798246384
1711551358009607700,7.130607666015625,0.14080433547496796,-0.2101374864578247,-0.10720676928758621
1711551358028568000,7.149568115234375,0.15546508133411407,-0.22388194501399994,-0.11392628401517868
1711551358047528400,7.168528564453125,0.15546508133411407,-0.21838416159152985,-0.12125665694475174
1711551358066488800,7.18748876953125,0.143553227186203,-0.20647229254245758,-0.12064579129219055
1711551358085449200,7.20644921875,0.13225223124027252,-0.1744018942117691,-0.11698060482740402
1711551358104409600,7.22540966796875,0.12644900381565094,-0.1340848207473755,-0.11423171311616898
1711551358123370000,7.244369873046875,0.12064579129219055,-0.12614357471466064,-0.11117739230394363
1711551358142330400,7.263330322265625,0.10079269111156464,-0.1380554437637329,-0.10170898586511612
1711551358161290800,7.282290771484375,0.08002328872680664,-0.14294235408306122,-0.09712749719619751
1711551358180251400,7.30125146484375,0.07605266571044922,-0.14691297709941864,-0.09865466505289078
1711551358199211800,7.320211669921875,0.07055488228797913,-0.14233149588108063,-0.10140355676412582
1711551358218172200,7.339172119140625,0.05558869615197182,-0.1340848207473755,-0.10170898586511612
1711551358237132500,7.358132568359375,0.043982263654470444,-0.14110976457595825,-0.0977383628487587
1711551358256093000,7.377093017578125,0.04245510324835777,-0.14538581669330597,-0.08918625861406326
1711551358275053300,7.39605322265625,0.024434590712189674,-0.15302163362503052,-0.08277218043804169
1711551358294013700,7.415013671875,0.016798781231045723,-0.19761475920677185,-0.0870482325553894
1711551358312974000,7.43397412109375,0.03451386094093323,-0.2608392536640167,-0.0977383628487587
1711551358331934700,7.452934814453125,0.06597339361906052,-0.32039856910705566,-0.10537417232990265
1711551358350895000,7.47189501953125,0.08888082206249237,-0.37659814953804016,-0.10629047453403473
1711551358369855500,7.49085546875,0.09987638890743256,-0.38667741417884827,-0.10659590363502502
1711551358388816000,7.50981591796875,0.11698060482740402,-0.36804601550102234,-0.11392628401517868
1711551358407776300,7.5287763671875,0.1533270627260208,-0.35246896743774414,-0.1230892539024353
1711551358426736600,7.547736572265625,0.18906265497207642,-0.3338375985622406,-0.11453714966773987
1711551358445697000,7.566697021484375,0.21410810947418213,-0.2974911332130432,-0.09651663154363632
1711551358464657700,7.58565771484375,0.2510654330253601,-0.2614501118659973,-0.09682206809520721
1711551358483618000,7.6046181640625,0.30573782324790955,-0.24251331388950348,-0.1185077652335167
1711551358502578400,7.623578369140625,0.35643959045410156,-0.23426663875579834,-0.12217295914888382
1711551358521538800,7.642538818359375,0.39370235800743103,-0.2156352698802948,-0.10231985151767731
1711551358540499200,7.661499267578125,0.41233372688293457,-0.19669845700263977,-0.0824667438864708
1711551358559459800,7.6804599609375,0.4413498044013977,-0.21166464686393738,-0.07147117704153061
1711551358578420200,7.699420166015625,0.5079340934753418,-0.2415970265865326,-0.0720820426940918
1711551358597380600,7.718380615234375,0.5830704569816589,-0.2510654330253601,-0.08155044913291931
1711551358616341000,7.737341064453125,0.6276635527610779,-0.23335035145282745,-0.09407317638397217
1711551358635301400,7.75630126953125,0.6527090072631836,-0.19944734871387482,-0.09926552325487137
1711551358654261800,7.77526171875,0.6826413869857788,-0.1805105358362198,-0.09590577334165573
1711551358673222100,7.79422216796875,0.7186824083328247,-0.1750127524137497,-0.08032871782779694
1711551358692182500,7.8131826171875,0.7623592615127563,-0.16096286475658417,-0.06047561392188072
1711551358711143200,7.83214306640625,0.8139773011207581,-0.13927717506885529,-0.04153880476951599
1711551358730103600,7.851103515625,0.8836159110069275,-0.09071341902017593,-0.007330377586185932
1711551358749064000,7.87006396484375,0.962722897529602,-0.02932151034474373,0.03176496922969818
1711551358768024300,7.8890244140625,1.0152572393417358,0.035124726593494415,0.07849612087011337
1711551358786984700,7.907984619140625,1.054658055305481,0.06047561392188072,0.12461641430854797
1711551358805945300,7.9269453125,1.0974185466766357,0.08796452730894089,0.16126830875873566
1711551358824905700,7.94590576171875,1.137430191040039,0.1591302752494812,0.19425499439239502
1711551358843866000,7.9648662109375,1.1783581972122192,0.24801109731197357,0.21716243028640747
1711551358862826500,7.983826416015625,1.2116502523422241,0.2922987937927246,0.23518294095993042
1711551358881787000,8.002786865234375,1.240360975265503,0.29504770040512085,0.2620609998703003
1711551358900747300,8.021747314453124,1.2373065948486328,0.30512696504592896,0.2837466895580292
1711551358919708000,8.0407080078125,1.2437206506729126,0.3026835024356842,0.25411975383758545
1711551358938668300,8.059668212890625,1.2705987691879272,0.3136790692806244,0.24404047429561615
1711551358957628700,8.078628662109375,1.2877029180526733,0.34727662801742554,0.25900667905807495
1711551358976589000,8.097589111328125,1.2791508436203003,0.37354379892349243,0.2782489061355591
1711551358995549400,8.116549560546876,1.2718204259872437,0.31520622968673706,0.27030766010284424
1711551359014509800,8.135509765625,1.266017198562622,0.21380266547203064,0.22479823231697083
1711551359033470500,8.154470458984376,1.2235621213912964,0.14019346237182617,0.16798780858516693
1711551359052430800,8.173430908203125,1.1490366458892822,0.14752385020256042,0.1493564397096634
1711551359071391200,8.19239111328125,1.0418298244476318,0.2009745091199875,0.17348559200763702
1711551359090351600,8.2113515625,0.9416480660438538,0.2101374864578247,0.19394956529140472
1711551359109312000,8.23031201171875,0.8723149299621582,0.10567960888147354,0.2006690800189972
1711551359128272600,8.249272705078125,0.8005383014678955,-0.018325943499803543,0.22357651591300964
1711551359147233000,8.26823291015625,0.6597339510917664,-0.07544180005788803,0.23854269087314606
1711551359166193400,8.287193359375,0.48075059056282043,-0.09987638890743256,0.2257145345211029
1711551359185153800,8.30615380859375,0.34116798639297485,-0.11453714966773987,0.18692462146282196
1711551359204114400,8.325114501953125,0.25350889563560486,-0.09590577334165573,0.15088360011577606
1711551359223074800,8.34407470703125,0.20738859474658966,-0.03543015569448471,0.1490510106086731
1711551359242035200,8.36303515625,0.17806708812713623,0.0616973415017128,0.1695149689912796
1711551359260995600,8.38199560546875,0.14813470840454102,0.14202606678009033,0.16707152128219604
1711551359279956000,8.4009560546875,0.09865466505289078,0.2009745091199875,0.17776164412498474
1711551359298916600,8.41991650390625,0.0360410213470459,0.22418737411499023,0.19272783398628235
1711551359317877000,8.438876953125,0.019853105768561363,0.2208276242017746,0.18875721096992493
1711551359336837400,8.45783740234375,0.03329212963581085,0.250149130821228,0.17684535682201385
1711551359355797800,8.4767978515625,0.06414080411195755,0.26939135789871216,0.1646280586719513
1711551359374758100,8.495758056640625,0.09071341902017593,0.2929096519947052,0.185092031955719
1711551359393718800,8.51471875,0.09101885557174683,0.2730565667152405,0.19425499439239502
1711551359412679200,8.53367919921875,0.11148282140493393,0.19364413619041443,0.16829325258731842
1711551359431639600,8.5526396484375,0.16768237948417664,0.129197895526886,0.15485422313213348
1711551359450600000,8.571599853515625,0.2162461280822754,0.09376774728298187,0.15179990231990814
1711551359469560300,8.590560302734374,0.2721402645111084,0.06475166976451874,0.14263692498207092
1711551359488521000,8.60952099609375,0.31520622968673706,0.0772743970155716,0.13927717506885529
1711551359507481300,8.6284814453125,0.323452889919281,0.1432477980852127,0.12064579129219055
1711551359526441700,8.647441650390626,0.32589635252952576,0.24556763470172882,0.08552107214927673
1711551359545402000,8.666402099609375,0.34177884459495544,0.36743515729904175,0.06047561392188072
1711551359564362500,8.685362548828126,0.3536907136440277,0.4477638900279999,0.04825831577181816
1711551359583323000,8.704322998046875,0.3597993552684784,0.4459312856197357,0.032070402055978775
1711551359602283500,8.723283447265626,0.38759371638298035,0.4159989058971405,0.018631376326084137
1711551359621244000,8.742243896484375,0.41813695430755615,0.3488037884235382,0.005803215317428112
1711551359640204300,8.761204345703124,0.4627300798892975,0.2364046722650528,0.005192350596189499
1711551359659164700,8.78016455078125,0.5421425104141235,0.04428769648075104,0.06230820715427399
1711551359678125000,8.799125,0.6178897023200989,-0.15577052533626556,0.13255766034126282
1711551359697085400,8.81808544921875,0.6359102129936218,-0.24831652641296387,0.19608759880065918
1711551359716046000,8.837046142578124,0.6029235124588013,-0.1698204129934311,0.23518294095993042
1711551359735006500,8.85600634765625,0.5647444725036621,0.014660755172371864,0.23762640357017517
1711551359753966800,8.874966796875,0.5143481492996216,0.25411975383758545,0.2712239623069763
1711551359772927200,8.89392724609375,0.4514290690422058,0.4871646761894226,0.31154105067253113
1711551359791888000,8.912887939453125,0.41783151030540466,0.5879573225975037,0.32039856910705566
1711551359810848300,8.93184814453125,0.40866854786872864,0.5326740741729736,0.2919933497905731
1711551359829808600,8.95080859375,0.39675667881965637,0.35643959045410156,0.24434591829776764
1711551359848769000,8.96976904296875,0.3594939112663269,0.17165300250053406,0.21166464686393738
1711551359867729400,8.9887294921875,0.3390299379825592,0.05589412897825241,0.1957821547985077
1711551359886689800,9.007689697265626,0.33750277757644653,-0.025961752980947495,0.16646064817905426
1711551359905650200,9.026650146484375,0.31673339009284973,-0.008552107028663158,0.16249002516269684
1711551359924610600,9.045610595703126,0.26389357447624207,0.06475166976451874,0.1646280586719513
1711551359943571200,9.0645712890625,0.2110537886619568,0.13133592903614044,0.16859868168830872
1711551359962531600,9.083531494140624,0.19089524447917938,0.20311254262924194,0.1792888194322586
1711551359981492000,9.102491943359375,0.17348559200763702,0.27397283911705017,0.18387030065059662
1711551360000452400,9.121452392578124,0.1380554437637329,0.29504770040512085,0.19303326308727264
1711551360019412700,9.140412841796875,0.11484257876873016,0.24465134739875793,0.2098320573568344
1711551360038373400,9.159373291015624,0.10079269111156464,0.20433427393436432,0.21991132199764252
1711551360057333800,9.178333740234375,0.08338304609060287,0.185092031955719,0.21349723637104034
1711551360076294100,9.197294189453125,0.0668896958231926,0.17776164412498474,0.205861434340477
1711551360095254500,9.216254638671876,0.022907428443431854,0.16187916696071625,0.18631376326084137
1711551360114215000,9.23521484375,-0.014660755172371864,0.1438586562871933,0.1740964651107788
1711551360133175300,9.25417529296875,-0.000610864779446274,0.06750056147575378,0.15271618962287903
1711551360152135700,9.2731357421875,0.006719512399286032,-0.0030543238390237093,0.12583814561367035
1711551360171096000,9.292095947265626,-0.021685699000954628,-0.04459312930703163,0.1127045527100563
1711551360190056700,9.311056640625,-0.04276053607463837,-0.04367683082818985,0.09651663154363632
1711551360209017000,9.33001708984375,-0.056810423731803894,0.05406153202056885,0.06780599057674408
1711551360227977500,9.3489775390625,-0.08002328872680664,0.1737910360097885,0.04886918142437935
1711551360246937900,9.367937744140624,-0.11911863088607788,0.2406807243824005,0.05070177838206291
1711551360265898200,9.386898193359375,-0.15607595443725586,0.2528980076313019,0.029626941308379173
1711551360284858600,9.405858642578124,-0.16157373785972595,0.23487751185894012,-0.004276053514331579
1711551360303819000,9.424819091796875,-0.129197895526886,0.20341797173023224,-0.02626718580722809
1711551360322779400,9.443779296875,-0.07574722915887833,0.14172062277793884,-0.03481929376721382
1711551360341739800,9.46273974609375,-0.04734202101826668,0.047952886670827866,-0.051618073135614395
1711551360360700200,9.4817001953125,-0.05436696484684944,-0.015577051788568497,-0.05192350596189499
1711551360379660500,9.50066064453125,-0.06963858753442764,-0.050090912729501724,-0.05497783049941063
1711551360398621200,9.51962109375,-0.04917461425065994,-0.03145953640341759,-0.06352993845939636
1711551360417581600,9.53858154296875,-0.029626941308379173,0.032681263983249664,-0.0513126403093338
1711551360436542000,9.5575419921875,-0.039706211537122726,0.08093958348035812,-0.0461202897131443
1711551360455502300,9.57650244140625,-0.059864748269319534,0.13561198115348816,-0.04214967042207718
1711551360474462700,9.595462646484375,-0.053756099194288254,0.1701258420944214,-0.04153880476951599
1711551360493423000,9.614423095703126,-0.04520399495959282,0.1698204129934311,-0.041844237595796585
1711551360512383500,9.633383544921875,-0.0461202897131443,0.14752385020256042,-0.03909534588456154
1711551360531344000,9.65234375,-0.053145237267017365,0.11209368705749512,-0.03237583488225937
1711551360550304300,9.67130419921875,-0.04276053607463837,0.10537417232990265,-0.016798781231045723
1711551360569264600,9.6902646484375,-0.023212861269712448,0.13164135813713074,-0.0030543238390237093
1711551360588225000,9.70922509765625,-0.024740023538470268,0.12675444781780243,-0.01282816007733345
1711551360607185400,9.728185302734374,-0.0308486707508564,0.06108647957444191,-0.014049889519810677
1711551360626145800,9.747145751953125,-0.021685699000954628,-0.0030543238390237093,-0.012217295356094837
1711551360645106200,9.766106201171874,0.001221729558892548,-0.021685699000954628,-0.010384701192378998
1711551360664066800,9.78506689453125,0.03451386094093323,-0.016798781231045723,0.007330377586185932
1711551360683027200,9.804027099609375,0.06505709886550903,-0.016187917441129684,-0.0027488914784044027
1711551360701987300,9.8229873046875,0.04764745384454727,0,-0.015577051788568497
1711551360720948000,9.841947998046875,0.0256563201546669,-0.0256563201546669,-0.017715077847242355
1711551360739908400,9.860908447265626,0.08124501258134842,-0.08002328872680664,0.007635809946805239
1711551360758868700,9.87986865234375,0.11484257876873016,-0.10842850059270859,0.015577051788568497
1711551360777829000,9.8988291015625,0.08765909820795059,-0.11759147047996521,-0.033597562462091446
1711551360796789500,9.91778955078125,0.07757982611656189,-0.10140355676412582,-0.08368847519159317
1711551360815750000,9.93675,0.1334739476442337,-0.13072505593299866,-0.1029307171702385
1711551360834710300,9.955710205078125,0.3020726442337036,-0.39858928322792053,-0.09376774728298187
1711551360853670700,9.974670654296874,0.4883863925933838,-0.7919861674308777,-0.059864748269319534
1711551360872631000,9.993631103515625,0.5186241865158081,-0.9159917235374451,0.001221729558892548
1711551360891591400,10.01259130859375,0.4050033390522003,-0.6172788739204407,0.03451386094093323
1711551360910551800,10.0315517578125,0.2577849328517914,-0.026572618633508682,0.000610864779446274
1711551360929512200,10.05051220703125,0.17134757339954376,0.5766563415527344,-0.07116574794054031
1711551360948472600,10.06947265625,0.14202606678009033,0.9917389750480652,-0.12675444781780243
1711551360967433000,10.088432861328124,0.08124501258134842,1.1563670635223389,-0.16065743565559387
1711551360986393300,10.107393310546875,-0.030543239787220955,1.0720677375793457,-0.15149445831775665
1711551361005353700,10.126353759765625,-0.10445787757635117,0.8063415288925171,-0.14080433547496796
1711551361024314000,10.145314208984376,-0.10751219838857651,0.47525280714035034,-0.14569124579429626
1711551361043274500,10.1642744140625,-0.12186752259731293,0.15638138353824615,-0.14813470840454102
1711551361062235000,10.18323486328125,-0.17745621502399445,-0.037262752652168274,-0.13011419773101807
1711551361081195300,10.2021953125,-0.2260199636220932,-0.10995566099882126,-0.143553227186203
1711551361100155600,10.22115576171875,-0.2568686306476593,-0.1337793916463852,-0.1591302752494812
1711551361119116000,10.240115966796875,-0.3399462401866913,-0.09529490768909454,-0.1127045527100563
1711551361138076400,10.259076416015626,-0.36285367608070374,-0.06994401663541794,-0.2009745091199875
1711551361157036800,10.278036865234375,-0.20891575515270233,-0.18784092366695404,-0.3637699782848358
1711551361175997200,10.2969970703125,0.021685699000954628,-0.4459312856197357,-0.3805687427520752
1711551361194957300,10.315957275390625,0.2052505612373352,-0.8393282294273376,-0.2461785078048706
1711551361213918000,10.33491796875,0.2205221801996231,-1.0684025287628174,-0.04367683082818985
1711551361232878000,10.353878173828125,0.1951712965965271,-0.8008437156677246,0.08918625861406326
1711551361251838500,10.37283837890625,0.22174391150474548,-0.35613417625427246,0.11056652665138245
1711551361270798800,10.391798828125,0.14080433547496796,-0.1178968995809555,0.10231985151767731
1711551361289759200,10.41075927734375,0.03817904740571976,-0.13927717506885529,0.10445787757635117
1711551361308719600,10.4297197265625,0.06383536756038666,-0.3069595396518707,0.10201441496610641
1711551361327680000,10.448679931640624,0.14477495849132538,-0.46547895669937134,0.13622283935546875
1711551361346640400,10.467640380859375,0.1692095398902893,-0.47525280714035034,0.14660754799842834
1711551361365600800,10.486600830078125,0.08368847519159317,-0.22663083672523499,0.1279761642217636
1711551361384561200,10.50556103515625,-0.04550942778587341,0.13194678723812103,0.09651663154363632
1711551361403521500,10.524521484375,-0.12003492563962936,0.4712821841239929,0.0668896958231926
1711551361422482000,10.54348193359375,-0.12278381735086441,0.7037162184715271,0.06291907280683517
1711551361441442300,10.5624423828125,-0.09804379940032959,0.6887500286102295,0.04581485688686371
1711551361460402400,10.58140234375,-0.12278381735086441,0.5073232054710388,0.027488915249705315
1711551361479363000,10.600363037109375,-0.11362084746360779,0.15790854394435883,0.020158538594841957
1711551361498323200,10.6193232421875,-0.053145237267017365,-0.22663083672523499,0.019242240116000175
1711551361517283600,10.63828369140625,0.03023780696094036,-0.39736753702163696,0.053756099194288254
1711551361536244000,10.657243896484376,0.07055488228797913,-0.44318240880966187,0.022296564653515816
1711551361555204400,10.676204345703125,-0.019853105768561363,-0.4780016839504242,-0.05253437161445618
1711551361574164700,10.695164794921874,-0.08796452730894089,-0.4508182108402252,-0.06841685622930527
1711551361593125000,10.714125,-0.05283980444073677,-0.45906487107276917,-0.0461202897131443
1711551361612085500,10.73308544921875,0.021991131827235222,-0.5082395076751709,-0.04245510324835777
1711551361631046000,10.7520458984375,0.07055488228797913,-0.5671879649162292,-0.028405211865901947
1711551361650006300,10.77100634765625,0.041844237595796585,-0.5384773015975952,-0.049480047076940536
1711551361668966400,10.78996630859375,-0.017715077847242355,-0.3546070158481598,-0.10415244847536087
1711551361687927000,10.808927001953125,-0.06994401663541794,-0.07819069176912308,-0.15271618962287903
1711551361706887200,10.82788720703125,-0.08949168771505356,0.18570289015769958,-0.13500112295150757
1711551361725847600,10.84684765625,-0.11148282140493393,0.2211330533027649,-0.11575887352228165
1711551361744808000,10.865807861328125,-0.16859868168830872,0.16096286475658417,-0.14660754799842834
1711551361763768300,10.884768310546875,-0.18387030065059662,0.13133592903614044,-0.18295399844646454
1711551361782728700,10.903728759765626,-0.20952661335468292,0.1233946830034256,-0.20952661335468292
1711551361801689000,10.922689208984375,-0.3335321843624115,0.054672397673130035,-0.2663370370864868
1711551361820649200,10.941649169921876,-0.3686569035053253,-0.13072505593299866,-0.3094030022621155
1711551361839609600,10.960609619140625,-0.24984370172023773,-0.007024944759905338,-0.21441353857517242
1711551361858570000,10.979570068359376,-0.14049890637397766,0.20311254262924194,-0.1795942485332489
1711551361877530400,10.9985302734375,-0.20280711352825165,0.24342961609363556,-0.2367101013660431
1711551361896490800,11.01749072265625,-0.3387245237827301,0.22204934060573578,-0.3384190797805786
1711551361915451100,11.036451171875,-0.40714138746261597,0.2461785078048706,-0.406530499458313
1711551361934411500,11.05541162109375,-0.2910770773887634,0.3582721948623657,-0.27488914132118225
1711551361953372000,11.074371826171875,-0.11148282140493393,0.18875721096992493,-0.1795942485332489
1711551361972332000,11.09333203125,-0.12156209349632263,-0.11026109009981155,-0.1487455666065216
1711551361991292400,11.11229248046875,-0.2519817352294922,-0.2257145345211029,-0.20799945294857025
1711551362010252800,11.131252685546874,-0.33597561717033386,-0.30512696504592896,-0.3787361681461334
1711551362029213200,11.150213134765625,-0.22204934060573578,-0.4569268524646759,-0.3231474757194519
1711551362048173600,11.169173583984374,-0.053756099194288254,-0.6206386089324951,-0.17043127119541168
1711551362067134000,11.188134033203125,-0.044898562133312225,-0.6417134404182434,-0.14721840620040894
1711551362086094000,11.207093994140624,-0.1185077652335167,-0.49571678042411804,-0.231212317943573
1711551362105054700,11.2260546875,-0.17592905461788177,-0.2968802750110626,-0.2779434621334076
1711551362124014800,11.245014892578125,-0.20799945294857025,-0.12950333952903748,-0.27855435013771057
1711551362142975200,11.263975341796876,-0.1490510106086731,0.06963858753442764,-0.21899501979351044
1711551362161935600,11.282935546875,-0.10995566099882126,0.33231043815612793,-0.15790854394435883
1711551362180896000,11.30189599609375,-0.14110976457595825,0.4682278633117676,-0.1389717310667038
1711551362199856400,11.3208564453125,-0.16126830875873566,0.38667741417884827,-0.10079269111156464
1711551362218816800,11.339816650390626,-0.13744457066059113,0.2415970265865326,-0.10323614627122879
1711551362237777000,11.35877685546875,-0.05528326332569122,0.08613193035125732,-0.03909534588456154
1711551362256737500,11.377737548828126,0.02626718580722809,-0.15638138353824615,0.015577051788568497
1711551362275697700,11.39669775390625,0.0204639695584774,-0.24342961609363556,0.01954767294228077
1711551362294658000,11.415657958984376,0.021380268037319183,-0.20402882993221283,0.009162971749901772
1711551362313618400,11.434618408203125,0.013439024798572063,-0.06811141967773438,-0.06291907280683517
1711551362332578800,11.453578857421874,-0.049480047076940536,0.28985533118247986,-0.10659590363502502
1711551362351539200,11.472539306640625,-0.02626718580722809,0.6343830823898315,-0.06414080411195755
1711551362370499600,11.49149951171875,0.07635809481143951,0.5876519083976746,0.04062250629067421
1711551362389459700,11.510459716796875,0.11392628401517868,0.3845393657684326,0.09010255336761475
1711551362408420400,11.52942041015625,0.06841685622930527,0.3594939112663269,0.047952886670827866
1711551362427380500,11.54838037109375,0.060781046748161316,0.282524973154068,0.009773836471140385
1711551362446340900,11.5673408203125,0.07116574794054031,0.060781046748161316,-0.00946840364485979
1711551362465301200,11.58630126953125,0.05864302068948746,-0.050090912729501724,0.03451386094093323
1711551362484261600,11.60526171875,0.07483093440532684,-0.0565049909055233,0.0925460159778595
1711551362503222000,11.624221923828125,0.06200277432799339,0.003665188793092966,0.08063415437936783
1711551362522182400,11.643182373046875,-0.007941242307424545,0.01649334840476513,0.01954767294228077
1711551362541142500,11.662142578125,-0.008246674202382565,-0.08429934084415436,0.03940077871084213
1711551362560103200,11.681103271484375,-0.004886918235570192,-0.29443681240081787,0.04001164436340332
1711551362579063300,11.700063232421876,-0.02107483521103859,-0.22418737411499023,0.028099779039621353
1711551362598023700,11.719023681640625,0.01893680728971958,-0.023823726922273636,0.041844237595796585
1711551362616984000,11.737984130859376,0.03390299528837204,-0.01282816007733345,0.02871064469218254
1711551362635944400,11.7569443359375,0.010995565913617611,-0.02412915788590908,0.043982263654470444
1711551362654904800,11.77590478515625,0.008857538923621178,0.004581485874950886,0.06933315098285675
1711551362673865200,11.794865234375,0.05955931544303894,0,0.0665842592716217
1711551362692825600,11.81382568359375,0.08063415437936783,0.01954767294228077,0.059864748269319534
1711551362711786000,11.832785888671875,0.04153880476951599,0.025961752980947495,0.040317077189683914
1711551362730746400,11.851746337890624,0.0308486707508564,-0.08093958348035812,0.06719512492418289
1711551362749706500,11.87070654296875,0.035735588520765305,-0.15760311484336853,0.10018182545900345
1711551362768667000,11.8896669921875,0.000610864779446274,-0.07513637095689774,0.05100720748305321
1711551362787627300,11.908627197265625,-0.06261363625526428,0.07086031138896942,-0.022296564653515816
1711551362806587600,11.927587646484374,-0.1026252806186676,0.08674279600381851,-0.03848448023200035
1711551362825548000,11.946548095703125,-0.1438586562871933,-0.003665188793092966,-0.015271619893610477
1711551362844508400,11.96550830078125,-0.17073670029640198,-0.024434590712189674,-0.003970621153712273
1711551362863468800,11.98446875,-0.1905898153781891,-0.11087195575237274,-0.03451386094093323
1711551362882429200,12.00342919921875,-0.16859868168830872,-0.25045454502105713,-0.0513126403093338
1711551362901389600,12.0223896484375,-0.17134757339954376,-0.10537417232990265,-0.06597339361906052
1711551362920350000,12.041349853515625,-0.23732095956802368,0.23182319104671478,-0.11117739230394363
1711551362939310000,12.06031005859375,-0.29504770040512085,0.43860089778900146,-0.08979712426662445
1711551362958270500,12.0792705078125,-0.27000224590301514,0.38759371638298035,-0.0412333719432354
1711551362977230800,12.09823095703125,-0.22663083672523499,0.38331764936447144,-0.03909534588456154
1711551362996191200,12.117191162109375,-0.22876885533332825,0.4773908257484436,-0.1078176349401474
1711551363015151600,12.136151611328126,-0.2519817352294922,0.3491092324256897,-0.07971785217523575
1711551363034112000,12.155112060546875,-0.20463970303535461,-0.2214384824037552,-0.01649334840476513
1711551363053072400,12.174072265625,-0.2055560052394867,-0.6139190793037415,-0.003665188793092966
1711551363072032800,12.19303271484375,-0.20189081132411957,-0.5995637774467468,-0.07757982611656189
1711551363090993200,12.2119931640625,-0.18875721096992493,-0.3909534513950348,-0.13775001466274261
1711551363109953500,12.23095361328125,-0.20372340083122253,-0.2208276242017746,-0.13988803327083588
1711551363128913700,12.24991357421875,-0.3500255048274994,-0.08765909820795059,-0.15668681263923645
1711551363147874300,12.268874267578125,-0.4364628791809082,0.12950333952903748,-0.16676609218120575
1711551363166834400,12.28783447265625,-0.33505934476852417,0.26022839546203613,-0.12064579129219055
1711551363185794800,12.306794921875,-0.27458372712135315,0.13103049993515015,-0.07849612087011337
1711551363204755200,12.325755126953124,-0.3854556679725647,-0.10415244847536087,-0.12522727251052856
1711551363223715600,12.344715576171875,-0.45478883385658264,-0.2516762912273407,-0.16340632736682892
1711551363242676000,12.363676025390625,-0.46608981490135193,-0.27977606654167175,-0.15515965223312378
1711551363261636400,12.38263623046875,-0.45906487107276917,-0.3860665261745453,-0.1380554437637329
1711551363280596700,12.4015966796875,-0.401949018239975,-0.5427533388137817,-0.11148282140493393
1711551363299557000,12.42055712890625,-0.34086254239082336,-0.56382817029953,-0.10354158282279968
1711551363318517500,12.439517578125,-0.3023780584335327,-0.3689623177051544,-0.06261363625526428
1711551363337478000,12.458477783203126,-0.32131487131118774,-0.17837251722812653,-0.11728604137897491
1711551363356438300,12.477438232421875,-0.3704894781112671,-0.032681263983249664,-0.17195843160152435
1711551363375398700,12.496398681640626,-0.3228420317173004,0.12492185086011887,-0.13041962683200836
1711551363394359000,12.515359130859375,-0.19089524447917938,0.2922987937927246,-0.031154103577136993
1711551363413319400,12.5343193359375,-0.15027274191379547,0.3127627670764923,0.014049889519810677
1711551363432279800,12.55327978515625,-0.16004657745361328,0.21807873249053955,0.02412915788590908
1711551363451240000,12.572239990234374,-0.14172062277793884,0.11667517572641373,0.019242240116000175
1711551363470200600,12.59120068359375,-0.11881320178508759,0.019242240116000175,0.021991131827235222
1711551363489160700,12.61016064453125,-0.07483093440532684,-0.06811141967773438,0.05406153202056885
1711551363508121000,12.62912109375,-0.04734202101826668,-0.10934479534626007,0.07941242307424545
1711551363527081700,12.648081787109374,-0.08491020649671555,-0.033597562462091446,0.07788526266813278
1711551363546041900,12.667041748046875,-0.13591741025447845,0.07605266571044922,0.06322450190782547
1711551363565002200,12.686002197265625,-0.17348559200763702,0.21838416159152985,0.06108647957444191
1711551363583962600,12.704962646484375,-0.18631376326084137,0.3442223072052002,0.05253437161445618
1711551363602923000,12.723923095703125,-0.16157373785972595,0.31551164388656616,0.030543239787220955
1711551363621883400,12.74288330078125,-0.17531819641590118,0.22357651591300964,0.04001164436340332
1711551363640843800,12.76184375,-0.19242240488529205,0.07605266571044922,0.061391908675432205
1711551363659804200,12.78080419921875,-0.17898337543010712,-0.11239911615848541,0.07055488228797913
1711551363678764500,12.7997646484375,-0.11026109009981155,-0.36835145950317383,0.06994401663541794
1711551363697725000,12.818724853515626,0.007024944759905338,-0.6157516837120056,0.046425722539424896
1711551363716685300,12.837685302734375,0.024740023538470268,-0.6924152374267578,0.027488915249705315
1711551363735645700,12.856645751953126,-0.0054977829568088055,-0.638353705406189,-0.008857538923621178
1711551363754606000,12.875606201171875,-0.008857538923621178,-0.46028661727905273,-0.0412333719432354
1711551363773566500,12.89456640625,-0.007330377586185932,-0.18906265497207642,-0.0409279391169548
1711551363792526800,12.91352685546875,0.018631376326084137,0.09437860548496246,-0.004886918235570192
1711551363811487200,12.9324873046875,0.015577051788568497,0.2886336147785187,-0.008857538923621178
1711551363830447600,12.951447509765625,-0.07910698652267456,0.3995055556297302,-0.0565049909055233
1711551363849408000,12.970407958984374,-0.11972949653863907,0.4581485986709595,-0.06505709886550903
1711551363868368400,12.989368408203125,-0.07971785217523575,0.4630354940891266,-0.05894844979047775
1711551363887328800,13.008328857421875,-0.05406153202056885,0.3897317349910736,-0.03817904740571976
1711551363906289200,13.0272890625,-0.06536252796649933,0.32589635252952576,-0.035735588520765305
1711551363925249500,13.04624951171875,-0.09987638890743256,0.26480987668037415,-0.02412915788590908
1711551363944210000,13.0652099609375,-0.07422006875276566,0.024740023538470268,0.041844237595796585
1711551363963170300,13.08417041015625,-0.014966187067329884,-0.2528980076313019,0.09957095980644226
1711551363982130700,13.103130615234376,-0.07055488228797913,-0.40378162264823914,0.12064579129219055
1711551364001091000,13.122091064453125,-0.09865466505289078,-0.4413498044013977,0.07269290834665298
1711551364020051500,13.141051513671876,-0.03695731982588768,-0.36712974309921265,0.021685699000954628
1711551364039011600,13.160011474609375,0.010079269297420979,-0.20280711352825165,-0.0021380267571657896
1711551364057972200,13.17897216796875,-0.000305432389723137,-0.008246674202382565,-0.008246674202382565
1711551364076932600,13.1979326171875,-0.04062250629067421,0.1646280586719513,-0.01282816007733345
1711551364095892700,13.216892822265624,-0.09040798991918564,0.3384190797805786,-0.019853105768561363
1711551364114853400,13.235853271484375,-0.08888082206249237,0.43371400237083435,-0.018631376326084137
1711551364133813800,13.254813720703124,-0.004581485874950886,0.4153880476951599,-0.034208428114652634
1711551364152774000,13.27377392578125,0.08765909820795059,0.28435754776000977,-0.04214967042207718
1711551364171734500,13.292734619140624,0.11759147047996521,0.10506874322891235,-0.05192350596189499
1711551364190695000,13.31169482421875,0.0873536616563797,-0.025961752980947495,-0.05497783049941063
1711551364209655000,13.330655029296874,0.07391463965177536,-0.0616973415017128,-0.021380268037319183
1711551364228615700,13.34961572265625,0.10323614627122879,-0.11423171311616898,0.028099779039621353
1711551364247576000,13.368576171875,0.1279761642217636,-0.19333870708942413,0.056199558079242706
1711551364266536200,13.3875361328125,0.11698060482740402,-0.2360992431640625,0.06047561392188072
1711551364285496800,13.406496826171875,0.10720676928758621,-0.2611446976661682,0.0824667438864708
1711551364304457200,13.425457275390626,0.14477495849132538,-0.2864955961704254,0.08032871782779694
1711551364323417300,13.444417236328125,0.1802051067352295,-0.25411975383758545,0.06872228533029556
1711551364342377700,13.463377685546876,0.17653992772102356,-0.19120067358016968,0.0665842592716217
1711551364361338000,13.482338134765625,0.1389717310667038,-0.06597339361906052,0.06963858753442764
1711551364380298500,13.501298583984376,0.09865466505289078,0.08368847519159317,0.06627883017063141
1711551364399259000,13.5202587890625,0.0821613147854805,0.18295399844646454,0.05711585655808449
1711551364418219300,13.53921923828125,0.09376774728298187,0.2202167510986328,0.06627883017063141
1711551364437179600,13.5581796875,0.12003492563962936,0.21135921776294708,0.07788526266813278
1711551364456140000,13.57714013671875,0.13072505593299866,0.15760311484336853,0.06872228533029556
1711551364475100400,13.596100341796875,0.13255766034126282,0.050090912729501724,0.0565049909055233
1711551364494060800,13.615060791015624,0.11178825795650482,-0.009773836471140385,0.06627883017063141
1711551364513021200,13.634021240234375,0.1081230640411377,-0.03298669680953026,0.09987638890743256
1711551364531981600,13.652981689453124,0.1230892539024353,-0.001832594396546483,0.13194678723812103
1711551364550942000,13.67194189453125,0.1282816082239151,0.05345066636800766,0.14538581669330597
1711551364569902300,13.69090234375,0.1233946830034256,0.12644900381565094,0.14630211889743805
1711551364588862700,13.70986279296875,0.12003492563962936,0.20769402384757996,0.13958260416984558
1711551364607823000,13.728822998046875,0.129197895526886,0.21746785938739777,0.1389717310667038
1711551364626783500,13.747783447265626,0.11728604137897491,0.2406807243824005,0.14049890637397766
1711551364645743900,13.766743896484375,0.11239911615848541,0.291687935590744,0.1185077652335167
1711551364664704300,13.785704345703126,0.12522727251052856,0.3194822669029236,0.10079269111156464
1711551364683664600,13.80466455078125,0.1279761642217636,0.2977965772151947,0.09315688163042068
1711551364702625000,13.823625,0.11392628401517868,0.29474225640296936,0.10109812021255493
1711551364721585400,13.84258544921875,0.09132428467273712,0.27977606654167175,0.10323614627122879
1711551364740545800,13.8615458984375,0.07422006875276566,0.2415970265865326,0.10690133273601532
1711551364759506200,13.880506103515625,0.07360920310020447,0.17348559200763702,0.10873392969369888
1711551364778466600,13.899466552734374,0.0717766135931015,0.11423171311616898,0.12186752259731293
1711551364797427000,13.918427001953125,0.08521563559770584,0.035735588520765305,0.1954767256975174
1711551364816387300,13.93738720703125,0.10873392969369888,-0.07971785217523575,0.24434591829776764
1711551364835347700,13.95634765625,0.13713914155960083,-0.13652828335762024,0.24862197041511536
1711551364854307800,13.975307861328124,0.1389717310667038,-0.1536324918270111,0.24404047429561615
1711551364873268500,13.9942685546875,0.13561198115348816,-0.1337793916463852,0.24434591829776764
1711551364892228900,14.013228759765624,0.1337793916463852,-0.07299833744764328,0.25442516803741455
1711551364911189000,14.03218896484375,0.1328630894422531,0.03481929376721382,0.27977606654167175
1711551364930149600,14.051149658203125,0.1288924664258957,0.14294235408306122,0.2605338394641876
1711551364949109800,14.07010986328125,0.05803215503692627,0.20769402384757996,0.21930044889450073
1711551364968070100,14.089070068359375,-0.0030543238390237093,0.22724169492721558,0.2159406989812851
1711551364987030500,14.108030517578126,0.006414080038666725,0.20189081132411957,0.2159406989812851
1711551365005991000,14.126990966796875,0.03634645417332649,0.07330377399921417,0.189673513174057
1711551365024951300,14.145951416015626,0.0772743970155716,-0.07635809481143951,0.1484401375055313
1711551365043911700,14.16491162109375,0.0925460159778595,-0.23335035145282745,0.07544180005788803
1711551365062872000,14.1838720703125,0.018325943499803543,-0.3081812858581543,0.008246674202382565
1711551365081832400,14.20283251953125,-0.0769689604640007,-0.23732095956802368,-0.05192350596189499
1711551365100792800,14.221792724609376,-0.11514800786972046,-0.037262752652168274,-0.04428769648075104
1711551365119753200,14.240753173828125,-0.13927717506885529,0.1847866028547287,-0.0054977829568088055
1711551365138713600,14.259713623046874,-0.143553227186203,0.3326158821582794,0.05192350596189499
1711551365157674000,14.278674072265625,-0.0925460159778595,0.3802633285522461,0.1588248461484909
1711551365176634000,14.297634033203124,-0.036651886999607086,0.3066541254520416,0.1585194170475006
1711551365195594500,14.316594482421875,-0.0054977829568088055,0.14721840620040894,0.129197895526886
1711551365214555000,14.335554931640624,0.056199558079242706,-0.07574722915887833,0.08399390429258347
1711551365233515300,14.354515380859375,0.09896009415388107,-0.18264856934547424,0.015271619893610477
1711551365252475600,14.3734755859375,0.10598503798246384,-0.1487455666065216,0.00946840364485979
1711551365271436000,14.39243603515625,0.0974329337477684,-0.16554436087608337,0.06352993845939636
1711551365290396400,14.411396484375,0.0873536616563797,-0.18112140893936157,0.07452550530433655
1711551365309356800,14.430356689453125,0.08124501258134842,-0.07116574794054031,0.07116574794054031
1711551365328317000,14.44931689453125,0.06963858753442764,0.07574722915887833,0.030543239787220955
1711551365347277300,14.46827734375,0.0204639695584774,0.26480987668037415,-0.04673115536570549
1711551365366237700,14.48723779296875,-0.026878049597144127,0.3790415823459625,-0.043371398001909256
1711551365385198000,14.506197998046876,-0.018325943499803543,0.3393353819847107,0.0015271619195118546
1711551365404158500,14.525158447265625,0.03695731982588768,0.1844811588525772,0.0204639695584774
1711551365423118800,14.544118896484376,0.11026109009981155,-0.05039634555578232,0.004581485874950886
1711551365442079200,14.563079345703125,0.18784092366695404,-0.2864955961704254,-0.04459312930703163
1711551365461039600,14.58203955078125,0.20280711352825165,-0.40958482027053833,-0.07513637095689774
1711551365479999700,14.600999755859375,0.2006690800189972,-0.4886918365955353,-0.07452550530433655
1711551365498960100,14.619960205078126,0.22754712402820587,-0.565049946308136,-0.051618073135614395
1711551365517920500,14.63892041015625,0.24251331388950348,-0.5488619804382324,-0.06780599057674408
1711551365536881000,14.657880859375,0.19853104650974274,-0.4367683231830597,-0.09529490768909454
1711551365555841300,14.67684130859375,0.11178825795650482,-0.1957821547985077,-0.11239911615848541
1711551365574801700,14.6958017578125,0.03940077871084213,0.07269290834665298,-0.12431098520755768
1711551365593761800,14.71476171875,-0.028099779039621353,0.3631591200828552,-0.09804379940032959
1711551365612722400,14.733722412109374,-0.013744457624852657,0.5296197533607483,-0.008552107028663158
1711551365631682600,14.7526826171875,0.02718348242342472,0.4764745235443115,0.05833758786320686
1711551365650643000,14.771642822265624,-0.006108647678047419,0.2864955961704254,0.056810423731803894
1711551365669603300,14.790603271484375,-0.03176496922969818,0.05253437161445618,0.014049889519810677
1711551365688563700,14.809563720703125,-0.016187917441129684,-0.05864302068948746,-0.0015271619195118546
1711551365707524000,14.828524169921875,-0.0461202897131443,0.009162971749901772,0.019853105768561363
1711551365726484200,14.847484130859375,-0.10567960888147354,0.143553227186203,0.06994401663541794
1711551365745444600,14.866444580078126,-0.12522727251052856,0.1545487940311432,0.10140355676412582
1711551365764405000,14.885405029296875,-0.07605266571044922,0.06444623321294785,0.10659590363502502
1711551365783365400,14.904365478515626,-0.002443459117785096,0.01649334840476513,0.044898562133312225
1711551365802325800,14.92332568359375,-0.017104214057326317,-0.010079269297420979,-0.014660755172371864
1711551365821286000,14.942285888671876,-0.1026252806186676,-0.008246674202382565,-0.03817904740571976
1711551365840246300,14.961246337890625,-0.11362084746360779,0.09132428467273712,-0.03634645417332649
1711551365859206700,14.98020654296875,-0.047036588191986084,0.11148282140493393,-0.03023780696094036
1711551365878167000,14.9991669921875,0.03145953640341759,0.06017018109560013,-0.043371398001909256
1711551365897127400,15.01812744140625,0.059864748269319534,-0.01893680728971958,-0.05864302068948746
1711551365916087600,15.037087646484375,0.019853105768561363,-0.0360410213470459,-0.07483093440532684
1711551365935048000,15.0560478515625,0.007330377586185932,0.09712749719619751,-0.05711585655808449
1711551365954008300,15.07500830078125,0.023823726922273636,0.2254091054201126,-0.03909534588456154
1711551365972968700,15.09396875,0.028405211865901947,0.25870123505592346,-0.01954767294228077
1711551365991929000,15.11292919921875,0.06444623321294785,0.16768237948417664,0.03848448023200035
1711551366010889200,15.13188916015625,0.13622283935546875,-0.02779434807598591,0.02107483521103859
1711551366029849600,15.150849609375,0.19211697578430176,-0.24037529528141022,-0.030543239787220955
1711551366048810000,15.16981005859375,0.24770566821098328,-0.5998691916465759,-0.015577051788568497
1711551366067770400,15.188770263671875,0.3274235129356384,-0.8283326625823975,-0.035735588520765305
1711551366086730500,15.20773046875,0.30024003982543945,-0.7171552777290344,-0.012522728182375431
1711551366105691000,15.22669091796875,0.1997527778148651,-0.45448338985443115,-0.02779434807598591
1711551366124651300,15.2456513671875,0.1130099818110466,-0.06322450190782547,-0.05711585655808449
1711551366143611400,15.264611328125,0.06994401663541794,0.21991132199764252,-0.049480047076940536
1711551366162571800,15.28357177734375,0.12980876863002777,0.29596397280693054,-0.021685699000954628
1711551366181532200,15.3025322265625,0.14691297709941864,0.20891575515270233,0.013439024798572063
1711551366200492500,15.321492431640625,0.12278381735086441,0.05436696484684944,-0.01435532234609127
1711551366219452700,15.34045263671875,0.1288924664258957,-0.03237583488225937,-0.0665842592716217
1711551366238413000,15.3594130859375,0.11362084746360779,0.007330377586185932,-0.07757982611656189
1711551366257373400,15.37837353515625,0.10231985151767731,0.1386663019657135,-0.05589412897825241
1711551366276333600,15.39733349609375,0.10323614627122879,0.2159406989812851,-0.04428769648075104
1711551366295294000,15.4162939453125,0.11239911615848541,0.1948658674955368,-0.05955931544303894
1711551366314254300,15.43525439453125,0.10445787757635117,0.09407317638397217,-0.0974329337477684
1711551366333214700,15.454214599609376,0.0873536616563797,-0.01435532234609127,-0.12492185086011887
1711551366352174800,15.4731748046875,0.09865466505289078,-0.07971785217523575,-0.12003492563962936
1711551366371135200,15.49213525390625,0.10323614627122879,-0.07116574794054031,-0.07910698652267456
1711551366390095600,15.511095703125,0.16859868168830872,-0.19303326308727264,-0.028405211865901947
1711551366409055700,15.5300556640625,0.2574795186519623,-0.38850998878479004,-0.01282816007733345
1711551366428016000,15.54901611328125,0.258395791053772,-0.3900371491909027,-0.005803215317428112
1711551366446976500,15.5679765625,0.17256930470466614,-0.16829325258731842,-0.037262752652168274
1711551366465937000,15.58693701171875,0.053145237267017365,0.16065743565559387,-0.06872228533029556
1711551366484897000,15.60589697265625,-0.041844237595796585,0.4248564541339874,-0.07513637095689774
1711551366503857400,15.624857421875,-0.0015271619195118546,0.370184063911438,-0.06719512492418289
1711551366522817800,15.64381787109375,0.04276053607463837,0.19089524447917938,-0.053756099194288254
1711551366541778200,15.662778076171875,0.02260199747979641,0.04886918142437935,-0.08643736690282822
1711551366560738300,15.68173828125,-0.0409279391169548,-0.014966187067329884,-0.11392628401517868
1711551366579698700,15.70069873046875,-0.10201441496610641,0.06902772188186646,-0.1130099818110466
1711551366598658800,15.719658935546875,-0.12767073512077332,0.24465134739875793,-0.12156209349632263
1711551366617619200,15.738619140625,-0.13775001466274261,0.3759872615337372,-0.13225223124027252
1711551366636579600,15.75757958984375,-0.15149445831775665,0.4923570156097412,-0.11728604137897491
1711551366655539700,15.776539794921876,-0.16646064817905426,0.6386591196060181,-0.1279761642217636
1711551366674500000,15.7955,-0.164322629570961,0.7082977294921875,-0.13744457066059113
1711551366693460500,15.81446044921875,-0.08460476994514465,0.4529562294483185,-0.0922405794262886
1711551366712420600,15.833420654296875,-0.007024944759905338,0.061391908675432205,-0.02871064469218254
1711551366731381000,15.852381103515626,0.021685699000954628,-0.3017672002315521,-0.005803215317428112
1711551366750341400,15.87134130859375,0.01954767294228077,-0.5290089249610901,-0.05345066636800766
1711551366769301500,15.890301513671876,-0.006414080038666725,-0.547029435634613,-0.09071341902017593
1711551366788262000,15.909261962890625,-0.04214967042207718,-0.34238970279693604,-0.09437860548496246
1711551366807222300,15.92822216796875,-0.06780599057674408,0.0256563201546669,-0.06719512492418289
1711551366826182400,15.947182373046875,-0.07941242307424545,0.28985533118247986,-0.04520399495959282
1711551366845142800,15.966142822265626,-0.06475166976451874,0.32528549432754517,-0.011300998739898205
1711551366864103200,15.985103271484375,-0.011911863461136818,0.1747073233127594,-0.010995565913617611
1711551366883063300,16.004063232421874,0.06566796451807022,-0.05589412897825241,-0.025045456364750862
1711551366902023700,16.023023681640623,0.06627883017063141,-0.22235478460788727,-0.03695731982588768
1711551366920983800,16.04198388671875,0.032681263983249664,-0.19822561740875244,-0.04428769648075104
1711551366939944200,16.060944091796873,0.04764745384454727,-0.17684535682201385,-0.0409279391169548
1711551366958904600,16.079904541015626,0.08643736690282822,-0.2156352698802948,-0.006414080038666725
1711551366977864700,16.09886474609375,0.09407317638397217,-0.20311254262924194,0.011911863461136818
1711551366996825000,16.1178251953125,0.08949168771505356,-0.19761475920677185,-0.002443459117785096
1711551367015785500,16.136785400390625,0.05345066636800766,-0.14996729791164398,-0.03634645417332649
1711551367034745600,16.15574560546875,-0.01740964688360691,-0.025350889191031456,-0.04306596517562866
1711551367053706000,16.1747060546875,-0.002443459117785096,0.08979712426662445,-0.017715077847242355
1711551367072666400,16.193666259765624,0.04550942778587341,0.168904110789299,0.028405211865901947
1711551367091626500,16.21262646484375,0.0769689604640007,0.11728604137897491,0.03787361457943916
1711551367110587000,16.2315869140625,0.05864302068948746,-0.08552107214927673,-0.001221729558892548
1711551367129547000,16.250547119140624,0.02626718580722809,-0.2922987937927246,-0.0256563201546669
1711551367148507400,16.26950732421875,0.01282816007733345,-0.32131487131118774,-0.01954767294228077
1711551367167467800,16.2884677734375,0.016798781231045723,-0.22418737411499023,-0.02779434807598591
1711551367186428000,16.307427978515626,-0.011911863461136818,-0.08032871782779694,-0.023212861269712448
1711551367205388300,16.32638818359375,-0.024740023538470268,0.0668896958231926,0.009773836471140385
1711551367224348700,16.3453486328125,-0.014966187067329884,0.16279546916484833,0.005192350596189499
1711551367243308800,16.364308837890626,-0.005803215317428112,0.19425499439239502,0.0030543238390237093
1711551367262269200,16.383269287109375,-0.005803215317428112,0.1805105358362198,-0.015271619893610477
1711551367281229300,16.402229248046876,-0.012217295356094837,0.1737910360097885,-0.028099779039621353
1711551367300189700,16.421189697265625,-0.018631376326084137,0.15241076052188873,-0.021685699000954628
1711551367319150000,16.440150146484374,-0.025961752980947495,0.0977383628487587,-0.011300998739898205
1711551367338110500,16.4591103515625,-0.029626941308379173,0.024434590712189674,-0.00946840364485979
1711551367357070600,16.478070556640624,0.007024944759905338,-0.09804379940032959,-0.014966187067329884
1711551367376031000,16.497031005859377,0.011606430634856224,-0.13683371245861053,-0.03543015569448471
1711551367394991000,16.5159912109375,-0.021685699000954628,-0.1130099818110466,-0.047036588191986084
1711551367413951500,16.534951416015623,-0.032681263983249664,-0.09834922850131989,-0.04520399495959282
1711551367432912000,16.553911865234376,-0.02932151034474373,-0.061391908675432205,-0.03298669680953026
1711551367451872000,16.5728720703125,-0.008857538923621178,-0.016187917441129684,-0.04214967042207718
1711551367470832400,16.591832275390626,-0.000610864779446274,0.008246674202382565,-0.06352993845939636
1711551367489792800,16.610792724609375,-0.02718348242342472,0.0027488914784044027,-0.06352993845939636
1711551367508753000,16.6297529296875,-0.0616973415017128,0.05528326332569122,-0.05711585655808449
1711551367527713300,16.64871337890625,-0.05864302068948746,0.15546508133411407,-0.056199558079242706
1711551367546673700,16.667673583984374,-0.02871064469218254,0.20891575515270233,-0.04886918142437935
1711551367565633800,16.6866337890625,-0.0308486707508564,0.19761475920677185,-0.0412333719432354
1711551367584594200,16.70559423828125,-0.056199558079242706,0.17867794632911682,-0.04581485688686371
1711551367603554300,16.72455419921875,-0.05100720748305321,0.15118902921676636,-0.0616973415017128
1711551367622514700,16.7435146484375,-0.020769402384757996,0.0922405794262886,-0.056810423731803894
1711551367641475000,16.76247509765625,0.009162971749901772,-0.03695731982588768,-0.04581485688686371
1711551367660435500,16.781435546875,0.04214967042207718,-0.1026252806186676,-0.04062250629067421
1711551367679395600,16.8003955078125,0.04001164436340332,-0.06230820715427399,-0.053145237267017365
1711551367698356000,16.81935595703125,0.011606430634856224,-0.02932151034474373,-0.08032871782779694
1711551367717316000,16.838316162109376,0.014660755172371864,-0.005803215317428112,-0.09071341902017593
1711551367736276500,16.8572763671875,0.0461202897131443,0.04062250629067421,-0.0665842592716217
1711551367755236900,16.87623681640625,0.07422006875276566,0.004886918235570192,-0.06047561392188072
1711551367774197200,16.895197265625,0.06536252796649933,-0.043371398001909256,-0.06811141967773438
1711551367793157400,16.914157470703124,0.04886918142437935,-0.021685699000954628,-0.08521563559770584
1711551367812117800,16.93311767578125,0.05345066636800766,0.024740023538470268,-0.09285144507884979
1711551367831078000,16.952077880859374,0.07024945318698883,0.0766635313630104,-0.08613193035125732
1711551367850038300,16.971038330078127,0.07819069176912308,0.10598503798246384,-0.07024945318698883
1711551367868998700,16.98999853515625,0.08613193035125732,0.06963858753442764,-0.07299833744764328
1711551367887958800,17.008958740234377,0.09071341902017593,0.029016077518463135,-0.09529490768909454
1711551367906919200,17.027919189453126,0.09804379940032959,-0.02871064469218254,-0.10323614627122879
1711551367925879600,17.046879638671875,0.09834922850131989,-0.07941242307424545,-0.09162971377372742
1711551367944840000,17.06583984375,0.09926552325487137,-0.11514800786972046,-0.10751219838857651
1711551367963800000,17.084800048828125,0.10873392969369888,-0.2156352698802948,-0.12186752259731293
1711551367982760400,17.103760498046874,0.11209368705749512,-0.28954991698265076,-0.11667517572641373
1711551368001720600,17.122720458984375,0.09926552325487137,-0.22510367631912231,-0.10323614627122879
1711551368020681000,17.141680908203124,0.09162971377372742,-0.020158538594841957,-0.10965022444725037
1711551368039641300,17.160641357421873,0.06627883017063141,0.18081597983837128,-0.09804379940032959
1711551368058601700,17.179601806640626,0.06750056147575378,0.2309068888425827,-0.04214967042207718
1711551368077561900,17.198561767578123,0.11056652665138245,0.10690133273601532,-0.01282816007733345
1711551368096522200,17.217522216796876,0.168904110789299,-0.08857539296150208,-0.024434590712189674
1711551368115482400,17.236482421875,0.1640172004699707,-0.14202606678009033,-0.05192350596189499
1711551368134442800,17.25544287109375,0.10384701192378998,-0.061391908675432205,-0.09193515032529831
1711551368153403100,17.274403076171875,0.04550942778587341,0.08643736690282822,-0.08613193035125732
1711551368172363300,17.29336328125,0.032681263983249664,0.19089524447917938,-0.044898562133312225
1711551368191323600,17.31232373046875,0.03695731982588768,0.14233149588108063,-0.04673115536570549
1711551368210284000,17.331283935546875,0.043982263654470444,-0.07055488228797913,-0.07238747924566269
1711551368229244400,17.350244384765624,0.07574722915887833,-0.4013381600379944,-0.04978547990322113
1711551368248204500,17.36920458984375,0.09834922850131989,-0.5913171172142029,0.005192350596189499
1711551368267165000,17.3881650390625,0.09285144507884979,-0.39339691400527954,0.01435532234609127
1711551368286125300,17.407125244140627,-0.005192350596189499,-0.07544180005788803,-0.012522728182375431
1711551368305085400,17.42608544921875,-0.13255766034126282,0.18356487154960632,-0.010995565913617611
1711551368324045800,17.4450458984375,-0.1441640853881836,0.2110537886619568,0.03848448023200035
1711551368343006200,17.464006103515626,-0.05283980444073677,0.06841685622930527,0.06841685622930527
1711551368361966300,17.48296630859375,-0.02718348242342472,-0.08949168771505356,0.04520399495959282
1711551368380926700,17.5019267578125,-0.09987638890743256,-0.1438586562871933,-0.017715077847242355
1711551368399887000,17.52088720703125,-0.19700388610363007,0.049480047076940536,-0.05436696484684944
1711551368418847200,17.53984716796875,-0.24709481000900269,0.2162461280822754,-0.039706211537122726
1711551368437807600,17.5588076171875,-0.24220788478851318,0.2977965772151947,-0.00946840364485979
1711551368456768000,17.57776806640625,-0.22968515753746033,0.2971857190132141,-0.021380268037319183
1711551368475728400,17.596728271484373,-0.2406807243824005,0.13011419773101807,-0.003970621153712273
1711551368494688500,17.6156884765625,-0.20372340083122253,-0.16646064817905426,0.04428769648075104
1711551368513649000,17.63464892578125,-0.1585194170475006,-0.2528980076313019,0.0922405794262886
1711551368532609000,17.653609130859376,-0.16707152128219604,-0.24312418699264526,0.0720820426940918
1711551368551569400,17.6725693359375,-0.2519817352294922,-0.314289927482605,0.003970621153712273
1711551368570529800,17.69152978515625,-0.3271180987358093,-0.3295615613460541,-0.00946840364485979
1711551368589490000,17.710489990234375,-0.2977965772151947,-0.20708316564559937,0.053145237267017365
1711551368608450300,17.7294501953125,-0.2516762912273407,-0.06291907280683517,0.09560033679008484
1711551368627410700,17.74841064453125,-0.3430005609989166,0.06475166976451874,0.0360410213470459
1711551368646371000,17.76737109375,-0.47006043791770935,0.18356487154960632,-0.04306596517562866
1711551368665331200,17.786331298828124,-0.5464185476303101,0.3194822669029236,-0.07605266571044922
1711551368684291600,17.80529150390625,-0.6209440231323242,0.40714138746261597,-0.04459312930703163
1711551368703251700,17.824251708984374,-0.5965094566345215,0.5510000586509705,0.04673115536570549
1711551368722212000,17.843212158203126,-0.5406153202056885,0.44898560643196106,0.004581485874950886
1711551368741172500,17.86217236328125,-0.5427533388137817,0.15241076052188873,-0.09101885557174683
1711551368760132900,17.8811328125,-0.5958985686302185,-0.13439024984836578,-0.16737695038318634
1711551368779093000,17.900093017578126,-0.6456840634346008,-0.3133736252784729,-0.08857539296150208
1711551368798053400,17.919053466796875,-0.4944950342178345,-0.5677987933158875,0.03543015569448471
1711551368817013800,17.938013671875,-0.35674503445625305,-0.8042035102844238,0.034208428114652634
1711551368835974000,17.956973876953125,-0.4529562294483185,-0.9089667797088623,-0.06200277432799339
1711551368854934300,17.975934326171874,-0.6365211009979248,-0.8649845123291016,-0.1740964651107788
1711551368873894700,17.994894775390627,-0.6814196705818176,-0.5897899270057678,-0.15485422313213348
1711551368892854800,18.013854736328124,-0.508544921875,-0.20127993822097778,-0.09804379940032959
1711551368911815200,18.032815185546873,-0.34055712819099426,0.01893680728971958,-0.09040798991918564
1711551368930775600,18.051775634765626,-0.4159989058971405,0.04520399495959282,-0.12156209349632263
1711551368949735700,18.070735595703123,-0.500298261642456,0.0922405794262886,-0.12461641430854797
1711551368968696000,18.089696044921876,-0.4358520209789276,0.1805105358362198,-0.11056652665138245
1711551368987656400,18.108656494140625,-0.31490078568458557,0.21960589289665222,-0.11636973917484283
1711551369006616800,18.127616943359374,-0.27397283911705017,0.20677772164344788,-0.08491020649671555
1711551369025577000,18.146576904296875,-0.2309068888425827,0.17653992772102356,-0.01954767294228077
1711551369044537300,18.165537353515624,-0.1588248461484909,0.061391908675432205,-0.024740023538470268
1711551369063497700,18.184497802734374,-0.03298669680953026,-0.143553227186203,0.025350889191031456
1711551369082457900,18.203457763671874,0.09834922850131989,-0.4407389461994171,0.034208428114652634
1711551369101418200,18.222418212890624,0.16829325258731842,-0.7770199775695801,-0.013744457624852657
1711551369120378400,18.24137841796875,0.1902843713760376,-1.0009019374847412,-0.05039634555578232
1711551369139338800,18.2603388671875,0.16646064817905426,-0.9104939699172974,-0.0769689604640007
1711551369158299100,18.279299072265626,0.11423171311616898,-0.583375871181488,-0.05345066636800766
1711551369177259500,18.298259521484376,0.09040798991918564,-0.16218459606170654,0.007330377586185932
1711551369196219600,18.3172197265625,0.08032871782779694,0.16126830875873566,0.03023780696094036
1711551369215180000,18.336179931640626,0.02626718580722809,0.4062250852584839,0.0766635313630104
1711551369234140400,18.355140380859375,-0.009162971749901772,0.4862483739852905,0.051618073135614395
1711551369253100500,18.3741005859375,-0.032681263983249664,0.4407389461994171,-0.04428769648075104
1711551369272061000,18.39306103515625,-0.03940077871084213,0.3078758418560028,-0.0977383628487587
1711551369291021300,18.412021240234374,-0.008552107028663158,0.17684535682201385,-0.05711585655808449
1711551369309981700,18.430981689453127,0.057726722210645676,-0.004886918235570192,-0.01893680728971958
1711551369328941800,18.44994189453125,0.06780599057674408,-0.1282816082239151,0.002443459117785096
1711551369347902200,18.468902099609377,0.03329212963581085,-0.2055560052394867,-0.018325943499803543
1711551369366862300,18.4878623046875,0.017104214057326317,-0.22785256803035736,-0.05589412897825241
1711551369385822700,18.50682275390625,0.032681263983249664,-0.19761475920677185,-0.0565049909055233
1711551369404783000,18.525783203125,0.038789913058280945,-0.07024945318698883,-0.0009162971982732415
1711551369423743500,18.544743408203125,0.028405211865901947,0.010690134018659592,0.029016077518463135
1711551369442703600,18.56370361328125,-0.01893680728971958,0.04734202101826668,0.001832594396546483
1711551369461664000,18.5826640625,-0.04367683082818985,0.07147117704153061,-0.005192350596189499
1711551369480624400,18.601624267578124,-0.009162971749901772,0.01649334840476513,-0.024434590712189674
1711551369499584500,18.62058447265625,-0.01740964688360691,-0.02718348242342472,-0.04276053607463837
1711551369518545000,18.639544921875,-0.04001164436340332,-0.016187917441129684,-0.02412915788590908
1711551369537505300,18.65850537109375,-0.04734202101826668,0.047036588191986084,-0.026878049597144127
1711551369556465700,18.677465576171876,-0.08979712426662445,0.12736530601978302,-0.035124726593494415
1711551369575425800,18.69642578125,-0.1441640853881836,0.23243404924869537,-0.03787361457943916
1711551369594386200,18.71538623046875,-0.19181154668331146,0.31184646487236023,-0.04581485688686371
1711551369613346300,18.73434619140625,-0.20127993822097778,0.32528549432754517,-0.035124726593494415
1711551369632306700,18.753306640625,-0.14752385020256042,0.2712239623069763,0.0030543238390237093
1711551369651267000,18.77226708984375,-0.12247838824987411,0.1432477980852127,0.013439024798572063
1711551369670227500,18.7912275390625,-0.12003492563962936,0.031154103577136993,-0.013439024798572063
1711551369689187600,18.8101875,-0.0977383628487587,-0.036651886999607086,-0.04367683082818985
1711551369708148000,18.82914794921875,-0.08429934084415436,-0.020158538594841957,-0.049480047076940536
1711551369727108400,18.8481083984375,-0.09437860548496246,0.06383536756038666,-0.003359756199643016
1711551369746068500,18.867068359375,-0.10506874322891235,0.185092031955719,0.02626718580722809
1711551369765028900,18.88602880859375,-0.09437860548496246,0.24770566821098328,0.010384701192378998
1711551369783989000,18.904989013671877,-0.06261363625526428,0.2315177470445633,0.012522728182375431
1711551369802949400,18.923949462890626,-0.017104214057326317,0.09682206809520721,-0.000610864779446274
1711551369821909800,18.94290966796875,0.014966187067329884,-0.12095122784376144,-0.010690134018659592
1711551369840870100,18.9618701171875,0.0412333719432354,-0.31581708788871765,-0.0513126403093338
1711551369859830300,18.980830322265625,0.01893680728971958,-0.3338375985622406,-0.07147117704153061
1711551369878790700,18.999790771484374,-0.023212861269712448,-0.24770566821098328,-0.04917461425065994
1711551369897751000,19.0187509765625,-0.025045456364750862,-0.12095122784376144,-0.03481929376721382
1711551369916711200,19.037711181640624,-0.009773836471140385,-0.01802051067352295,-0.04734202101826668
1711551369935671600,19.056671630859373,-0.01588248461484909,0.056199558079242706,-0.0027488914784044027
1711551369954632000,19.0756318359375,-0.001832594396546483,-0.03848448023200035,0.011606430634856224
1711551369973592000,19.094592041015623,0.0204639695584774,-0.15546508133411407,-0.01649334840476513
1711551369992552400,19.113552490234376,0.043371398001909256,-0.235793799161911,-0.001832594396546483
1711551370011512800,19.132512939453125,0.10201441496610641,-0.3442223072052002,0.02871064469218254
1711551370030473000,19.151472900390626,0.15699224174022675,-0.39186975359916687,0.05803215503692627
1711551370049433300,19.170433349609375,0.1337793916463852,-0.37812530994415283,0.08460476994514465
1711551370068393700,19.189393798828124,0.09865466505289078,-0.3439168632030487,0.10934479534626007
1711551370087353900,19.208353759765625,0.11362084746360779,-0.2528980076313019,0.08368847519159317
1711551370106314200,19.227314208984374,0.11667517572641373,-0.06994401663541794,0.08796452730894089
1711551370125274600,19.246274658203124,0.11575887352228165,0.07819069176912308,0.11453714966773987
1711551370144234800,19.26523486328125,0.10842850059270859,0.1288924664258957,0.14630211889743805
1711551370163195100,19.284195068359374,0.06811141967773438,0.08338304609060287,0.1383608728647232
1711551370182155500,19.303155517578126,0.027488915249705315,0.036651886999607086,0.11331541836261749
1711551370201115600,19.32211572265625,0.01954767294228077,0.007635809946805239,0.09468404203653336
1711551370220076000,19.341075927734376,-0.0015271619195118546,-0.027488915249705315,0.0870482325553894
1711551370239036400,19.360036376953126,-0.041844237595796585,-0.023823726922273636,0.10170898586511612
1711551370257996500,19.37899658203125,-0.05864302068948746,-0.010995565913617611,0.0974329337477684
1711551370276957000,19.39795703125,-0.07116574794054031,-0.03329212963581085,0.09957095980644226
1711551370295917300,19.416917236328125,-0.11728604137897491,-0.06536252796649933,0.10720676928758621
1711551370314877400,19.43587744140625,-0.19364413619041443,-0.07299833744764328,0.08949168771505356
1711551370333837800,19.454837890625,-0.2254091054201126,-0.06536252796649933,0.06994401663541794
1711551370352798000,19.4737978515625,-0.21197007596492767,-0.04764745384454727,0.029626941308379173
1711551370371758300,19.49275830078125,-0.20280711352825165,0.05803215503692627,0.024434590712189674
1711551370390718700,19.51171875,-0.22510367631912231,0.19211697578430176,0.07116574794054031
1711551370409679000,19.53067919921875,-0.2419024556875229,0.2608392536640167,0.09468404203653336
1711551370428639200,19.54963916015625,-0.24495677649974823,0.24892739951610565,0.11881320178508759
1711551370447599600,19.568599609375,-0.2208276242017746,0.14691297709941864,0.12400554865598679
1711551370466559700,19.587559814453126,-0.17684535682201385,-0.007635809946805239,0.06750056147575378
1711551370485520100,19.60652001953125,-0.1230892539024353,-0.09071341902017593,0
1711551370504480300,19.625480224609376,-0.11209368705749512,-0.1078176349401474,-0.03756818547844887
1711551370523440600,19.644440673828125,-0.14569124579429626,-0.06566796451807022,-0.04276053607463837
1711551370542401000,19.663401123046874,-0.16340632736682892,0.032070402055978775,-0.02626718580722809
1711551370561361400,19.682361328125,-0.13591741025447845,0.09285144507884979,-0.03237583488225937
1711551370580321500,19.701321533203124,-0.11606431007385254,0.1337793916463852,-0.05955931544303894
1711551370599282000,19.720281982421874,-0.1533270627260208,0.1853974610567093,-0.07513637095689774
1711551370618242000,19.739241943359374,-0.20250166952610016,0.1853974610567093,-0.061391908675432205
1711551370637202400,19.758202392578124,-0.15118902921676636,0.1328630894422531,-0.027488915249705315
1711551370656162600,19.77716259765625,-0.05436696484684944,0.0668896958231926,-0.01893680728971958
1711551370675123000,19.796123046875,-0.03634645417332649,-0.057726722210645676,-0.05283980444073677
1711551370694083300,19.815083251953126,-0.08399390429258347,-0.16676609218120575,-0.0665842592716217
1711551370713043500,19.83404345703125,-0.06322450190782547,-0.19853104650974274,-0.047036588191986084
1711551370732003800,19.85300390625,0.014049889519810677,-0.1288924664258957,-0.03451386094093323
1711551370750964200,19.871964111328126,0.05894844979047775,-0.029932374134659767,-0.046425722539424896
1711551370769924400,19.89092431640625,0.06780599057674408,-0.09071341902017593,-0.007330377586185932
1711551370788884700,19.909884765625,0.09987638890743256,-0.41386088728904724,0.02626718580722809
1711551370807844900,19.928844970703125,0.19211697578430176,-0.5635227560997009,-0.0256563201546669
1711551370826805200,19.94780517578125,0.22693626582622528,-0.6569850444793701,-0.027488915249705315
1711551370845765600,19.966765625,0.19364413619041443,-0.7134900689125061,-0.021380268037319183
1711551370864725800,19.985725830078124,0.18203771114349365,-0.5571087002754211,-0.09101885557174683
1711551370883686100,20.00468603515625,0.13469567894935608,-0.18661919236183167,-0.08307760953903198
1711551370902646300,20.023646240234374,0.0720820426940918,0.21991132199764252,0.004886918235570192
1711551370921606700,20.042606689453127,0.034208428114652634,0.49082985520362854,0.032681263983249664
1711551370940567000,20.061567138671876,-0.015271619893610477,0.5476402640342712,0.0009162971982732415
1711551370959527200,20.080527099609377,-0.03756818547844887,0.416304349899292,-0.016798781231045723
1711551370978487600,20.099487548828126,-0.0054977829568088055,0.2110537886619568,-0.03756818547844887
1711551370997447700,20.11844775390625,0.057726722210645676,-0.02260199747979641,-0.024740023538470268
1711551371016408000,20.137407958984376,0.09437860548496246,-0.21135921776294708,-0.028099779039621353
1711551371035368200,20.1563681640625,0.05222893878817558,-0.2977965772151947,-0.0021380267571657896
1711551371054328600,20.17532861328125,0.032681263983249664,-0.33719736337661743,0.021685699000954628
1711551371073289000,20.1942890625,0.06597339361906052,-0.26939135789871216,0.0015271619195118546
1711551371092249000,20.2132490234375,0.0977383628487587,-0.15027274191379547,-0.001832594396546483
1711551371111209500,20.23220947265625,0.08552107214927673,-0.0409279391169548,-0.000610864779446274
1711551371130169600,20.251169677734374,0.01802051067352295,0.10903936624526978,0.01740964688360691
1711551371149130000,20.2701298828125,-0.02932151034474373,0.2257145345211029,0.02412915788590908
1711551371168090400,20.28909033203125,-0.02932151034474373,0.28069236874580383,0.006414080038666725
1711551371187050500,20.308050537109374,-0.03543015569448471,0.2834412455558777,-0.0027488914784044027
1711551371206011000,20.327010986328126,-0.048563748598098755,0.22357651591300964,-0.005803215317428112
1711551371224971000,20.345970947265624,-0.06383536756038666,0.11942406743764877,-0.02107483521103859
1711551371243931400,20.364931396484376,-0.06841685622930527,0.033597562462091446,-0.01802051067352295
1711551371262891500,20.3838916015625,-0.06811141967773438,0.003970621153712273,-0.005803215317428112
1711551371281852000,20.402851806640626,-0.08918625861406326,0.005192350596189499,-0.003359756199643016
1711551371300812000,20.42181201171875,-0.11484257876873016,0.000610864779446274,0.007635809946805239
1711551371319772400,20.4407724609375,-0.10842850059270859,-0.009773836471140385,-0.0015271619195118546
1711551371338732500,20.459732666015626,-0.1081230640411377,-0.000610864779446274,-0.014660755172371864
1711551371357693000,20.47869287109375,-0.1337793916463852,-0.010079269297420979,-0.021685699000954628
1711551371376653000,20.497653076171876,-0.15638138353824615,-0.007635809946805239,-0.04459312930703163
1711551371395613400,20.516613525390625,-0.16157373785972595,0.04978547990322113,-0.053145237267017365
1711551371414573600,20.535573486328126,-0.19364413619041443,0.11362084746360779,-0.08674279600381851
1711551371433534000,20.554533935546875,-0.2620609998703003,0.1496618688106537,-0.12003492563962936
1711551371452494000,20.573494140625,-0.3127627670764923,0.19700388610363007,-0.12461641430854797
1711551371471454500,20.592454345703125,-0.33200499415397644,0.20372340083122253,-0.15057817101478577
1711551371490414800,20.611414794921874,-0.3026835024356842,0.14019346237182617,-0.15577052533626556
1711551371509375000,20.630375,-0.28954991698265076,0.07330377399921417,-0.16707152128219604
1711551371528335400,20.64933544921875,-0.3393353819847107,-0.011300998739898205,-0.22663083672523499
1711551371547295500,20.66829541015625,-0.39370235800743103,-0.09132428467273712,-0.25900667905807495
1711551371566255900,20.687255859375,-0.3228420317173004,-0.11178825795650482,-0.210442915558815
1711551371585216000,20.706216064453123,-0.26419901847839355,-0.0766635313630104,-0.20738859474658966
1711551371604176400,20.72517626953125,-0.34666576981544495,-0.08979712426662445,-0.27427828311920166
1711551371623136500,20.744136474609373,-0.42424559593200684,-0.12186752259731293,-0.27977606654167175
1711551371642097000,20.763096923828126,-0.3854556679725647,-0.056810423731803894,-0.2208276242017746
1711551371661057000,20.78205712890625,-0.374765545129776,-0.03237583488225937,-0.25473061203956604
1711551371680017400,20.801017333984376,-0.411722868680954,-0.1383608728647232,-0.29565855860710144
1711551371698977500,20.8199775390625,-0.37323838472366333,-0.20616686344146729,-0.2260199636220932
1711551371717938000,20.83893798828125,-0.324063777923584,-0.29901832342147827,-0.2107483446598053
1711551371736898000,20.85789794921875,-0.40958482027053833,-0.430659681558609,-0.30451610684394836
1711551371755858400,20.8768583984375,-0.46059203147888184,-0.5186241865158081,-0.3246746361255646
1711551371774818600,20.895818603515625,-0.37262752652168274,-0.4224129915237427,-0.2721402645111084
1711551371793779000,20.914779052734374,-0.2993237376213074,-0.3133736252784729,-0.277332603931427
1711551371812739300,20.9337392578125,-0.3191768527030945,-0.26939135789871216,-0.30085089802742004
1711551371831699500,20.952699462890624,-0.3075704276561737,-0.15179990231990814,-0.23884813487529755
1711551371850659800,20.971659912109374,-0.2919933497905731,0.011911863461136818,-0.1539379209280014
1711551371869620000,20.990619873046874,-0.3035998046398163,0.05283980444073677,-0.14660754799842834
1711551371888580400,21.009580322265624,-0.2675587832927704,-0.005803215317428112,-0.15027274191379547
1711551371907540500,21.02854052734375,-0.17715078592300415,0.02718348242342472,-0.09896009415388107
1711551371926500900,21.0475009765625,-0.10751219838857651,0.014966187067329884,-0.09101885557174683
1711551371945461000,21.0664609375,-0.05803215503692627,-0.06780599057674408,-0.09682206809520721
1711551371964421400,21.08542138671875,0.0204639695584774,-0.17348559200763702,-0.034208428114652634
1711551371983381500,21.104381591796876,0.07086031138896942,-0.19333870708942413,-0.039706211537122726
1711551372002342000,21.123341796875,0.06933315098285675,-0.1640172004699707,-0.06872228533029556
1711551372021302000,21.142302001953126,0.07910698652267456,-0.10598503798246384,-0.03176496922969818
1711551372040262400,21.161262451171876,0.1438586562871933,-0.07483093440532684,-0.003665188793092966
1711551372059222500,21.180222412109377,0.1802051067352295,-0.07269290834665298,-0.028099779039621353
1711551372078183000,21.199182861328126,0.1747073233127594,-0.1233946830034256,0.0021380267571657896
1711551372097143000,21.21814306640625,0.19364413619041443,-0.15546508133411407,0.02779434807598591
1711551372116103400,21.237103515625,0.20922118425369263,-0.1496618688106537,0.02260199747979641
1711551372135063600,21.2560634765625,0.20311254262924194,-0.15699224174022675,0.03451386094093323
1711551372154023700,21.275023681640626,0.18784092366695404,-0.07910698652267456,0.048563748598098755
1711551372172984000,21.293984130859375,0.1905898153781891,-0.008552107028663158,0.10476330667734146
1711551372191944400,21.3129443359375,0.19761475920677185,0.036651886999607086,0.14263692498207092
1711551372210904600,21.331904541015625,0.19394956529140472,0.04520399495959282,0.14599667489528656
1711551372229865000,21.350864990234374,0.19120067358016968,-0.006108647678047419,0.12767073512077332
1711551372248825000,21.3698251953125,0.21380266547203064,-0.023212861269712448,0.11392628401517868
1711551372267785500,21.388785400390624,0.2574795186519623,-0.046425722539424896,0.14660754799842834
1711551372286745600,21.40774560546875,0.26969680190086365,-0.07269290834665298,0.16737695038318634
1711551372305706000,21.4267060546875,0.2159406989812851,-0.06566796451807022,0.14202606678009033
1711551372324666000,21.445666015625,0.1444695144891739,-0.021380268037319183,0.11759147047996521
1711551372343626500,21.46462646484375,0.16065743565559387,0.04459312930703163,0.12736530601978302
1711551372362586600,21.483586669921873,0.2360992431640625,0.05955931544303894,0.13194678723812103
1711551372381547000,21.502547119140626,0.23976442217826843,0.04153880476951599,0.12064579129219055
1711551372400507100,21.521507080078123,0.17348559200763702,-0.010079269297420979,0.06291907280683517
1711551372419467500,21.540467529296876,0.1233946830034256,0.0009162971982732415,0.041844237595796585
1711551372438427600,21.559427734375,0.10567960888147354,0.07116574794054031,0.021991131827235222
1711551372457388000,21.578387939453126,0.06902772188186646,0.15210533142089844,0.0021380267571657896
1711551372476348400,21.597348388671875,0.04276053607463837,0.21441353857517242,0.018631376326084137
1711551372495308500,21.61630859375,0.0412333719432354,0.22968515753746033,0.040317077189683914
1711551372514269000,21.63526904296875,0.01435532234609127,0.18356487154960632,0.032681263983249664
1711551372533229000,21.65422900390625,-0.025045456364750862,0.049480047076940536,0.049480047076940536
1711551372552189400,21.673189453125,0.006719512399286032,-0.09498947113752365,0.08307760953903198
1711551372571149600,21.692149658203125,0.03909534588456154,-0.13958260416984558,0.0717766135931015
1711551372590110000,21.71110986328125,0.0513126403093338,-0.14233149588108063,0.053145237267017365
1711551372609070300,21.7300703125,0.06475166976451874,-0.0616973415017128,0.05894844979047775
1711551372628030500,21.749030517578124,0.05864302068948746,0.07116574794054031,0.05955931544303894
1711551372646990800,21.767990966796877,0.0256563201546669,0.19700388610363007,0.06902772188186646
1711551372665951000,21.786950927734374,-0.007941242307424545,0.27091851830482483,0.0565049909055233
1711551372684911400,21.805911376953127,0.005803215317428112,0.29626941680908203,0.06780599057674408
1711551372703871500,21.82487158203125,0.03756818547844887,0.24556763470172882,0.06230820715427399
1711551372722832000,21.843831787109377,0.032681263983249664,0.10445787757635117,0.007635809946805239
1711551372741792000,21.8627919921875,-0.0021380267571657896,-0.03237583488225937,-0.0360410213470459
1711551372760752400,21.88175244140625,-0.023518294095993042,-0.02107483521103859,-0.051618073135614395
1711551372779712800,21.900712646484376,-0.047036588191986084,0.07788526266813278,-0.05283980444073677
1711551372798673000,21.9196728515625,-0.08979712426662445,0.18814635276794434,-0.06536252796649933
1711551372817633300,21.93863330078125,-0.11178825795650482,0.30146175622940063,-0.026878049597144127
1711551372836593400,21.957593505859375,-0.11484257876873016,0.31031930446624756,0.021685699000954628
1711551372855553800,21.9765537109375,-0.1282816082239151,0.24709481000900269,0.011911863461136818
1711551372874514200,21.99551416015625,-0.11239911615848541,0.13591741025447845,-0.015577051788568497
1711551372893474300,22.014474365234374,-0.05894844979047775,0.054672397673130035,-0.026572618633508682
1711551372912434700,22.0334345703125,-0.02626718580722809,0.01802051067352295,-0.04581485688686371
1711551372931394800,22.052394775390624,0.001832594396546483,0.001221729558892548,-0.04825831577181816
1711551372950355200,22.071355224609373,0.038789913058280945,-0.010995565913617611,-0.011606430634856224
1711551372969315300,22.0903154296875,0.056199558079242706,-0.016187917441129684,-0.003665188793092966
1711551372988275700,22.109275634765623,0.032070402055978775,0.024740023538470268,-0.025961752980947495
1711551373007236000,22.128236083984376,0.04367683082818985,0.06933315098285675,-0.004886918235570192
1711551373026196200,22.1471962890625,0.07605266571044922,0.07086031138896942,0.0204639695584774
1711551373045156600,22.166156494140626,0.07819069176912308,0.040317077189683914,-0.007635809946805239
1711551373064117000,22.185116943359375,0.05711585655808449,0.03298669680953026,-0.011911863461136818
1711551373083077000,22.2040771484375,0.046425722539424896,0.03543015569448471,0.0030543238390237093
1711551373102037500,22.22303759765625,0.016798781231045723,0.03237583488225937,-0.0360410213470459
1711551373120997600,22.24199755859375,-0.010384701192378998,0.04428769648075104,-0.03145953640341759
1711551373139958000,22.2609580078125,-0.02260199747979641,0.02626718580722809,-0.029016077518463135
1711551373158918100,22.279918212890625,-0.03298669680953026,-0.016187917441129684,-0.03756818547844887
1711551373177878500,22.29887841796875,-0.036651886999607086,-0.044898562133312225,-0.04214967042207718
1711551373196839000,22.3178388671875,-0.012217295356094837,-0.10598503798246384,-0.05864302068948746
1711551373215799300,22.33679931640625,0.00946840364485979,-0.15057817101478577,-0.07024945318698883
1711551373234759400,22.355759521484377,0.017715077847242355,-0.13500112295150757,-0.061391908675432205
1711551373253719800,22.3747197265625,0.007941242307424545,-0.06841685622930527,-0.0513126403093338
1711551373272680000,22.393679931640627,0.007024944759905338,0.02932151034474373,-0.024740023538470268
1711551373291640300,22.412640380859376,0.025961752980947495,0.10476330667734146,-0.000610864779446274
1711551373310600400,22.431600341796877,0.06414080411195755,0.1331685185432434,0.015271619893610477
1711551373329560800,22.450560791015626,0.09285144507884979,0.11667517572641373,0.05283980444073677
1711551373348521200,22.469521240234375,0.09926552325487137,0.028099779039621353,0.04886918142437935
1711551373367481600,22.488481689453124,0.10842850059270859,-0.03909534588456154,0.04153880476951599
1711551373386441700,22.507441650390625,0.13744457066059113,-0.07849612087011337,0.05253437161445618
1711551373405402000,22.526402099609374,0.1533270627260208,-0.06627883017063141,0.03543015569448471
1711551373424362200,22.5453623046875,0.1487455666065216,-0.030543239787220955,0.06566796451807022
1711551373443322600,22.564322509765624,0.16523891687393188,-0.09162971377372742,0.10629047453403473
1711551373462283000,22.583282958984373,0.20616686344146729,-0.2360992431640625,0.10598503798246384
1711551373481243400,22.602243408203126,0.2107483446598053,-0.2761108875274658,0.0766635313630104
1711551373500203500,22.62120361328125,0.14813470840454102,-0.21685700118541718,0.05283980444073677
1711551373519164000,22.640163818359376,0.13133592903614044,-0.06444623321294785,0.06536252796649933
1711551373538124000,22.6591240234375,0.1585194170475006,0.10048725455999374,0.0922405794262886
1711551373557084400,22.67808447265625,0.1591302752494812,0.16157373785972595,0.15790854394435883
1711551373576044800,22.697044921875,0.16126830875873566,0.12400554865598679,0.17195843160152435
1711551373595005000,22.7160048828125,0.1585194170475006,0.0870482325553894,0.15027274191379547
1711551373613965300,22.73496533203125,0.18753549456596375,-0.002443459117785096,0.14110976457595825
1711551373632925700,22.75392578125,0.24434591829776764,-0.07055488228797913,0.15699224174022675
1711551373651886000,22.772885986328124,0.281914085149765,-0.1178968995809555,0.19944734871387482
1711551373670846200,22.79184619140625,0.2828303873538971,-0.11331541836261749,0.20158538222312927
1711551373689806600,22.810806640625,0.2562577724456787,-0.05345066636800766,0.17287473380565643
1711551373708766700,22.8297666015625,0.24434591829776764,0.01649334840476513,0.17562362551689148
1711551373727727000,22.84872705078125,0.27030766010284424,0.09407317638397217,0.1902843713760376
1711551373746687500,22.8676875,0.29077163338661194,0.14660754799842834,0.210442915558815
1711551373765648000,22.88664794921875,0.2788597643375397,0.17715078592300415,0.22174391150474548
1711551373784608000,22.90560791015625,0.25503605604171753,0.1386663019657135,0.21441353857517242
1711551373803568400,22.924568359375,0.23548837006092072,0.10140355676412582,0.19944734871387482
1711551373822528800,22.94352880859375,0.23518294095993042,0.07941242307424545,0.205861434340477
1711551373841489000,22.962489013671874,0.24709481000900269,0.10201441496610641,0.22357651591300964
1711551373860449300,22.98144921875,0.2458730787038803,0.11911863088607788,0.21807873249053955
1711551373879409700,23.00040966796875,0.2003636509180069,0.15546508133411407,0.2049451321363449
1711551373898370000,23.0193701171875,0.1441640853881836,0.19333870708942413,0.18753549456596375
1711551373917330200,23.038330078125,0.11881320178508759,0.2214384824037552,0.16096286475658417
1711551373936290600,23.05729052734375,0.08002328872680664,0.2809978127479553,0.11636973917484283
1711551373955251000,23.0762509765625,0.047952886670827866,0.282524973154068,0.06291907280683517
