time,seconds_elapsed,z,y,x
1710891310388339200,0.038339111328125,0,0,0
1710891310407299000,0.057299072265625,-0.10338830947875977,-0.010086536407470703,-0.06669449806213379
1710891310426259000,0.076259033203125,-0.07542943954467773,-0.14206600189208984,-0.0970158576965332
1710891310445218600,0.095218505859375,0.13504266738891602,0.020705699920654297,0.03721117973327637
1710891310464178400,0.114178466796875,-0.04765510559082031,0.15170860290527344,0.07353687286376953
1710891310483138000,0.133137939453125,-0.3052988052368164,0.0402064323425293,-0.2844216823577881
1710891310502098000,0.152097900390625,-0.5296010971069336,-0.27899837493896484,-1.1695713996887207
1710891310521057800,0.171057861328125,-0.35486507415771484,-0.7102584838867188,-1.3128736019134521
1710891310540017400,0.190017333984375,-0.014216423034667969,-0.3412904739379883,-0.6852090358734131
1710891310558977300,0.208977294921875,0.7966718673706055,0.18574237823486328,0.4559359550476074
1710891310577937000,0.22793701171875,1.0984597206115723,0.0053501129150390625,0.5700054168701172
1710891310596896800,0.246896728515625,0.8663272857666016,0.0774993896484375,0.20082569122314453
1710891310615856400,0.2658564453125,0.6622538566589355,0.2621641159057617,0.928248405456543
1710891310634816300,0.284816162109375,0.3867621421813965,0.5934500694274902,0.10494756698608398
1710891310653776100,0.303776123046875,-0.2747969627380371,0.2668304443359375,-1.3273158073425293
1710891310672735700,0.32273583984375,-0.18177175521850586,0.04509687423706055,-0.3238968849182129
1710891310691695600,0.341695556640625,0.08113908767700195,0.11304664611816406,-0.32799530029296875
1710891310710655200,0.3606552734375,0.572166919708252,0.027127742767333984,-0.07876157760620117
1710891310729615000,0.379614990234375,0.8720989227294922,-1.059481143951416,0.637697696685791
1710891310748575000,0.398574951171875,0.7279367446899414,-2.0367865562438965,1.4128994941711426
1710891310767534600,0.41753466796875,0.3598978519439697,-0.8243451118469238,0.9146847724914551
1710891310786494500,0.436494384765625,0.1608893871307373,-0.6591348648071289,1.8385210037231445
1710891310805454000,0.4554541015625,0.25467920303344727,-0.7976384162902832,2.880521297454834
1710891310824414000,0.4744140625,-0.5321071147918701,-1.5315594673156738,2.9123387336730957
1710891310843373600,0.49337353515625,-0.9968032836914062,-1.1142997741699219,2.1578621864318848
1710891310862333400,0.51233349609375,-0.8773622512817383,-0.3169093132019043,2.8440113067626953
1710891310881293300,0.531293212890625,-0.5353111028671265,-0.5939526557922363,2.950788974761963
1710891310900253000,0.5502529296875,-0.8054192066192627,-0.8492245674133301,1.2226033210754395
1710891310919212800,0.569212890625,-0.930274486541748,-0.6114611625671387,0.8670778274536133
1710891310938172400,0.58817236328125,-1.3140074014663696,0.676912784576416,0.9875807762145996
1710891310957132300,0.60713232421875,-1.3478772640228271,-0.5401210784912109,0.7781014442443848
1710891310976092200,0.626092041015625,-1.0710539817810059,-1.135800838470459,0.08426523208618164
1710891310995051800,0.6450517578125,-1.1511693000793457,-0.6483807563781738,0.8433780670166016
1710891311014011600,0.66401171875,-0.823885440826416,0.21277999877929688,1.8511724472045898
1710891311032971300,0.68297119140625,-0.9410570859909058,1.013864517211914,1.8599958419799805
1710891311051931100,0.70193115234375,-1.1370902061462402,0.7908124923706055,1.425917148590088
1710891311070891000,0.72089111328125,-1.483615756034851,-0.2888479232788086,0.3420276641845703
1710891311089850600,0.7398505859375,-1.506093144416809,0.3223905563354492,0.6194338798522949
1710891311108810500,0.758810546875,-0.9859989285469055,2.105039596557617,3.7417688369750977
1710891311127770000,0.77777001953125,-2.0949902534484863,3.2425537109375,3.9382925033569336
1710891311146730000,0.79672998046875,-1.174518346786499,0.3128089904785156,1.1827025413513184
1710891311165689900,0.81568994140625,-0.918358325958252,-0.5128383636474609,0.41185617446899414
1710891311184649500,0.8346494140625,-1.5247766971588135,0.8706750869750977,-0.3718595504760742
1710891311203609300,0.853609375,-2.5812435150146484,1.7028331756591797,-1.8772814273834229
1710891311222569200,0.8725693359375,-1.6997687816619873,-0.3854355812072754,-2.3645293712615967
1710891311241528800,0.89152880859375,-0.8909754753112793,-0.051755428314208984,-1.4413042068481445
1710891311260488700,0.91048876953125,-0.814266562461853,1.4160680770874023,-0.7416133880615234
1710891311279448300,0.9294482421875,-0.7429957985877991,1.404421329498291,-0.662196159362793
1710891311298408200,0.948408203125,-0.3096731901168823,0.48236799240112305,-1.2849502563476562
1710891311317368000,0.9673681640625,0.11559760570526123,-0.5955114364624023,-0.3697824478149414
1710891311336327700,0.98632763671875,0.009163260459899902,0.06712579727172852,-0.18149662017822266
1710891311355287600,1.00528759765625,-0.49019086360931396,-0.023002147674560547,-1.0159850120544434
1710891311374247400,1.024247314453125,-1.14425528049469,0.3829975128173828,-1.7157244682312012
1710891311393207300,1.043207275390625,-0.6754540801048279,-0.8695492744445801,-1.3377232551574707
1710891311412167000,1.0621669921875,-0.27687501907348633,-0.8909082412719727,0.29885149002075195
1710891311431126800,1.081126708984375,0.6021767854690552,0.9359540939331055,2.9645423889160156
1710891311450086700,1.100086669921875,0.9293888807296753,0.586754322052002,2.403275966644287
1710891311469046300,1.11904638671875,-0.47485601902008057,-0.46071863174438477,-0.011033058166503906
1710891311488006100,1.138006103515625,-2.373048782348633,0.04638957977294922,-1.1795010566711426
1710891311506966000,1.156966064453125,-2.2196102142333984,0.12683391571044922,-0.8250942230224609
1710891311525925600,1.175925537109375,-0.5613802671432495,1.2658119201660156,-0.2259063720703125
1710891311544885500,1.194885498046875,0.29083526134490967,2.0817575454711914,-0.16166973114013672
1710891311563845400,1.213845458984375,0.8408490419387817,0.16167736053466797,0.40303850173950195
1710891311582805000,1.232804931640625,0.619810938835144,0.13412857055664062,1.089829921722412
1710891311601764900,1.251764892578125,0.259016752243042,-0.6383504867553711,1.7870540618896484
1710891311620724700,1.270724853515625,0.30174291133880615,-0.015325546264648438,2.420013904571533
1710891311639684400,1.289684326171875,-0.17415893077850342,1.3211555480957031,2.5475387573242188
1710891311658644200,1.308644287109375,-0.5827668905258179,1.107590675354004,1.0820446014404297
1710891311677604000,1.32760400390625,-0.44932353496551514,-0.013833999633789062,-0.4439263343811035
1710891311696563700,1.346563720703125,-0.25981271266937256,1.0420761108398438,-0.28608083724975586
1710891311715523800,1.36552392578125,-0.08420586585998535,1.2167377471923828,-0.4172024726867676
1710891311734483500,1.3844833984375,0.2500295639038086,0.07476234436035156,-0.7568037509918213
1710891311753443300,1.403443359375,0.16806244850158691,-0.6833906173706055,-0.07744979858398438
1710891311772403200,1.4224033203125,0.25213193893432617,-0.11736679077148438,0.6416201591491699
1710891311791362800,1.44136279296875,0.13064956665039062,0.9665851593017578,0.47207117080688477
1710891311810322700,1.46032275390625,-0.045623779296875,0.7635440826416016,0.2518775463104248
1710891311829282600,1.479282470703125,-0.8715143203735352,-1.9714422225952148,-0.4317314624786377
1710891311848242400,1.498242431640625,-2.0073821544647217,-4.521501541137695,-2.0859694480895996
1710891311867202000,1.5172021484375,-1.19160795211792,-2.5717945098876953,-2.127220392227173
1710891311886162000,1.536161865234375,-0.6465880870819092,-1.292386531829834,-1.2648169994354248
1710891311905121800,1.555121826171875,-0.8743796348571777,-1.608726978302002,-1.2530426979064941
1710891311924081700,1.57408154296875,-0.8097836971282959,-4.008941650390625,-1.5506151914596558
1710891311943041500,1.59304150390625,-1.033658504486084,-3.864814281463623,-2.6161961555480957
1710891311962001400,1.61200146484375,-0.3872346878051758,-1.8411102294921875,-1.3964691162109375
1710891311980961000,1.6309609375,0.7296576499938965,0.7275772094726562,1.0902838706970215
1710891311999921000,1.6499208984375,0.8666088581085205,0.8382492065429688,0.658566951751709
1710891312018880800,1.668880859375,-0.35834288597106934,-1.2436561584472656,-1.1200785636901855
1710891312037840600,1.687840576171875,-0.9870390892028809,-1.4185237884521484,-1.4391918182373047
1710891312056800500,1.706800537109375,-0.8749440908432007,0.7608604431152344,-0.8971340656280518
1710891312075760400,1.725760498046875,0.983834981918335,2.1423683166503906,1.8299927711486816
1710891312094720000,1.744719970703125,2.1820168495178223,2.8422183990478516,3.2932934761047363
1710891312113680000,1.763679931640625,1.9613332748413086,1.536233901977539,2.376333236694336
1710891312132639700,1.7826396484375,1.6401253938674927,0.12303829193115234,1.5218052864074707
1710891312151599600,1.801599609375,1.7031402587890625,-0.15577983856201172,1.7749290466308594
1710891312170559500,1.8205595703125,1.908754587173462,1.0431499481201172,2.0161967277526855
1710891312189519400,1.839519287109375,0.9623473882675171,0.5614538192749023,0.06802797317504883
1710891312208479200,1.858479248046875,0.8145959377288818,1.0623102188110352,-0.34032154083251953
1710891312227438800,1.87743896484375,0.26790106296539307,3.31020450592041,-0.9507334232330322
1710891312246398700,1.896398681640625,0.10261404514312744,0.6888189315795898,-2.066622018814087
1710891312265358600,1.915358642578125,0.4160884618759155,-0.29717540740966797,-2.6416985988616943
1710891312284318500,1.934318359375,0.49944841861724854,-0.26479625701904297,-2.3480443954467773
1710891312303278300,1.9532783203125,-0.20123469829559326,0.5243215560913086,-2.183623790740967
1710891312322238200,1.97223828125,-0.14767396450042725,-1.1109600067138672,-2.7800683975219727
1710891312341198000,1.991197998046875,-0.1570909023284912,0.19938945770263672,-1.9514219760894775
1710891312360158000,2.010157958984375,0.05069005489349365,1.4755191802978516,-1.7647395133972168
1710891312379117800,2.029117919921875,-0.29294681549072266,1.8220796585083008,-0.7806835174560547
1710891312398077700,2.04807763671875,-1.1357117891311646,1.5616483688354492,-1.8287370204925537
1710891312417037600,2.06703759765625,-0.8563355207443237,0.014204978942871094,-2.6554360389709473
1710891312435997400,2.08599755859375,-0.3357527256011963,-1.3110098838806152,-2.1236653327941895
1710891312454957000,2.10495703125,-0.08952781558036804,-1.6521692276000977,-1.1426618099212646
1710891312473917200,2.123917236328125,0.47543784976005554,0.058597564697265625,-0.2107219696044922
1710891312492876800,2.142876708984375,1.25913667678833,1.6274328231811523,1.0041823387145996
1710891312511836700,2.161836669921875,2.099759101867676,1.5521354675292969,1.6174769401550293
1710891312530796500,2.180796630859375,1.8372217416763306,0.9986839294433594,1.277677059173584
1710891312549756700,2.199756591796875,1.3512681722640991,0.46581172943115234,0.7133955955505371
1710891312568716300,2.21871630859375,0.7331616282463074,0.2920722961425781,0.6112117767333984
1710891312587676200,2.23767626953125,0.29280775785446167,0.207305908203125,0.1925826072692871
1710891312606636000,2.256635986328125,0.614998996257782,-0.15136337280273438,0.39633941650390625
1710891312625596000,2.275595947265625,1.1069350242614746,-0.21779632568359375,0.9074630737304688
1710891312644555800,2.2945556640625,1.2653677463531494,0.008034706115722656,1.1653170585632324
1710891312663515600,2.313515625,1.2801650762557983,0.30387115478515625,1.1740388870239258
1710891312682475500,2.3324755859375,0.25016331672668457,1.0371284484863281,1.0753681659698486
1710891312701435400,2.351435302734375,-1.313581943511963,0.9908990859985352,-0.18033695220947266
1710891312720395300,2.370395263671875,-2.144787311553955,0.34931468963623047,-2.044283151626587
1710891312739355100,2.389355224609375,-2.373227119445801,0.0189361572265625,-2.8380467891693115
1710891312758315000,2.40831494140625,-2.183483123779297,0.3657865524291992,-2.4820029735565186
1710891312777275000,2.42727490234375,-1.7477668523788452,0.31514739990234375,-1.6146740913391113
1710891312796235000,2.446235107421875,-1.3535652160644531,0.2545146942138672,-0.7656408548355103
1710891312815194600,2.465194580078125,-1.1699917316436768,-0.24755287170410156,0.0033648014068603516
1710891312834154500,2.484154541015625,-0.697435736656189,-0.3882894515991211,0.8038821220397949
1710891312853114400,2.5031142578125,-0.20087337493896484,0.02257823944091797,1.7058749198913574
1710891312872074200,2.52207421875,-0.326568603515625,0.04154205322265625,2.073180675506592
1710891312891034400,2.541034423828125,-0.22841429710388184,-0.2151508331298828,1.74311101436615
1710891312909994200,2.559994140625,-0.27721309661865234,-0.45725345611572266,1.0437604188919067
1710891312928954000,2.5789541015625,-0.8112883567810059,-0.1875448226928711,0.41968023777008057
1710891312947914000,2.5979140625,-0.9826925992965698,0.07178211212158203,0.583823561668396
1710891312966873900,2.616873779296875,-0.6298208236694336,0.20583438873291016,-0.17243319749832153
1710891312985833700,2.635833740234375,-0.49127721786499023,0.8221235275268555,-0.00048491358757019043
1710891313004793600,2.654793701171875,-0.08440542221069336,0.8837127685546875,0.5770014524459839
1710891313023753500,2.67375341796875,0.3065340518951416,0.3856544494628906,1.0407040119171143
1710891313042713300,2.69271337890625,0.5352203845977783,0.23304462432861328,1.5152392387390137
1710891313061673200,2.711673095703125,0.33088254928588867,0.27257823944091797,1.5057940483093262
1710891313080633000,2.730633056640625,0.05754876136779785,0.39272403717041016,1.3843104839324951
1710891313099593000,2.749593017578125,-0.27165961265563965,0.2612438201904297,0.6941095590591431
1710891313118552800,2.768552734375,-0.7885928153991699,0.19272232055664062,-0.14845919609069824
1710891313137512700,2.7875126953125,-1.2737929821014404,0.17484283447265625,-0.5163012742996216
1710891313156472600,2.80647265625,-1.5232899188995361,0.05169963836669922,-0.6921460628509521
1710891313175432700,2.8254326171875,-1.534442663192749,0.13925743103027344,-0.6635070443153381
1710891313194392600,2.844392578125,-0.914276123046875,-0.34432029724121094,-0.3621196746826172
1710891313213352400,2.8633525390625,-0.42368435859680176,-0.4811286926269531,-0.42660945653915405
1710891313232312300,2.882312255859375,-0.1346125602722168,-0.2106151580810547,-0.14504900574684143
1710891313251272200,2.901272216796875,0.15796542167663574,-0.20151710510253906,0.1993495225906372
1710891313270232000,2.920232177734375,0.4965791702270508,-0.1361074447631836,0.3592739999294281
1710891313289192000,2.93919189453125,0.5054416656494141,0.1608428955078125,0.2635623514652252
1710891313308152000,2.958152099609375,0.37114548683166504,0.4079275131225586,-0.14970634877681732
1710891313327112000,2.97711181640625,0.28844785690307617,0.5431375503540039,-0.6715610027313232
1710891313346071800,2.99607177734375,0.15366506576538086,0.4951801300048828,-1.0123028755187988
1710891313365031700,3.01503173828125,0.2764863967895508,0.4687948226928711,-1.1017744541168213
1710891313383991600,3.033991455078125,0.16371440887451172,0.3214120864868164,-1.3127226829528809
1710891313402951400,3.052951416015625,0.0328216552734375,-0.024506568908691406,-1.4710146188735962
1710891313421911300,3.071911376953125,-0.22114133834838867,-0.07101631164550781,-1.6597468852996826
1710891313440871200,3.09087109375,-0.38158416748046875,0.1440439224243164,-1.599137306213379
1710891313459831000,3.1098310546875,-0.5955171585083008,0.20390701293945312,-1.3788237571716309
1710891313478791000,3.128791015625,-0.5669541358947754,0.13453292846679688,-1.1655908823013306
1710891313497751000,3.1477509765625,-0.6861701011657715,0.23742389678955078,-0.9631322026252747
1710891313516711000,3.1667109375,-0.4827404022216797,0.07846546173095703,-0.41470885276794434
1710891313535670800,3.1856708984375,-0.39066410064697266,0.05755805969238281,-0.10769826173782349
1710891313554630700,3.204630615234375,-0.12397909164428711,0.1189889907836914,-0.14614957571029663
1710891313573590500,3.223590576171875,-0.1706104278564453,0.08292675018310547,0.27440136671066284
1710891313592550400,3.24255029296875,-0.07334566116333008,-0.03870391845703125,0.8463894724845886
1710891313611510500,3.261510498046875,0.14099550247192383,-0.22644376754760742,1.4395921230316162
1710891313630470400,3.280470458984375,0.3055253028869629,-0.4121241569519043,1.7700700759887695
1710891313649430300,3.29943017578125,0.3769235610961914,-0.5241246223449707,1.864180564880371
1710891313668390100,3.31839013671875,0.0577239990234375,0.15484094619750977,1.6401331424713135
1710891313687350000,3.33735009765625,-0.3178110122680664,0.8146486282348633,0.9866426587104797
1710891313706310100,3.35631005859375,-0.25784921646118164,0.31838464736938477,-0.12492324411869049
1710891313725270000,3.37527001953125,-0.500338077545166,-0.6491899490356445,-0.9532777070999146
1710891313744230000,3.39422998046875,-0.8524513244628906,-0.5291528701782227,-0.9206647872924805
1710891313763189800,3.413189697265625,-1.0683341026306152,-0.15973234176635742,-0.5147839188575745
1710891313782149600,3.432149658203125,-1.1572728157043457,-0.5002212524414062,-0.34240657091140747
1710891313801109800,3.45110986328125,-1.296837329864502,-0.45639610290527344,-0.1408880352973938
1710891313820069600,3.470069580078125,-1.2291817665100098,-0.1877899169921875,0.002078309655189514
1710891313839029500,3.489029541015625,-1.169701099395752,-0.31329965591430664,-0.33694398403167725
1710891313857989400,3.5079892578125,-0.7958807945251465,-0.5129766464233398,-0.7500356435775757
1710891313876949200,3.52694921875,-0.5212860107421875,-0.31743431091308594,-1.0229785442352295
1710891313895909400,3.545909423828125,-0.23365354537963867,0.15566110610961914,-0.7270878553390503
1710891313914869200,3.564869140625,0.3210325241088867,0.22891569137573242,-0.06310251355171204
1710891313933829000,3.5838291015625,0.7290806770324707,0.3134121894836426,0.43994957208633423
1710891313952789000,3.6027890625,0.7334961891174316,0.3451666831970215,0.5216420888900757
1710891313971748900,3.621748779296875,0.5133976936340332,0.23305082321166992,0.3326413333415985
1710891313990708700,3.640708740234375,-0.1273784637451172,0.11009502410888672,0.009151965379714966
1710891314009668900,3.6596689453125,-0.2693362236022949,0.03656339645385742,-0.23892918229103088
1710891314028628700,3.678628662109375,-0.6933131217956543,0.21509170532226562,-0.9556812644004822
1710891314047588600,3.697588623046875,-0.38649654388427734,0.3628959655761719,-1.062997817993164
1710891314066548700,3.716548828125,-0.2155766487121582,0.6508359909057617,-0.7400099039077759
1710891314085508600,3.735508544921875,0.49184274673461914,-0.1364288330078125,-0.4343429207801819
1710891314104468500,3.754468505859375,0.8648419380187988,-0.13788700103759766,0.03096148371696472
1710891314123428400,3.773428466796875,0.7350249290466309,0.18720245361328125,0.27435165643692017
1710891314142388200,3.79238818359375,0.5517420768737793,0.7376880645751953,-0.13832664489746094
1710891314161348000,3.81134814453125,0.1816692352294922,-0.3383941650390625,-1.2524049282073975
1710891314180308200,3.83030810546875,-0.678555965423584,-0.6898245811462402,-1.9274288415908813
1710891314199268000,3.84926806640625,-1.2322535514831543,0.12060356140136719,-1.8168811798095703
1710891314218228000,3.86822802734375,-1.3260931968688965,-0.05243396759033203,-1.1434754133224487
1710891314237188000,3.88718798828125,-0.8554625511169434,-0.9892587661743164,-0.18713727593421936
1710891314256148000,3.90614794921875,-0.7020840644836426,-1.0446033477783203,0.9831981658935547
1710891314275107800,3.92510791015625,-0.6899781227111816,-0.18329143524169922,1.7596665620803833
1710891314294067700,3.944067626953125,0.053205013275146484,0.2947044372558594,2.277085781097412
1710891314313027600,3.963027587890625,0.6492362022399902,0.11897754669189453,2.286695957183838
1710891314331987700,3.98198779296875,0.2953166961669922,0.4015474319458008,1.9005413055419922
1710891314350947600,4.000947509765625,0.30364322662353516,0.42330169677734375,0.2725100517272949
1710891314369907500,4.019907470703125,0.7972164154052734,0.8657951354980469,-0.25210487842559814
1710891314388867600,4.03886767578125,1.0465741157531738,1.2280025482177734,0.06728720664978027
1710891314407827500,4.057827392578125,1.3324942588806152,0.8726215362548828,0.5478156805038452
1710891314426787300,4.076787353515625,0.8472833633422852,0.6231861114501953,0.43674445152282715
1710891314445747200,4.095747314453125,0.7828350067138672,0.4645395278930664,0.6924309730529785
1710891314464707000,4.11470703125,0.29096126556396484,0.7675151824951172,0.7440042495727539
1710891314483667200,4.133667236328125,-0.021793365478515625,-0.13613128662109375,-0.18726110458374023
1710891314502627000,4.152626953125,-0.880887508392334,-0.4336986541748047,-1.0341742038726807
1710891314521587000,4.1715869140625,-1.257683515548706,-0.5220117568969727,-1.4056589603424072
1710891314540547000,4.190547119140625,-1.0377750396728516,-0.8280820846557617,-1.1400701999664307
1710891314559507000,4.2095068359375,-0.54669189453125,-0.956763744354248,-0.2549748420715332
1710891314578466800,4.228466796875,-0.5474038124084473,-0.3841123580932617,0.42775654792785645
1710891314597426700,4.2474267578125,-0.21714019775390625,-0.38205432891845703,0.4853935241699219
1710891314616386800,4.26638671875,0.19726943969726562,-0.20885181427001953,0.13905811309814453
1710891314635346700,4.2853466796875,0.3983321189880371,0.37358760833740234,0.17801141738891602
1710891314654306600,4.304306640625,0.7306790351867676,0.6222867965698242,0.30716753005981445
1710891314673266400,4.323266357421875,1.1385068893432617,0.7389135360717773,0.5507895946502686
1710891314692226600,4.3422265625,1.1695213317871094,0.6206998825073242,0.9231438636779785
1710891314711186400,4.3611865234375,0.7040572166442871,0.4557180404663086,0.8341693878173828
1710891314730146600,4.380146484375,0.38016223907470703,0.07239151000976562,0.6776561737060547
1710891314749106400,4.3991064453125,-0.1708240509033203,-0.28999805450439453,0.3265204429626465
1710891314768066300,4.41806640625,-0.9140968322753906,-0.21543121337890625,-0.0742027759552002
1710891314787026200,4.437026123046875,-1.2897567749023438,-0.4693336486816406,-1.0175334215164185
1710891314805986000,4.455986083984375,-0.9360871315002441,-0.8705167770385742,-1.6872584819793701
1710891314824946200,4.4749462890625,-0.643282413482666,-0.5223960876464844,-1.3677239418029785
1710891314843906000,4.493906005859375,-0.33397817611694336,0.1433401107788086,-0.9797161817550659
1710891314862866000,4.512865966796875,0.27467823028564453,0.25282859802246094,-0.6119391918182373
1710891314881826000,4.531825927734375,0.6166510581970215,0.36360740661621094,-0.25417327880859375
1710891314900786000,4.550785888671875,0.4866299629211426,0.6167831420898438,-0.300747275352478
1710891314919746000,4.56974609375,0.4016118049621582,0.7008504867553711,-0.46386587619781494
1710891314938706000,4.588705810546875,0.21016263961791992,0.6883401870727539,-0.28397881984710693
1710891314957665800,4.607665771484375,-0.10263729095458984,0.30078887939453125,-0.3040037155151367
1710891314976625700,4.626625732421875,-0.3943948745727539,0.07370376586914062,-0.7041211128234863
1710891314995585800,4.645585693359375,-0.5718321800231934,0.024430274963378906,-0.842845618724823
1710891315014545700,4.664545654296875,-0.5317082405090332,0.06247425079345703,-0.8225260972976685
1710891315033505500,4.683505615234375,-0.37878942489624023,-0.06359195709228516,-0.7957346439361572
1710891315052465400,4.70246533203125,-0.2701106071472168,-0.34249258041381836,-0.8133178949356079
1710891315071425500,4.721425537109375,-0.16687393188476562,0.10809993743896484,-0.7714903354644775
1710891315090385400,4.740385498046875,0.3353085517883301,0.42322397232055664,-0.2638359069824219
1710891315109345300,4.75934521484375,0.5557479858398438,0.48940372467041016,0.10411953926086426
1710891315128305400,4.778305419921875,0.36881017684936523,0.6612362861633301,0.1335158348083496
1710891315147265300,4.797265380859375,0.276247501373291,0.526853084564209,-0.09797525405883789
1710891315166225400,4.816225341796875,0.3528614044189453,0.32213640213012695,-0.01235055923461914
1710891315185185300,4.835185302734375,0.21312522888183594,0.4497642517089844,0.2501845359802246
1710891315204145200,4.854145263671875,0.29530954360961914,0.47238683700561523,0.38942766189575195
1710891315223105000,4.87310498046875,0.17311525344848633,0.27709388732910156,0.7728514671325684
1710891315242065200,4.892065185546875,0.19801545143127441,0.06307029724121094,0.9819841384887695
1710891315261025000,4.91102490234375,0.47418737411499023,0.2255716323852539,1.176732063293457
1710891315279985000,4.92998486328125,0.6567888259887695,0.44933414459228516,1.3959836959838867
1710891315298945000,4.948945068359375,0.6095108985900879,0.3791079521179199,1.2301931381225586
1710891315317905000,4.96790478515625,0.32215070724487305,0.25156354904174805,0.773963451385498
1710891315336864800,4.98686474609375,0.07497382164001465,0.23346757888793945,0.5237865447998047
1710891315355825000,5.005824951171875,0.03936004638671875,0.4261946678161621,0.34209156036376953
1710891315374784800,5.02478466796875,-0.00947260856628418,0.2727627754211426,0.004718780517578125
1710891315393745000,5.043744873046875,-0.24150097370147705,0.123626708984375,-0.16352081298828125
1710891315412704800,5.062704833984375,-0.3814312219619751,-0.017156362533569336,-0.4178171157836914
1710891315431664600,5.08166455078125,-0.5207748413085938,0.13372421264648438,-0.5528621673583984
1710891315450624500,5.10062451171875,-0.6902785301208496,0.12940478324890137,-0.3656005859375
1710891315469584600,5.119584716796875,-0.379011869430542,-0.043642282485961914,-0.32227516174316406
1710891315488544500,5.13854443359375,-0.043234944343566895,-0.12106633186340332,-0.48692798614501953
1710891315507504400,5.15750439453125,0.06327611207962036,-0.3042786121368408,-0.36360740661621094
1710891315526464500,5.176464599609375,0.2872915267944336,-0.3442533016204834,-0.2769641876220703
1710891315545424400,5.19542431640625,0.39430391788482666,-0.08300447463989258,-0.46581363677978516
1710891315564384300,5.21438427734375,0.38454365730285645,0.06383633613586426,-0.7733774185180664
1710891315583344400,5.233344482421875,0.20404309034347534,-0.08460164070129395,-1.1052665710449219
1710891315602304300,5.25230419921875,0.14936679601669312,-0.25807440280914307,-1.2750892639160156
1710891315621264400,5.271264404296875,0.23902857303619385,-0.3223748207092285,-1.7924160957336426
1710891315640224300,5.290224365234375,-0.006554007530212402,-0.4107666015625,-2.4675426483154297
1710891315659184000,5.30918408203125,-0.22761470079421997,-0.38539814949035645,-2.376368522644043
1710891315678144300,5.328144287109375,0.25067460536956787,-0.6876217126846313,-2.0373401641845703
1710891315697104100,5.347104248046875,0.6547578573226929,-0.4398839473724365,-1.1368045806884766
1710891315716064000,5.36606396484375,0.9544728994369507,0.0822458267211914,-0.13891315460205078
1710891315735024000,5.385024169921875,1.0252714157104492,0.14940500259399414,0.5856590270996094
1710891315753984000,5.40398388671875,0.7376103401184082,-0.10359764099121094,0.6203269958496094
1710891315772944000,5.42294384765625,0.002231001853942871,-0.26016783714294434,0.5050220489501953
1710891315791904000,5.441904052734375,-0.48551881313323975,-0.5557408332824707,0.3936319351196289
1710891315810863900,5.46086376953125,-0.5960550308227539,-0.8558516502380371,0.6046390533447266
1710891315829823700,5.47982373046875,-0.4800710678100586,-0.6358921527862549,0.6990718841552734
1710891315848784000,5.498783935546875,-0.4361644983291626,-0.40732240676879883,0.4743785858154297
1710891315867743700,5.51774365234375,-0.2711517810821533,-0.20909619331359863,0.5024442672729492
1710891315886703600,5.53670361328125,0.06238675117492676,0.3488476276397705,0.9363079071044922
1710891315905663700,5.555663818359375,0.4910975694656372,-0.02323007583618164,1.0811243057250977
1710891315924623600,5.57462353515625,0.5002385377883911,-0.2556917667388916,0.9955568313598633
1710891315943583700,5.593583740234375,0.3096160888671875,0.20194053649902344,0.6814823150634766
1710891315962543600,5.612543701171875,-0.12038588523864746,0.35971808433532715,0.008550643920898438
1710891315981503500,5.63150341796875,-0.3435107469558716,0.29656553268432617,-0.42463111877441406
1710891316000463600,5.650463623046875,-0.2558497190475464,0.3274424076080322,-0.4377470016479492
1710891316019423500,5.669423583984375,-0.011660933494567871,0.24027109146118164,-0.49314403533935547
1710891316038383600,5.688383544921875,-0.0006786584854125977,0.20074987411499023,-0.3761892318725586
1710891316057343500,5.707343505859375,0.29461169242858887,0.37306737899780273,-0.07160568237304688
1710891316076303400,5.726303466796875,0.4426769018173218,0.2757437229156494,0.1100912094116211
1710891316095263500,5.745263427734375,0.3333103656768799,0.33861684799194336,0.07373905181884766
1710891316114223400,5.764223388671875,0.3681001663208008,0.5757288932800293,-0.1656208038330078
1710891316133183200,5.783183349609375,0.6092660427093506,0.2919955253601074,-0.24709033966064453
1710891316152143400,5.802143310546875,0.6021780967712402,-0.4045093059539795,-0.21813392639160156
1710891316171103200,5.821103271484375,0.33061301708221436,-0.3117330074310303,-0.0783853530883789
1710891316190063000,5.84006298828125,0.37323665618896484,0.5141878128051758,-0.10971355438232422
1710891316209023200,5.859023193359375,0.4072471857070923,0.6685492992401123,-0.47344970703125
1710891316227983000,5.877983154296875,0.20462775230407715,-0.11248469352722168,-0.30872249603271484
1710891316246943200,5.896943115234375,0.2607917785644531,-0.09341740608215332,-0.05279731750488281
1710891316265903000,5.915903076171875,0.11674189567565918,0.10940742492675781,-0.04641151428222656
1710891316284863200,5.93486328125,-0.20679879188537598,-0.49421095848083496,-0.11153507232666016
1710891316303823000,5.953822998046875,-0.2467820644378662,-0.29077839851379395,0.30150699615478516
1710891316322783000,5.972782958984375,-0.040083885192871094,0.2567572593688965,0.33333683013916016
1710891316341743000,5.9917431640625,0.05203080177307129,0.4143390655517578,0.05414295196533203
1710891316360703000,6.010702880859375,-0.0341494083404541,0.24343156814575195,0.061492919921875
1710891316379663000,6.0296630859375,-0.08847188949584961,0.3189096450805664,0.2554454803466797
1710891316398623000,6.048623046875,0.23295211791992188,0.28832197189331055,0.21392822265625
1710891316417582800,6.067582763671875,0.12834405899047852,0.12840938568115234,-0.0993337631225586
1710891316436543000,6.08654296875,-0.09126853942871094,-0.15566158294677734,0.09117412567138672
1710891316455502800,6.1055029296875,0.04116201400756836,0.091217041015625,0.154022216796875
1710891316474463000,6.124462890625,0.11266160011291504,0.3874030113220215,-0.1313481330871582
1710891316493422800,6.1434228515625,0.11322832107543945,0.23766517639160156,-0.3209190368652344
1710891316512383000,6.162383056640625,-0.039559125900268555,0.1971874237060547,-0.07751083374023438
1710891316531342800,6.1813427734375,0.11715888977050781,-0.02100992202758789,0.0695047378540039
1710891316550302700,6.200302734375,0.29221272468566895,-0.1063232421875,0.008583545684814453
1710891316569262800,6.219262939453125,0.08670210838317871,0.0346980094909668,0.016658306121826172
1710891316588222700,6.23822265625,-0.008315324783325195,0.23691844940185547,0.0929269790649414
1710891316607182800,6.257182861328125,0.03675413131713867,0.08866643905639648,0.11945295333862305
1710891316626142700,6.276142822265625,0.06656837463378906,-0.06361103057861328,0.03538703918457031
1710891316645102800,6.295102783203125,0.09041690826416016,0.0788888931274414,0.05143880844116211
1710891316664062700,6.314062744140625,0.14269781112670898,0.12784576416015625,0.061335086822509766
1710891316683022800,6.33302294921875,0.14861416816711426,0.06016683578491211,0.04134845733642578
1710891316701982700,6.351982666015625,0.09980273246765137,0.09373664855957031,0.013067245483398438
1710891316720942800,6.37094287109375,0.11242413520812988,0.06293725967407227,-0.003318309783935547
1710891316739902700,6.38990283203125,0.1383342742919922,0.1264481544494629,-0.10567474365234375
1710891316758862600,6.408862548828125,0.1095888614654541,0.18526315689086914,-0.10078144073486328
1710891316777822700,6.42782275390625,0.1277618408203125,-0.04159402847290039,-0.0702972412109375
1710891316796782600,6.446782470703125,0.11776328086853027,0.10999536514282227,-0.13042163848876953
1710891316815742700,6.46574267578125,0.13614392280578613,0.2729363441467285,-0.16431665420532227
1710891316834702800,6.484702880859375,0.12073087692260742,0.08359336853027344,-0.1444225311279297
1710891316853662700,6.503662841796875,0.07776474952697754,-0.12515640258789062,0.02234792709350586
1710891316872622800,6.522622802734375,0.1526648998260498,0.22842168807983398,-0.033194541931152344
1710891316891582700,6.541582763671875,0.40302395820617676,0.14495611190795898,-0.12112808227539062
1710891316910542800,6.56054296875,0.6428813934326172,-0.06937885284423828,-0.11385440826416016
1710891316929502700,6.579502685546875,0.3332400321960449,-0.07740306854248047,-0.05642414093017578
1710891316948462800,6.598462890625,0.1464550495147705,-0.25043678283691406,0.025599002838134766
1710891316967422700,6.617422607421875,-0.5079240798950195,-0.03250408172607422,-0.07205724716186523
1710891316986382800,6.6363828125,-0.7635796070098877,0.22629690170288086,0.011066913604736328
1710891317005342700,6.6553427734375,-0.44978809356689453,0.1258387565612793,0.4619407653808594
1710891317024302800,6.674302734375,-0.2234508991241455,-0.3775959014892578,0.9321370124816895
1710891317043262700,6.6932626953125,-0.27286577224731445,-0.38405895233154297,1.3028602600097656
1710891317062222800,6.712222900390625,-0.3483407497406006,-0.3875150680541992,1.6820831298828125
1710891317081183000,6.731182861328125,-0.032034873962402344,-0.17353057861328125,2.263113021850586
1710891317100142800,6.750142822265625,0.17693841457366943,0.7417736053466797,2.763674736022949
1710891317119103000,6.76910302734375,0.561943769454956,1.3677988052368164,2.649961471557617
1710891317138062800,6.788062744140625,1.0578179359436035,1.4302730560302734,1.501180648803711
1710891317157023000,6.80702294921875,1.6297852993011475,1.7333793640136719,0.2227916717529297
1710891317175982800,6.82598291015625,2.5332751274108887,1.303577184677124,-0.3624420166015625
1710891317194943000,6.84494287109375,3.1242873668670654,0.5087313652038574,-0.5398397445678711
1710891317213903000,6.863903076171875,2.786438226699829,0.21582245826721191,-0.7090692520141602
1710891317232863000,6.882863037109375,1.9817607402801514,0.4006643295288086,-0.8352861404418945
1710891317251823000,6.901822998046875,0.9080603122711182,0.6234786510467529,-1.3399953842163086
1710891317270783200,6.920783203125,-0.19024327397346497,0.5722239017486572,-2.0669965744018555
1710891317289743000,6.9397431640625,-1.062771201133728,0.08956527709960938,-2.657641887664795
1710891317308703200,6.958703125,-1.1838645935058594,-0.22620677947998047,-2.2255420684814453
1710891317327663000,6.9776630859375,-0.9062433838844299,-0.2602001428604126,-1.3563318252563477
1710891317346623200,6.996623291015625,-0.4572477638721466,-0.01400136947631836,-0.38629150390625
1710891317365583000,7.0155830078125,0.14981821179389954,0.14155566692352295,0.4067211151123047
1710891317384543200,7.034543212890625,0.5305355787277222,-0.017352581024169922,1.126063346862793
1710891317403503400,7.05350341796875,0.6176474094390869,-0.3234292268753052,1.3593416213989258
1710891317422463200,7.072463134765625,0.3271865248680115,-0.27209174633026123,1.2070245742797852
1710891317441423400,7.09142333984375,-0.12116044759750366,-0.3302723169326782,0.6648454666137695
1710891317460383500,7.110383544921875,-0.32797375321388245,-0.4190610945224762,0.29233646392822266
1710891317479343400,7.12934326171875,-0.3461531400680542,-0.3990395665168762,0.007206916809082031
1710891317498303500,7.148303466796875,-0.38470420241355896,-0.18920379877090454,-0.10629463195800781
1710891317517263600,7.167263671875,-0.3071509897708893,-0.05404865741729736,-0.07260608673095703
1710891317536223700,7.1862236328125,-0.10515648126602173,-0.26636993885040283,-0.11960029602050781
1710891317555183600,7.20518359375,-0.07152611017227173,-0.2995961308479309,0.03479766845703125
1710891317574143700,7.224143798828125,0.04675799608230591,-0.14894932508468628,0.24396038055419922
1710891317593103600,7.243103515625,0.138095885515213,0.12446987628936768,0.19540977478027344
1710891317612063700,7.262063720703125,0.07365784049034119,0.2372376173734665,0.4558687210083008
1710891317631023900,7.28102392578125,0.28611406683921814,0.25864750146865845,0.6976308822631836
1710891317649983700,7.299983642578125,0.11711180210113525,0.1812571883201599,0.3994626998901367
1710891317668944000,7.31894384765625,0.0007553994655609131,0.16588884592056274,0.3981208801269531
1710891317687904000,7.337904052734375,-0.2180202603340149,0.17644035816192627,0.5354995727539062
1710891317706864000,7.356864013671875,-0.2820950150489807,0.24241328239440918,0.3960609436035156
1710891317725824000,7.375823974609375,-0.15029752254486084,0.2323145866394043,0.31834888458251953
1710891317744784100,7.3947841796875,-0.036696940660476685,0.25472426414489746,0.4380760192871094
1710891317763744300,7.413744140625,-0.16865351796150208,0.5393868684768677,0.47875022888183594
1710891317782704400,7.432704345703125,0.08668869733810425,0.7638158798217773,0.4752225875854492
1710891317801664300,7.451664306640625,-0.019252300262451172,0.4910309314727783,0.30726146697998047
1710891317820624400,7.470624267578125,-0.1947827786207199,0.45619893074035645,-0.11577892303466797
1710891317839584300,7.489584228515625,-0.11604481935501099,0.9213497638702393,-0.17151641845703125
1710891317858544400,7.50854443359375,-0.11457410454750061,0.6987490653991699,-0.4015979766845703
1710891317877504500,7.52750439453125,-0.45950081944465637,0.43538856506347656,-0.7761449813842773
1710891317896464600,7.546464599609375,-0.28121498227119446,0.8646116256713867,-0.5350561141967773
1710891317915424800,7.5654248046875,-0.2079252451658249,1.0184924602508545,-0.6316003799438477
1710891317934384600,7.584384521484375,0.08280929923057556,1.176823377609253,-0.8136186599731445
1710891317953344800,7.6033447265625,0.269409716129303,1.597288966178894,-0.8319549560546875
1710891317972305000,7.622304931640625,0.49896544218063354,1.3936455249786377,-1.080092430114746
1710891317991264800,7.6412646484375,0.2925105094909668,1.3438363075256348,-1.1130914688110352
1710891318010225000,7.660224853515625,0.36345699429512024,1.1841442584991455,-1.3968544006347656
1710891318029185000,7.67918505859375,0.34418386220932007,1.1661133766174316,-2.005002975463867
1710891318048145200,7.698145263671875,0.30696773529052734,1.367957353591919,-1.872544288635254
1710891318067105300,7.717105224609375,0.428732693195343,1.2366783618927002,-0.9914579391479492
1710891318086065400,7.7360654296875,0.05011829733848572,0.9548313617706299,-0.6692771911621094
1710891318105025300,7.755025390625,0.057358890771865845,1.0672495365142822,-0.7483930587768555
1710891318123985400,7.7739853515625,0.3464186191558838,1.4280762672424316,-0.8581552505493164
1710891318142945500,7.792945556640625,0.6315914988517761,1.8265933990478516,-0.7449140548706055
1710891318161905700,7.81190576171875,1.0858583450317383,1.819239616394043,-0.16696643829345703
1710891318180865500,7.830865478515625,0.8623443841934204,1.4703048467636108,0.4493846893310547
1710891318199825700,7.84982568359375,1.0075504779815674,1.2707146406173706,0.9412040710449219
1710891318218785800,7.868785888671875,0.6201948523521423,1.166327953338623,0.59710693359375
1710891318237746000,7.887745849609375,0.09620290994644165,1.0547170639038086,0.08339214324951172
1710891318256706000,7.9067060546875,0.09292882680892944,1.0927369594573975,-0.17230510711669922
1710891318275666000,7.925666015625,-0.3336832523345947,1.3793988227844238,-0.5552549362182617
1710891318294626000,7.9446259765625,-0.5370234251022339,1.639085292816162,0.07982635498046875
1710891318313586200,7.963586181640625,-0.20991253852844238,1.2621673345565796,0.3224296569824219
1710891318332546300,7.98254638671875,-0.13094103336334229,0.6786344051361084,0.6442289352416992
1710891318351506400,8.00150634765625,0.021476268768310547,0.8539658784866333,1.3276176452636719
1710891318370466600,8.020466552734375,-0.3251568078994751,1.4719414710998535,1.2739744186401367
1710891318389426700,8.0394267578125,-0.47416985034942627,1.7040648460388184,0.5545015335083008
1710891318408386600,8.058386474609375,-0.7783087491989136,1.5042859315872192,-0.7214813232421875
1710891318427346700,8.0773466796875,-1.4007328748703003,1.7179529666900635,-2.169987678527832
1710891318446306800,8.096306884765625,-2.4054412841796875,1.7711904048919678,-3.8998918533325195
1710891318465267000,8.115266845703125,-3.6105732917785645,2.9749131202697754,-2.883481025695801
1710891318484227000,8.13422705078125,-1.272564172744751,2.549058198928833,-0.5526189804077148
1710891318503187200,8.153187255859375,1.782167911529541,1.33670973777771,1.4494638442993164
1710891318522147300,8.172147216796875,2.7592098712921143,0.3601555824279785,0.7994565963745117
1710891318541107500,8.191107421875,0.8269289135932922,-0.11712360382080078,1.2289838790893555
1710891318560067600,8.210067626953125,2.1363792419433594,0.059926748275756836,3.045231819152832
1710891318579027700,8.22902783203125,2.0698747634887695,0.8179898262023926,2.8091859817504883
1710891318597987600,8.247987548828124,1.0087573528289795,0.7891726493835449,2.70540714263916
1710891318616947700,8.26694775390625,-0.7546677589416504,-0.24034357070922852,2.667234420776367
1710891318635907800,8.285907958984374,-1.08807373046875,-0.5010156631469727,3.2070255279541016
1710891318654868000,8.304867919921875,-1.0327773094177246,1.0034594535827637,4.021923542022705
1710891318673828000,8.323828125,-1.8148815631866455,1.1379203796386719,4.604180335998535
1710891318692788200,8.342788330078125,-2.4457030296325684,-0.5207452774047852,4.186001300811768
1710891318711748000,8.361748046875,-2.8899898529052734,-1.8741211891174316,3.4619970321655273
1710891318730708200,8.380708251953125,-3.8017473220825195,-3.057398796081543,1.6669445037841797
1710891318749668400,8.39966845703125,-4.219561576843262,-3.0705726146698,-0.11673569679260254
1710891318768628500,8.41862841796875,-2.7087841033935547,-0.3337845802307129,-1.0668821334838867
1710891318787588600,8.437588623046874,-0.06053781509399414,3.63916015625,-1.0624749660491943
1710891318806548700,8.456548828125,1.364603042602539,3.302088737487793,0.32393693923950195
1710891318825508900,8.4755087890625,2.553293228149414,1.4406709671020508,1.3618645668029785
1710891318844469000,8.494468994140625,2.5113778114318848,0.7987189292907715,1.9897851943969727
1710891318863429000,8.51342919921875,2.70461368560791,0.5984258651733398,3.8643851280212402
1710891318882389200,8.53238916015625,2.610833168029785,0.18704891204833984,5.190334320068359
1710891318901349400,8.551349365234374,1.69539213180542,-0.20486974716186523,4.654987335205078
1710891318920309500,8.5703095703125,-0.03992605209350586,-0.8565402030944824,2.0795257091522217
1710891318939269600,8.58926953125,-2.1453189849853516,-0.9298677444458008,-0.33399343490600586
1710891318958229800,8.608229736328125,-3.046456813812256,-1.1675477027893066,-0.39158034324645996
1710891318977190000,8.62718994140625,-2.3258814811706543,-1.294135570526123,1.043842077255249
1710891318996149800,8.646149658203125,-1.200608730316162,-1.7192926406860352,2.224423885345459
1710891319015110000,8.66510986328125,-0.030002593994140625,-1.579721450805664,3.4464292526245117
1710891319034070000,8.684070068359375,0.607231616973877,-1.1557378768920898,3.8611018657684326
1710891319053030100,8.703030029296874,0.9005851745605469,-0.9783754348754883,3.4894063472747803
1710891319071990300,8.721990234375,0.6826744079589844,-0.4398026466369629,2.788780689239502
1710891319090950400,8.740950439453124,-0.27492332458496094,-0.07123851776123047,1.178371787071228
1710891319109910500,8.75991064453125,-0.6245436668395996,-0.8008794784545898,0.2702977955341339
1710891319128870700,8.77887060546875,-1.5353784561157227,-1.6034479141235352,0.005823731422424316
1710891319147830800,8.797830810546875,-1.563624382019043,-2.0293099880218506,1.016298532485962
1710891319166791000,8.816791015625,-1.766190528869629,-1.5409908294677734,2.976802349090576
1710891319185751000,8.8357509765625,-4.133329391479492,-1.9171571731567383,2.446258068084717
1710891319204711000,8.8547109375,-5.342754364013672,-4.159928798675537,-0.6419531106948853
1710891319223671000,8.873671142578125,-6.11120080947876,-4.464198589324951,-4.491466522216797
1710891319242631200,8.892631103515624,-1.3870983123779297,-0.7534594535827637,-6.053185939788818
1710891319261591300,8.91159130859375,1.7450447082519531,3.737231731414795,-5.528059005737305
1710891319280551400,8.930551513671874,4.350517272949219,5.828487396240234,-0.12014150619506836
1710891319299511600,8.949511474609375,4.141540050506592,5.04286003112793,3.308684825897217
1710891319318471700,8.9684716796875,5.070959091186523,1.8857331275939941,2.8229048252105713
1710891319337431800,8.987431884765625,3.572299003601074,-0.4309206008911133,1.5226473808288574
1710891319356392000,9.006391845703124,1.2001562118530273,-1.0712146759033203,1.2597095966339111
1710891319375352000,9.02535205078125,-0.8492274284362793,-1.0530729293823242,0.5652774572372437
1710891319394312200,9.044312255859374,-1.5283617973327637,-0.26323413848876953,-0.488258957862854
1710891319413272300,9.063272216796875,-1.1064181327819824,0.11737298965454102,-1.4528577327728271
1710891319432232400,9.082232421875,-0.46031665802001953,0.1749129295349121,-1.7203495502471924
1710891319451192600,9.101192626953125,-0.124420166015625,0.8433294296264648,-1.2837791442871094
1710891319470152700,9.120152587890624,-0.5567965507507324,1.0329546928405762,-1.4522321224212646
1710891319489112600,9.139112548828125,-0.4506683349609375,0.3535933494567871,-1.7376340627670288
1710891319508072700,9.15807275390625,0.2722153663635254,0.03381538391113281,-1.4954503774642944
1710891319527032800,9.17703271484375,0.9919595718383789,0.020247459411621094,-0.8932139277458191
1710891319545993000,9.195992919921874,0.9396486282348633,0.12961816787719727,-0.2933136224746704
1710891319564953000,9.214953125,0.35251760482788086,0.21909570693969727,-0.31470125913619995
1710891319583913200,9.233913330078124,-1.0111308097839355,0.8134732246398926,-0.8176621794700623
1710891319602873300,9.252873291015625,-1.6629595756530762,-0.29116153717041016,-1.7141636610031128
1710891319621833500,9.27183349609375,-1.7695369720458984,-1.0950021743774414,-2.168403387069702
1710891319640793600,9.290793701171875,-0.6635317802429199,-1.2155866622924805,-1.3459646701812744
1710891319659753700,9.309753662109374,0.9244194030761719,-0.8344850540161133,0.39246413111686707
1710891319678713900,9.3287138671875,1.0604562759399414,-0.31278419494628906,1.8089985847473145
1710891319697673700,9.347673828125,0.24086999893188477,-0.5463900566101074,1.1667969226837158
1710891319716633900,9.3666337890625,-0.9671320915222168,0.28720664978027344,-0.8220694661140442
1710891319735594000,9.385593994140624,-2.6786251068115234,0.025603771209716797,-0.9839812517166138
1710891319754554000,9.40455419921875,-3.373291015625,0.16457223892211914,-2.1603734493255615
1710891319773514200,9.42351416015625,-1.9639778137207031,0.01802968978881836,-4.400241374969482
1710891319792474400,9.442474365234375,0.47658681869506836,0.7395176887512207,-2.423002243041992
1710891319811434500,9.4614345703125,2.2436466217041016,1.3559455871582031,0.7321760654449463
1710891319830394600,9.48039453125,1.4341344833374023,1.487288475036621,1.5202556848526
1710891319849354800,9.499354736328126,1.3816328048706055,1.9490580558776855,-0.3297078609466553
1710891319868315000,9.51831494140625,0.07128763198852539,0.35410118103027344,-2.89504337310791
1710891319887275000,9.53727490234375,-1.3870882987976074,0.5019230842590332,-3.064358949661255
1710891319906235000,9.55623486328125,-2.421072244644165,1.4429473876953125,-1.8845891952514648
1710891319925195000,9.575195068359376,-1.616614818572998,1.5197196006774902,0.457217812538147
1710891319944155400,9.5941552734375,-0.6748032569885254,0.818549633026123,1.7759662866592407
1710891319963115500,9.613115478515626,0.30370426177978516,0.12261676788330078,3.1922175884246826
1710891319982075400,9.632075439453125,0.6381340026855469,-0.6211419105529785,3.5589499473571777
1710891320001035500,9.651035400390626,0.33374452590942383,-0.8253469467163086,3.3058199882507324
1710891320019995600,9.66999560546875,-0.44485998153686523,-0.36200523376464844,1.9488277435302734
1710891320038955800,9.688955810546876,-1.5123019218444824,-0.4034614562988281,0.13715267181396484
1710891320057916000,9.707916015625,-2.389462947845459,-0.8593692779541016,-1.5333223342895508
1710891320076876000,9.7268759765625,-2.5792722702026367,-0.7324686050415039,-1.9402446746826172
1710891320095836000,9.7458359375,-2.385035991668701,-0.27268505096435547,-1.7770028114318848
1710891320114796000,9.764796142578126,-1.510681390762329,-0.3793821334838867,-0.7316794395446777
1710891320133756200,9.783756103515625,-0.37433719635009766,-0.08083486557006836,0.7811384201049805
1710891320152716300,9.80271630859375,0.5345268249511719,0.5536994934082031,2.1797924041748047
1710891320171676400,9.821676513671875,1.4792890548706055,0.5028343200683594,2.8975353240966797
1710891320190636500,9.840636474609376,2.460634469985962,0.8969893455505371,3.1750411987304688
1710891320209596700,9.8595966796875,2.956270694732666,1.682976245880127,3.282886505126953
1710891320228556800,9.878556884765626,1.6973936557769775,1.6289992332458496,0.4333376884460449
1710891320247517000,9.897516845703125,-0.5629827976226807,0.8287534713745117,-1.804051399230957
1710891320266477000,9.91647705078125,-1.6824979782104492,-0.9205784797668457,-2.693310260772705
1710891320285437200,9.935437255859375,-1.5164124965667725,0.7005023956298828,-3.4405276775360107
1710891320304397000,9.95439697265625,-1.3381009101867676,1.7190656661987305,-3.033529758453369
1710891320323357200,9.973357177734375,-0.5362789630889893,0.9508581161499023,-1.407728672027588
1710891320342317300,9.9923173828125,0.8518047332763672,0.8639473915100098,-0.999699592590332
1710891320361277400,10.01127734375,0.1097269058227539,2.0052947998046875,0.15178298950195312
1710891320380237600,10.030237548828126,0.9713313579559326,0.6648902893066406,0.7438254356384277
1710891320399197700,10.04919775390625,1.8950679302215576,0.849520206451416,0.8262567520141602
1710891320418157800,10.06815771484375,0.8683984279632568,1.2764582633972168,-0.00733184814453125
1710891320437118000,10.087117919921875,-0.8598775863647461,0.5204081535339355,-1.537595272064209
1710891320456077800,10.106077880859376,-0.49483203887939453,-0.830723762512207,-1.148270606994629
1710891320475038000,10.125037841796875,1.9849720001220703,0.6482977867126465,1.4358463287353516
1710891320493998000,10.143998046875,-3.554462432861328,0.2174072265625,2.0387516021728516
1710891320512958200,10.162958251953125,-2.1263742446899414,-0.7266554832458496,-3.0908021926879883
1710891320531918300,10.18191845703125,-0.6385841369628906,1.6166796684265137,-1.5312700271606445
1710891320550878500,10.20087841796875,2.963886260986328,5.735102653503418,4.351531982421875
1710891320569838600,10.219838623046876,5.076686382293701,5.393069267272949,6.454421043395996
1710891320588798700,10.238798828125,4.826019763946533,2.2950568199157715,3.810565948486328
1710891320607758600,10.257758544921876,4.614782333374023,1.6553516387939453,0.7608814239501953
1710891320626718700,10.27671875,3.9190688133239746,2.309908866882324,-0.32513904571533203
1710891320645678800,10.295678955078126,3.2403430938720703,1.3745369911193848,0.4857807159423828
1710891320664639000,10.314638916015625,2.7835006713867188,0.12629270553588867,1.2303953170776367
1710891320683599000,10.33359912109375,1.7783308029174805,-1.0751457214355469,0.6736531257629395
1710891320702559200,10.352559326171875,0.3619699478149414,-2.228583812713623,-0.21239614486694336
1710891320721519400,10.371519287109376,-0.641899585723877,-2.863163948059082,-0.7032673358917236
1710891320740479500,10.3904794921875,-1.0318646430969238,-3.2657272815704346,-0.9060215950012207
1710891320759439400,10.409439453125,-0.5012764930725098,-3.1410393714904785,-0.9671669006347656
1710891320778399500,10.4283994140625,-1.2942979335784912,-1.6841654777526855,-0.5898656845092773
1710891320797359600,10.447359619140625,-2.161736488342285,-1.1601214408874512,-0.5105998516082764
1710891320816319700,10.46631982421875,-2.544145107269287,-2.5950989723205566,-0.7561688423156738
1710891320835280000,10.48527978515625,-1.105933666229248,-3.5030059814453125,-0.39704322814941406
1710891320854240000,10.504239990234375,-0.49076175689697266,-3.1139254570007324,-0.4514474868774414
1710891320873199900,10.523199951171875,-0.3829994201660156,-2.3787412643432617,-0.3256564140319824
1710891320892160000,10.542159912109375,-0.8822166919708252,-1.641794204711914,-0.5226888656616211
1710891320911120100,10.5611201171875,-0.6872396469116211,-1.2414493560791016,-0.042508602142333984
1710891320930080300,10.580080322265625,-0.040377140045166016,-1.5382795333862305,0.19800567626953125
1710891320949040400,10.599040283203125,-0.7207198143005371,-1.506617546081543,-0.4102597236633301
1710891320968000500,10.61800048828125,-0.41134119033813477,-1.2312498092651367,-1.1236791610717773
1710891320986960400,10.63696044921875,0.003174304962158203,-1.2276668548583984,-1.5194246768951416
1710891321005920500,10.65592041015625,0.1851482391357422,-1.1062517166137695,-1.5800426006317139
1710891321024880600,10.674880615234375,0.4019198417663574,-1.2098636627197266,-1.28593111038208
1710891321043840800,10.6938408203125,0.5505194664001465,-0.8210992813110352,-0.6592512130737305
1710891321062801000,10.71280078125,0.3181438446044922,-0.5206308364868164,-0.006726264953613281
1710891321081760800,10.7317607421875,0.49710512161254883,-0.7483811378479004,0.1163320541381836
1710891321100721000,10.750720947265625,0.5738348960876465,-0.42317819595336914,0.4056539535522461
1710891321119681000,10.769680908203124,0.5496916770935059,-0.1930708885192871,0.4985771179199219
1710891321138641200,10.78864111328125,0.7177648544311523,-0.23621129989624023,0.5337667465209961
1710891321157601300,10.807601318359374,1.0544896125793457,-0.5006704330444336,0.6801776885986328
1710891321176561400,10.8265615234375,0.7640972137451172,-0.3770732879638672,1.0602903366088867
1710891321195521300,10.845521240234374,0.8017959594726562,-0.4690237045288086,0.3298039436340332
1710891321214481400,10.8644814453125,1.0091981887817383,-0.3977370262145996,0.020843505859375
1710891321233441500,10.883441650390624,0.5113162994384766,-0.04470491409301758,0.18981647491455078
1710891321252401700,10.902401611328125,0.31861019134521484,-0.5251126289367676,-0.19765949249267578
1710891321271361800,10.92136181640625,0.1423802375793457,-1.0150856971740723,-0.8833804130554199
1710891321290321700,10.94032177734375,-0.030962467193603516,-0.9156346321105957,-1.097388744354248
1710891321309281800,10.95928173828125,-0.03986692428588867,-0.7687511444091797,-0.531125545501709
1710891321328242000,10.978241943359375,-0.31734132766723633,-0.4174046516418457,-0.18172502517700195
1710891321347202000,10.9972021484375,-0.01130056381225586,0.5436673164367676,-0.7899789810180664
1710891321366162200,11.016162109375,-0.26253700256347656,0.7077550888061523,-1.1725199222564697
1710891321385122000,11.0351220703125,-0.5001921653747559,-0.07296991348266602,-1.3149356842041016
1710891321404082200,11.054082275390625,-0.5739412307739258,-0.05083465576171875,-0.7562146186828613
1710891321423042300,11.073042236328124,-0.053980350494384766,0.5345592498779297,-0.34113645553588867
1710891321442002400,11.09200244140625,-0.029714107513427734,0.4762992858886719,0.18483543395996094
1710891321460962600,11.110962646484374,-0.33884668350219727,-0.7464561462402344,-0.1218729019165039
1710891321479922700,11.129922607421875,-0.5418386459350586,-0.5718116760253906,0.26558637619018555
1710891321498882800,11.1488828125,-0.04284811019897461,1.1966509819030762,0.8558650016784668
1710891321517842700,11.1678427734375,-0.4549384117126465,1.7103123664855957,0.1855778694152832
1710891321536802800,11.186802734375,-0.7639164924621582,0.9932956695556641,-0.5342082977294922
1710891321555763000,11.205762939453125,-1.6339428424835205,0.3804311752319336,-0.7638611793518066
1710891321574723000,11.22472314453125,-2.1644811630249023,-0.6480441093444824,0.532163143157959
1710891321593683200,11.24368310546875,-0.3141191005706787,-0.871467113494873,2.5970425605773926
1710891321612643300,11.262643310546874,1.3526172637939453,-0.2794837951660156,3.048895835876465
1710891321631603200,11.281603271484375,0.2207646369934082,-0.2854452133178711,2.1769800186157227
1710891321650563300,11.300563232421876,-1.5695586204528809,-0.13436555862426758,1.7167139053344727
1710891321669523500,11.3195234375,-2.8472177982330322,0.434964656829834,1.7761507034301758
1710891321688483600,11.338483642578124,-3.4527995586395264,1.2605738639831543,2.4019432067871094
1710891321707443700,11.357443603515625,-2.7713115215301514,1.1999094486236572,3.4564971923828125
1710891321726403800,11.37640380859375,-0.956527590751648,0.567345142364502,4.4542999267578125
1710891321745364000,11.395364013671875,1.0794891119003296,1.0458831787109375,4.854506492614746
1710891321764324000,11.414323974609376,2.126830577850342,2.6524319648742676,5.327997207641602
1710891321783284200,11.4332841796875,0.7523410320281982,3.8806989192962646,4.072649955749512
1710891321802244400,11.452244384765624,-0.10779273509979248,4.925786972045898,3.0949935913085938
1710891321821204500,11.47120458984375,-0.15645277500152588,4.981304168701172,0.6378822326660156
1710891321840164400,11.490164306640626,-1.047516107559204,4.900500774383545,-2.037837505340576
1710891321859124500,11.50912451171875,-1.0665451288223267,4.405989646911621,-3.531099319458008
1710891321878084600,11.528084716796876,-0.3005988597869873,2.747986078262329,-2.851048469543457
1710891321897044700,11.547044677734375,-0.12349733710289001,1.7497131824493408,-1.3313961029052734
1710891321916004900,11.5660048828125,1.0697205066680908,1.1335790157318115,-0.9861726760864258
1710891321934965000,11.584965087890625,1.9240355491638184,0.9581270217895508,-1.3533754348754883
1710891321953924900,11.6039248046875,1.5223050117492676,1.8253297805786133,-1.2090520858764648
1710891321972885000,11.622885009765625,1.9633426666259766,2.584115982055664,-0.7934322357177734
1710891321991845000,11.64184521484375,2.62793231010437,2.2342965602874756,-1.2006101608276367
1710891322010805200,11.66080517578125,2.8490381240844727,2.0670201778411865,-1.8778939247131348
1710891322029765400,11.679765380859376,3.2342464923858643,2.5303544998168945,-0.6422948837280273
1710891322048725500,11.6987255859375,3.5174055099487305,2.834822654724121,-0.415863037109375
1710891322067685600,11.717685546875,1.6196651458740234,2.0251433849334717,-1.0895118713378906
1710891322086645800,11.736645751953125,-1.2830138206481934,-0.9319329261779785,-1.5198273658752441
1710891322105606000,11.75560595703125,-4.658578872680664,-1.7792458534240723,-4.179200172424316
1710891322124566000,11.77456591796875,-2.846954107284546,0.6252350807189941,-3.4453158378601074
1710891322143526100,11.793526123046876,-0.7410160303115845,-0.4617276191711426,-0.07379627227783203
1710891322162486000,11.812486083984375,1.785417079925537,0.7237067222595215,4.792940139770508
1710891322181446100,11.831446044921876,1.2911076545715332,2.209620952606201,6.765368461608887
1710891322200406300,11.85040625,0.37257665395736694,1.4541957378387451,3.469280242919922
1710891322219366400,11.869366455078126,-1.7765930891036987,1.6593666076660156,-0.4726886749267578
1710891322238326500,11.888326416015625,-2.1976521015167236,2.1709978580474854,-1.8647198677062988
1710891322257286700,11.90728662109375,-1.5311784744262695,1.3068790435791016,-0.8282322883605957
1710891322276246800,11.926246826171875,-1.3202065229415894,1.4069347381591797,-0.26822471618652344
1710891322295207000,11.94520703125,-0.7150733470916748,1.4299461841583252,0.2483682632446289
1710891322314167000,11.9641669921875,-0.6065006256103516,1.3244743347167969,0.6457443237304688
1710891322333127200,11.983127197265626,0.04775524139404297,1.218799114227295,1.7731657028198242
1710891322352087300,12.00208740234375,0.5945746898651123,1.9328911304473877,2.1307811737060547
1710891322371047400,12.02104736328125,0.9106343984603882,2.377707004547119,2.510417938232422
1710891322390007600,12.040007568359375,0.9525768756866455,0.609025239944458,2.239971160888672
1710891322408967700,12.0589677734375,0.6246097087860107,-0.24983453750610352,2.3138465881347656
1710891322427927800,12.077927734375,0.13322675228118896,-0.48920440673828125,1.7185707092285156
1710891322446887700,12.0968876953125,-0.15602505207061768,-0.9526972770690918,0.6852226257324219
1710891322465847800,12.115847900390625,-0.4012751579284668,-1.621027946472168,-0.32994747161865234
1710891322484808200,12.13480810546875,-0.4361531734466553,-0.9949460029602051,-0.4673738479614258
1710891322503768300,12.153768310546875,-0.15082931518554688,-0.7837796211242676,-0.30638790130615234
1710891322522728400,12.172728515625,0.47902846336364746,-1.788081169128418,-0.4420509338378906
1710891322541688300,12.191688232421875,0.752504825592041,-2.3954973220825195,-1.3831424713134766
1710891322560648400,12.2106484375,0.5884585380554199,-2.017178535461426,-2.7574615478515625
1710891322579608800,12.22960888671875,0.4741384983062744,-1.9553618431091309,-3.191981792449951
1710891322598569000,12.24856884765625,0.8623299598693848,-1.5067849159240723,-2.4392919540405273
1710891322617528800,12.26752880859375,0.8476278781890869,-0.8822965621948242,-1.262608528137207
1710891322636489000,12.286489013671876,0.7854390144348145,-0.3917231559753418,-1.1176481246948242
1710891322655449000,12.305448974609375,0.6537017822265625,-0.5391697883605957,-1.6714611053466797
1710891322674409200,12.3244091796875,-0.06919503211975098,-0.2344646453857422,-1.9259300231933594
1710891322693369300,12.343369384765625,-0.17548060417175293,-0.960078239440918,-1.646407127380371
1710891322712329500,12.36232958984375,-0.11041665077209473,-1.1626873016357422,-1.228684902191162
1710891322731289600,12.38128955078125,-0.6382133960723877,-0.323486328125,-0.7493648529052734
1710891322750249700,12.400249755859376,-0.6606693267822266,-0.523766040802002,-0.5560770034790039
1710891322769210000,12.419210205078125,0.21582984924316406,-1.0061416625976562,-0.28231334686279297
1710891322788170000,12.438169921875,0.3739006519317627,-0.6108293533325195,-0.283355712890625
1710891322807130000,12.457130126953125,-0.019008874893188477,-0.28377342224121094,-0.7348537445068359
1710891322826090500,12.476090576171876,0.17662811279296875,-0.5735793113708496,-1.2788724899291992
1710891322845050600,12.495050537109375,0.6091816425323486,0.30640602111816406,-1.7667479515075684
1710891322864010500,12.514010498046876,0.7954063415527344,-0.31466102600097656,-1.1349186897277832
1710891322882970600,12.532970703125,0.8274970054626465,-0.9436173439025879,-0.8866395950317383
1710891322901931000,12.551930908203126,0.7443623542785645,0.09980630874633789,-0.90423583984375
1710891322920891100,12.57089111328125,-0.07328295707702637,-0.13512516021728516,-0.7989859580993652
1710891322939851000,12.58985107421875,-0.1122441291809082,-0.7046775817871094,-1.0054435729980469
1710891322958811400,12.608811279296875,0.1966395378112793,-0.9888086318969727,-1.1469268798828125
1710891322977771500,12.627771484375,0.30577552318573,-1.3217377662658691,-1.1035394668579102
1710891322996731600,12.646731689453125,0.5294421911239624,-2.0957131385803223,-1.2530641555786133
1710891323015691800,12.66569189453125,0.6909273862838745,-2.4511666297912598,-1.526529312133789
1710891323034652000,12.68465185546875,1.1670893430709839,-3.5759477615356445,-0.9670524597167969
1710891323053612000,12.703612060546876,2.0025649070739746,-3.4649062156677246,-0.22643375396728516
1710891323072572200,12.722572265625,1.7213482856750488,-3.903538227081299,0.47121524810791016
1710891323091532300,12.7415322265625,1.7815642356872559,-4.449436187744141,1.9169626235961914
1710891323110492400,12.760492431640625,1.3149592876434326,-4.214531898498535,4.069683074951172
1710891323129452500,12.77945263671875,-0.5433730483055115,-3.299009323120117,5.578335762023926
1710891323148412700,12.79841259765625,-1.09657621383667,-1.0577340126037598,6.923565864562988
1710891323167372800,12.817372802734376,-0.6861280202865601,0.6583914756774902,6.625804901123047
1710891323186333000,12.8363330078125,-1.0070844888687134,1.2111377716064453,5.394577980041504
1710891323205293300,12.855293212890626,-1.3178856372833252,1.0326623916625977,2.8958654403686523
1710891323224253400,12.87425341796875,-1.5661437511444092,0.45726823806762695,0.7057285308837891
1710891323243213600,12.893213623046876,-2.290966510772705,0.10184860229492188,-1.7628068923950195
1710891323262173700,12.912173583984375,-3.4060070514678955,1.0092772245407104,-3.183798313140869
1710891323281133800,12.9311337890625,-3.259945869445801,3.0452489852905273,-2.700712203979492
1710891323300094000,12.950093994140625,-2.954232692718506,4.223237991333008,-1.1293764114379883
1710891323319054000,12.96905419921875,-1.565342903137207,4.281844139099121,-0.29729270935058594
1710891323338014200,12.98801416015625,0.14227259159088135,2.9915995597839355,0.7046079635620117
1710891323356974600,13.006974609375,1.0686614513397217,1.5057177543640137,0.7013874053955078
1710891323375934500,13.0259345703125,1.1422009468078613,0.8719994425773621,0.11838245391845703
1710891323394894800,13.044894775390626,0.6928062438964844,1.3137356042861938,0.41610145568847656
1710891323413855000,13.06385498046875,0.5614510774612427,1.5359580516815186,0.6507148742675781
1710891323432815000,13.082815185546876,1.1817376613616943,1.2257493734359741,0.5088214874267578
1710891323451775200,13.101775146484375,2.476989984512329,1.7265336513519287,-1.5042037963867188
1710891323470735400,13.1207353515625,1.0072534084320068,1.8061648607254028,-4.056234359741211
1710891323489695500,13.139695556640625,0.8797178268432617,3.584717273712158,-5.124112129211426
1710891323508655600,13.158655517578126,2.326786756515503,4.64394998550415,-5.421574592590332
1710891323527615700,13.17761572265625,2.1035046577453613,3.83213472366333,-5.133617401123047
1710891323546576100,13.196576171875,1.197532296180725,3.0155081748962402,-3.255887508392334
1710891323565536300,13.215536376953125,-1.414512276649475,1.539276361465454,0.6410388946533203
1710891323584496400,13.234496337890626,-5.450063228607178,-1.3632644414901733,4.5311737060546875
1710891323603456500,13.25345654296875,-4.289192199707031,-2.046905279159546,1.7568511962890625
1710891323622416600,13.272416748046876,0.8700368404388428,3.4055628776550293,-3.3801136016845703
1710891323641376800,13.291376708984375,2.739928960800171,3.2356348037719727,-1.483292579650879
1710891323660337000,13.3103369140625,1.4277924299240112,0.1680321991443634,-2.237481117248535
1710891323679297300,13.32929736328125,0.272625207901001,-0.744400680065155,-1.1304435729980469
1710891323698257200,13.348257080078126,-0.9896881580352783,-0.22719034552574158,0.9123706817626953
1710891323717217500,13.367217529296875,-0.8885905742645264,0.417255699634552,1.2437019348144531
1710891323736177700,13.386177734375,-0.2858163118362427,0.27507898211479187,0.4342803955078125
1710891323755137800,13.4051376953125,-0.619430422782898,0.6877963542938232,0.1418437957763672
1710891323774098000,13.424097900390626,-2.2379815578460693,0.5306368470191956,1.4771299362182617
1710891323793058000,13.44305810546875,-2.648655891418457,-0.9201862812042236,1.1327018737792969
1710891323812018400,13.462018310546876,-1.3350404500961304,-1.8020122051239014,0.08264827728271484
1710891323830978300,13.480978271484375,0.2076890468597412,-0.9975157976150513,-0.9504299163818359
1710891323849938700,13.499938720703126,0.9268066883087158,-1.059935450553894,-1.0779962539672852
1710891323868898800,13.51889892578125,0.93442702293396,-1.1739652156829834,-0.5338926315307617
1710891323887859000,13.53785888671875,1.1305211782455444,-1.1970237493515015,-0.8765802383422852
1710891323906819000,13.556819091796875,0.7616190910339355,-1.1195738315582275,-0.9844760894775391
1710891323925779200,13.575779296875,0.6115602254867554,-1.0304023027420044,0.11868667602539062
1710891323944739600,13.594739501953125,0.4496150016784668,-0.6402136087417603,1.1182308197021484
1710891323963699700,13.61369970703125,0.6298290491104126,-0.6605165004730225,1.1416816711425781
1710891323982659800,13.632659912109375,0.5860165357589722,-1.0287028551101685,0.22726917266845703
1710891324001620000,13.651619873046876,0.34710693359375,-0.6830010414123535,-0.5363912582397461
1710891324020580000,13.670580078125,0.26556849479675293,-0.505294919013977,-0.8952856063842773
1710891324039540200,13.689540283203126,0.5367116928100586,-0.2479705810546875,-1.2257490158081055
1710891324058500600,13.70850048828125,1.2806885242462158,0.5038250684738159,-1.4660663604736328
1710891324077460700,13.727460693359374,2.7044482231140137,1.3294622898101807,-2.7847843170166016
1710891324096420900,13.7464208984375,3.215061902999878,1.5092787742614746,-2.879973888397217
1710891324115381000,13.765381103515624,3.384141445159912,2.310840606689453,-1.323094367980957
1710891324134341000,13.784341064453125,2.804241895675659,2.887129306793213,-0.31942081451416016
1710891324153301200,13.80330126953125,2.0305416584014893,1.5842831134796143,-0.30249500274658203
1710891324172261400,13.822261474609375,2.1148853302001953,0.4324803352355957,0.11691474914550781
1710891324191221800,13.8412216796875,2.556495428085327,0.3061861991882324,1.909724235534668
1710891324210182000,13.860181884765625,1.8489785194396973,0.04813575744628906,4.383955001831055
1710891324229142000,13.87914208984375,0.4254605770111084,0.07312870025634766,6.93308162689209
1710891324248102100,13.89810205078125,-2.024097442626953,-0.05193614959716797,8.104033470153809
1710891324267062300,13.917062255859374,-5.483205795288086,-0.36849164962768555,6.870047569274902
1710891324286022400,13.9360224609375,-7.057275772094727,-0.29941797256469727,4.6848320960998535
1710891324304982800,13.954982666015624,-7.4649434089660645,-2.3165478706359863,0.6381540298461914
1710891324323943000,13.97394287109375,-6.152541637420654,-1.6453948020935059,-2.1158640384674072
1710891324342903000,13.992903076171874,-2.2870144844055176,0.9251585006713867,-0.7397251129150391
1710891324361863200,14.01186328125,1.3849472999572754,2.5808539390563965,1.8391692638397217
1710891324380823300,14.0308232421875,2.9665369987487793,1.2861695289611816,5.2478532791137695
1710891324399783400,14.049783447265625,4.232718467712402,0.7831621170043945,4.6530303955078125
1710891324418743600,14.06874365234375,3.5955810546875,1.6157889366149902,0.7632533311843872
1710891324437704000,14.087703857421875,1.7528514862060547,1.333566665649414,-0.7277978658676147
1710891324456664000,14.1066640625,0.2983255386352539,0.6359553337097168,-0.3481051027774811
1710891324475624200,14.125624267578125,0.7418889999389648,1.291722297668457,1.3987319469451904
1710891324494584300,14.144584228515624,-0.4725956916809082,0.7225298881530762,1.7577381134033203
1710891324513544400,14.16354443359375,-0.40978002548217773,0.012435436248779297,-0.47458699345588684
1710891324532504600,14.182504638671874,-0.9870643615722656,-1.0804142951965332,0.6544522047042847
1710891324551465000,14.20146484375,-0.8903942108154297,-2.5676217079162598,2.5173473358154297
1710891324570425000,14.220425048828124,-1.0527114868164062,-1.0751352310180664,2.480389356613159
1710891324589385200,14.23938525390625,-1.7578506469726562,-0.7820744514465332,-0.5314028263092041
1710891324608345300,14.258345458984374,-1.8187508583068848,-1.1844305992126465,-2.1356687545776367
1710891324627305500,14.277305419921875,-1.7481598854064941,-0.7057714462280273,-1.327386736869812
1710891324646265600,14.296265625,-1.125920295715332,-0.21937799453735352,-0.8654675483703613
1710891324665225700,14.315225830078125,-0.830195426940918,-0.6580486297607422,-1.3453096151351929
1710891324684185900,14.334185791015624,-0.5379571914672852,-1.0985350608825684,-1.742046594619751
1710891324703146200,14.353146240234375,-0.4945063591003418,0.36371803283691406,-1.1132975816726685
1710891324722106400,14.3721064453125,0.0029344558715820312,1.429121494293213,-1.1211713552474976
1710891324741066500,14.39106640625,0.27721500396728516,0.972137451171875,-1.642397403717041
1710891324760026600,14.410026611328124,-0.5353817939758301,0.0032405853271484375,-1.657914638519287
1710891324778986800,14.42898681640625,-1.1901979446411133,-0.3199324607849121,-1.3405205011367798
1710891324797947000,14.44794677734375,-0.9844741821289062,-0.6720819473266602,-0.9072524309158325
1710891324816907000,14.466906982421875,-0.06309127807617188,-0.7919344902038574,-0.3030109107494354
1710891324835867400,14.485867431640624,0.5221319198608398,-0.34767770767211914,0.674706757068634
1710891324854827300,14.5048271484375,0.668309211730957,-0.16595888137817383,1.2873549461364746
1710891324873787600,14.52378759765625,1.4506573677062988,-0.3000211715698242,1.5992441177368164
1710891324892747800,14.542747802734375,2.4635348320007324,-0.2938990592956543,2.0757224559783936
1710891324911708000,14.5617080078125,0.859652042388916,0.005156517028808594,1.1308237314224243
1710891324930668000,14.58066796875,0.11001062393188477,0.7139005661010742,-0.6450433731079102
1710891324949628200,14.599628173828124,-1.3020248413085938,1.1418242454528809,-1.4653414487838745
1710891324968588500,14.618588623046875,-1.2099409103393555,-0.6544795036315918,-0.17408502101898193
1710891324987548400,14.63754833984375,-0.06432437896728516,-0.8043742179870605,-1.2726305723190308
1710891325006508800,14.6565087890625,-1.4256587028503418,-0.18997812271118164,-3.120490789413452
1710891325025469000,14.675468994140624,-0.7963652610778809,0.6874818801879883,0.11106622219085693
1710891325044429000,14.694428955078125,0.16457223892211914,-0.39232921600341797,2.4936578273773193
1710891325063389200,14.71338916015625,1.128227710723877,-0.7832827568054199,3.0821399688720703
1710891325082349300,14.732349365234375,1.3570313453674316,-1.4491796493530273,1.699911117553711
1710891325101309400,14.751309326171874,0.5323834419250488,-0.9916844367980957,0.8578761219978333
1710891325120269600,14.77026953125,0.3024578094482422,0.4669523239135742,0.6199896335601807
1710891325139229700,14.789229736328124,0.5416965484619141,0.6557960510253906,-0.6543751955032349
1710891325158189800,14.80818994140625,0.4397573471069336,0.49247264862060547,-1.162111759185791
1710891325177150200,14.827150146484374,-0.5807127952575684,0.20317554473876953,-1.4268110990524292
1710891325196110000,14.846110107421875,-1.7490339279174805,-0.34625816345214844,-1.681177020072937
1710891325215070500,14.865070556640624,-1.6911320686340332,-0.5393705368041992,-0.7358416318893433
1710891325234030600,14.884030517578125,-0.17971038818359375,-0.3441281318664551,1.6078295707702637
1710891325252990700,14.90299072265625,1.3342342376708984,-0.3746452331542969,3.129298210144043
1710891325271950800,14.921950927734375,0.09768962860107422,-0.4495086669921875,3.0296356678009033
1710891325290911000,14.940910888671874,-0.37508678436279297,-0.658818244934082,2.1324000358581543
1710891325309871000,14.95987109375,-0.18315649032592773,-0.6592092514038086,1.0027438402175903
1710891325328831200,14.978831298828124,0.47342824935913086,0.686920166015625,-2.3110299110412598
1710891325347791400,14.997791259765625,-2.2259716987609863,-0.051822662353515625,-7.227113723754883
1710891325366751500,15.01675146484375,-0.32193851470947266,-0.1607518196105957,-3.934602737426758
1710891325385711900,15.0357119140625,0.6099491119384766,-1.408635139465332,-0.13048434257507324
1710891325404671700,15.054671630859374,1.5777549743652344,-0.09316587448120117,2.770592451095581
1710891325423632100,15.073632080078125,2.0175118446350098,1.99900484085083,2.183340311050415
1710891325442592300,15.09259228515625,1.8717217445373535,1.418931484222412,0.5104066133499146
1710891325461552400,15.111552490234375,0.7700080871582031,0.9583020210266113,-0.1467456817626953
1710891325480512500,15.130512451171874,-0.7882814407348633,0.5653257369995117,-0.9590870141983032
1710891325499472600,15.14947265625,-1.5351309776306152,0.17306137084960938,-1.0860710144042969
1710891325518432800,15.168432861328125,-1.4135150909423828,-0.13155078887939453,-0.7002810835838318
1710891325537393000,15.187392822265625,-0.9243826866149902,-0.4732680320739746,-0.4284929633140564
1710891325556353000,15.20635302734375,-0.8748326301574707,-1.2191576957702637,-0.8651902079582214
1710891325575313200,15.225313232421875,-0.9551253318786621,-1.5576772689819336,-1.8529232740402222
1710891325594273300,15.244273193359374,-1.3618521690368652,-1.5443363189697266,-2.0647101402282715
1710891325613233400,15.2632333984375,-1.5553092956542969,-1.6323347091674805,-1.9253848791122437
1710891325632193500,15.282193603515625,-0.9269204139709473,-0.8434662818908691,-1.7816317081451416
1710891325651153700,15.301153564453125,-0.33016061782836914,0.31177425384521484,-1.08942449092865
1710891325670113800,15.32011376953125,0.3336176872253418,0.6848196983337402,-0.003555774688720703
1710891325689074200,15.33907421875,0.7736411094665527,1.3104500770568848,0.9872868061065674
1710891325708034000,15.358033935546874,0.846651554107666,1.7131156921386719,0.6492187976837158
1710891325726994400,15.376994384765625,0.9029321670532227,0.7630753517150879,-0.33211636543273926
1710891325745954600,15.39595458984375,0.5947399139404297,0.6122050285339355,-1.3368198871612549
1710891325764914700,15.414914794921875,-0.20563507080078125,0.44372034072875977,-1.380357265472412
1710891325783874600,15.43387451171875,-0.5973324775695801,-0.21750783920288086,-1.5583529472351074
1710891325802835000,15.4528349609375,-0.5212869644165039,-0.5864691734313965,-1.4713354110717773
1710891325821795000,15.471795166015625,-0.41869354248046875,-0.5342440605163574,-1.024735450744629
1710891325840755200,15.490755126953125,0.04865121841430664,-0.13806390762329102,-0.3094210624694824
1710891325859715300,15.50971533203125,0.30752992630004883,0.3901333808898926,0.12581634521484375
1710891325878675500,15.528675537109375,0.4851388931274414,0.8560590744018555,0.18993568420410156
1710891325897635600,15.547635498046875,0.5125367641448975,0.5336389541625977,0.48198747634887695
1710891325916595700,15.566595703125,0.5646965503692627,0.25170326232910156,0.4683570861816406
1710891325935555800,15.585555908203125,0.44114089012145996,-0.15532255172729492,0.7226858139038086
1710891325954516000,15.604515869140625,0.56252121925354,-0.5696277618408203,1.0166196823120117
1710891325973476000,15.62347607421875,0.41926562786102295,-0.034028053283691406,0.711669921875
1710891325992436200,15.642436279296875,-1.2936019897460938,0.7828898429870605,-0.0770883560180664
1710891326011396400,15.661396240234374,-2.8536674976348877,1.7365269660949707,-0.2438516616821289
1710891326030356500,15.6803564453125,-3.454374313354492,1.4658479690551758,0.4216909408569336
1710891326049316600,15.699316650390625,-2.6671290397644043,0.8408515453338623,1.7766036987304688
1710891326068276700,15.71827685546875,-0.8384714126586914,0.9840683937072754,4.58946418762207
1710891326087236900,15.73723681640625,1.2447595596313477,1.3363521099090576,5.395252227783203
1710891326106197000,15.756197021484375,2.065100908279419,0.47588109970092773,5.001020431518555
1710891326125157000,15.7751572265625,2.2809395790100098,-0.37186503410339355,3.3076210021972656
1710891326144117200,15.7941171875,1.8280282020568848,0.10699820518493652,1.2481842041015625
1710891326163077400,15.813077392578125,1.2406823635101318,2.059072971343994,0.3104400634765625
1710891326182037500,15.83203759765625,1.2847449779510498,2.1764512062072754,-0.5136651992797852
1710891326200997600,15.85099755859375,1.7516345977783203,0.7888675928115845,-0.5643692016601562
1710891326219957800,15.869957763671875,1.7351622581481934,0.4151667356491089,-1.5906052589416504
1710891326238918000,15.88891796875,1.5341262817382812,1.2965190410614014,-1.5738096237182617
1710891326257878000,15.9078779296875,1.5490760803222656,1.3786746263504028,-1.362058162689209
1710891326276838100,15.926838134765624,1.2801666259765625,0.6845406293869019,-1.9091873168945312
1710891326295798300,15.94579833984375,0.8620483875274658,-0.8698540925979614,-2.7681140899658203
1710891326314758400,15.96475830078125,0.3222527503967285,-0.2859686017036438,-4.528541564941406
1710891326333718500,15.983718505859375,-0.1835165023803711,1.896385669708252,-4.001752853393555
1710891326352678700,16.0026787109375,-0.8447678089141846,2.3309149742126465,0.45229625701904297
1710891326371638800,16.021638671875,1.5759470462799072,-0.5650396347045898,1.1783771514892578
1710891326390599000,16.040598876953126,1.750422477722168,-2.212664842605591,0.4523038864135742
1710891326409559000,16.05955908203125,0.5245471000671387,-1.5935425758361816,2.248058319091797
1710891326428519200,16.078519287109376,-0.2554612159729004,-0.6527156233787537,2.905245780944824
1710891326447479300,16.097479248046874,-0.8643841743469238,0.5559724569320679,0.8233194351196289
1710891326466439400,16.116439453125,-0.6935348510742188,0.673886239528656,-0.40291786193847656
1710891326485399600,16.135399658203124,-0.17509841918945312,-0.3454485535621643,-0.23627853393554688
1710891326504359700,16.154359619140624,0.4386000633239746,-0.9076688289642334,0.4411468505859375
1710891326523319800,16.17331982421875,0.4825460910797119,-1.0398855209350586,0.6701498031616211
1710891326542280200,16.1922802734375,0.6826143264770508,-0.5501534938812256,1.3891677856445312
1710891326561240300,16.211240234375,1.2983644008636475,-0.3491540551185608,1.4637327194213867
1710891326580200200,16.2302001953125,0.34093427658081055,-0.8366952538490295,0.8635683059692383
1710891326599160600,16.24916064453125,-0.02661871910095215,0.9197613596916199,-1.6867561340332031
1710891326618120700,16.26812060546875,0.7158992290496826,2.806382417678833,-0.7795181274414062
1710891326637080800,16.287080810546875,0.3242814540863037,1.2258338928222656,-0.1059255599975586
1710891326656040700,16.306040771484376,-0.4769294261932373,-0.6504228711128235,-0.9197320938110352
1710891326675001000,16.3250009765625,0.5087752342224121,0.13953368365764618,-0.32892608642578125
1710891326693961200,16.343961181640626,0.8838212490081787,0.22257304191589355,-0.3004322052001953
1710891326712921300,16.36292138671875,-0.1295011043548584,0.08284866809844971,0.6638288497924805
1710891326731881500,16.381881591796876,-1.8874232769012451,-0.5107876658439636,0.5906314849853516
1710891326750841600,16.400841552734374,-3.753615140914917,-1.8504960536956787,1.032027244567871
1710891326769801700,16.4198017578125,-3.4465365409851074,-1.7949310541152954,0.4292593002319336
1710891326788761900,16.438761962890624,-1.8117594718933105,0.3409419059753418,-1.5192070007324219
1710891326807722000,16.457721923828124,-0.1833205223083496,1.9594522714614868,-2.0751819610595703
1710891326826682000,16.47668212890625,-0.49540185928344727,1.3667480945587158,-1.5929417610168457
1710891326845642200,16.495642333984375,-0.032199859619140625,-0.35720235109329224,-0.3698921203613281
1710891326864602400,16.514602294921875,-2.1628565788269043,-0.46149545907974243,0.2886371612548828
1710891326883562500,16.5335625,-1.6605054140090942,1.5389935970306396,-1.5479402542114258
1710891326902522600,16.552522705078125,0.8117466568946838,2.9159669876098633,-2.375626564025879
1710891326921483000,16.57148291015625,1.796315312385559,2.3713347911834717,-1.1128625869750977
1710891326940443000,16.59044287109375,1.0837695598602295,2.276230573654175,-0.636540412902832
1710891326959403000,16.609403076171876,0.9445146322250366,2.909116268157959,-0.2140045166015625
1710891326978363400,16.62836328125,0.42429471015930176,3.0682485103607178,0.6279268264770508
1710891326997323500,16.647323486328126,-0.24740266799926758,2.9990925788879395,2.193593978881836
1710891327016283600,16.66628369140625,0.5746394991874695,2.6124002933502197,2.4707298278808594
1710891327035243800,16.685243896484376,-0.2883666753768921,2.215664863586426,2.39760684967041
1710891327054204000,16.704203857421874,-2.4545183181762695,1.498210072517395,2.7194747924804688
1710891327073164000,16.7231640625,-2.473536491394043,-0.21358630061149597,1.5427789688110352
1710891327092124200,16.742124267578124,-1.144106388092041,-1.7013425827026367,0.8647422790527344
1710891327111084300,16.761084228515625,-0.9238571524620056,-2.2389330863952637,0.03986835479736328
1710891327130044400,16.78004443359375,-0.9581563472747803,-2.1396870613098145,-0.6724157333374023
1710891327149004800,16.7990048828125,-0.8170045018196106,-2.080904483795166,-1.410508155822754
1710891327167964700,16.817964599609375,-0.18344274163246155,-2.155954122543335,-1.7428007125854492
1710891327186925000,16.836925048828125,0.4413204789161682,-2.2366037368774414,-1.1368522644042969
1710891327205885200,16.85588525390625,0.06620597839355469,-2.2364559173583984,-0.3390989303588867
1710891327224845300,16.87484521484375,-0.4400787949562073,-2.092021942138672,0.3533802032470703
1710891327243805400,16.893805419921875,0.47532063722610474,-2.2245123386383057,0.2398395538330078
1710891327262765600,16.912765625,0.9758636951446533,-2.496460199356079,0.19530773162841797
1710891327281725700,16.9317255859375,-0.05498969554901123,-1.967048168182373,-0.0735616683959961
1710891327300685800,16.950685791015626,-0.9185652732849121,-1.6786593198776245,-0.7107925415039062
1710891327319646200,16.969646240234376,-0.3485318124294281,-1.6295028924942017,-1.1985225677490234
1710891327338606300,16.9886064453125,-0.4498412013053894,-1.3855607509613037,-1.0074024200439453
1710891327357566500,17.00756640625,-0.6734440922737122,-1.5751157999038696,-0.7063837051391602
1710891327376526600,17.026526611328126,-0.1895395815372467,-1.9600974321365356,-0.3653602600097656
1710891327395486700,17.04548681640625,0.4245468080043793,-2.0118820667266846,0.15404891967773438
1710891327414446800,17.06444677734375,0.03755226731300354,-1.686086893081665,0.006588935852050781
1710891327433407000,17.083406982421874,-0.43085768818855286,-1.3958399295806885,-0.286865234375
1710891327452367000,17.1023671875,-0.4666910171508789,-1.6617590188980103,-0.35510730743408203
1710891327471327500,17.121327392578124,-0.375695139169693,-1.6903918981552124,-0.43041133880615234
1710891327490287600,17.14028759765625,-0.7055777311325073,-1.5407931804656982,-0.4682350158691406
1710891327509247700,17.159247802734374,-0.9234358072280884,-1.5717494487762451,-0.8268976211547852
1710891327528208000,17.178207763671875,-1.176884412765503,-1.305084466934204,-1.145857810974121
1710891327547168000,17.19716796875,-1.0146703720092773,-1.0427634716033936,-0.4588804244995117
1710891327566128000,17.216128173828125,0.08253335952758789,-0.9157209396362305,0.45391368865966797
1710891327585088500,17.235088623046874,-0.17368757724761963,-0.42750847339630127,0.4686279296875
1710891327604048600,17.254048583984375,-0.1951686143875122,0.3392801284790039,0.844487190246582
1710891327623008800,17.2730087890625,0.4803842306137085,1.2656837701797485,1.204981803894043
1710891327641969000,17.291968994140625,0.6870394349098206,1.7383286952972412,0.7323837280273438
1710891327660929000,17.310928955078126,1.0236878395080566,1.170730471611023,0.9954929351806641
1710891327679889200,17.32988916015625,1.162021279335022,0.9775675535202026,1.4717912673950195
1710891327698849500,17.348849609375,1.1678645610809326,1.2717351913452148,0.8265714645385742
1710891327717809700,17.3678095703125,0.6755725145339966,0.40166401863098145,0.30460643768310547
1710891327736769800,17.386769775390626,0.7241992950439453,-0.5381394624710083,0.05841350555419922
1710891327755730000,17.40572998046875,0.5848145484924316,0.02810966968536377,0.7603206634521484
1710891327774690000,17.42468994140625,-0.14841032028198242,0.935616135597229,1.5599546432495117
1710891327793650200,17.443650146484377,-0.29624485969543457,0.3731938600540161,1.781656265258789
1710891327812610600,17.462610595703126,0.44670504331588745,0.503849983215332,2.006803512573242
1710891327831570700,17.48157080078125,-0.46994638442993164,2.7261974811553955,2.6904172897338867
1710891327850530800,17.50053076171875,0.8619211316108704,1.998002290725708,2.9307479858398438
1710891327869491000,17.519490966796877,0.32745182514190674,0.22405314445495605,1.2625818252563477
1710891327888451000,17.538451171875,1.9856586456298828,0.9836554527282715,1.50201416015625
1710891327907411500,17.557411376953127,1.5585496425628662,2.971564292907715,0.6933469772338867
1710891327926371600,17.57637158203125,0.4839869737625122,3.3664002418518066,-0.5831623077392578
1710891327945331700,17.595331787109377,1.7940356731414795,-0.47676706314086914,-1.6029529571533203
1710891327964291800,17.614291748046874,1.6133449077606201,-0.5584776401519775,-1.130671501159668
1710891327983252000,17.633251953125,0.30028825998306274,2.198145866394043,0.08507919311523438
1710891328002212400,17.65221240234375,0.1357850432395935,-0.8293094635009766,-1.3939828872680664
1710891328021172500,17.67117236328125,0.2603056728839874,-3.9603641033172607,-2.164618492126465
1710891328040132600,17.690132568359374,-1.0826363563537598,-2.9776611328125,-1.7338647842407227
1710891328059092700,17.7090927734375,-1.92991042137146,-2.743882656097412,-1.4819355010986328
1710891328078053000,17.72805322265625,-1.43555748462677,-3.4570960998535156,-1.9723453521728516
1710891328097013200,17.74701318359375,-1.4063003063201904,-2.6626648902893066,-1.1962299346923828
1710891328115973400,17.765973388671874,-2.189685583114624,-1.7772612571716309,-1.158747673034668
1710891328134933500,17.78493359375,0.8927661180496216,-0.8667154312133789,0.5680789947509766
1710891328153893600,17.8038935546875,0.2988237738609314,-3.521798849105835,-1.145869255065918
1710891328172854000,17.82285400390625,-0.72377610206604,-0.8756904602050781,-3.578671455383301
1710891328191814100,17.841814208984374,-0.1168484091758728,2.2417993545532227,-1.650029182434082
1710891328210774300,17.860774169921875,1.8690733909606934,-1.1333799362182617,-0.3845500946044922
1710891328229734400,17.879734375,0.750857412815094,-1.1230006217956543,-1.5650615692138672
1710891328248694800,17.89869482421875,1.0927337408065796,-0.17107772827148438,-2.550387382507324
1710891328267655000,17.917655029296874,0.4525562524795532,0.28618383407592773,-1.4299063682556152
1710891328286615000,17.936614990234375,-0.6523891687393188,-0.3142275810241699,-0.7879014015197754
1710891328305575400,17.955575439453124,-0.6627805233001709,0.17451095581054688,0.41063785552978516
1710891328324535300,17.974535400390625,0.9168360233306885,0.277895450592041,0.4603691101074219
1710891328343495700,17.99349560546875,1.1487764120101929,-1.0176427364349365,-2.736607074737549
1710891328362455800,18.012455810546875,-3.0225627422332764,2.248655319213867,-3.5055813789367676
1710891328381416000,18.031416015625,-0.9481587409973145,0.08994483947753906,-0.8145465850830078
1710891328400376300,18.050376220703125,0.6030622720718384,-1.2421588897705078,0.4908761978149414
1710891328419336400,18.06933642578125,-1.6835962533950806,-1.2148164510726929,1.7199411392211914
1710891328438296600,18.088296630859375,0.5062367916107178,0.7304720878601074,-0.2345867156982422
1710891328457257000,18.107257080078124,0.9421976804733276,2.0845437049865723,-0.8377227783203125
1710891328476217000,18.126217041015625,1.3543058633804321,-1.035005807876587,1.0594301223754883
1710891328495177200,18.14517724609375,-0.7061722278594971,1.1402456760406494,-0.49425792694091797
1710891328514137300,18.164137451171875,0.5538102388381958,2.0361437797546387,-0.6742496490478516
1710891328533097500,18.183097412109376,0.8347512483596802,0.7180572748184204,0.42653751373291016
1710891328552057900,18.202057861328125,-0.11753153800964355,-1.420569658279419,0.3144865036010742
1710891328571018000,18.22101806640625,-1.7912425994873047,0.8171255588531494,-0.7741460800170898
1710891328589978000,18.23997802734375,-0.4264543056488037,4.451877117156982,-0.1053323745727539
1710891328608938500,18.2589384765625,0.5138299465179443,1.5849658250808716,2.114792823791504
1710891328627898600,18.277898681640625,1.9560587406158447,-2.7480061054229736,0.7158727645874023
1710891328646858800,18.296858642578126,1.2866281270980835,-2.137481451034546,-1.1804075241088867
1710891328665819100,18.315819091796875,-1.3938982486724854,2.57842755317688,-1.8762283325195312
1710891328684779300,18.334779296875,-2.184811592102051,4.018424987792969,0.40338134765625
1710891328703739400,18.353739501953125,0.6376686096191406,0.04092729091644287,1.9001874923706055
1710891328722699800,18.37269970703125,1.4315345287322998,-1.8826109170913696,1.7434511184692383
1710891328741660000,18.391659912109375,-0.9382648468017578,0.7742382287979126,0.4676399230957031
1710891328760620000,18.4106201171875,-1.5195508003234863,2.289386510848999,-0.048801422119140625
1710891328779580200,18.429580078125,1.5169601440429688,0.0950467586517334,-1.5991582870483398
1710891328798540300,18.448540283203126,-0.7944633960723877,-0.31958556175231934,-0.31334972381591797
1710891328817500700,18.467500732421875,-1.326951503753662,0.3452775478363037,2.6784915924072266
1710891328836460800,18.486460693359376,3.1421561241149902,0.2098526954650879,0.4625844955444336
1710891328855421000,18.5054208984375,0.009615182876586914,1.406085729598999,1.3495588302612305
1710891328874381300,18.52438134765625,-3.0408005714416504,1.76277494430542,1.9267206192016602
1710891328893341400,18.543341552734375,0.033501625061035156,-0.8091421127319336,0.10370159149169922
1710891328912301600,18.562301513671876,1.572862148284912,-2.7335872650146484,-0.8955650329589844
1710891328931262000,18.581261962890625,-1.8411303758621216,-0.33729982376098633,-0.5370674133300781
1710891328950222000,18.60022216796875,-2.78057861328125,2.187081813812256,0.6012001037597656
1710891328969182200,18.61918212890625,1.8543161153793335,0.0967874526977539,0.8360671997070312
1710891328988142600,18.638142578125,1.274200677871704,-1.4649176597595215,1.977128505706787
1710891329007102700,18.657102783203126,-1.7748498916625977,-1.0068778991699219,1.9454450607299805
1710891329026062800,18.676062744140626,-0.5285047292709351,-0.13785028457641602,1.1296448707580566
1710891329045023200,18.695023193359376,0.5859710574150085,-0.08653736114501953,-0.41288137435913086
1710891329063983400,18.7139833984375,-0.5685104131698608,-0.37312984466552734,-0.6481080055236816
1710891329082943500,18.732943603515626,-0.5337684154510498,-0.42066240310668945,-0.05701255798339844
1710891329101903600,18.751903564453126,-0.4274526834487915,-0.2373347282409668,1.2094841003417969
1710891329120864000,18.770864013671876,-0.5891175270080566,-0.4471006393432617,1.8042535781860352
1710891329139824000,18.78982421875,0.9377537369728088,-0.7616615295410156,0.8160848617553711
1710891329158784300,18.8087841796875,0.7228018045425415,-0.3899564743041992,0.22109413146972656
1710891329177744600,18.82774462890625,-1.940337896347046,-0.38457489013671875,-0.6239662170410156
1710891329196704800,18.846704833984376,0.1615283489227295,0.1690974235534668,-1.1285381317138672
1710891329215665000,18.865664794921877,0.8515164852142334,-0.2204742431640625,0.8594565391540527
1710891329234625300,18.884625244140626,-0.2012593150138855,-1.1103181838989258,0.8356027603149414
1710891329253585400,18.90358544921875,-1.2753455638885498,-0.12997817993164062,1.132051944732666
1710891329272545500,18.922545654296876,0.14253944158554077,-0.5227446556091309,0.3765420913696289
1710891329291506000,18.941505859375,1.5691689252853394,-0.2956199645996094,-0.47080421447753906
1710891329310466000,18.960466064453126,-1.3761532306671143,-1.0603623390197754,0.026431560516357422
1710891329329426200,18.97942626953125,-1.2180585861206055,-1.7420692443847656,-1.3105297088623047
1710891329348386600,18.998386474609376,0.5618464350700378,1.195063591003418,-0.7593507766723633
1710891329367346700,19.0173466796875,0.4630309045314789,0.849970817565918,1.9023289680480957
1710891329386306800,19.036306884765626,0.4910609722137451,-0.8526897430419922,1.6979541778564453
1710891329405267000,19.055266845703127,-0.30730414390563965,-0.7035388946533203,-0.14595556259155273
1710891329424227000,19.07422705078125,-0.4281911849975586,0.3673367500305176,-1.085899829864502
1710891329443187500,19.0931875,0.21363773941993713,-0.1973419189453125,-0.43019771575927734
1710891329462147600,19.112147705078126,1.2692667245864868,0.010784626007080078,1.0712809562683105
1710891329481107700,19.131107666015627,0.1399253010749817,1.297022819519043,1.9879703521728516
1710891329500068000,19.150068115234376,-0.40679898858070374,-1.0932221412658691,0.2058725357055664
1710891329519028200,19.1690283203125,0.5445473194122314,-0.48972606658935547,-0.02583026885986328
1710891329537988400,19.18798828125,-0.6629985570907593,0.6200718879699707,0.17523193359375
1710891329556948700,19.20694873046875,0.4106883704662323,0.7536406517028809,1.1799659729003906
1710891329575908900,19.225908935546876,1.2325655221939087,0.299102783203125,1.4761557579040527
1710891329594869000,19.244868896484373,0.484114408493042,0.06150054931640625,1.0328874588012695
1710891329613829000,19.2638291015625,-1.1304038763046265,-0.5349254608154297,-0.5995326042175293
1710891329632789200,19.282789306640623,-0.017305195331573486,0.531437873840332,-0.4675154685974121
1710891329651749600,19.30174951171875,-0.4309478998184204,-0.8787412643432617,0.3816189765930176
1710891329670709800,19.320709716796873,0.2995750904083252,0.19440460205078125,0.32494258880615234
1710891329689670000,19.339669921875,0.8055459260940552,0.7071475982666016,0.6606278419494629
1710891329708630300,19.35863037109375,0.6488267779350281,0.09210395812988281,0.42731142044067383
1710891329727590400,19.37759033203125,-0.11570948362350464,0.05279827117919922,0.5967698097229004
1710891329746550500,19.396550537109373,-0.4311642050743103,0.5228004455566406,0.659581184387207
1710891329765511000,19.415510986328126,-0.2427513599395752,-0.10760784149169922,-0.2606391906738281
1710891329784471000,19.434470947265623,-0.0845823884010315,-0.5584993362426758,-0.25665855407714844
1710891329803431200,19.45343115234375,-0.02892059087753296,0.007317543029785156,0.289609432220459
1710891329822391300,19.472391357421873,0.3563024699687958,0.39808130264282227,0.5385336875915527
1710891329841351400,19.491351318359374,0.34049147367477417,-0.08100509643554688,0.4471893310546875
1710891329860311800,19.510311767578123,0.1456499993801117,-0.19267559051513672,0.1588144302368164
1710891329879272000,19.52927197265625,-0.1727454662322998,0.2857065200805664,-0.06824398040771484
1710891329898232000,19.548232177734373,-0.12102174758911133,0.15222644805908203,0.16458606719970703
1710891329917192200,19.567192138671874,-0.057179272174835205,-0.09128379821777344,0.603431224822998
1710891329936152600,19.586152587890624,0.12690305709838867,0.5446243286132812,0.9143223762512207
1710891329955112700,19.60511279296875,0.3385695815086365,0.12878131866455078,0.4427146911621094
1710891329974072800,19.62407275390625,0.5304937362670898,-0.2536783218383789,0.04170799255371094
1710891329993033200,19.643033203125,0.33809566497802734,-0.3713569641113281,-0.5057163238525391
1710891330011993000,19.6619931640625,0.1783752739429474,0.37488222122192383,0.07699394226074219
1710891330030953500,19.680953369140624,0.152427077293396,0.4151296615600586,0.7432870864868164
1710891330049913600,19.69991357421875,0.42545127868652344,0.011013984680175781,1.1822710037231445
1710891330068873700,19.718873779296874,0.22965370118618011,-0.03212165832519531,0.7587966918945312
1710891330087834000,19.737834228515624,-0.29161739349365234,0.09533405303955078,-0.3544735908508301
1710891330106794200,19.756794189453124,-0.1377602219581604,0.037601470947265625,-1.0509958267211914
1710891330125754400,19.77575439453125,-0.37655511498451233,-0.2831001281738281,-0.6780633926391602
1710891330144714500,19.794714599609375,-0.037791311740875244,0.008723258972167969,0.0985574722290039
1710891330163675000,19.8136748046875,-0.037921011447906494,0.1595935821533203,0.9228734970092773
1710891330182635000,19.832635009765625,-0.29063278436660767,-0.06846141815185547,1.0795845985412598
1710891330201595100,19.85159521484375,-0.23795288801193237,0.28520822525024414,0.37355804443359375
1710891330220555300,19.87055517578125,-0.04317665100097656,0.0984334945678711,-0.1495661735534668
1710891330239515400,19.889515380859375,0.17959503829479218,-0.043967247009277344,0.06889963150024414
1710891330258475500,19.9084755859375,0.019546493887901306,-0.039722442626953125,0.19174575805664062
1710891330277436000,19.927435791015625,0.006650820374488831,0.0910501480102539,0.3755769729614258
1710891330296396000,19.94639599609375,-0.24982859194278717,0.12981128692626953,0.27259063720703125
1710891330315356200,19.965356201171875,-0.08155880868434906,0.34799861907958984,0.23597288131713867
1710891330334316500,19.984316650390625,0.04496471583843231,0.046805381774902344,0.18442249298095703
1710891330353276700,20.003276611328126,-0.10791034996509552,-0.35756969451904297,0.18418407440185547
1710891330372236800,20.02223681640625,-0.18399786949157715,0.13071727752685547,0.062117576599121094
1710891330391197000,20.041197021484376,-0.05780794471502304,-0.12842559814453125,-0.18831825256347656
1710891330410157000,20.060156982421876,0.1993529200553894,-0.031772613525390625,0.2041621208190918
1710891330429117200,20.0791171875,-0.0709603875875473,0.27156543731689453,0.37923526763916016
1710891330448077600,20.09807763671875,-0.2340042144060135,0.11418533325195312,-0.012080192565917969
1710891330467037700,20.11703759765625,-0.09006161242723465,-0.36723804473876953,-0.10590124130249023
1710891330485997800,20.135997802734376,-0.19142070412635803,-0.10548782348632812,-0.16805410385131836
1710891330504958000,20.1549580078125,-0.09452566504478455,-0.0220947265625,-0.14080524444580078
1710891330523918000,20.17391796875,0.10655701160430908,0.03807544708251953,0.018639564514160156
1710891330542878200,20.192878173828124,-0.05419180914759636,-0.04017448425292969,0.048675537109375
1710891330561838600,20.211838623046877,-0.05170845240354538,0.09334850311279297,0.08923530578613281
1710891330580798700,20.230798828125,-0.23750609159469604,0.00807952880859375,0.1363668441772461
1710891330599758800,20.2497587890625,-0.1575329601764679,0.09093379974365234,0.022930145263671875
1710891330618719000,20.268718994140624,-0.1254175901412964,-0.42725658416748047,-0.24180269241333008
1710891330637679000,20.28767919921875,-0.16646891832351685,0.17876815795898438,-0.3748612403869629
1710891330656639500,20.306639404296874,0.0633624792098999,0.11469268798828125,0.018972396850585938
1710891330675599600,20.325599609375,-0.06988630443811417,-0.25092506408691406,0.3085451126098633
1710891330694559700,20.344559814453124,0.031787555664777756,0.23169994354248047,0.3622431755065918
1710891330713519900,20.363519775390625,0.11107007414102554,-0.031678199768066406,-0.1069803237915039
1710891330732480000,20.38247998046875,0.07521966099739075,-0.1228475570678711,-0.1264181137084961
1710891330751440100,20.401440185546875,0.051377639174461365,0.115020751953125,0.18370628356933594
1710891330770400500,20.420400390625,0.14748090505599976,0.19431018829345703,0.14710760116577148
1710891330789360400,20.4393603515625,0.3826141953468323,-0.055670738220214844,0.12983369827270508
1710891330808320800,20.45832080078125,0.020835915580391884,0.020987510681152344,0.2650747299194336
1710891330827281000,20.477281005859375,-0.12866386771202087,-0.06496047973632812,0.09804821014404297
1710891330846241000,20.496240966796876,-0.08556617796421051,0.004538536071777344,-0.13724422454833984
1710891330865201200,20.515201171875,-0.3313712179660797,0.017090797424316406,-0.26438236236572266
1710891330884161300,20.534161376953126,-0.018074654042720795,-0.20161056518554688,0.1514430046081543
1710891330903121700,20.55312158203125,0.10232003778219223,0.08926010131835938,0.2762904167175293
1710891330922081800,20.572081787109376,0.14183363318443298,0.2400989532470703,-0.0032138824462890625
1710891330941042000,20.5910419921875,0.06050051748752594,-0.07599163055419922,0.09050416946411133
1710891330960002000,20.610001953125,0.15346679091453552,-0.04326438903808594,0.3375720977783203
1710891330978962200,20.628962158203127,0.1192886084318161,0.22525787353515625,0.07084178924560547
1710891330997922300,20.64792236328125,-0.03144371509552002,-0.12222480773925781,-0.00665283203125
1710891331016882400,20.66688232421875,0.000005908310413360596,0.0006084442138671875,0.20803117752075195
1710891331035842800,20.6858427734375,0.09872497618198395,0.17957115173339844,0.3567180633544922
1710891331054803000,20.704802978515627,0.23640018701553345,0.17931747436523438,0.1631450653076172
1710891331073763000,20.72376318359375,-0.03483590483665466,0.054154396057128906,-0.23673725128173828
1710891331092723200,20.74272314453125,-0.1314491480588913,-0.22633934020996094,-0.058563232421875
1710891331111683300,20.761683349609374,0.039250731468200684,0.08814048767089844,0.42397642135620117
1710891331130643500,20.7806435546875,0.08629308640956879,0.15146636962890625,0.27269983291625977
1710891331149603600,20.799603515625,0.09364303201436996,-0.09743309020996094,0.025942325592041016
1710891331168563700,20.818563720703125,0.022802792489528656,0.04715442657470703,-0.11212682723999023
1710891331187523800,20.83752392578125,0.1077650710940361,0.08835601806640625,-0.1724104881286621
1710891331206484200,20.856484130859375,-0.013126332312822342,0.01354217529296875,0.1260991096496582
1710891331225444400,20.8754443359375,0.0008271411061286926,-0.19516754150390625,0.3194279670715332
1710891331244404500,20.894404541015625,-0.024064838886260986,0.09630775451660156,0.2333383560180664
1710891331263364600,20.913364501953126,0.04049138352274895,0.12673091888427734,0.09892082214355469
1710891331282324700,20.93232470703125,-0.04736540839076042,-0.044399261474609375,-0.17220783233642578
1710891331301284900,20.951284912109376,-0.057225875556468964,-0.05678558349609375,-0.0930929183959961
1710891331320245000,20.970244873046877,0.2217017412185669,-0.1678171157836914,0.2086939811706543
1710891331339205400,20.989205322265626,0.12410213053226471,0.19228839874267578,0.28690052032470703
1710891331358165500,21.00816552734375,0.025239253416657448,0.02808856964111328,-0.00724029541015625
1710891331377125600,21.027125732421876,-0.06073573976755142,0.1468820571899414,-0.29668617248535156
1710891331396085800,21.046085693359377,-0.19151076674461365,-0.403594970703125,-0.24328231811523438
1710891331415046000,21.0650458984375,-0.1659582257270813,0.0049152374267578125,0.08548641204833984
1710891331434006000,21.084006103515627,0.05350903794169426,0.06663131713867188,0.05845022201538086
1710891331452966100,21.102966064453124,0.004802362062036991,-0.20668792724609375,-0.12562990188598633
1710891331471926500,21.121926513671873,-0.06807816028594971,-0.03746986389160156,-0.056294918060302734
1710891331490886700,21.14088671875,-0.1318594366312027,0.29259586334228516,-0.13585805892944336
1710891331509846800,21.1598466796875,-0.028127145022153854,0.004588127136230469,-0.062439918518066406
1710891331528807000,21.178806884765624,0.030744679272174835,-0.15285873413085938,0.3933091163635254
1710891331547767000,21.19776708984375,0.08206607401371002,0.10423660278320312,0.39518070220947266
1710891331566727200,21.21672705078125,0.15174134075641632,0.05942726135253906,-0.004865169525146484
1710891331585687300,21.235687255859375,0.057802822440862656,-0.04002857208251953,-0.22058677673339844
1710891331604647700,21.254647705078124,0.021595586091279984,0.04400348663330078,-0.049961090087890625
1710891331623607800,21.27360791015625,0.02028575912117958,0.10950469970703125,0.2669248580932617
1710891331642568000,21.29256787109375,0.0039039263501763344,0.11581230163574219,0.40798187255859375
1710891331661528000,21.311528076171875,-0.2594861388206482,-0.08917427062988281,0.16521596908569336
1710891331680488200,21.33048828125,-0.20828364789485931,-0.18902969360351562,-0.28101444244384766
1710891331699448300,21.3494482421875,-0.05642577260732651,0.12070941925048828,-0.12146902084350586
1710891331718408400,21.368408447265626,0.23773787915706635,0.04925060272216797,0.026825428009033203
1710891331737368800,21.387368896484375,0.22279442846775055,0.04490089416503906,0.00421142578125
1710891331756329000,21.406328857421876,-0.12630778551101685,-0.2286977767944336,-0.18859052658081055
1710891331775289000,21.4252890625,-0.17326366901397705,0.07474613189697266,-0.07109975814819336
1710891331794249200,21.444249267578126,-0.12190870940685272,0.041106224060058594,-0.03730297088623047
1710891331813209300,21.463209228515623,-0.11759243905544281,-0.24496746063232422,-0.1727919578552246
1710891331832169500,21.48216943359375,0.04919588193297386,-0.04870891571044922,-0.20748329162597656
1710891331851129900,21.5011298828125,0.16601255536079407,0.14253616333007812,-0.2317218780517578
1710891331870090000,21.520090087890626,0.1420608013868332,-0.11783981323242188,-0.11467552185058594
1710891331889050000,21.539050048828123,0.06020617485046387,0.08124828338623047,0.31006717681884766
1710891331908010200,21.55801025390625,-0.00833149254322052,0.16848182678222656,0.4109487533569336
1710891331926970400,21.576970458984373,-0.12682349979877472,0.07732582092285156,-0.023952007293701172
1710891331945930500,21.595930419921874,-0.21315115690231323,-0.2683687210083008,-0.26748228073120117
1710891331964891000,21.614890869140623,0.018827367573976517,-0.02759552001953125,-0.011074066162109375
1710891331983851000,21.63385107421875,0.34983256459236145,0.1090097427368164,0.2489790916442871
1710891332002811100,21.65281103515625,0.22340631484985352,0.14954090118408203,0.23358821868896484
1710891332021771300,21.671771240234374,-0.07840826362371445,-0.033237457275390625,0.11606407165527344
1710891332040731600,21.690731689453123,-0.14562202990055084,0.049155235290527344,0.0022377967834472656
1710891332059691800,21.70969189453125,0.009095530025660992,0.006276130676269531,-0.01363372802734375
1710891332078652000,21.72865185546875,0.025461193174123764,0.011745452880859375,0.1614065170288086
1710891332097612000,21.747612060546874,0.05874837934970856,0.23856353759765625,0.1854877471923828
1710891332116572200,21.766572265625,-0.004530067555606365,0.05564117431640625,-0.13835477828979492
1710891332135532300,21.7855322265625,-0.06290874630212784,-0.36336708068847656,-0.21971559524536133
1710891332154492700,21.80449267578125,0.009777058847248554,0.12196826934814453,0.15456676483154297
1710891332173452800,21.823452880859374,0.16390275955200195,0.14904212951660156,0.20937633514404297
1710891332192413000,21.842412841796875,0.039183106273412704,-0.13821983337402344,0.23238849639892578
1710891332211373000,21.861373046875,-0.07636331766843796,0.10864734649658203,0.09336185455322266
1710891332230333400,21.88033349609375,-0.13398008048534393,0.08421039581298828,-0.09549856185913086
1710891332249293600,21.89929345703125,-0.005775034427642822,-0.059444427490234375,-0.13695192337036133
1710891332268253700,21.918253662109375,-0.15942621231079102,-0.3266143798828125,-0.10712289810180664
1710891332287213800,21.9372138671875,-0.09896127134561539,0.19437122344970703,-0.243255615234375
1710891332306174000,21.956174072265625,-0.3568558096885681,-0.26626110076904297,-0.33165550231933594
1710891332325134300,21.97513427734375,-0.14256849884986877,-0.23975276947021484,-0.007907867431640625
1710891332344094500,21.994094482421875,0.011209921911358833,0.24607276916503906,0.34711456298828125
1710891332363054600,22.0130546875,0.5640464425086975,0.540806770324707,0.3936009407043457
1710891332382014700,22.0320146484375,0.6386732459068298,-0.15955734252929688,0.2617983818054199
1710891332400975000,22.05097509765625,0.4460115432739258,0.2592010498046875,0.08877086639404297
1710891332419935200,22.069935302734375,0.2191312462091446,-0.004097938537597656,-0.30303287506103516
1710891332438895400,22.088895263671876,-0.1135663390159607,-0.3661079406738281,-0.36597204208374023
1710891332457855500,22.10785546875,-0.23661167919635773,-0.14328861236572266,-0.17429876327514648
1710891332476815600,22.126815673828126,-0.09230390936136246,0.15025997161865234,-0.19286727905273438
1710891332495776000,22.14577587890625,-0.009921859949827194,-0.1921100616455078,-0.16061687469482422
1710891332514736000,22.164736083984376,-0.06766090542078018,-0.11808586120605469,-0.1362767219543457
1710891332533696300,22.1836962890625,-0.08013616502285004,0.07685470581054688,-0.21178293228149414
1710891332552656600,22.20265673828125,0.08896343410015106,-0.2056560516357422,-0.06731891632080078
1710891332571616800,22.22161669921875,0.23096075654029846,0.2535581588745117,0.32456541061401367
1710891332590577000,22.240576904296876,0.029129277914762497,0.13635730743408203,0.22699832916259766
1710891332609537300,22.259537353515626,0.10507050901651382,0.03304481506347656,0.2879033088684082
1710891332628497200,22.2784970703125,-0.05616474896669388,-0.1333751678466797,0.3171372413635254
1710891332647457500,22.29745751953125,-0.3592594265937805,0.23802852630615234,-0.025845050811767578
1710891332666417700,22.316417724609376,-0.05047629401087761,0.03363990783691406,-0.3099350929260254
1710891332685377800,22.335377685546874,-0.152295783162117,-0.2620573043823242,0.039206504821777344
1710891332704338200,22.354338134765626,-0.15615704655647278,0.07468414306640625,0.41790294647216797
1710891332723298300,22.37329833984375,0.04542376473546028,0.3681821823120117,0.29264020919799805
1710891332742258400,22.392258544921877,0.048254434019327164,-0.11156845092773438,-0.01982736587524414
1710891332761218800,22.41121875,-0.07124856859445572,0.08518218994140625,0.027097225189208984
1710891332780179000,22.430178955078127,0.08900095522403717,0.13623905181884766,-0.07964849472045898
1710891332799139000,22.44913916015625,0.027959980070590973,-0.06844329833984375,-0.0024886131286621094
1710891332818099500,22.468099365234377,-0.05175963044166565,0.0341033935546875,0.010593891143798828
1710891332837059600,22.4870595703125,-0.028056953102350235,-0.3124408721923828,-0.029572486877441406
1710891332856019700,22.506019775390627,-0.07272712141275406,0.06169605255126953,0.08366155624389648
1710891332874980000,22.52497998046875,0.08721805363893509,0.20064544677734375,0.10245847702026367
1710891332893940200,22.543940185546877,0.10735820233821869,0.0067234039306640625,0.05077075958251953
1710891332912900400,22.562900390625,0.08625936508178711,-0.07369327545166016,0.0678110122680664
1710891332931860700,22.58186083984375,0.15537166595458984,0.3006744384765625,0.45983362197875977
1710891332950820900,22.60082080078125,0.01793835312128067,-0.03400993347167969,0.21657085418701172
1710891332969781000,22.619781005859377,0.009383276104927063,-0.1320180892944336,-0.15951776504516602
1710891332988741000,22.6387412109375,0.06860034167766571,0.009713172912597656,-0.21459341049194336
1710891333007701500,22.657701416015627,0.15394386649131775,0.005227088928222656,0.024608612060546875
1710891333026661600,22.67666162109375,0.2455034852027893,0.18975162506103516,0.17914104461669922
1710891333045621800,22.695621826171877,0.03408978879451752,-0.29998016357421875,-0.015164852142333984
1710891333064582100,22.71458203125,-0.1049710288643837,0.1758403778076172,-0.053141117095947266
1710891333083542300,22.733542236328127,0.07337812334299088,-0.02356243133544922,-0.307736873626709
1710891333102502400,22.75250244140625,-0.04553724080324173,-0.14960289001464844,-0.34884023666381836
1710891333121462800,22.771462890625,0.0067041292786598206,-0.10413551330566406,-0.0555109977722168
1710891333140423000,22.7904228515625,-0.08711555600166321,0.019440650939941406,0.06301593780517578
1710891333159383000,22.809383056640623,0.07795153558254242,0.02640247344970703,0.10210847854614258
1710891333178343400,22.828343505859376,-0.03183495253324509,-0.05086040496826172,-0.02796030044555664
1710891333197303600,22.847303466796873,-0.13940799236297607,-0.12919044494628906,-0.10580015182495117
1710891333216264000,22.866263916015626,-0.06089138239622116,0.17273902893066406,0.011260032653808594
1710891333235224000,22.88522412109375,-0.04100014269351959,-0.03523540496826172,-0.11013936996459961
1710891333254184200,22.90418408203125,-0.037107691168785095,-0.0073719024658203125,-0.0015611648559570312
1710891333273144600,22.92314453125,-0.0803949385881424,-0.01669788360595703,0.09140968322753906
1710891333292104700,22.942104736328126,-0.037061676383018494,0.10973358154296875,0.17377471923828125
1710891333311064800,22.96106494140625,-0.07280860841274261,0.058007240295410156,-0.12948036193847656
1710891333330025200,22.980025146484376,-0.20788262784481049,-0.1289806365966797,-0.2315521240234375
1710891333348985300,22.9989853515625,-0.06057983636856079,-0.16187000274658203,0.16466760635375977
1710891333367945500,23.017945556640626,0.06137925386428833,0.2241506576538086,0.22918987274169922
1710891333386905900,23.03690576171875,-0.07963450253009796,-0.10968208312988281,-0.09328699111938477
1710891333405866000,23.055865966796876,-0.12934227287769318,-0.11158370971679688,-0.09821748733520508
1710891333424826000,23.074826171875,-0.07186655700206757,0.319488525390625,0.14965391159057617
1710891333443786500,23.093786376953126,0.09586209058761597,-0.014002799987792969,0.06757593154907227
1710891333462746600,23.11274658203125,-0.02464395761489868,-0.0299072265625,0.0363154411315918
1710891333481706800,23.131706787109376,-0.1598440557718277,-0.07703876495361328,0.03800678253173828
1710891333500667100,23.150667236328125,-0.1164204552769661,0.2417755126953125,-0.019187450408935547
1710891333519627300,23.169627197265626,0.12483585625886917,-0.12630176544189453,-0.1472024917602539
1710891333538587600,23.188587646484375,-0.04339534789323807,-0.13730239868164062,0.10767507553100586
1710891333557547800,23.2075478515625,0.0502527579665184,0.4044303894042969,0.1648387908935547
1710891333576508000,23.2265078125,0.04520082473754883,-0.14035415649414062,-0.2441396713256836
1710891333595468300,23.24546826171875,-0.19331984221935272,-0.27335357666015625,-0.17484807968139648
1710891333614428400,23.264428466796875,-0.13212715089321136,0.13872241973876953,0.16700267791748047
1710891333633388800,23.283388916015625,0.23793157935142517,0.23516464233398438,0.24584388732910156
1710891333652349000,23.302348876953126,0.1905689835548401,-0.00829315185546875,-0.047922611236572266
1710891333671309000,23.32130908203125,-0.0036169514060020447,-0.1426067352294922,-0.003977775573730469
1710891333690269400,23.34026953125,-0.03153121471405029,0.10321903228759766,0.12435245513916016
1710891333709229600,23.3592294921875,0.19618916511535645,0.09515190124511719,-0.04625082015991211
1710891333728190000,23.37818994140625,-0.06200903654098511,-0.18306827545166016,-0.27367115020751953
1710891333747150000,23.397150146484375,-0.05946901813149452,-0.11480140686035156,-0.1258835792541504
1710891333766110200,23.416110107421876,0.08663316071033478,0.09509849548339844,0.21747922897338867
1710891333785070600,23.435070556640625,0.08468009531497955,0.14631080627441406,0.2165508270263672
1710891333804030700,23.45403076171875,0.1457308530807495,0.018286705017089844,0.13956689834594727
1710891333822991000,23.4729912109375,0.017802834510803223,0.03936576843261719,-0.06156492233276367
1710891333841951200,23.491951171875,-0.09412804245948792,0.06051921844482422,-0.25205469131469727
1710891333860911600,23.51091162109375,-0.0979875922203064,-0.1739797592163086,0.001712799072265625
1710891333879871700,23.529871826171874,-0.01201184093952179,0.13536643981933594,0.24766254425048828
