time,seconds_elapsed,z,y,x
1710891310407299000,0.057299072265625,0.24121522903442383,-0.27580544352531433,0.13064870238304138
1710891310426259000,0.076259033203125,0.23144139349460602,-0.40775224566459656,0.13797907531261444
1710891310445218600,0.095218505859375,0.22533275187015533,-0.45509424805641174,0.15263983607292175
1710891310464178400,0.114178466796875,0.1966221034526825,-0.6096430420875549,0.1810450553894043
1710891310483138000,0.133137939453125,0.2112828493118286,-0.9077450633049011,0.18929173052310944
1710891310502098000,0.152097900390625,0.3087157905101776,-1.4175117015838623,0.14836378395557404
1710891310521057800,0.171057861328125,0.3807978332042694,-1.9135339260101318,0.12789981067180634
1710891310540017400,0.190017333984375,0.33315038681030273,-2.2757766246795654,0.15661045908927917
1710891310558977300,0.208977294921875,0.2693150043487549,-2.2443172931671143,0.2687041461467743
1710891310577937000,0.22793701171875,0.08025235682725906,-2.0809109210968018,0.4159225523471832
1710891310596896800,0.246896728515625,0.05001455545425415,-1.802051067352295,0.5713876485824585
1710891310615856400,0.2658564453125,0.1346193253993988,-1.2696824073791504,0.6394990682601929
1710891310634816300,0.284816162109375,-0.11583523452281952,-1.0488548278808594,0.7085267901420593
1710891310653776100,0.303776123046875,-0.13599377870559692,-1.2003493309020996,0.7882446646690369
1710891310672735700,0.32273583984375,-0.18150319159030914,-1.2470804452896118,0.8215367794036865
1710891310691695600,0.341695556640625,-0.35132360458374023,-1.2281436920166016,0.854218065738678
1710891310710655200,0.3606552734375,-0.4298197329044342,-1.0989457368850708,0.8728494048118591
1710891310729615000,0.379614990234375,-0.5083158612251282,-1.0054833889007568,1.008461356163025
1710891310748575000,0.398574951171875,-0.5916988849639893,-0.9544762372970581,1.2775473594665527
1710891310767534600,0.41753466796875,-0.6796634197235107,-0.8231402635574341,1.2989275455474854
1710891310786494500,0.436494384765625,-0.6659189462661743,-0.4923570156097412,1.251891016960144
1710891310805454000,0.4554541015625,-0.7960331439971924,-0.0308486707508564,1.298011302947998
1710891310824414000,0.4744140625,-0.8806379437446594,0.16187916696071625,1.5179226398468018
1710891310843373600,0.49337353515625,-0.7789289355278015,0.314289927482605,1.6462042331695557
1710891310862333400,0.51233349609375,-0.8791107535362244,0.6288852691650391,1.6993494033813477
1710891310881293300,0.531293212890625,-0.9554688930511475,0.7867938280105591,1.8212169408798218
1710891310900253000,0.5502529296875,-0.7883973717689514,1.018617033958435,1.8740568161010742
1710891310919212800,0.569212890625,-0.6185769438743591,1.4456114768981934,1.779983639717102
1710891310938172400,0.58817236328125,-0.607886791229248,1.5839723348617554,1.7320307493209839
1710891310957132300,0.60713232421875,-0.45333802700042725,1.589775562286377,1.7692934274673462
1710891310976092200,0.626092041015625,-0.17203480005264282,1.6939280033111572,1.7094286680221558
1710891310995051800,0.6450517578125,0.10315979272127151,1.9440771341323853,1.6034437417984009
1710891311014011600,0.66401171875,0.31207555532455444,2.263559341430664,1.592448115348816
1710891311032971300,0.68297119140625,0.45654505491256714,2.4904956817626953,1.5832850933074951
1710891311051931100,0.70193115234375,0.4699840843677521,2.470642566680908,1.5029563903808594
1710891311070891000,0.72089111328125,0.47639816999435425,2.1129813194274902,1.4305689334869385
1710891311089850600,0.7398505859375,0.8300888538360596,2.042426347732544,1.1520146131515503
1710891311108810500,0.758810546875,0.8872047066688538,2.1587960720062256,1.0900118350982666
1710891311127770000,0.77777001953125,0.4956403970718384,1.7171409130096436,0.6761509776115417
1710891311146730000,0.79672998046875,0.5060251355171204,1.7079778909683228,0.8447496294975281
1710891311165689900,0.81568994140625,0.6758455038070679,1.8716896772384644,0.8450550436973572
1710891311184649500,0.8346494140625,0.639804482460022,1.8713842630386353,0.8517745733261108
1710891311203609300,0.853609375,0.568027913570404,1.350927472114563,0.7271581888198853
1710891311222569200,0.8725693359375,0.7534253597259521,1.1032217741012573,0.4889208972454071
1710891311241528800,0.89152880859375,0.8120683431625366,1.0305289030075073,0.4727329909801483
1710891311260488700,0.91048876953125,0.6966149210929871,0.9025527238845825,0.6059014797210693
1710891311279448300,0.9294482421875,0.42508551478385925,0.6637045741081238,0.641331672668457
1710891311298408200,0.948408203125,0.3044397234916687,0.6267472505569458,0.5570323467254639
1710891311317368000,0.9673681640625,0.25557056069374084,0.7052434086799622,0.5060251355171204
1710891311336327700,0.98632763671875,0.22869250178337097,0.7608320713043213,0.48159050941467285
1710891311355287600,1.00528759765625,0.3551415205001831,0.5677987933158875,0.43608108162879944
1710891311374247400,1.024247314453125,-0.00954476185142994,0.04245510324835777,0.30199626088142395
1710891311393207300,1.043207275390625,-0.24930918216705322,-0.41325002908706665,0.3502545952796936
1710891311412167000,1.0621669921875,-0.12927426397800446,-0.3066541254520416,0.4122573733329773
1710891311431126800,1.081126708984375,-0.17142392694950104,0.4474584460258484,0.391182541847229
1710891311450086700,1.100086669921875,-0.23892448842525482,1.321911334991455,0.3502545952796936
1710891311469046300,1.11904638671875,-0.16134466230869293,1.4764602184295654,0.46082112193107605
1710891311488006100,1.138006103515625,-0.1527925580739975,0.7092140316963196,0.4489092528820038
1710891311506966000,1.156966064453125,-0.10881029069423676,-0.0461202897131443,0.303523451089859
1710891311525925600,1.175925537109375,-0.2303723841905594,-0.23518294095993042,0.044211339205503464
1710891311544885500,1.194885498046875,-0.34460410475730896,-0.15821397304534912,-0.0703258067369461
1710891311563845400,1.213845458984375,-0.3888917863368988,-0.008552107028663158,-0.0031306820455938578
1710891311582805000,1.232804931640625,-0.4264599680900574,0.24373504519462585,0.10285435616970062
1710891311601764900,1.251764892578125,-0.275270938873291,0.7024945020675659,-0.028176138177514076
1710891311620724700,1.270724853515625,-0.2502254843711853,1.1829396486282349,-0.006490438245236874
1710891311639684400,1.289684326171875,-0.5379427671432495,1.3585633039474487,0.10224349051713943
1710891311658644200,1.308644287109375,-0.5565741658210754,1.4156790971755981,-0.026038112118840218
1710891311677604000,1.32760400390625,-0.28840452432632446,1.398269534111023,-0.1530979871749878
1710891311696563700,1.346563720703125,-0.3635408878326416,1.2635737657546997,-0.06330086290836334
1710891311715523800,1.36552392578125,-0.4820486605167389,1.082757830619812,-0.07612902671098709
1710891311734483500,1.3844833984375,-0.5125918984413147,0.9944878816604614,-0.057497646659612656
1710891311753443300,1.403443359375,-0.6295725107192993,1.0552688837051392,0.04390590637922287
1710891311772403200,1.4224033203125,-0.8626174330711365,1.0928370952606201,-0.10483966767787933
1710891311791362800,1.44136279296875,-1.079779863357544,1.0082323551177979,-0.33910632133483887
1710891311810322700,1.46032275390625,-1.2141700983047485,1.1215476989746094,-0.42310020327568054
1710891311829282600,1.479282470703125,-0.9866229891777039,1.3267983198165894,-0.16928590834140778
1710891311848242400,1.498242431640625,-0.22548545897006989,1.1362085342407227,-0.008017600513994694
1710891311867202000,1.5172021484375,0.17310380935668945,0.7507528066635132,-0.014431680552661419
1710891311886162000,1.536161865234375,0.0029779658652842045,0.4043924808502197,0.08452841639518738
1710891311905121800,1.555121826171875,-0.23159411549568176,0.022907428443431854,0.24121522903442383
1710891311924081700,1.57408154296875,0.06650790572166443,-0.364991694688797,0.6175079345703125
1710891311943041500,1.59304150390625,0.7354048490524292,-0.6740893125534058,0.8077923059463501
1710891311962001400,1.61200146484375,1.307785153388977,-0.5971203446388245,0.4363865256309509
1710891311980961000,1.6309609375,1.2521964311599731,-0.5436696410179138,0.14744748175144196
1710891311999921000,1.6499208984375,0.8923971056938171,-0.5283980369567871,0.20028728246688843
1710891312018880800,1.668880859375,0.687451958656311,-0.8240565657615662,0.3362047076225281
1710891312037840600,1.687840576171875,0.4983893036842346,-1.2424989938735962,0.5597811937332153
1710891312056800500,1.706800537109375,0.3765217661857605,-1.6526947021484375,0.5738310813903809
1710891312075760400,1.725760498046875,-0.02848157100379467,-1.508530616760254,0.593684196472168
1710891312094720000,1.744719970703125,-0.4964039921760559,-0.8439096808433533,0.5576431751251221
1710891312113680000,1.763679931640625,-0.5837576389312744,-0.2098320573568344,0.6840922236442566
1710891312132639700,1.7826396484375,-0.3424660563468933,0.2877173125743866,0.8123738169670105
1710891312151599600,1.801599609375,-0.16745330393314362,0.6832522749900818,0.8087086081504822
1710891312170559500,1.8205595703125,-0.1943313628435135,1.1148282289505005,0.6840922236442566
1710891312189519400,1.839519287109375,0.24488042294979095,1.3863576650619507,0.5283216834068298
1710891312208479200,1.858479248046875,0.6129264235496521,1.5738930702209473,0.5212967395782471
1710891312227438800,1.87743896484375,0.23083053529262543,1.3793326616287231,0.483423113822937
1710891312246398700,1.896398681640625,0.2317468225955963,0.9712749719619751,0.3762163519859314
1710891312265358600,1.915358642578125,0.2781725525856018,0.6918043494224548,0.3181841969490051
1710891312284318500,1.934318359375,0.2629009187221527,0.6139190793037415,0.29222244024276733
1710891312303278300,1.9532783203125,0.06375901401042938,0.36285367608070374,0.3756054937839508
1710891312322238200,1.97223828125,0.19478951394557953,0.22846342623233795,0.38843363523483276
1710891312341198000,1.991197998046875,0.29588761925697327,-0.000610864779446274,0.432721346616745
1710891312360158000,2.010157958984375,0.3291797637939453,0.012522728182375431,0.44585493206977844
1710891312379117800,2.029117919921875,0.2167806327342987,0.02779434807598591,0.47578731179237366
1710891312398077700,2.04807763671875,0.03993528336286545,-0.49663305282592773,0.4333322048187256
1710891312417037600,2.06703759765625,-0.0501672700047493,-1.2058470249176025,0.34872743487358093
1710891312435997400,2.08599755859375,0.03504836559295654,-1.6077960729599,0.27603453397750854
1710891312454957000,2.10495703125,0.20822852849960327,-1.8057162761688232,0.23938263952732086
1710891312473917200,2.123917236328125,0.18898628652095795,-1.6804890632629395,0.12728895246982574
1710891312492876800,2.142876708984375,0.03352120518684387,-1.2812888622283936,-0.002825249684974551
1710891312511836700,2.161836669921875,-0.06879864633083344,-0.637742817401886,-0.041004300117492676
1710891312530796500,2.180796630859375,-0.1573740392923355,-0.1328630894422531,-0.14424043893814087
1710891312549756700,2.199756591796875,-0.2722166180610657,0.037262752652168274,-0.31986406445503235
1710891312568716300,2.21871630859375,-0.4182133078575134,-0.032681263983249664,-0.5382482409477234
1710891312587676200,2.23767626953125,-0.5501601099967957,-0.3249800503253937,-0.7578541040420532
1710891312606636000,2.256635986328125,-0.6973785161972046,-0.41905322670936584,-0.9573014378547668
1710891312625596000,2.275595947265625,-0.8271872401237488,-0.09834922850131989,-1.0987166166305542
1710891312644555800,2.2945556640625,-0.9356157779693604,0.41813695430755615,-1.2175298929214478
1710891312663515600,2.313515625,-1.0266345739364624,1.1994329690933228,-1.2492948770523071
1710891312682475500,2.3324755859375,-1.162246584892273,1.7330234050750732,-1.331150770187378
1710891312701435400,2.351435302734375,-1.3250420093536377,1.4886775016784668,-1.2749511003494263
1710891312720395300,2.370395263671875,-1.4062870740890503,0.6905826330184937,-1.1485021114349365
1710891312739355100,2.389355224609375,-1.4130065441131592,-0.22174391150474548,-1.035492181777954
1710891312758315000,2.40831494140625,-1.3601667881011963,-1.0131192207336426,-0.9808197617530823
1710891312777275000,2.42727490234375,-1.2932771444320679,-1.479514479637146,-0.9563851952552795
1710891312796235000,2.446235107421875,-1.2535709142684937,-1.6077960729599,-0.885830283164978
1710891312815194600,2.465194580078125,-1.1949278116226196,-1.6969823837280273,-0.709595799446106
1710891312834154500,2.484154541015625,-1.2245547771453857,-1.5399900674819946,-0.523892879486084
1710891312853114400,2.5031142578125,-1.386128544807434,-1.125823736190796,-0.3467421233654022
1710891312872074200,2.52207421875,-1.5382338762283325,-0.6988292932510376,-0.17508912086486816
1710891312891034400,2.541034423828125,-1.5473968982696533,-0.31184646487236023,-0.034895651042461395
1710891312909994200,2.559994140625,-1.4462987184524536,0.03298669680953026,0.09308052062988281
1710891312928954000,2.5789541015625,-1.264566421508789,0.13133592903614044,0.09277509152889252
1710891312947914000,2.5979140625,-1.1219295263290405,-0.1182023361325264,0.04634936526417732
1710891312966873900,2.616873779296875,-0.8705586791038513,-0.467006117105484,-0.03520108386874199
1710891312985833700,2.635833740234375,-0.5959749221801758,-0.7605266571044922,-0.20777037739753723
1710891313004793600,2.654793701171875,-0.3525453209877014,-0.8753692507743835,-0.40233081579208374
1710891313023753500,2.67375341796875,-0.168675035238266,-0.6918043494224548,-0.544967770576477
1710891313042713300,2.69271337890625,-0.09231694042682648,-0.3191768527030945,-0.616744339466095
1710891313061673200,2.711673095703125,-0.06910407543182373,0.12064579129219055,-0.63568115234375
1710891313080633000,2.730633056640625,-0.1329394429922104,0.471587598323822,-0.6026944518089294
1710891313099593000,2.749593017578125,-0.17234022915363312,0.7092140316963196,-0.5177842378616333
1710891313118552800,2.768552734375,-0.1472947746515274,0.777325451374054,-0.4133263826370239
1710891313137512700,2.7875126953125,-0.14057525992393494,0.6316341757774353,-0.3326922357082367
1710891313156472600,2.80647265625,-0.15095995366573334,0.34055712819099426,-0.3107011020183563
1710891313175432700,2.8254326171875,-0.15920662879943848,-0.01282816007733345,-0.3644571900367737
1710891313194392600,2.844392578125,-0.16042836010456085,-0.3020726442337036,-0.37575820088386536
1710891313213352400,2.8633525390625,-0.07887791097164154,-0.3845393657684326,-0.4081340432167053
1710891313232312300,2.882312255859375,0.047265663743019104,-0.37751442193984985,-0.5135082006454468
1710891313251272200,2.901272216796875,0.18745912611484528,-0.3246746361255646,-0.6033053398132324
1710891313270232000,2.920232177734375,0.2583194375038147,-0.1594357043504715,-0.6222421526908875
1710891313289192000,2.93919189453125,0.24915647506713867,0.007330377586185932,-0.627434492111206
1710891313308152000,2.958152099609375,0.21922409534454346,0.09346231073141098,-0.6185769438743591
1710891313327112000,2.97711181640625,0.20761767029762268,0.12400554865598679,-0.5923097729682922
1710891313346071800,2.99607177734375,0.18318307399749756,0.08155044913291931,-0.5996401309967041
1710891313365031700,3.01503173828125,0.10957387089729309,-0.014049889519810677,-0.6139954328536987
1710891313383991600,3.033991455078125,0.014278964139521122,-0.14660754799842834,-0.6424006819725037
1710891313402951400,3.052951416015625,-0.07215840369462967,-0.29962918162345886,-0.6365974545478821
1710891313421911300,3.071911376953125,-0.11827868968248367,-0.42394015192985535,-0.6570614576339722
1710891313440871200,3.09087109375,-0.14943279325962067,-0.5415316224098206,-0.6946296095848083
1710891313459831000,3.1098310546875,-0.1787542998790741,-0.6407971382141113,-0.7147881388664246
1710891313478791000,3.128791015625,-0.24686573445796967,-0.7681624889373779,-0.7074577808380127
1710891313497751000,3.1477509765625,-0.3027598559856415,-0.8713986277580261,-0.7257837057113647
1710891313516711000,3.1667109375,-0.40263625979423523,-0.8985821008682251,-0.75571608543396
1710891313535670800,3.1856708984375,-0.487546443939209,-0.9673043489456177,-0.783815860748291
1710891313554630700,3.204630615234375,-0.5043452382087708,-1.000291109085083,-0.7783181071281433
1710891313573590500,3.223590576171875,-0.4713585376739502,-0.9764673709869385,-0.7853430509567261
1710891313592550400,3.24255029296875,-0.40782859921455383,-0.8026763200759888,-0.8174134492874146
1710891313611510500,3.261510498046875,-0.3424660563468933,-0.4770853817462921,-0.8467349410057068
1710891313630470400,3.280470458984375,-0.27404922246932983,-0.06047561392188072,-0.8449023365974426
1710891313649430300,3.29943017578125,-0.152487114071846,0.38728827238082886,-0.7847321629524231
1710891313668390100,3.31839013671875,-0.05719221383333206,0.758694052696228,-0.7248674035072327
1710891313687350000,3.33735009765625,-0.14026983082294464,0.8506292104721069,-0.6918807029724121
1710891313706310100,3.35631005859375,-0.2804632782936096,0.711046576499939,-0.5868119597434998
1710891313725270000,3.37527001953125,-0.2966512143611908,0.4477638900279999,-0.4545597434043884
1710891313744230000,3.39422998046875,-0.21662792563438416,0.2110537886619568,-0.349185585975647
1710891313763189800,3.413189697265625,-0.21326816082000732,0.04062250629067421,-0.20777037739753723
1710891313782149600,3.432149658203125,-0.23251040279865265,0.008552107028663158,-0.02848157100379467
1710891313801109800,3.45110986328125,-0.26335906982421875,0.1029307171702385,0.13584105670452118
1710891313820069600,3.470069580078125,-0.3155880272388458,0.2409861534833908,0.2732856273651123
1710891313839029500,3.489029541015625,-0.37117671966552734,0.24892739951610565,0.35850125551223755
1710891313857989400,3.5079892578125,-0.395305871963501,0.07880155742168427,0.40339982509613037
1710891313876949200,3.52694921875,-0.31955865025520325,-0.2153298407793045,0.43455392122268677
1710891313895909400,3.545909423828125,-0.18791727721691132,-0.5115992426872253,0.39454227685928345
1710891313914869200,3.564869140625,-0.09445496648550034,-0.6420188546180725,0.3459785282611847
1710891313933829000,3.5838291015625,-0.09201150387525558,-0.5201513767242432,0.31299182772636414
1710891313952789000,3.6027890625,-0.14882193505764008,-0.33505934476852417,0.32795801758766174
1710891313971748900,3.621748779296875,-0.18730641901493073,-0.22693626582622528,0.4076758921146393
1710891313990708700,3.640708740234375,-0.17692171037197113,-0.14660754799842834,0.47517645359039307
1710891314009668900,3.6596689453125,-0.2047160565853119,-0.13683371245861053,0.603458046913147
1710891314028628700,3.678628662109375,-0.2654971182346344,-0.24556763470172882,0.6807324290275574
1710891314047588600,3.697588623046875,-0.3696495592594147,-0.5048797130584717,0.751592755317688
1710891314066548700,3.716548828125,-0.3488801419734955,-0.7959567904472351,0.6104829907417297
1710891314085508600,3.735508544921875,-0.19738568365573883,-0.9294307827949524,0.47151124477386475
1710891314104468500,3.754468505859375,-0.17661628127098083,-0.878728985786438,0.32215481996536255
1710891314123428400,3.773428466796875,-0.3788125216960907,-0.7892373204231262,0.18501566350460052
1710891314142388200,3.79238818359375,-0.6750819683074951,-0.7803797721862793,0.12667807936668396
1710891314161348000,3.81134814453125,-0.8061124086380005,-0.8933897614479065,0.2021198868751526
1710891314180308200,3.83030810546875,-0.7569378018379211,-1.1414008140563965,0.2925278842449188
1710891314199268000,3.84926806640625,-0.7358629703521729,-1.5903865098953247,0.3698022663593292
1710891314218228000,3.86822802734375,-0.7496074438095093,-1.9724823236465454,0.5347357392311096
1710891314237188000,3.88718798828125,-0.6717221736907959,-2.101680278778076,0.733572244644165
1710891314256148000,3.90614794921875,-0.5397753715515137,-2.095266103744507,0.8737657070159912
1710891314275107800,3.92510791015625,-0.2816850244998932,-1.987753987312317,0.8279508352279663
1710891314294067700,3.944067626953125,0.09308052062988281,-1.7305799722671509,0.6446914076805115
1710891314313027600,3.963027587890625,0.3807978332042694,-1.416595458984375,0.5161044001579285
1710891314331987700,3.98198779296875,0.428139865398407,-1.4123194217681885,0.38293585181236267
1710891314350947600,4.000947509765625,0.5228238701820374,-1.6438370943069458,0.24671301245689392
1710891314369907500,4.019907470703125,0.6788998246192932,-1.8530583381652832,0.1037706509232521
1710891314388867600,4.03886767578125,0.7769436240196228,-1.9495749473571777,-0.095982126891613
1710891314407827500,4.057827392578125,0.7641154527664185,-1.9413282871246338,-0.25205808877944946
1710891314426787300,4.076787353515625,0.6895899772644043,-1.6905683279037476,-0.41149377822875977
1710891314445747200,4.095747314453125,0.5371792316436768,-1.2510510683059692,-0.4857138693332672
1710891314464707000,4.11470703125,0.30718863010406494,-0.6823359727859497,-0.543440580368042
1710891314483667200,4.133667236328125,0.13706278800964355,-0.24923282861709595,-0.49457138776779175
1710891314502627000,4.152626953125,-0.007101302966475487,-0.11117739230394363,-0.3843103051185608
1710891314521587000,4.1715869140625,-0.16378812491893768,-0.2263254076242447,-0.25816673040390015
1710891314540547000,4.190547119140625,-0.16562071442604065,-0.4825831651687622,-0.12133301794528961
1710891314559507000,4.2095068359375,-0.13843722641468048,-0.4324922561645508,0.00022907429956831038
1710891314578466800,4.228466796875,-0.2865719497203827,-0.1798996776342392,0.08544471114873886
1710891314597426700,4.2474267578125,-0.41668614745140076,0.06811141967773438,0.18868085741996765
1710891314616386800,4.26638671875,-0.39194610714912415,0.3081812858581543,0.20975568890571594
1710891314635346700,4.2853466796875,-0.3580431044101715,0.23732095956802368,0.13614648580551147
1710891314654306600,4.304306640625,-0.256334125995636,0.06750056147575378,-0.019929463043808937
1710891314673266400,4.323266357421875,-0.09934188425540924,0.053145237267017365,-0.18974986672401428
1710891314692226600,4.3422265625,0.009392046369612217,0.22296564280986786,-0.3110065162181854
1710891314711186400,4.3611865234375,0.083306685090065,0.5024362802505493,-0.4310414493083954
1710891314730146600,4.380146484375,0.11140646785497665,0.7360920310020447,-0.4713585376739502
1710891314749106400,4.3991064453125,0.03535379841923714,0.9306524991989136,-0.404468834400177
1710891314768066300,4.41806640625,-0.1320231556892395,0.9941824078559875,-0.2969566285610199
1710891314787026200,4.437026123046875,-0.1983019858598709,0.7302888631820679,-0.23648102581501007
1710891314805986000,4.455986083984375,-0.17234022915363312,0.3808741867542267,-0.16684244573116302
1710891314824946200,4.4749462890625,-0.245338574051857,0.13591741025447845,-0.09048434346914291
1710891314843906000,4.493906005859375,-0.3623191714286804,-0.06780599057674408,-0.08284853398799896
1710891314862866000,4.512865966796875,-0.40782859921455383,-0.19425499439239502,-0.10453423857688904
1710891314881826000,4.531825927734375,-0.39194610714912415,-0.1701258420944214,-0.15431971848011017
1710891314900786000,4.550785888671875,-0.3000109791755676,-0.2003636509180069,-0.27282747626304626
1710891314919746000,4.56974609375,-0.1628718227148056,-0.32528549432754517,-0.3745364546775818
1710891314938706000,4.588705810546875,-0.06940951198339462,-0.4618137776851654,-0.4521162807941437
1710891314957665800,4.607665771484375,0.042073313146829605,-0.6343830823898315,-0.5000692009925842
1710891314976625700,4.626625732421875,0.20578506588935852,-0.814588189125061,-0.5052615404129028
1710891314995585800,4.645585693359375,0.367053359746933,-1.0192278623580933,-0.46280643343925476
1710891315014545700,4.664545654296875,0.5298488140106201,-1.3103049993515015,-0.39652758836746216
1710891315033505500,4.683505615234375,0.6773726940155029,-1.6716314554214478,-0.3577376902103424
1710891315052465400,4.70246533203125,0.8734602928161621,-1.972787857055664,-0.36018115282058716
1710891315071425500,4.721425537109375,1.0961204767227173,-2.1856741905212402,-0.40782859921455383
1710891315090385400,4.740385498046875,1.1914154291152954,-2.3487751483917236,-0.40080365538597107
1710891315109345300,4.75934521484375,1.2372303009033203,-2.4019203186035156,-0.36170831322669983
1710891315128305400,4.778305419921875,1.2888482809066772,-2.4568982124328613,-0.38614290952682495
1710891315147265300,4.797265380859375,1.3978877067565918,-2.52042818069458,-0.42768171429634094
1710891315166225400,4.816225341796875,1.4812707901000977,-2.5692973136901855,-0.4365392327308655
1710891315185185300,4.835185302734375,1.5405246019363403,-2.696357250213623,-0.45394888520240784
1710891315204145200,4.854145263671875,1.6034437417984009,-2.75744366645813,-0.4493674039840698
1710891315223105000,4.87310498046875,1.6898810863494873,-2.7427828311920166,-0.44173160195350647
1710891315242065200,4.892065185546875,1.7812052965164185,-2.6746714115142822,-0.42248934507369995
1710891315261025000,4.91102490234375,1.8487058877944946,-2.5418083667755127,-0.3586539924144745
1710891315279985000,4.92998486328125,1.8557308912277222,-2.1884231567382812,-0.23373213410377502
1710891315298945000,4.948945068359375,1.8291581869125366,-1.7351614236831665,-0.116751529276371
1710891315317905000,4.96790478515625,1.8227441310882568,-1.4407246112823486,0.004199695307761431
1710891315336864800,4.98686474609375,1.8276311159133911,-1.203098177909851,0.0884990319609642
1710891315355825000,5.005824951171875,1.8279365301132202,-0.9556979537010193,0.16455170512199402
1710891315374784800,5.02478466796875,1.8386266231536865,-0.8219185471534729,0.24549128115177155
1710891315393745000,5.043744873046875,1.8013638257980347,-0.7473930716514587,0.29558220505714417
1710891315412704800,5.062704833984375,1.7576870918273926,-0.6627882719039917,0.34811657667160034
1710891315431664600,5.08166455078125,1.712788462638855,-0.6438514590263367,0.38140869140625
1710891315450624500,5.10062451171875,1.6278783082962036,-0.7128791809082031,0.3456731140613556
1710891315469584600,5.119584716796875,1.511813998222351,-0.7470875978469849,0.3548360764980316
1710891315488544500,5.13854443359375,1.4061343669891357,-0.6820304989814758,0.3850739002227783
1710891315507504400,5.15750439453125,1.2708277702331543,-0.5693259835243225,0.35941755771636963
1710891315526464500,5.176464599609375,1.1113921403884888,-0.3836230933666229,0.33162322640419006
1710891315545424400,5.19542431640625,0.9211077094078064,-0.1798996776342392,0.28519749641418457
1710891315564384300,5.21438427734375,0.7143300175666809,-0.015271619893610477,0.2176969349384308
1710891315583344400,5.233344482421875,0.5448150038719177,0.05528326332569122,0.15905392169952393
1710891315602304300,5.25230419921875,0.36766424775123596,0.09468404203653336,0.1443931609392166
1710891315621264400,5.271264404296875,0.13064870238304138,0.09682206809520721,0.14103341102600098
1710891315640224300,5.290224365234375,-0.1372154951095581,0.05070177838206291,0.10041090101003647
1710891315659184000,5.30918408203125,-0.3516290485858917,-0.10995566099882126,0.0035888305865228176
1710891315678144300,5.328144287109375,-0.45333802700042725,-0.21807873249053955,-0.06788235157728195
1710891315697104100,5.347104248046875,-0.5834522247314453,-0.1637117564678192,-0.13446660339832306
1710891315716064000,5.36606396484375,-0.7822887301445007,0.08399390429258347,-0.1787542998790741
1710891315735024000,5.385024169921875,-0.9127083420753479,0.46608981490135193,-0.1787542998790741
1710891315753984000,5.40398388671875,-0.9783763289451599,0.7901535630226135,-0.13599377870559692
1710891315772944000,5.42294384765625,-0.988455593585968,0.8830050230026245,-0.10728313028812408
1710891315791904000,5.441904052734375,-0.8809433579444885,0.7632755637168884,-0.05933023989200592
1710891315810863900,5.46086376953125,-0.7346412539482117,0.5619956254959106,0.020082179456949234
1710891315829823700,5.47982373046875,-0.6020836234092712,0.3707949221134186,0.10743584483861923
1710891315848784000,5.498783935546875,-0.4551706314086914,0.21441353857517242,0.13645191490650177
1710891315867743700,5.51774365234375,-0.30337071418762207,0.05894844979047775,0.15416699647903442
1710891315886703600,5.53670361328125,-0.25205808877944946,-0.017715077847242355,0.1395062506198883
1710891315905663700,5.555663818359375,-0.21601705253124237,0.10720676928758621,0.14744748175144196
1710891315924623600,5.57462353515625,-0.13049599528312683,0.33567020297050476,0.1960112303495407
1710891315943583700,5.593583740234375,-0.09323323518037796,0.48075059056282043,0.2485456019639969
1710891315962543600,5.612543701171875,-0.09720385819673538,0.44379326701164246,0.26962044835090637
1710891315981503500,5.63150341796875,-0.09476039558649063,0.2525925934314728,0.28214317560195923
1710891316000463600,5.650463623046875,-0.07276926934719086,0.059864748269319534,0.2674824297428131
1710891316019423500,5.669423583984375,-0.01779143698513508,-0.06933315098285675,0.25526511669158936
1710891316038383600,5.688383544921875,-0.024205517023801804,-0.1701258420944214,0.2067013680934906
1710891316057343500,5.707343505859375,-0.070631243288517,-0.15668681263923645,0.18745912611484528
1710891316076303400,5.726303466796875,-0.08529199659824371,-0.015271619893610477,0.14103341102600098
1710891316095263500,5.745263427734375,-0.07521272450685501,0.08338304609060287,0.07536543905735016
1710891316114223400,5.764223388671875,-0.13385574519634247,0.02718348242342472,-0.00038179047987796366
1710891316133183200,5.783183349609375,-0.23159411549568176,0.06597339361906052,-0.05994110554456711
1710891316152143400,5.802143310546875,-0.26274821162223816,0.26480987668037415,-0.07124210149049759
1710891316171103200,5.821103271484375,-0.2859610617160797,0.457843154668808,-0.06391172856092453
1710891316190063000,5.84006298828125,-0.4298197329044342,0.4886918365955353,-0.08376483619213104
1710891316209023200,5.859023193359375,-0.5333613157272339,0.5250383019447327,-0.0703258067369461
1710891316227983000,5.877983154296875,-0.5507709383964539,0.574212908744812,-0.0553596206009388
1710891316246943200,5.896943115234375,-0.5660426020622253,0.6246092319488525,-0.002825249684974551
1710891316265903000,5.915903076171875,-0.5837576389312744,0.6291907429695129,0.00847574882209301
1710891316284863200,5.93486328125,-0.5067886710166931,0.6420188546180725,0.002061668550595641
1710891316303823000,5.953822998046875,-0.4301251769065857,0.5995637774467468,0.05062541738152504
1710891316322783000,5.972782958984375,-0.40782859921455383,0.5207622051239014,0.11354449391365051
1710891316341743000,5.9917431640625,-0.3788125216960907,0.4676169753074646,0.14805835485458374
1710891316360703000,6.010702880859375,-0.3183369040489197,0.41783151030540466,0.15752676129341125
1710891316379663000,6.0296630859375,-0.2923751473426819,0.36712974309921265,0.13187043368816376
1710891316398623000,6.048623046875,-0.2771035432815552,0.3695732057094574,0.1446985900402069
1710891316417582800,6.067582763671875,-0.26396992802619934,0.37690356373786926,0.13370302319526672
1710891316436543000,6.08654296875,-0.2545015513896942,0.3481929302215576,0.09613484144210815
1710891316455502800,6.1055029296875,-0.24839289486408234,0.36285367608070374,0.08422297984361649
1710891316474463000,6.124462890625,-0.2667188346385956,0.35246896743774414,0.07200568914413452
1710891316493422800,6.1434228515625,-0.2774089574813843,0.2678641974925995,0.07475458085536957
1710891316512383000,6.162383056640625,-0.28260132670402527,0.20677772164344788,0.042684175074100494
1710891316531342800,6.1813427734375,-0.2801578640937805,0.2254091054201126,0.03657552972435951
1710891316550302700,6.200302734375,-0.26366451382637024,0.2657261788845062,0.06864593178033829
1710891316569262800,6.219262939453125,-0.2541961073875427,0.28435754776000977,0.0888044685125351
1710891316588222700,6.23822265625,-0.24717116355895996,0.28924447298049927,0.08422297984361649
1710891316607182800,6.257182861328125,-0.23128867149353027,0.24342961609363556,0.08147408813238144
1710891316626142700,6.276142822265625,-0.19188790023326874,0.20250166952610016,0.09552398324012756
1710891316645102800,6.295102783203125,-0.1582903414964676,0.17592905461788177,0.11018473654985428
1710891316664062700,6.314062744140625,-0.13965895771980286,0.1737910360097885,0.11507165431976318
1710891316683022800,6.33302294921875,-0.11888955533504486,0.1853974610567093,0.12301289290189743
1710891316701982700,6.351982666015625,-0.11247547715902328,0.17776164412498474,0.10835213959217072
1710891316720942800,6.37094287109375,-0.10025817900896072,0.19914191961288452,0.09460768103599548
1710891316739902700,6.38990283203125,-0.095982126891613,0.19853104650974274,0.08116865903139114
1710891316758862600,6.408862548828125,-0.11461350321769714,0.18600831925868988,0.06436987966299057
1710891316777822700,6.42782275390625,-0.12988512217998505,0.21135921776294708,0.060704685747623444
1710891316796782600,6.446782470703125,-0.15004366636276245,0.23945899307727814,0.06559160351753235
1710891316815742700,6.46574267578125,-0.18608468770980835,0.24953825771808624,0.0683404952287674
1710891316834702800,6.484702880859375,-0.1983019858598709,0.3029889166355133,0.056428633630275726
1710891316853662700,6.503662841796875,-0.21540619432926178,0.33108872175216675,0.04176788032054901
1710891316872622800,6.522622802734375,-0.24411684274673462,0.32528549432754517,0.029245151206851006
1710891316891582700,6.541582763671875,-0.24747659265995026,0.2660316228866577,0.05734493210911751
1710891316910542800,6.56054296875,-0.20166173577308655,0.19333870708942413,0.10102175921201706
1710891316929502700,6.579502685546875,-0.08559742569923401,0.11117739230394363,0.0631481483578682
1710891316948462800,6.598462890625,0.017944153398275375,-0.07147117704153061,0.08391755074262619
1710891316967422700,6.617422607421875,0.13736821711063385,-0.4276053309440613,0.09674570709466934
1710891316986382800,6.6363828125,0.32154396176338196,-0.9343177080154419,0.08116865903139114
1710891317005342700,6.6553427734375,0.5148826241493225,-1.4275909662246704,0.14653119444847107
1710891317024302800,6.674302734375,0.742429792881012,-1.8044945001602173,0.3090212345123291
1710891317043262700,6.6932626953125,1.0054070949554443,-2.042426347732544,0.4541015923023224
1710891317062222800,6.712222900390625,1.306257963180542,-2.162461280822754,0.584826648235321
1710891317081183000,6.731182861328125,1.5237258672714233,-2.1114540100097656,0.733572244644165
1710891317100142800,6.750142822265625,1.6852995157241821,-1.9175045490264893,0.8016836643218994
1710891317119103000,6.76910302734375,1.8166354894638062,-1.5488476753234863,0.7861065864562988
1710891317138062800,6.788062744140625,1.824576735496521,-1.3045017719268799,0.7751110196113586
1710891317157023000,6.80702294921875,1.824271321296692,-1.3335177898406982,0.6636282205581665
1710891317175982800,6.82598291015625,1.8285473585128784,-1.2437206506729126,0.4516581594944
1710891317194943000,6.84494287109375,1.8117486238479614,-0.7095194458961487,0.23021966218948364
1710891317213903000,6.863903076171875,1.71126127243042,-0.026572618633508682,0.03352120518684387
1710891317232863000,6.882863037109375,1.493488073348999,0.5879573225975037,-0.08681915700435638
1710891317251823000,6.901822998046875,1.2375357151031494,0.9382883310317993,-0.10361793637275696
1710891317270783200,6.920783203125,1.0105993747711182,0.8567378520965576,-0.06666062027215958
1710891317289743000,6.9397431640625,0.8704059720039368,0.45967575907707214,-0.08376483619213104
1710891317308703200,6.958703125,0.7625883221626282,-0.021991131827235222,-0.03733910992741585
1710891317327663000,6.9776630859375,0.6633228063583374,-0.37232208251953125,0.07231111824512482
1710891317346623200,6.996623291015625,0.5790234804153442,-0.5262600183486938,0.053985174745321274
1710891317365583000,7.0155830078125,0.5625301003456116,-0.4776962697505951,-0.049250971525907516
1710891317384543200,7.034543212890625,0.6165916323661804,-0.3139844834804535,-0.10697769373655319
1710891317403503400,7.05350341796875,0.6743183732032776,-0.05070177838206291,-0.06818778067827225
1710891317422463200,7.072463134765625,0.669126033782959,0.21441353857517242,-0.03672824427485466
1710891317441423400,7.09142333984375,0.7057778835296631,0.3292561173439026,-0.061162836849689484
1710891317460383500,7.110383544921875,0.7589231133460999,0.3133736252784729,-0.059024810791015625
1710891317479343400,7.12934326171875,0.7867174744606018,0.2006690800189972,-0.008323032408952713
1710891317498303500,7.148303466796875,0.8016836643218994,0.06750056147575378,0.072921983897686
1710891317517263600,7.167263671875,0.7964913249015808,-0.023212861269712448,0.12698352336883545
1710891317536223700,7.1862236328125,0.7980184555053711,-0.06780599057674408,0.15752676129341125
1710891317555183600,7.20518359375,0.7861065864562988,-0.09682206809520721,0.18868085741996765
1710891317574143700,7.224143798828125,0.8139009475708008,-0.14569124579429626,0.2173915058374405
1710891317593103600,7.243103515625,0.863381028175354,-0.1802051067352295,0.20822852849960327
1710891317612063700,7.262063720703125,0.9379065036773682,-0.15302163362503052,0.18226677179336548
1710891317631023900,7.28102392578125,0.9076687097549438,-0.05436696484684944,0.22563818097114563
1710891317649983700,7.299983642578125,0.9290489554405212,-0.04367683082818985,0.22411102056503296
1710891317668944000,7.31894384765625,1.019762396812439,-0.020769402384757996,0.22563818097114563
1710891317687904000,7.337904052734375,1.0408371686935425,-0.034208428114652634,0.2836703360080719
1710891317706864000,7.356864013671875,1.05733060836792,-0.07452550530433655,0.31299182772636414
1710891317725824000,7.375823974609375,1.122082233428955,-0.09926552325487137,0.30657777190208435
1710891317744784100,7.3947841796875,1.1477385759353638,-0.08460476994514465,0.36919140815734863
1710891317763744300,7.413744140625,1.1428515911102295,-0.12644900381565094,0.3872119188308716
1710891317782704400,7.432704345703125,1.1675916910171509,-0.09010255336761475,0.34384050965309143
1710891317801664300,7.451664306640625,1.1376593112945557,0.026572618633508682,0.3759109079837799
1710891317820624400,7.470624267578125,1.092760682106018,-0.034208428114652634,0.4116465151309967
1710891317839584300,7.489584228515625,1.0976476669311523,-0.06414080411195755,0.32673630118370056
1710891317858544400,7.50854443359375,1.065882682800293,-0.021685699000954628,0.35850125551223755
1710891317877504500,7.52750439453125,1.0359503030776978,-0.0873536616563797,0.3508654534816742
1710891317896464600,7.546464599609375,0.9363793730735779,-0.16523891687393188,0.36369362473487854
1710891317915424800,7.5654248046875,0.8316160440444946,-0.11575887352228165,0.3187950551509857
1710891317934384600,7.584384521484375,0.69722580909729,-0.00946840364485979,0.2323576956987381
1710891317953344800,7.6033447265625,0.4944186806678772,-0.019242240116000175,0.14408773183822632
1710891317972305000,7.622304931640625,0.3355938494205475,0.003970621153712273,0.05154171586036682
1710891317991264800,7.6412646484375,0.14928008615970612,0.07055488228797913,-0.00679587060585618
1710891318010225000,7.660224853515625,-0.11003202199935913,0.18142683804035187,-0.06482802331447601
1710891318029185000,7.67918505859375,-0.3210858106613159,0.16798780858516693,-0.1986074149608612
1710891318048145200,7.698145263671875,-0.4307360351085663,0.04550942778587341,-0.3690386712551117
1710891318067105300,7.717105224609375,-0.5455785989761353,0.14110976457595825,-0.38033968210220337
1710891318086065400,7.7360654296875,-0.6708058714866638,0.18417572975158691,-0.33544111251831055
1710891318105025300,7.755025390625,-0.8702532649040222,0.11056652665138245,-0.30856308341026306
1710891318123985400,7.7739853515625,-1.0235803127288818,-0.016798781231045723,-0.37270388007164
1710891318142945500,7.792945556640625,-1.0861939191818237,-0.0818558782339096,-0.5642099976539612
1710891318161905700,7.81190576171875,-1.1717150211334229,0.012217295356094837,-0.7899245023727417
1710891318180865500,7.830865478515625,-1.2208895683288574,0.16615521907806396,-1.008919596672058
1710891318199825700,7.84982568359375,-1.2340232133865356,0.39370235800743103,-1.0901645421981812
1710891318218785800,7.868785888671875,-1.236466646194458,0.6508764028549194,-1.1949278116226196
1710891318237746000,7.887745849609375,-1.3054944276809692,0.6908880472183228,-1.341230034828186
1710891318256706000,7.9067060546875,-1.3974295854568481,0.5549706816673279,-1.3968186378479004
1710891318275666000,7.925666015625,-1.3989566564559937,0.3808741867542267,-1.4004838466644287
1710891318294626000,7.9446259765625,-1.4172827005386353,0.2409861534833908,-1.4160609245300293
1710891318313586200,7.963586181640625,-1.377271056175232,0.11484257876873016,-1.4884483814239502
1710891318332546300,7.98254638671875,-1.2792272567749023,0.1545487940311432,-1.5388447046279907
1710891318351506400,8.00150634765625,-1.2242493629455566,0.36224281787872314,-1.4798963069915771
1710891318370466600,8.020466552734375,-1.2896119356155396,0.5375609993934631,-1.4371356964111328
1710891318389426700,8.0394267578125,-1.4368302822113037,0.5439751148223877,-1.3855177164077759
1710891318408386600,8.058386474609375,-1.6643774509429932,0.4667007029056549,-1.2138646841049194
1710891318427346700,8.0773466796875,-2.077932834625244,0.3448331654071808,-0.9056833982467651
1710891318446306800,8.096306884765625,-2.4304018020629883,0.003970621153712273,-0.5828413367271423
1710891318465267000,8.115266845703125,-2.33174729347229,-0.7116574645042419,-1.0321323871612549
1710891318484227000,8.13422705078125,-2.1820852756500244,-1.3460404872894287,-1.784106969833374
1710891318503187200,8.153187255859375,-2.5953354835510254,-1.1398736238479614,-1.939266562461853
1710891318522147300,8.172147216796875,-2.8445682525634766,-0.13133592903614044,-1.7822743654251099
1710891318541107500,8.191107421875,-2.390390157699585,0.814588189125061,-2.197967767715454
1710891318560067600,8.210067626953125,-2.254167318344116,1.6255111694335938,-2.3225841522216797
1710891318579027700,8.22902783203125,-2.4007749557495117,2.3707661628723145,-2.2327871322631836
1710891318597987600,8.247987548828124,-2.5647921562194824,2.740339517593384,-2.0599124431610107
1710891318616947700,8.26694775390625,-2.4924046993255615,2.961472511291504,-2.077932834625244
1710891318635907800,8.285907958984374,-2.4221551418304443,3.3035566806793213,-2.0180680751800537
1710891318654868000,8.304867919921875,-2.501873016357422,3.7730062007904053,-1.718438982963562
1710891318673828000,8.323828125,-2.7327799797058105,4.072329998016357,-1.34947669506073
1710891318692788200,8.342788330078125,-2.7856197357177734,4.1257805824279785,-0.9337831735610962
1710891318711748000,8.361748046875,-2.798753261566162,4.073857307434082,-0.42126762866973877
1710891318730708200,8.380708251953125,-2.7291147708892822,3.800189733505249,-0.14607304334640503
1710891318749668400,8.39966845703125,-2.5287511348724365,2.973078966140747,-0.22640176117420197
1710891318768628500,8.41862841796875,-2.5009567737579346,1.4135410785675049,-0.2963457703590393
1710891318787588600,8.437588623046874,-2.5541019439697266,0.4627300798892975,-0.4295142889022827
1710891318806548700,8.456548828125,-2.5363869667053223,-0.164322629570961,-0.6869937777519226
1710891318825508900,8.4755087890625,-2.5098142623901367,-0.6356047987937927,-0.8164971470832825
1710891318844469000,8.494468994140625,-2.172006130218506,-0.8570432662963867,-1.0052543878555298
1710891318863429000,8.51342919921875,-1.757534384727478,-0.5302306413650513,-1.109101414680481
1710891318882389200,8.53238916015625,-1.5116612911224365,0.2626718580722809,-1.0367138385772705
1710891318901349400,8.551349365234374,-1.440495491027832,1.0577123165130615,-0.8885791897773743
1710891318920309500,8.5703095703125,-1.4258347749710083,1.1948515176773071,-0.5956695079803467
1710891318939269600,8.58926953125,-1.1210132837295532,0.6239983439445496,-0.3684278130531311
1710891318958229800,8.608229736328125,-0.6213258504867554,-0.06902772188186646,-0.3632354736328125
1710891318977190000,8.62718994140625,-0.34643667936325073,-0.5558869242668152,-0.3641517758369446
1710891318996149800,8.646149658203125,-0.16012293100357056,-0.6273581385612488,-0.3119228184223175
1710891319015110000,8.66510986328125,0.04604393243789673,-0.14080433547496796,-0.3018435537815094
1710891319034070000,8.684070068359375,0.20975568890571594,0.4621191918849945,-0.35101816058158875
1710891319053030100,8.703030029296874,0.2778671085834503,1.109330415725708,-0.3427715003490448
1710891319071990300,8.721990234375,0.14286600053310394,1.6563597917556763,-0.16378812491893768
1710891319090950400,8.740950439453124,0.03474293276667595,1.8344268798828125,0.07903063297271729
1710891319109910500,8.75991064453125,0.012751801870763302,1.7177517414093018,0.4278344213962555
1710891319128870700,8.77887060546875,-0.12866339087486267,1.7470732927322388,0.7076104879379272
1710891319147830800,8.797830810546875,-0.20074543356895447,1.5418226718902588,0.9253838062286377
1710891319166791000,8.816791015625,-0.19616395235061646,2.182925224304199,1.261359453201294
1710891319185751000,8.8357509765625,-0.28321218490600586,2.8399102687835693,1.5221986770629883
1710891319204711000,8.8547109375,-0.3589594066143036,2.807839870452881,1.7543272972106934
1710891319223671000,8.873671142578125,-0.14393500983715057,1.897346019744873,1.4354559183120728
1710891319242631200,8.892631103515624,0.002061668550595641,0.2110537886619568,1.0897064208984375
1710891319261591300,8.91159130859375,0.1960112303495407,-1.5919135808944702,1.0109049081802368
1710891319280551400,8.930551513671874,0.3087157905101776,-1.9361358880996704,0.7897717952728271
1710891319299511600,8.949511474609375,0.19723296165466309,-1.2791508436203003,0.31696245074272156
1710891319318471700,8.9684716796875,0.02893971838057041,-0.8610138893127441,0.21830779314041138
1710891319337431800,8.987431884765625,0.2790888547897339,-0.15546508133411407,0.12240202724933624
1710891319356392000,9.006391845703124,0.6046797633171082,0.23243404924869537,-0.06635518372058868
1710891319375352000,9.02535205078125,0.8774309158325195,0.1802051067352295,-0.23220497369766235
1710891319394312200,9.044312255859374,1.003269076347351,0.010690134018659592,-0.3436878025531769
1710891319413272300,9.063272216796875,1.0078505277633667,-0.1805105358362198,-0.3006218373775482
1710891319432232400,9.082232421875,0.9779181480407715,-0.2263254076242447,-0.11736239492893219
1710891319451192600,9.101192626953125,0.7592285871505737,-0.09346231073141098,0.1196531355381012
1710891319470152700,9.120152587890624,0.5683333277702332,-0.11667517572641373,0.1914297491312027
1710891319489112600,9.139112548828125,0.595211386680603,-0.33628106117248535,0.14256057143211365
1710891319508072700,9.15807275390625,0.6920334100723267,-0.40408703684806824,0.07780890166759491
1710891319527032800,9.17703271484375,0.7158571481704712,-0.1484401375055313,-0.018402300775051117
1710891319545993000,9.195992919921874,0.6278926134109497,0.20647229254245758,0.013057234697043896
1710891319564953000,9.214953125,0.4437169134616852,0.6236929297447205,0.17402009665966034
1710891319583913200,9.233913330078124,0.17676898837089539,0.8148936033248901,0.23052509129047394
1710891319602873300,9.252873291015625,0.02802342176437378,0.4413498044013977,0.2427423894405365
1710891319621833500,9.27183349609375,0.06711876392364502,-0.029932374134659767,0.18348850309848785
1710891319640793600,9.290793701171875,0.16241367161273956,-0.3546070158481598,0.1395062506198883
1710891319659753700,9.309753662109374,0.31757333874702454,-0.17592905461788177,0.29374960064888
1710891319678713900,9.3287138671875,0.1450040340423584,0.8610138893127441,0.46051567792892456
1710891319697673700,9.347673828125,-0.01565340906381607,1.4159845113754272,0.612621009349823
1710891319716633900,9.3666337890625,0.15661045908927917,1.3674207925796509,0.7900772094726562
1710891319735594000,9.385593994140624,0.3358992636203766,1.1331541538238525,1.121776819229126
1710891319754554000,9.40455419921875,0.19509494304656982,0.7428115606307983,1.0414481163024902
1710891319773514200,9.42351416015625,0.36766424775123596,-0.8051197528839111,0.6569086909294128
1710891319792474400,9.442474365234375,0.8157335519790649,-1.7238603830337524,0.2329685539007187
1710891319811434500,9.4614345703125,0.7754164934158325,-1.5299108028411865,-0.16073378920555115
1710891319830394600,9.48039453125,0.3725511431694031,-0.9920443892478943,-0.09445496648550034
1710891319849354800,9.499354736328126,-0.17447824776172638,-0.583375871181488,-0.2813795804977417
1710891319868315000,9.51831494140625,-0.20196716487407684,-0.9676098227500916,-0.36506807804107666
1710891319887275000,9.53727490234375,0.029245151206851006,-2.0796890258789062,-0.42768171429634094
1710891319906235000,9.55623486328125,0.2796997129917145,-3.2232279777526855,-0.5642099976539612
1710891319925195000,9.575195068359376,0.3038288652896881,-3.7424631118774414,-0.5755109786987305
1710891319944155400,9.5941552734375,0.31757333874702454,-3.5750861167907715,-0.5012909173965454
1710891319963115500,9.613115478515626,0.41042476892471313,-2.9877395629882812,-0.3687332570552826
1710891319982075400,9.632075439453125,0.5808560252189636,-2.1273365020751953,-0.24381139874458313
1710891320001035500,9.651035400390626,0.6871465444564819,-1.3374884128570557,-0.13324488699436188
1710891320019995600,9.66999560546875,0.7445678114891052,-0.8894191384315491,-0.030925029888749123
1710891320038955800,9.688955810546876,0.8334486484527588,-1.0757328271865845,0.07903063297271729
1710891320057916000,9.707916015625,0.9708932042121887,-1.6114612817764282,0.19570580124855042
1710891320076876000,9.7268759765625,1.1068105697631836,-2.2650866508483887,0.34750568866729736
1710891320095836000,9.7458359375,1.2347867488861084,-2.9465062618255615,0.5066359639167786
1710891320114796000,9.764796142578126,1.3364957571029663,-3.3258533477783203,0.6599630117416382
1710891320133756200,9.783756103515625,1.4101049900054932,-3.2088727951049805,0.769002377986908
1710891320152716300,9.80271630859375,1.567402720451355,-2.682612657546997,0.7500655651092529
1710891320171676400,9.821676513671875,1.7708206176757812,-1.870773434638977,0.6660717129707336
1710891320190636500,9.840636474609376,1.7216460704803467,-0.8625410795211792,0.5478693246841431
1710891320209596700,9.8595966796875,1.3700933456420898,0.3842339515686035,0.5176315307617188
1710891320228556800,9.878556884765626,1.12055504322052,1.398269534111023,0.5240456461906433
1710891320247517000,9.897516845703125,0.9727258086204529,1.6682716608047485,0.4727329909801483
1710891320266477000,9.91647705078125,1.019762396812439,1.010064959526062,0.23663374781608582
1710891320285437200,9.935437255859375,0.8016836643218994,-0.2153298407793045,-0.2868773639202118
1710891320304397000,9.95439697265625,0.5551997423171997,-0.9034690260887146,-0.3430769443511963
1710891320323357200,9.973357177734375,0.46143198013305664,-0.934012234210968,-0.3678169548511505
1710891320342317300,9.9923173828125,0.24976733326911926,-0.5216785073280334,-0.609108567237854
1710891320361277400,10.01127734375,0.07353284955024719,-0.5534434914588928,-0.98631751537323
1710891320380237600,10.030237548828126,-0.007101302966475487,-0.0772743970155716,-1.2199733257293701
1710891320399197700,10.04919775390625,-0.08956804871559143,0.767551600933075,-1.211421251296997
1710891320418157800,10.06815771484375,-0.4102720618247986,1.5638138055801392,-0.9811251759529114
1710891320437118000,10.087117919921875,-0.7465531229972839,1.9193371534347534,-0.8635337352752686
1710891320456077800,10.106077880859376,-0.7899245023727417,2.1746785640716553,-0.9087377190589905
1710891320475038000,10.125037841796875,-1.0477094650268555,2.6615378856658936,-0.6127737164497375
1710891320493998000,10.143998046875,-1.4273619651794434,2.1273365020751953,-0.3418551981449127
1710891320512958200,10.162958251953125,-1.413617491722107,1.488066554069519,-0.2548069655895233
1710891320531918300,10.18191845703125,-1.0684788227081299,0.014966187067329884,-0.0859028622508049
1710891320550878500,10.20087841796875,-1.2850303649902344,-0.5476402640342712,0.0985783040523529
1710891320569838600,10.219838623046876,-1.5220459699630737,0.11087195575237274,0.2176969349384308
1710891320588798700,10.238798828125,-1.339702844619751,0.7037162184715271,0.18684826791286469
1710891320607758600,10.257758544921876,-1.1894301176071167,0.6368265151977539,0.2519053518772125
1710891320626718700,10.27671875,-1.0345758199691772,0.29474225640296936,0.2897789776325226
1710891320645678800,10.295678955078126,-0.7056251764297485,-0.03176496922969818,0.29649847745895386
1710891320664639000,10.314638916015625,-0.39255696535110474,-0.07422006875276566,0.35361436009407043
1710891320683599000,10.33359912109375,-0.07796161621809006,0.09987638890743256,0.3673588037490845
1710891320702559200,10.352559326171875,0.1764635592699051,0.1545487940311432,0.38904449343681335
1710891320721519400,10.371519287109376,0.2949713170528412,0.11667517572641373,0.47548186779022217
1710891320740479500,10.3904794921875,0.32795801758766174,0.09468404203653336,0.6059014797210693
1710891320759439400,10.409439453125,0.31299182772636414,0.16707152128219604,0.8520799875259399
1710891320778399500,10.4283994140625,0.2067013680934906,0.20708316564559937,1.0988693237304688
1710891320797359600,10.447359619140625,0.0524580143392086,0.14538581669330597,1.1675916910171509
1710891320816319700,10.46631982421875,0.03810269013047218,-0.1328630894422531,1.0900118350982666
1710891320835280000,10.48527978515625,0.06742420047521591,-0.3491092324256897,1.0026581287384033
1710891320854240000,10.504239990234375,0.07658717036247253,-0.3643808364868164,0.8319214582443237
1710891320873199900,10.523199951171875,0.0631481483578682,-0.4108065664768219,0.6856193542480469
1710891320892160000,10.542159912109375,0.0836121141910553,-0.3500255048274994,0.4736492931842804
1710891320911120100,10.5611201171875,0.04512763395905495,-0.24984370172023773,0.3157407343387604
1710891320930080300,10.580080322265625,-0.06299543380737305,-0.1386663019657135,0.279394268989563
1710891320949040400,10.599040283203125,-0.08651372790336609,-0.10415244847536087,0.24488042294979095
1710891320968000500,10.61800048828125,-0.07154753804206848,-0.13713914155960083,0.14622575044631958
1710891320986960400,10.63696044921875,-0.0807105079293251,-0.2214384824037552,0.0475710928440094
1710891321005920500,10.65592041015625,-0.07002037763595581,-0.2809978127479553,-0.05352702736854553
1710891321024880600,10.674880615234375,-0.07399099320173264,-0.36804601550102234,-0.07704532146453857
1710891321043840800,10.6938408203125,-0.07368556410074234,-0.3995055556297302,-0.10850485414266586
1710891321062801000,10.71280078125,-0.10911571979522705,-0.3448331654071808,-0.18241949379444122
1710891321081760800,10.7317607421875,-0.11888955533504486,-0.23762640357017517,-0.20624321699142456
1710891321100721000,10.750720947265625,-0.13599377870559692,-0.2254091054201126,-0.18547381460666656
1710891321119681000,10.769680908203124,-0.11827868968248367,-0.14294235408306122,-0.1628718227148056
1710891321138641200,10.78864111328125,-0.05658135190606117,-0.10934479534626007,-0.16714787483215332
1710891321157601300,10.807601318359374,0.0023671009112149477,-0.09498947113752365,-0.16500984132289886
1710891321176561400,10.8265615234375,-0.004352411720901728,-0.010384701192378998,-0.16195552051067352
1710891321195521300,10.845521240234374,0.0066431546583771706,0.08155044913291931,-0.229150652885437
1710891321214481400,10.8644814453125,0.08972076326608658,0.10690133273601532,-0.2505309283733368
1710891321233441500,10.883441650390624,0.08025235682725906,0.25442516803741455,-0.26855143904685974
1710891321252401700,10.902401611328125,-0.011988221667706966,0.2837466895580292,-0.22853977978229523
1710891321271361800,10.92136181640625,-0.012904518283903599,0.19089524447917938,-0.2199876755475998
1710891321290321700,10.94032177734375,0.04024071618914604,0.12400554865598679,-0.2590830326080322
1710891321309281800,10.95928173828125,0.007254019379615784,0.08552107214927673,-0.2813795804977417
1710891321328242000,10.978241943359375,0.002672533504664898,0.13530655205249786,-0.26213735342025757
1710891321347202000,10.9972021484375,0.06681333482265472,0.26480987668037415,-0.24656029045581818
1710891321366162200,11.016162109375,0.15111267566680908,0.2632827162742615,-0.2548069655895233
1710891321385122000,11.0351220703125,0.2836703360080719,0.16218459606170654,-0.34032803773880005
1710891321404082200,11.054082275390625,0.42539095878601074,-0.12156209349632263,-0.33544111251831055
1710891321423042300,11.073042236328124,0.4012618064880371,-0.370184063911438,-0.32016950845718384
1710891321442002400,11.09200244140625,0.39881834387779236,-0.6075050234794617,-0.31406086683273315
1710891321460962600,11.110962646484374,0.5429824590682983,-0.5488619804382324,-0.48937904834747314
1710891321479922700,11.129922607421875,0.8029053807258606,-0.7055488228797913,-0.7349466681480408
1710891321498882800,11.1488828125,0.7793871164321899,-0.7452550530433655,-0.8733075857162476
1710891321517842700,11.1678427734375,0.7170788645744324,-0.8765909671783447,-0.9014073610305786
1710891321536802800,11.186802734375,0.9226348996162415,-1.4340050220489502,-0.7670170664787292
1710891321555763000,11.205762939453125,1.4214060306549072,-2.182314395904541,-0.6533962488174438
1710891321574723000,11.22472314453125,1.9415572881698608,-3.059516191482544,-0.6821069121360779
1710891321593683200,11.24368310546875,2.2289693355560303,-3.517970323562622,-0.570624053478241
1710891321612643300,11.262643310546874,2.3645811080932617,-2.9880449771881104,-0.13813179731369019
1710891321631603200,11.281603271484375,2.602207660675049,-2.366184711456299,0.37377288937568665
1710891321650563300,11.300563232421876,2.8282275199890137,-2.22996187210083,0.7247146964073181
1710891321669523500,11.3195234375,3.09456467628479,-2.59312105178833,0.9397391080856323
1710891321688483600,11.338483642578124,3.359679937362671,-3.2821764945983887,1.1260528564453125
1710891321707443700,11.357443603515625,3.6574764251708984,-3.7113089561462402,1.3587923049926758
1710891321726403800,11.37640380859375,3.89388108253479,-3.590968608856201,1.74913489818573
1710891321745364000,11.395364013671875,4.156247615814209,-2.9129087924957275,2.1901793479919434
1710891321764324000,11.414323974609376,4.0404887199401855,-1.6774346828460693,2.7497315406799316
1710891321783284200,11.4332841796875,3.904265880584717,-0.48105600476264954,2.8917574882507324
1710891321802244400,11.452244384765624,3.770181179046631,0.2608392536640167,2.8242568969726562
1710891321821204500,11.47120458984375,3.6522841453552246,0.758694052696228,2.7130794525146484
1710891321840164400,11.490164306640626,3.424736976623535,0.6291907429695129,2.53256893157959
1710891321859124500,11.50912451171875,3.159316301345825,-0.12370011955499649,2.2274420261383057
1710891321878084600,11.528084716796876,2.9171082973480225,-0.6960803866386414,2.0738096237182617
1710891321897044700,11.547044677734375,2.5786893367767334,-0.8903354406356812,1.915290117263794
1710891321916004900,11.5660048828125,2.275394916534424,-0.989906370639801,1.703014612197876
1710891321934965000,11.584965087890625,1.90704345703125,-0.6557633280754089,1.6239076852798462
1710891321953924900,11.6039248046875,1.4534764289855957,-0.36163195967674255,1.4873794317245483
1710891321972885000,11.622885009765625,1.1407135725021362,-0.10079269111156464,1.2192097902297974
1710891321991845000,11.64184521484375,0.8884264826774597,0.08002328872680664,0.945847749710083
1710891322010805200,11.66080517578125,0.7106648087501526,0.2110537886619568,0.4424951672554016
1710891322029765400,11.679765380859376,0.43485936522483826,0.5888736248016357,0.021914774551987648
1710891322048725500,11.6987255859375,0.05917752534151077,1.2085959911346436,-0.2303723841905594
1710891322067685600,11.717685546875,-0.3018435537815094,1.7434080839157104,-0.44234246015548706
1710891322086645800,11.736645751953125,-0.7493020296096802,2.0418155193328857,0.029856016859412193
1710891322105606000,11.75560595703125,-0.46250098943710327,0.7980948090553284,-0.13110685348510742
1710891322124566000,11.77456591796875,-0.11003202199935913,-0.8549052476882935,-0.2853502035140991
1710891322143526100,11.793526123046876,0.2677878439426422,-1.5030328035354614,-0.3161988854408264
1710891322162486000,11.812486083984375,0.43088874220848083,-0.7984002828598022,-0.23892448842525482
1710891322181446100,11.831446044921876,0.2949713170528412,0.7696896195411682,-0.27832525968551636
1710891322200406300,11.85040625,0.20822852849960327,1.6673554182052612,-0.23342670500278473
1710891322219366400,11.869366455078126,0.191735178232193,1.4275909662246704,-0.1378263682126999
1710891322238326500,11.888326416015625,0.14347685873508453,0.7538071274757385,0.09277509152889252
1710891322257286700,11.90728662109375,-0.05352702736854553,0.2507599890232086,0.4366919696331024
1710891322276246800,11.926246826171875,-0.3262781500816345,0.037262752652168274,0.5124391913414001
1710891322295207000,11.94520703125,-0.4902953505516052,0.02412915788590908,0.46601346135139465
1710891322314167000,11.9641669921875,-0.42829257249832153,0.031154103577136993,0.354225218296051
1710891322333127200,11.983127197265626,-0.39225155115127563,0.09590577334165573,0.2543488144874573
1710891322352087300,12.00208740234375,-0.4496728479862213,0.2672533392906189,0.16699515283107758
1710891322371047400,12.02104736328125,-0.5926151871681213,0.5351175665855408,0.045738499611616135
1710891322390007600,12.040007568359375,-0.58039790391922,0.8426879644393921,-0.1115591824054718
1710891322408967700,12.0589677734375,-0.45242172479629517,1.05496346950531,-0.17020219564437866
1710891322427927800,12.077927734375,-0.40782859921455383,1.0968077182769775,-0.22059854865074158
1710891322446887700,12.0968876953125,-0.4001927971839905,0.952643632888794,-0.19494222104549408
1710891322465847800,12.115847900390625,-0.235564723610878,0.7797688841819763,-0.09353867173194885
1710891322484808200,12.13480810546875,-0.08315397053956985,0.6175842881202698,-0.0501672700047493
1710891322503768300,12.153768310546875,-0.18577924370765686,0.6710349321365356,-0.08956804871559143
1710891322522728400,12.172728515625,-0.3223075270652771,0.8872811198234558,-0.13355031609535217
1710891322541688300,12.191688232421875,-0.3470475673675537,0.9492838382720947,-0.0758235901594162
1710891322560648400,12.2106484375,-0.2926805913448334,0.7382301092147827,-0.06635518372058868
1710891322579608800,12.22960888671875,-0.21693335473537445,0.39186975359916687,-0.04864010959863663
1710891322598569000,12.24856884765625,-0.15126539766788483,0.1737910360097885,-0.07918334752321243
1710891322617528800,12.26752880859375,-0.13385574519634247,0.22754712402820587,-0.1329394429922104
1710891322636489000,12.286489013671876,-0.18791727721691132,0.4202749729156494,-0.19769111275672913
1710891322655449000,12.305448974609375,-0.10728313028812408,0.45906487107276917,-0.16226094961166382
1710891322674409200,12.3244091796875,-0.01259908638894558,0.36651885509490967,-0.11278090626001358
1710891322693369300,12.343369384765625,0.04512763395905495,0.22174391150474548,-0.1115591824054718
1710891322712329500,12.36232958984375,0.10957387089729309,0.08826996386051178,0.034437503665685654
1710891322731289600,12.38128955078125,0.13248129189014435,-0.06291907280683517,0.07200568914413452
1710891322750249700,12.400249755859376,0.07597630470991135,-0.3439168632030487,0.11018473654985428
1710891322769210000,12.419210205078125,0.10957387089729309,-0.5232056975364685,0.20914483070373535
1710891322788170000,12.438169921875,0.13125957548618317,-0.5677987933158875,0.31268641352653503
1710891322807130000,12.457130126953125,0.20547963678836823,-0.6884446144104004,0.32795801758766174
1710891322826090500,12.476090576171876,0.30077454447746277,-0.8194751143455505,0.31238096952438354
1710891322845050600,12.495050537109375,0.32215481996536255,-0.9355394244194031,0.3041343092918396
1710891322864010500,12.514010498046876,0.30169084668159485,-0.8759800791740417,0.2519053518772125
1710891322882970600,12.532970703125,0.2622900605201721,-0.7513636946678162,0.22808164358139038
1710891322901931000,12.551930908203126,0.28061601519584656,-0.5772672295570374,0.2277761995792389
1710891322920891100,12.57089111328125,0.3817141354084015,-0.4880809485912323,0.23968806862831116
1710891322939851000,12.58985107421875,0.4727329909801483,-0.5024362802505493,0.2216675579547882
1710891322958811400,12.608811279296875,0.5368737578392029,-0.6108647584915161,0.3206276595592499
1710891322977771500,12.627771484375,0.6055960655212402,-0.6530144214630127,0.41408994793891907
1710891322996731600,12.646731689453125,0.6706531643867493,-0.8032872080802917,0.5713876485824585
1710891323015691800,12.66569189453125,0.6181188225746155,-1.194546103477478,0.7457895278930664
1710891323034652000,12.68465185546875,0.488004595041275,-1.7009530067443848,0.9342412948608398
1710891323053612000,12.703612060546876,0.15386156737804413,-2.0418155193328857,0.9901354312896729
1710891323072572200,12.722572265625,-0.45272716879844666,-2.492328405380249,0.7769436240196228
1710891323091532300,12.7415322265625,-1.052290916442871,-2.951087713241577,0.49716755747795105
1710891323110492400,12.760492431640625,-1.3962078094482422,-2.939786672592163,0.22350014746189117
1710891323129452500,12.77945263671875,-1.4630974531173706,-2.738201379776001,-0.24258968234062195
1710891323148412700,12.79841259765625,-1.5284600257873535,-2.3594651222229004,-0.7856484651565552
1710891323167372800,12.817372802734376,-1.3476440906524658,-1.422093152999878,-1.0987166166305542
1710891323186333000,12.8363330078125,-1.1961495876312256,-0.3591884970664978,-1.3934589624404907
1710891323205293300,12.855293212890626,-1.226998209953308,0.6209440231323242,-1.5458697080612183
1710891323224253400,12.87425341796875,-1.3885719776153564,0.980132520198822,-1.354974389076233
1710891323243213600,12.893213623046876,-1.4618757963180542,0.767857015132904,-0.9411135315895081
1710891323262173700,12.912173583984375,-1.3430625200271606,0.11178825795650482,-0.7786235213279724
1710891323281133800,12.9311337890625,-1.2969422340393066,-0.6612611413002014,-0.5996401309967041
1710891323300094000,12.950093994140625,-1.3519201278686523,-1.0476330518722534,-0.5907825827598572
1710891323319054000,12.96905419921875,-1.3919317722320557,-1.1294889450073242,-0.745942234992981
1710891323338014200,12.98801416015625,-1.2758674621582031,-1.0571014881134033,-0.7596867084503174
1710891323356974600,13.006974609375,-1.1136828660964966,-0.7486147880554199,-0.7019599676132202
1710891323375934500,13.0259345703125,-0.7636573314666748,-0.45478883385658264,-0.598723828792572
1710891323394894800,13.044894775390626,-0.3000109791755676,-0.3442223072052002,-0.6216312646865845
1710891323413855000,13.06385498046875,0.12240202724933624,-0.347582072019577,-0.7932842969894409
1710891323432815000,13.082815185546876,0.42508551478385925,-0.16768237948417664,-0.9160680770874023
1710891323451775200,13.101775146484375,0.38446301221847534,0.4725039005279541,-0.8986584544181824
1710891323470735400,13.1207353515625,0.21952952444553375,0.6985238790512085,-0.9288962483406067
1710891323489695500,13.139695556640625,-0.22792892158031464,0.2868010103702545,-1.2505165338516235
1710891323508655600,13.158655517578126,-0.47319114208221436,0.09590577334165573,-1.3238203525543213
1710891323527615700,13.17761572265625,-0.8821650743484497,0.10323614627122879,-1.2587631940841675
1710891323546576100,13.196576171875,-1.160719394683838,0.3530798554420471,-1.154305338859558
1710891323565536300,13.215536376953125,-0.9750165343284607,0.8402445316314697,-0.5733729600906372
1710891323584496400,13.234496337890626,-0.5779544115066528,0.6826413869857788,0.4846448302268982
1710891323603456500,13.25345654296875,-0.106366828083992,-0.19394956529140472,0.23907721042633057
1710891323622416600,13.272416748046876,-0.13446660339832306,-0.3900371491909027,-0.2716057598590851
1710891323641376800,13.291376708984375,-0.43195775151252747,-0.05528326332569122,-0.25877758860588074
1710891323660337000,13.3103369140625,-0.3329976499080658,-0.03481929376721382,-0.28840452432632446
1710891323679297300,13.32929736328125,0.1193477064371109,-0.16035200655460358,-0.2761872410774231
1710891323698257200,13.348257080078126,0.3337612450122833,-0.09315688163042068,-0.3155880272388458
1710891323717217500,13.367217529296875,0.28244858980178833,0.0665842592716217,-0.45853036642074585
1710891323736177700,13.386177734375,0.2577085793018341,0.33139413595199585,-0.5471057891845703
1710891323755137800,13.4051376953125,0.04298960790038109,0.574212908744812,-0.589560866355896
1710891323774098000,13.424097900390626,-0.2954294681549072,0.29046618938446045,-0.5968912243843079
1710891323793058000,13.44305810546875,-0.47319114208221436,-0.19333870708942413,-0.6109411120414734
1710891323812018400,13.462018310546876,-0.40691229701042175,-0.48563748598098755,-0.6320159435272217
1710891323830978300,13.480978271484375,-0.3223075270652771,-0.5006036758422852,-0.5929206013679504
1710891323849938700,13.499938720703126,-0.2822958827018738,-0.29596397280693054,-0.5657371282577515
1710891323868898800,13.51889892578125,-0.3058141767978668,-0.12461641430854797,-0.5544361472129822
1710891323887859000,13.53785888671875,-0.349185585975647,-0.11881320178508759,-0.4976257085800171
1710891323906819000,13.556819091796875,-0.22273656725883484,-0.1279761642217636,-0.3989710509777069
1710891323925779200,13.575779296875,-0.0907897800207138,-0.004886918235570192,-0.3586539924144745
1710891323944739600,13.594739501953125,-0.05199986323714256,0.14477495849132538,-0.37148213386535645
1710891323963699700,13.61369970703125,-0.15126539766788483,0.3121519088745117,-0.4713585376739502
1710891323982659800,13.632659912109375,-0.22823435068130493,0.39339691400527954,-0.5516872406005859
1710891324001620000,13.651619873046876,-0.3528507649898529,0.258395791053772,-0.609108567237854
1710891324020580000,13.670580078125,-0.4756345748901367,0.11881320178508759,-0.7395281791687012
1710891324039540200,13.689540283203126,-0.6164389252662659,0.04367683082818985,-0.8986584544181824
1710891324058500600,13.70850048828125,-0.9004910588264465,0.01954767294228077,-1.135979413986206
1710891324077460700,13.727460693359374,-1.2407426834106445,0.19120067358016968,-1.4475204944610596
1710891324096420900,13.7464208984375,-1.5018874406814575,0.5962040424346924,-1.6326124668121338
1710891324115381000,13.765381103515624,-1.8671845197677612,1.2626575231552124,-1.699196696281433
1710891324134341000,13.784341064453125,-2.3106722831726074,2.0186026096343994,-1.799378514289856
1710891324153301200,13.80330126953125,-2.6319873332977295,2.494771718978882,-1.987830400466919
1710891324172261400,13.822261474609375,-2.639317750930786,2.9376487731933594,-2.1625375747680664
1710891324191221800,13.8412216796875,-2.6048038005828857,3.803244113922119,-2.1677300930023193
1710891324210182000,13.860181884765625,-2.5742604732513428,5.001455307006836,-1.8125121593475342
1710891324229142000,13.87914208984375,-2.753243923187256,6.328253746032715,-1.1946223974227905
1710891324248102100,13.89810205078125,-3.186957836151123,7.27081823348999,-0.27374377846717834
1710891324267062300,13.917062255859374,-3.501858711242676,7.224392414093018,0.4061487317085266
1710891324286022400,13.9360224609375,-3.6573238372802734,6.082685947418213,0.7570905089378357
1710891324304982800,13.954982666015624,-3.259039878845215,4.4104437828063965,0.733572244644165
1710891324323943000,13.97394287109375,-2.3250277042388916,2.224464178085327,0.16210824251174927
1710891324342903000,13.992903076171874,-1.8268674612045288,0.3289506733417511,-0.24381139874458313
1710891324361863200,14.01186328125,-1.560835838317871,0.21746785938739777,-0.1934150606393814
1710891324380823300,14.0308232421875,-1.634445071220398,1.0971131324768066,-0.2505309283733368
1710891324399783400,14.049783447265625,-1.9215514659881592,2.089768409729004,-0.27801984548568726
1710891324418743600,14.06874365234375,-1.9218569993972778,2.44162654876709,-0.27924156188964844
1710891324437704000,14.087703857421875,-1.7276020050048828,1.7699806690216064,-0.3220020830631256
1710891324456664000,14.1066640625,-1.3094650506973267,0.9297361969947815,-0.533666729927063
1710891324475624200,14.125624267578125,-1.0357975959777832,0.6963858604431152,-0.4802160859107971
1710891324494584300,14.144584228515624,-1.0193042755126953,0.7302888631820679,-0.4249328076839447
1710891324513544400,14.16354443359375,-0.7948114275932312,0.42271843552589417,-0.4661661982536316
1710891324532504600,14.182504638671874,-0.06238456442952156,0.13225223124027252,-0.5681806206703186
1710891324551465000,14.20146484375,0.6401099562644958,0.36132651567459106,-0.6582831740379333
1710891324570425000,14.220425048828124,0.7577013969421387,0.776714563369751,-0.6304888129234314
1710891324589385200,14.23938525390625,0.705472469329834,0.9117156863212585,-0.5309178233146667
1710891324608345300,14.258345458984374,0.8178715705871582,0.6154462695121765,-0.4774671792984009
1710891324627305500,14.277305419921875,0.8490256667137146,0.3042106628417969,-0.42279478907585144
1710891324646265600,14.296265625,0.6749292016029358,0.21716243028640747,-0.4136318266391754
1710891324665225700,14.315225830078125,0.4489092528820038,0.05436696484684944,-0.3210858106613159
1710891324684185900,14.334185791015624,0.5689441561698914,-0.08124501258134842,-0.3220020830631256
1710891324703146200,14.353146240234375,0.5759690999984741,-0.06414080411195755,-0.3785070776939392
1710891324722106400,14.3721064453125,0.24365869164466858,-0.13713914155960083,-0.2746600806713104
1710891324741066500,14.39106640625,-0.04802924394607544,-0.1701258420944214,-0.05627591907978058
1710891324760026600,14.410026611328124,-0.2343430072069168,-0.13439024984836578,0.1498909443616867
1710891324778986800,14.42898681640625,-0.4035525321960449,-0.14538581669330597,0.23052509129047394
1710891324797947000,14.44794677734375,-0.5519927144050598,-0.22846342623233795,0.2830594778060913
1710891324816907000,14.466906982421875,-0.6066650748252869,-0.1444695144891739,0.33681556582450867
1710891324835867400,14.485867431640624,-0.6775254011154175,0.14691297709941864,0.36430448293685913
1710891324854827300,14.5048271484375,-0.6863829493522644,0.374765545129776,0.2543488144874573
1710891324873787600,14.52378759765625,-0.607581377029419,0.5855138897895813,0.11659881472587585
1710891324892747800,14.542747802734375,-0.6613374948501587,0.9694424271583557,0.114460788667202
1710891324911708000,14.5617080078125,-0.7807615399360657,1.2272273302078247,0.08055779337882996
1710891324930668000,14.58066796875,-0.8012255430221558,1.1575887203216553,0.03107774630188942
1710891324949628200,14.599628173828124,-0.8901063203811646,0.7904590368270874,-0.01626427471637726
1710891324968588500,14.618588623046875,-1.0385464429855347,0.5653553605079651,0.07200568914413452
1710891324987548400,14.63754833984375,-1.0987166166305542,0.46914416551589966,-0.08865175396203995
1710891325006508800,14.6565087890625,-0.5724566578865051,-0.4269944727420807,-0.2193768173456192
1710891325025469000,14.675468994140624,-0.25297439098358154,-0.9514219164848328,-0.3366628587245941
1710891325044429000,14.694428955078125,0.012751801870763302,-0.8084795475006104,-0.4924333691596985
1710891325063389200,14.71338916015625,-0.1014799103140831,-0.4355465769767761,-0.4713585376739502
1710891325082349300,14.732349365234375,0.06039925664663315,-0.0873536616563797,-0.4301251769065857
1710891325101309400,14.751309326171874,0.5698604583740234,0.24465134739875793,-0.5474112033843994
1710891325120269600,14.77026953125,0.7186060547828674,0.032070402055978775,-0.553214430809021
1710891325139229700,14.789229736328124,0.7934370040893555,0.07299833744764328,-0.26244276762008667
1710891325158189800,14.80818994140625,0.7442623972892761,0.5314523577690125,0.05459604039788246
1710891325177150200,14.827150146484374,0.3875173330307007,0.5513054728507996,0.3096320927143097
1710891325196110000,14.846110107421875,0.07383827865123749,0.13530655205249786,0.38324129581451416
1710891325215070500,14.865070556640624,0.07872519642114639,-0.07422006875276566,0.284586638212204
1710891325234030600,14.884030517578125,0.17157664895057678,-0.09132428467273712,0.21952952444553375
1710891325252990700,14.90299072265625,0.325514554977417,0.5403099060058594,0.3914879560470581
1710891325271950800,14.921950927734375,0.3850739002227783,1.379027247428894,0.4733438491821289
1710891325290911000,14.940910888671874,0.42478010058403015,1.7544035911560059,0.4950295388698578
1710891325309871000,14.95987109375,0.46173742413520813,1.978590965270996,0.4944186806678772
1710891325328831200,14.978831298828124,-0.07185296714305878,1.9452989101409912,0.5234347581863403
1710891325347791400,14.997791259765625,0.0191658828407526,-0.08491020649671555,0.34322965145111084
1710891325366751500,15.01675146484375,0.6071232557296753,-1.4624103307724,0.12789981067180634
1710891325385711900,15.0357119140625,1.3798671960830688,-1.424842119216919,-0.22884522378444672
1710891325404671700,15.054671630859374,1.3129774332046509,-1.0809252262115479,-0.5632936954498291
1710891325423632100,15.073632080078125,0.9226348996162415,-0.5849030017852783,-0.6750819683074951
1710891325442592300,15.09259228515625,0.7937424182891846,-0.19822561740875244,-0.7141773104667664
1710891325461552400,15.111552490234375,0.845360517501831,-0.34086254239082336,-0.6659189462661743
1710891325480512500,15.130512451171874,1.0191515684127808,-0.6939423680305481,-0.6335431337356567
1710891325499472600,15.14947265625,1.169118881225586,-0.9071341753005981,-0.6170498132705688
1710891325518432800,15.168432861328125,1.121776819229126,-0.897665798664093,-0.42676541209220886
1710891325537393000,15.187392822265625,0.9223294854164124,-0.6359102129936218,-0.12896881997585297
1710891325556353000,15.20635302734375,0.8227584958076477,-0.4712821841239929,0.1446985900402069
1710891325575313200,15.225313232421875,0.9522618055343628,-0.5271763205528259,0.3774380683898926
1710891325594273300,15.244273193359374,1.1266636848449707,-0.7736602425575256,0.5057196617126465
1710891325613233400,15.2632333984375,1.2082141637802124,-1.1646137237548828,0.566500723361969
1710891325632193500,15.282193603515625,1.2656354904174805,-1.5757256746292114,0.6382773518562317
1710891325651153700,15.301153564453125,1.3676499128341675,-1.9242240190505981,0.6850084662437439
1710891325670113800,15.32011376953125,1.3878084421157837,-1.9804235696792603,0.7216603755950928
1710891325689074200,15.33907421875,1.197218656539917,-1.7470732927322388,0.7558687925338745
1710891325708034000,15.358033935546874,0.9962440729141235,-1.4520255327224731,0.7265473008155823
1710891325726994400,15.376994384765625,0.9214131832122803,-1.359174132347107,0.7280744314193726
1710891325745954600,15.39595458984375,1.008766770362854,-1.4755438566207886,0.667904257774353
1710891325764914700,15.414914794921875,1.0915390253067017,-1.8732168674468994,0.4941132366657257
1710891325783874600,15.43387451171875,1.2097413539886475,-2.3701553344726562,0.3157407343387604
1710891325802835000,15.4528349609375,1.3349685668945312,-2.8243331909179688,0.22044582664966583
1710891325821795000,15.471795166015625,1.4669153690338135,-3.143204689025879,0.170965775847435
1710891325840755200,15.490755126953125,1.4583632946014404,-3.2003204822540283,0.2008981555700302
1710891325859715300,15.50971533203125,1.3865866661071777,-3.1508405208587646,0.2787834107875824
1710891325878675500,15.528675537109375,1.297705888748169,-3.0130906105041504,0.3099375069141388
1710891325897635600,15.547635498046875,1.2277618646621704,-2.9550583362579346,0.2687041461467743
1710891325916595700,15.566595703125,1.299233078956604,-2.9382596015930176,0.252210795879364
1710891325935555800,15.585555908203125,1.4101049900054932,-2.977965831756592,0.27542364597320557
1710891325954516000,15.604515869140625,1.517006278038025,-2.9914047718048096,0.45043641328811646
1710891325973476000,15.62347607421875,1.5976405143737793,-3.0164501667022705,0.7381537556648254
1710891325992436200,15.642436279296875,1.6455934047698975,-3.243691921234131,0.9397391080856323
1710891326011396400,15.661396240234374,1.6407064199447632,-3.8713555335998535,1.0448077917099
1710891326030356500,15.6803564453125,1.509981393814087,-4.77879524230957,1.241811752319336
1710891326049316600,15.699316650390625,1.4479786157608032,-5.237860202789307,1.5585451126098633
1710891326068276700,15.71827685546875,1.3697879314422607,-4.7708539962768555,1.817857265472412
1710891326087236900,15.73723681640625,1.2509746551513672,-3.609905481338501,1.9934808015823364
1710891326106197000,15.756197021484375,1.212490200996399,-2.2699735164642334,2.048764228820801
1710891326125157000,15.7751572265625,1.3337469100952148,-1.1065815687179565,2.0035600662231445
1710891326144117200,15.7941171875,1.4259874820709229,-0.36651885509490967,1.9580507278442383
1710891326163077400,15.813077392578125,1.2986221313476562,-0.01649334840476513,1.7656283378601074
1710891326182037500,15.83203759765625,1.140102744102478,0.17592905461788177,1.490433692932129
1710891326200997600,15.85099755859375,0.9589813351631165,0.3952295184135437,1.2912918329238892
1710891326219957800,15.869957763671875,0.8829286694526672,0.7052434086799622,1.1129192113876343
1710891326238918000,15.88891796875,0.7002801299095154,0.8637627959251404,0.8325323462486267
1710891326257878000,15.9078779296875,0.37285658717155457,0.9214895367622375,0.43424850702285767
1710891326276838100,15.926838134765624,0.19876012206077576,1.0112866163253784,0.1761581301689148
1710891326295798300,15.94579833984375,0.1340084671974182,0.822834849357605,0.1804341822862625
1710891326314758400,15.96475830078125,-0.0031306820455938578,0.14813470840454102,0.2482401728630066
1710891326333718500,15.983718505859375,-0.11033745110034943,-0.6710349321365356,-0.1115591824054718
1710891326352678700,16.0026787109375,-0.17020219564437866,-1.2470804452896118,-0.49426597356796265
1710891326371638800,16.021638671875,-0.025732679292559624,-1.0980294942855835,-0.5382482409477234
1710891326390599000,16.040598876953126,0.2329685539007187,-0.8142827749252319,-0.46891507506370544
1710891326409559000,16.05955908203125,0.4467712342739105,-0.5708531141281128,-0.2599993348121643
1710891326428519200,16.078519287109376,0.4495201110839844,-0.0925460159778595,-0.07185296714305878
1710891326447479300,16.097479248046874,0.2833648920059204,0.07147117704153061,0.024663666263222694
1710891326466439400,16.116439453125,0.1911243200302124,-0.03390299528837204,0.20517420768737793
1710891326485399600,16.135399658203124,0.1804341822862625,-0.10201441496610641,0.2580140233039856
1710891326504359700,16.154359619140624,0.16821688413619995,0.09682206809520721,0.2112828493118286
1710891326523319800,16.17331982421875,0.22350014746189117,0.33139413595199585,0.15874847769737244
1710891326542280200,16.1922802734375,0.2515999376773834,0.5583304166793823,0.10651954263448715
1710891326561240300,16.211240234375,0.24396412074565887,1.02655827999115,0.1401171088218689
1710891326580200200,16.2302001953125,0.14928008615970612,1.0467168092727661,0.3673588037490845
1710891326599160600,16.24916064453125,0.4318050444126129,0.4834994673728943,-0.04589121788740158
1710891326618120700,16.26812060546875,0.4376082420349121,0.34666576981544495,-0.2092975378036499
1710891326637080800,16.287080810546875,0.08422297984361649,0.5338957905769348,-0.0501672700047493
1710891326656040700,16.306040771484376,-0.0006872228696011007,0.38698282837867737,-0.05261072888970375
1710891326675001000,16.3250009765625,-0.14882193505764008,0.11178825795650482,-0.3638463318347931
1710891326693961200,16.343961181640626,-0.3485747277736664,0.6139190793037415,-0.26794055104255676
1710891326712921300,16.36292138671875,-0.49457138776779175,1.0512982606887817,-0.09964732080698013
1710891326731881500,16.381881591796876,-0.5055669546127319,1.3545926809310913,0.1495855152606964
1710891326750841600,16.400841552734374,-0.3836994469165802,1.2058470249176025,0.45501789450645447
1710891326769801700,16.4198017578125,-0.2853502035140991,0.8768963813781738,0.6065123677253723
1710891326788761900,16.438761962890624,-0.37697991728782654,0.7974839806556702,0.6520217657089233
1710891326807722000,16.457721923828124,-0.6891318559646606,0.7101303339004517,0.593684196472168
1710891326826682000,16.47668212890625,-0.8705586791038513,0.6246092319488525,0.4577668011188507
1710891326845642200,16.495642333984375,-0.8131373524665833,0.943786084651947,0.7103593945503235
1710891326864602400,16.514602294921875,-0.5965858101844788,1.0329723358154297,0.8688787817955017
1710891326883562500,16.5335625,-0.28993168473243713,1.0235038995742798,0.6550761461257935
1710891326902522600,16.552522705078125,-0.13019055128097534,0.9587522745132446,0.5927678942680359
1710891326921483000,16.57148291015625,0.01000291109085083,0.8491020202636719,0.603458046913147
1710891326940443000,16.59044287109375,0.2738964855670929,0.6395754218101501,0.49747300148010254
1710891326959403000,16.609403076171876,0.493196964263916,0.4770853817462921,0.2952767610549927
1710891326978363400,16.62836328125,0.5677224397659302,0.45387253165245056,0.15233440697193146
1710891326997323500,16.647323486328126,0.5949059128761292,0.4050033390522003,-0.14454588294029236
1710891327016283600,16.66628369140625,0.5933787822723389,0.758694052696228,-0.385532021522522
1710891327035243800,16.685243896484376,0.5185478329658508,1.1572833061218262,-0.43837183713912964
1710891327054204000,16.704203857421874,0.37774351239204407,1.1640028953552246,-0.5257254838943481
1710891327073164000,16.7231640625,0.2775616943836212,1.1685843467712402,-0.6216312646865845
1710891327092124200,16.742124267578124,0.09155336022377014,1.1487312316894531,-0.579787015914917
1710891327111084300,16.761084228515625,-0.04802924394607544,1.08978271484375,-0.35957029461860657
1710891327130044400,16.78004443359375,-0.08681915700435638,0.9819651246070862,-0.18089233338832855
1710891327149004800,16.7990048828125,-0.08407026529312134,0.8301652073860168,-0.11797326058149338
1710891327167964700,16.817964599609375,-0.06268999725580215,0.555276095867157,-0.07124210149049759
1710891327186925000,16.836925048828125,-0.08804088830947876,0.2367101013660431,0.0680350661277771
1710891327205885200,16.85588525390625,-0.08223766833543777,-0.0772743970155716,0.1700494885444641
1710891327224845300,16.87484521484375,-0.044669486582279205,-0.2837466895580292,0.11507165431976318
1710891327243805400,16.893805419921875,-0.0006872228696011007,-0.2657261788845062,0.020082179456949234
1710891327262765600,16.912765625,-0.02848157100379467,-0.12125665694475174,0.044211339205503464
1710891327281725700,16.9317255859375,-0.12896881997585297,-0.004581485874950886,0.02130390889942646
1710891327300685800,16.950685791015626,-0.16378812491893768,-0.004886918235570192,-0.03061959706246853
1710891327319646200,16.969646240234376,-0.1476002037525177,-0.06047561392188072,-0.03550651669502258
1710891327338606300,16.9886064453125,-0.16653701663017273,-0.29077163338661194,0.006948587018996477
1710891327357566500,17.00756640625,-0.21204642951488495,-0.47433650493621826,-0.02695440873503685
1710891327376526600,17.026526611328126,-0.2407570779323578,-0.4459312856197357,-0.0807105079293251
1710891327395486700,17.04548681640625,-0.21784965693950653,-0.3176496922969818,-0.06666062027215958
1710891327414446800,17.06444677734375,-0.2248746007680893,-0.22999058663845062,-0.09750928729772568
1710891327433407000,17.083406982421874,-0.30031639337539673,-0.2984074354171753,-0.14026983082294464
1710891327452367000,17.1023671875,-0.32597270607948303,-0.46059203147888184,-0.1576794683933258
1710891327471327500,17.121327392578124,-0.3223075270652771,-0.5836812853813171,-0.183030366897583
1710891327490287600,17.14028759765625,-0.3061196208000183,-0.7272345423698425,-0.18700097501277924
1710891327509247700,17.159247802734374,-0.2859610617160797,-0.8103121519088745,-0.18791727721691132
1710891327528208000,17.178207763671875,-0.2795470058917999,-0.8729257583618164,-0.24625486135482788
1710891327547168000,17.19716796875,-0.2664133906364441,-1.0412189960479736,-0.2606101930141449
1710891327566128000,17.216128173828125,-0.36048656702041626,-0.9221003651618958,-0.19677481055259705
1710891327585088500,17.235088623046874,-0.42768171429634094,-0.7144063711166382,-0.24808746576309204
1710891327604048600,17.254048583984375,-0.4154644012451172,-0.5794052481651306,-0.2749654948711395
1710891327623008800,17.2730087890625,-0.45303258299827576,-0.25411975383758545,-0.2969566285610199
1710891327641969000,17.291968994140625,-0.45822495222091675,0.06475166976451874,-0.5190060138702393
1710891327660929000,17.310928955078126,-0.41760244965553284,0.10720676928758621,-0.6585885882377625
1710891327679889200,17.32988916015625,-0.37026041746139526,-0.041844237595796585,-0.6934078931808472
1710891327698849500,17.348849609375,-0.38644832372665405,-0.11239911615848541,-0.7816778421401978
1710891327717809700,17.3678095703125,-0.3229183852672577,-0.23884813487529755,-0.8882737755775452
1710891327736769800,17.386769775390626,-0.21723878383636475,-0.23823726177215576,-0.9621883630752563
1710891327755730000,17.40572998046875,-0.15920662879943848,-0.24251331388950348,-1.0147227048873901
1710891327774690000,17.42468994140625,-0.23800818622112274,-0.14782927930355072,-0.949971079826355
1710891327793650200,17.443650146484377,-0.35010188817977905,0.04062250629067421,-0.8736129999160767
1710891327812610600,17.462610595703126,-0.6072759628295898,0.11636973917484283,-0.8259655237197876
1710891327831570700,17.48157080078125,-1.015944480895996,0.03787361457943916,-0.7047088742256165
1710891327850530800,17.50053076171875,-1.461570382118225,0.14508038759231567,-0.5605447888374329
1710891327869491000,17.519490966796877,-1.4114794731140137,-0.03848448023200035,-0.5504655241966248
1710891327888451000,17.538451171875,-1.531208872795105,-0.08979712426662445,-0.5800924897193909
1710891327907411500,17.557411376953127,-1.5782455205917358,0.2107483446598053,-0.5330559015274048
1710891327926371600,17.57637158203125,-1.4921135902404785,0.1380554437637329,-0.7780126333236694
1710891327945331700,17.595331787109377,-1.4548507928848267,-0.0030543238390237093,-0.7028762698173523
1710891327964291800,17.614291748046874,-1.3540581464767456,0.19333870708942413,-0.5315287113189697
1710891327983252000,17.633251953125,-1.3619993925094604,0.3992001414299011,-0.45333802700042725
1710891328002212400,17.65221240234375,-1.3586395978927612,0.39370235800743103,-0.26427537202835083
1710891328021172500,17.67117236328125,-1.2465459108352661,0.2306014597415924,0.00022907429956831038
1710891328040132600,17.690132568359374,-1.1872920989990234,0.2406807243824005,0.22594361007213593
1710891328059092700,17.7090927734375,-1.0626755952835083,0.2516762912273407,0.3652207851409912
1710891328078053000,17.72805322265625,-1.004338026046753,-0.013133592903614044,0.5225184559822083
1710891328097013200,17.74701318359375,-0.8684206604957581,-0.24526220560073853,0.622394859790802
1710891328115973400,17.765973388671874,-0.6143009066581726,-0.24831652641296387,0.593684196472168
1710891328134933500,17.78493359375,-0.598723828792572,-0.15515965223312378,0.6263654828071594
1710891328153893600,17.8038935546875,-0.2514472007751465,0.2101374864578247,0.594295084476471
1710891328172854000,17.82285400390625,0.14194969832897186,-0.014660755172371864,0.6630173325538635
1710891328191814100,17.841814208984374,0.13156500458717346,-0.46059203147888184,0.6575195789337158
1710891328210774300,17.860774169921875,0.33742642402648926,-0.2009745091199875,0.6285035014152527
1710891328229734400,17.879734375,0.6755400896072388,0.0412333719432354,0.6208676695823669
1710891328248694800,17.89869482421875,0.9024763703346252,-0.11759147047996521,0.7323505282402039
1710891328267655000,17.917655029296874,1.003269076347351,-0.23518294095993042,0.7451786994934082
1710891328286615000,17.936614990234375,1.1266636848449707,-0.30512696504592896,0.5640572905540466
1710891328305575400,17.955575439453124,1.2726603746414185,-0.33139413595199585,0.48067423701286316
1710891328324535300,17.974535400390625,1.3380229473114014,0.06597339361906052,0.6410261988639832
1710891328343495700,17.99349560546875,1.4024691581726074,0.38179048895835876,0.8306997418403625
1710891328362455800,18.012455810546875,1.3960551023483276,-0.29474225640296936,0.9067524075508118
1710891328381416000,18.031416015625,1.3184752464294434,-0.7461713552474976,1.0701587200164795
1710891328400376300,18.050376220703125,1.3957496881484985,-0.24281874299049377,1.1834741830825806
1710891328419336400,18.06933642578125,1.341077208518982,-0.21685700118541718,1.1040617227554321
1710891328438296600,18.088296630859375,1.1926370859146118,-0.36254823207855225,1.1630102396011353
1710891328457257000,18.107257080078124,1.3865866661071777,-0.016798781231045723,1.0258710384368896
1710891328476217000,18.126217041015625,1.493488073348999,0.023212861269712448,1.0445023775100708
1710891328495177200,18.14517724609375,1.454392671585083,-0.2968802750110626,1.0051016807556152
1710891328514137300,18.164137451171875,1.5084542036056519,-0.15485422313213348,0.8462768197059631
1710891328533097500,18.183097412109376,1.6437608003616333,-0.07574722915887833,0.8569669127464294
1710891328552057900,18.202057861328125,1.602527379989624,0.024434590712189674,0.9672279953956604
1710891328571018000,18.22101806640625,1.519755244255066,-0.38240134716033936,1.0750457048416138
1710891328589978000,18.23997802734375,1.3493239879608154,-0.3692677617073059,0.9934952259063721
1710891328608938500,18.2589384765625,1.3053417205810547,-0.2467893660068512,0.908890426158905
1710891328627898600,18.277898681640625,1.4705805778503418,0.1279761642217636,0.9934952259063721
1710891328646858800,18.296858642578126,1.666668176651001,0.29962918162345886,1.103450894355774
1710891328665819100,18.315819091796875,1.7680717706680298,-0.11545344442129135,1.0762673616409302
1710891328684779300,18.334779296875,1.5719841718673706,-0.6579013466835022,0.9070578217506409
1710891328703739400,18.353739501953125,1.4550034999847412,-0.5384773015975952,0.9250783324241638
1710891328722699800,18.37269970703125,1.4980695247650146,0.18784092366695404,1.056414246559143
1710891328741660000,18.391659912109375,1.526780128479004,0.5830704569816589,0.9473749399185181
1710891328760620000,18.4106201171875,1.4995967149734497,0.03756818547844887,0.834059476852417
1710891328779580200,18.429580078125,1.4757729768753052,-0.21471896767616272,0.9605085253715515
1710891328798540300,18.448540283203126,1.5444952249526978,-0.16279546916484833,0.9195805788040161
1710891328817500700,18.467500732421875,1.5441898107528687,-0.5879573225975037,0.6856193542480469
1710891328836460800,18.486460693359376,1.4773001670837402,0.17043127119541168,0.7570905089378357
1710891328855421000,18.5054208984375,1.5341105461120605,0.6633991599082947,0.7241038084030151
1710891328874381300,18.52438134765625,1.5973349809646606,0.34666576981544495,0.28703010082244873
1710891328893341400,18.543341552734375,1.3859758377075195,0.0821613147854805,0.29100072383880615
1710891328912301600,18.562301513671876,1.2986221313476562,0.41386088728904724,0.7552579641342163
1710891328931262000,18.581261962890625,1.4467568397521973,0.2965748608112335,0.8080977201461792
1710891328950222000,18.60022216796875,1.473940372467041,-0.1493564397096634,0.30260714888572693
1710891328969182200,18.61918212890625,1.2283726930618286,-0.09193515032529831,0.2528216540813446
1710891328988142600,18.638142578125,1.1428515911102295,0.6172788739204407,0.40401068329811096
1710891329007102700,18.657102783203126,1.325500249862671,0.6041452884674072,0.20609050989151
1710891329026062800,18.676062744140626,1.176143765449524,0.5558869242668152,0.15783219039440155
1710891329045023200,18.695023193359376,1.068937063217163,0.8564324378967285,0.19753839075565338
1710891329063983400,18.7139833984375,1.1171953678131104,0.7235693335533142,0.14622575044631958
1710891329082943500,18.732943603515626,1.0548871755599976,0.29413139820098877,0.09949459880590439
1710891329101903600,18.751903564453126,0.9241620302200317,0.3066541254520416,0.05215258151292801
1710891329120864000,18.770864013671876,0.9718095064163208,0.4740310609340668,-0.1530979871749878
1710891329139824000,18.78982421875,1.002963662147522,0.9492838382720947,-0.28932082653045654
1710891329158784300,18.8087841796875,0.799240231513977,1.2260055541992188,-0.09017891436815262
1710891329177744600,18.82774462890625,0.8310051560401917,0.6343830823898315,-0.1625663936138153
1710891329196704800,18.846704833984376,0.9195805788040161,0.3439168632030487,-0.21540619432926178
1710891329215665000,18.865664794921877,0.7647263407707214,0.37812530994415283,-0.20166173577308655
1710891329234625300,18.884625244140626,0.7103593945503235,0.6719512343406677,-0.19708025455474854
1710891329253585400,18.90358544921875,0.6361393332481384,0.6160571575164795,-0.2612210512161255
1710891329272545500,18.922545654296876,0.704861581325531,0.6530144214630127,-0.4084394574165344
1710891329291506000,18.941505859375,0.7222712635993958,0.9639446139335632,-0.168675035238266
1710891329310466000,18.960466064453126,0.4840339720249176,0.5109884142875671,-0.046807512640953064
1710891329329426200,18.97942626953125,0.5359575152397156,-0.07910698652267456,-0.03520108386874199
1710891329348386600,18.998386474609376,0.48708829283714294,0.038789913058280945,-0.0077121676877141
1710891329367346700,19.0173466796875,0.4635699987411499,0.24892739951610565,-0.11033745110034943
1710891329386306800,19.036306884765626,0.4800633490085602,0.48991355299949646,-0.14149154722690582
1710891329405267000,19.055266845703127,0.35330891609191895,0.457843154668808,-0.13385574519634247
1710891329424227000,19.07422705078125,0.26564982533454895,0.3338375985622406,-0.19188790023326874
1710891329443187500,19.0931875,0.32307112216949463,0.3197877109050751,-0.28779366612434387
1710891329462147600,19.112147705078126,0.3655261993408203,0.4260781705379486,-0.22120940685272217
1710891329481107700,19.131107666015627,0.2977202236652374,0.3430005609989166,-0.15676318109035492
1710891329500068000,19.150068115234376,0.3823249936103821,0.23854269087314606,-0.1931096315383911
1710891329519028200,19.1690283203125,0.1911243200302124,0.3857611119747162,-0.11003202199935913
1710891329537988400,19.18798828125,0.2018144577741623,0.1536324918270111,-0.1222493126988411
1710891329556948700,19.20694873046875,0.284586638212204,0.022296564653515816,-0.21754421293735504
1710891329575908900,19.225908935546876,0.23541201651096344,0.32192572951316833,-0.2596938908100128
1710891329594869000,19.244868896484373,0.07200568914413452,0.5070177912712097,-0.24900375306606293
1710891329613829000,19.2638291015625,0.11507165431976318,0.19211697578430176,-0.24717116355895996
1710891329632789200,19.282789306640623,0.14194969832897186,0.0412333719432354,-0.1787542998790741
1710891329651749600,19.30174951171875,0.2015090137720108,-0.12247838824987411,-0.059024810791015625
1710891329670709800,19.320709716796873,0.1193477064371109,-0.1389717310667038,-0.024205517023801804
1710891329689670000,19.339669921875,0.060093823820352554,-0.006719512399286032,-0.09750928729772568
1710891329708630300,19.35863037109375,0.1043815165758133,0.1951712965965271,-0.18486295640468597
1710891329727590400,19.37759033203125,0.09063705801963806,0.17134757339954376,-0.15584687888622284
1710891329746550500,19.396550537109373,0.08972076326608658,0.11239911615848541,-0.11827868968248367
1710891329765511000,19.415510986328126,0.10713040828704834,0.07910698652267456,-0.05933023989200592
1710891329784471000,19.434470947265623,0.11201732605695724,-0.003359756199643016,0.02130390889942646
1710891329803431200,19.45343115234375,0.09460768103599548,-0.06841685622930527,0.05123628303408623
1710891329822391300,19.472391357421873,0.04848739132285118,0.028405211865901947,-0.03275762498378754
1710891329841351400,19.491351318359374,0.0576503649353981,0.1585194170475006,-0.10239620506763458
1710891329860311800,19.510311767578123,0.0322994738817215,0.17195843160152435,-0.08681915700435638
1710891329879272000,19.52927197265625,-0.0019089524867013097,0.02412915788590908,-0.02084576152265072
1710891329898232000,19.548232177734373,0.05581776797771454,-0.06780599057674408,0.020693045109510422
1710891329917192200,19.567192138671874,0.08666644245386124,-0.044898562133312225,0.04543306678533554
1710891329936152600,19.586152587890624,0.028634287416934967,0.06963858753442764,0.03474293276667595
1710891329955112700,19.60511279296875,0.05520690605044365,0.1282816082239151,0.014584396965801716
1710891329974072800,19.62407275390625,0.07017309218645096,0.14691297709941864,0.001450803829357028
1710891329993033200,19.643033203125,0.003283398225903511,0.1747073233127594,0.00511599238961935
1710891330011993000,19.6619931640625,0.002061668550595641,0.12705987691879272,0.036880962550640106
1710891330030953500,19.680953369140624,0.04848739132285118,0.09193515032529831,0.021609341725707054
1710891330049913600,19.69991357421875,0.104076087474823,0.16157373785972595,0.022220205515623093
1710891330068873700,19.718873779296874,0.04848739132285118,0.3381136655807495,0.01611155830323696
1710891330087834000,19.737834228515624,0.03657552972435951,0.370184063911438,-0.0031306820455938578
1710891330106794200,19.756794189453124,0.06101011857390404,0.24984370172023773,0.013973532244563103
1710891330125754400,19.77575439453125,0.03138317912817001,-0.011606430634856224,0.06925679743289948
1710891330144714500,19.794714599609375,-0.011988221667706966,-0.07513637095689774,0.08452841639518738
1710891330163675000,19.8136748046875,0.0322994738817215,0.036651886999607086,0.05612320080399513
1710891330182635000,19.832635009765625,0.024052800610661507,0.15607595443725586,0.057955797761678696
1710891330201595100,19.85159521484375,-0.01259908638894558,0.1649334877729416,0.07444914430379868
1710891330220555300,19.87055517578125,0.014278964139521122,0.09529490768909454,0.08788817375898361
1710891330239515400,19.889515380859375,0.0423787422478199,0.06261363625526428,0.07872519642114639
1710891330258475500,19.9084755859375,0.029856016859412193,0.07819069176912308,0.06681333482265472
1710891330277436000,19.927435791015625,-0.022067490965127945,0.12461641430854797,0.0680350661277771
1710891330296396000,19.94639599609375,-0.005574141163378954,0.11148282140493393,0.05123628303408623
1710891330315356200,19.965356201171875,-0.0031306820455938578,0.06597339361906052,0.055512335151433945
1710891330334316500,19.984316650390625,-0.019929463043808937,0.1230892539024353,0.028634287416934967
1710891330353276700,20.003276611328126,-0.03672824427485466,0.16218459606170654,0.011224640533328056
1710891330372236800,20.02223681640625,-0.05108356848359108,0.14599667489528656,0.025274530053138733
1710891330391197000,20.041197021484376,-0.004046979360282421,0.08552107214927673,0.05429060757160187
1710891330410157000,20.060156982421876,0.017333287745714188,0.040317077189683914,0.057039499282836914
1710891330429117200,20.0791171875,-0.026038112118840218,0.10995566099882126,0.017944153398275375
1710891330448077600,20.09807763671875,-0.04436405375599861,0.1805105358362198,-0.025121813639998436
1710891330467037700,20.11703759765625,-0.021456625312566757,0.16676609218120575,0.0017562361899763346
1710891330485997800,20.135997802734376,0.01030834298580885,0.05925388261675835,0.03810269013047218
1710891330504958000,20.1549580078125,0.006948587018996477,-0.010384701192378998,0.03138317912817001
1710891330523918000,20.17391796875,-0.02909243479371071,0.0565049909055233,0.008781181648373604
1710891330542878200,20.192878173828124,-0.04436405375599861,0.12003492563962936,-0.00679587060585618
1710891330561838600,20.211838623046877,-0.01259908638894558,0.061391908675432205,0.002672533504664898
1710891330580798700,20.230798828125,0.02588539570569992,-0.007024944759905338,0.020082179456949234
1710891330599758800,20.2497587890625,0.023136503994464874,-0.007941242307424545,0.022525638341903687
1710891330618719000,20.268718994140624,0.010919207707047462,0.049480047076940536,0.006948587018996477
1710891330637679000,20.28767919921875,0.0057268571108579636,-0.03329212963581085,0.014889828860759735
1710891330656639500,20.306639404296874,-0.00007635809743078426,-0.05253437161445618,0.003283398225903511
1710891330675599600,20.325599609375,0.03932442143559456,-0.04276053607463837,-0.0058795735239982605
1710891330694559700,20.344559814453124,0.024052800610661507,-0.025961752980947495,-0.00954476185142994
1710891330713519900,20.363519775390625,0.0017562361899763346,0.007635809946805239,-0.0025198173243552446
1710891330732480000,20.38247998046875,0.026801692321896553,-0.03817904740571976,0.015195261687040329
1710891330751440100,20.401440185546875,0.05062541738152504,-0.0873536616563797,0.016416991129517555
1710891330770400500,20.420400390625,0.04482220485806465,-0.060781046748161316,-0.029397867619991302
1710891330789360400,20.4393603515625,0.020998476073145866,0.0204639695584774,-0.03153589367866516
1710891330808320800,20.45832080078125,0.01977674663066864,0.06841685622930527,-0.049250971525907516
1710891330827281000,20.477281005859375,0.030161447823047638,0.0616973415017128,-0.039477135986089706
1710891330846241000,20.496240966796876,0.018555017188191414,0.0308486707508564,-0.004657844081521034
1710891330865201200,20.515201171875,0.018860450014472008,-0.03756818547844887,0.002672533504664898
1710891330884161300,20.534161376953126,0.049709122627973557,-0.056199558079242706,0.0017562361899763346
1710891330903121700,20.55312158203125,0.050930850207805634,-0.02107483521103859,0.004505127668380737
1710891330922081800,20.572081787109376,0.02130390889942646,0.004886918235570192,-0.0019089524867013097
1710891330941042000,20.5910419921875,0.0243582334369421,-0.012217295356094837,-0.004963276442140341
1710891330960002000,20.610001953125,0.03932442143559456,0.005803215317428112,-0.02756527252495289
1710891330978962200,20.628962158203127,0.008170315995812416,0.0360410213470459,-0.021151192486286163
1710891330997922300,20.64792236328125,0.01763872057199478,-0.01740964688360691,-0.005268708802759647
1710891331016882400,20.66688232421875,0.025579962879419327,-0.05742128938436508,0.01824958436191082
1710891331035842800,20.6858427734375,0.023136503994464874,-0.011606430634856224,-0.020540328696370125
1710891331054803000,20.704802978515627,-0.007406735327094793,0.08002328872680664,-0.03672824427485466
1710891331073763000,20.72376318359375,-0.016875140368938446,0.05925388261675835,-0.019624030217528343
1710891331092723200,20.74272314453125,0.017027854919433594,-0.046425722539424896,0.009697478264570236
1710891331111683300,20.761683349609374,0.02649625949561596,-0.060781046748161316,0.020387612283229828
1710891331130643500,20.7806435546875,0.009086613543331623,0.02412915788590908,0.0057268571108579636
1710891331149603600,20.799603515625,0.00511599238961935,0.031154103577136993,-0.0034361144062131643
1710891331168563700,20.818563720703125,0.0023671009112149477,0.014966187067329884,-0.014431680552661419
1710891331187523800,20.83752392578125,-0.012293653562664986,-0.006414080038666725,0.0005345066892914474
1710891331206484200,20.856484130859375,-0.011682788841426373,-0.010995565913617611,0.004199695307761431
1710891331225444400,20.8754443359375,-0.0009926552884280682,0.010995565913617611,-0.00679587060585618
1710891331244404500,20.894404541015625,-0.0034361144062131643,0.0461202897131443,-0.013209951110184193
1710891331263364600,20.913364501953126,-0.021456625312566757,0.07330377399921417,-0.004352411720901728
1710891331282324700,20.93232470703125,-0.016875140368938446,0.047952886670827866,0.012446369975805283
1710891331301284900,20.951284912109376,-0.009850194677710533,-0.003359756199643016,0.026801692321896553
1710891331320245000,20.970244873046877,-0.00679587060585618,0.029016077518463135,0.013668099418282509
1710891331339205400,20.989205322265626,-0.014126247726380825,0.07971785217523575,-0.002825249684974551
1710891331358165500,21.00816552734375,-0.021456625312566757,0.0873536616563797,-0.015042545273900032
1710891331377125600,21.027125732421876,-0.03306305781006813,0.0766635313630104,-0.0034361144062131643
1710891331396085800,21.046085693359377,-0.00679587060585618,0.013439024798572063,0.021609341725707054
1710891331415046000,21.0650458984375,0.017027854919433594,-0.06750056147575378,0.044211339205503464
1710891331434006000,21.084006103515627,0.003283398225903511,-0.014966187067329884,0.017333287745714188
1710891331452966100,21.102966064453124,-0.01107192412018776,0.023212861269712448,-0.0012980876490473747
1710891331471926500,21.121926513671873,-0.02542724646627903,-0.008246674202382565,0.01763872057199478
1710891331490886700,21.14088671875,-0.016875140368938446,-0.04428769648075104,0.01000291109085083
1710891331509846800,21.1598466796875,-0.004963276442140341,-0.07116574794054031,0.02283107116818428
1710891331528807000,21.178806884765624,0.012446369975805283,-0.06475166976451874,0.027717988938093185
1710891331547767000,21.19776708984375,0.012140937149524689,-0.033597562462091446,0.03168861195445061
1710891331566727200,21.21672705078125,0.004810560029000044,0.006108647678047419,0.018555017188191414
1710891331585687300,21.235687255859375,-0.017486004158854485,0.018325943499803543,0.00755945174023509
1710891331604647700,21.254647705078124,-0.02756527252495289,0.004581485874950886,-0.00007635809743078426
1710891331623607800,21.27360791015625,-0.004657844081521034,0.006719512399286032,-0.013515383005142212
1710891331642568000,21.29256787109375,-0.007406735327094793,0.057726722210645676,-0.015042545273900032
1710891331661528000,21.311528076171875,-0.006185005884617567,0.06505709886550903,0.015806125476956367
1710891331680488200,21.33048828125,0.004199695307761431,-0.010384701192378998,0.03657552972435951
1710891331699448300,21.3494482421875,-0.0025198173243552446,-0.05558869615197182,0.03413207083940506
1710891331718408400,21.368408447265626,0.00603228947147727,0.003970621153712273,0.002061668550595641
1710891331737368800,21.387368896484375,0.0023671009112149477,0.0821613147854805,-0.022067490965127945
1710891331756329000,21.406328857421876,0.013668099418282509,0.03756818547844887,-0.027870705351233482
1710891331775289000,21.4252890625,-0.0034361144062131643,-0.04001164436340332,-0.0025198173243552446
1710891331794249200,21.444249267578126,-0.003741546766832471,-0.018325943499803543,0.016416991129517555
1710891331813209300,21.463209228515623,0.01977674663066864,-0.023518294095993042,0.027107125148177147
1710891331832169500,21.48216943359375,0.03107774630188942,-0.07941242307424545,0.028328854590654373
1710891331851129900,21.5011298828125,0.010919207707047462,-0.06200277432799339,0.0005345066892914474
1710891331870090000,21.520090087890626,0.00603228947147727,-0.043982263654470444,0.0017562361899763346
1710891331889050000,21.539050048828123,0.021609341725707054,-0.013744457624852657,-0.01259908638894558
1710891331908010200,21.55801025390625,0.022525638341903687,0.0513126403093338,-0.020540328696370125
1710891331926970400,21.576970458984373,0.013973532244563103,0.053145237267017365,-0.006490438245236874
1710891331945930500,21.595930419921874,0.026801692321896553,-0.0409279391169548,0.017333287745714188
1710891331964891000,21.614890869140623,0.030466880649328232,-0.1029307171702385,0.02496909722685814
1710891331983851000,21.63385107421875,0.00847574882209301,-0.02260199747979641,-0.0031306820455938578
1710891332002811100,21.65281103515625,-0.004657844081521034,0.08460476994514465,-0.033979352563619614
1710891332021771300,21.671771240234374,0.007254019379615784,0.08093958348035812,-0.04130972921848297
1710891332040731600,21.690731689453123,0.014278964139521122,0.011606430634856224,-0.01870773360133171
1710891332059691800,21.70969189453125,-0.0006872228696011007,0.014049889519810677,-0.004963276442140341
1710891332078652000,21.72865185546875,-0.0034361144062131643,0.057726722210645676,-0.0193185992538929
1710891332097612000,21.747612060546874,-0.004046979360282421,0.10079269111156464,-0.03764454275369644
1710891332116572200,21.766572265625,0.001450803829357028,0.07452550530433655,-0.02695440873503685
1710891332135532300,21.7855322265625,0.020693045109510422,0.01740964688360691,-0.014737112447619438
1710891332154492700,21.80449267578125,-0.004657844081521034,-0.005192350596189499,-0.0019089524867013097
1710891332173452800,21.823452880859374,-0.01565340906381607,0.06536252796649933,-0.033368486911058426
1710891332192413000,21.842412841796875,0.002672533504664898,0.0717766135931015,-0.02756527252495289
1710891332211373000,21.861373046875,-0.002825249684974551,0.050090912729501724,-0.020540328696370125
1710891332230333400,21.88033349609375,-0.013209951110184193,0.03848448023200035,-0.016875140368938446
1710891332249293600,21.89929345703125,-0.009850194677710533,0.06230820715427399,-0.0193185992538929
1710891332268253700,21.918253662109375,0.03107774630188942,0.03695731982588768,-0.006185005884617567
1710891332287213800,21.9372138671875,0.006948587018996477,0.05406153202056885,-0.004046979360282421
1710891332306174000,21.956174072265625,-0.039477135986089706,0.025045456364750862,0.010919207707047462
1710891332325134300,21.97513427734375,-0.03917170315980911,-0.07269290834665298,0.06528617441654205
1710891332344094500,21.994094482421875,0.022220205515623093,-0.17867794632911682,0.07414371520280838
1710891332363054600,22.0130546875,0.02283107116818428,-0.14996729791164398,0.04329504072666168
1710891332382014700,22.0320146484375,0.020998476073145866,-0.01740964688360691,-0.017486004158854485
1710891332400975000,22.05097509765625,-0.024510949850082397,0.04764745384454727,-0.02848157100379467
1710891332419935200,22.069935302734375,-0.02848157100379467,0.10629047453403473,-0.04130972921848297
1710891332438895400,22.088895263671876,0.004810560029000044,0.047036588191986084,-0.015347977168858051
1710891332457855500,22.10785546875,0.01611155830323696,-0.029626941308379173,0.006337722297757864
1710891332476815600,22.126815673828126,-0.012904518283903599,0.004886918235570192,-0.008628465235233307
1710891332495776000,22.14577587890625,-0.0025198173243552446,0.0818558782339096,-0.03367391973733902
1710891332514736000,22.164736083984376,0.02588539570569992,0.04764745384454727,-0.010766491293907166
1710891332533696300,22.1836962890625,0.013973532244563103,-0.008246674202382565,-0.005574141163378954
1710891332552656600,22.20265673828125,0.030772313475608826,-0.013439024798572063,-0.0006872228696011007
1710891332571616800,22.22161669921875,0.02496909722685814,0.035124726593494415,-0.008017600513994694
1710891332590577000,22.240576904296876,0.016416991129517555,0.0616973415017128,-0.03153589367866516
1710891332609537300,22.259537353515626,0.02588539570569992,0.06597339361906052,-0.04650207981467247
1710891332628497200,22.2784970703125,0.015195261687040329,0.10018182545900345,-0.037949975579977036
1710891332647457500,22.29745751953125,-0.02328922040760517,0.09804379940032959,-0.03275762498378754
1710891332666417700,22.316417724609376,-0.014737112447619438,0.07788526266813278,-0.02390008419752121
1710891332685377800,22.335377685546874,0.015195261687040329,-0.005192350596189499,-0.0019089524867013097
1710891332704338200,22.354338134765626,0.005421424750238657,-0.004581485874950886,-0.014431680552661419
1710891332723298300,22.37329833984375,-0.026648975908756256,0.0769689604640007,-0.02848157100379467
1710891332742258400,22.392258544921877,-0.0077121676877141,0.10170898586511612,-0.012904518283903599
1710891332761218800,22.41121875,0.014889828860759735,0.03481929376721382,-0.012293653562664986
1710891332780179000,22.430178955078127,0.014889828860759735,0.014966187067329884,-0.02328922040760517
1710891332799139000,22.44913916015625,0.009392046369612217,0.01282816007733345,-0.006185005884617567
1710891332818099500,22.468099365234377,0.004199695307761431,0.01435532234609127,-0.004046979360282421
1710891332837059600,22.4870595703125,0.008170315995812416,-0.005803215317428112,0.0029779658652842045
1710891332856019700,22.506019775390627,-0.00954476185142994,-0.04428769648075104,0.016416991129517555
1710891332874980000,22.52497998046875,-0.01779143698513508,-0.03451386094093323,0.006337722297757864
1710891332893940200,22.543940185546877,-0.0077121676877141,-0.015271619893610477,-0.0009926552884280682
1710891332912900400,22.562900390625,0.004810560029000044,-0.05070177838206291,0.017333287745714188
1710891332931860700,22.58186083984375,-0.013515383005142212,-0.012217295356094837,0.0011453714687377214
1710891332950820900,22.60082080078125,-0.010155626572668552,0.08949168771505356,-0.02237292192876339
1710891332969781000,22.619781005859377,-0.013515383005142212,0.056199558079242706,-0.002825249684974551
1710891332988741000,22.6387412109375,-0.027259841561317444,-0.01740964688360691,0.010919207707047462
1710891333007701500,22.657701416015627,-0.02542724646627903,-0.007635809946805239,0.0017562361899763346
1710891333026661600,22.67666162109375,-0.031841326504945755,0.07788526266813278,-0.011377356946468353
1710891333045621800,22.695621826171877,-0.004046979360282421,0.07605266571044922,-0.0031306820455938578
1710891333064582100,22.71458203125,-0.013515383005142212,0.03940077871084213,-0.00679587060585618
1710891333083542300,22.733542236328127,-0.033368486911058426,0.061391908675432205,0.001450803829357028
1710891333102502400,22.75250244140625,-0.014431680552661419,0.021380268037319183,0.023136503994464874
1710891333121462800,22.771462890625,-0.005574141163378954,0.002443459117785096,0.013057234697043896
1710891333140423000,22.7904228515625,-0.010461059398949146,0.011606430634856224,0.013668099418282509
1710891333159383000,22.809383056640623,-0.016569707542657852,0.04978547990322113,-0.0009926552884280682
1710891333178343400,22.828343505859376,-0.00954476185142994,0.06536252796649933,0.0029779658652842045
1710891333197303600,22.847303466796873,0.003894262947142124,0.013439024798572063,0.016416991129517555
1710891333216264000,22.866263916015626,0.000839939049910754,-0.0027488914784044027,0.01611155830323696
1710891333235224000,22.88522412109375,-0.00679587060585618,0.025045456364750862,0.007864884100854397
1710891333254184200,22.90418408203125,-0.004046979360282421,0.01282816007733345,0.011224640533328056
1710891333273144600,22.92314453125,0.010919207707047462,-0.006414080038666725,0.00603228947147727
1710891333292104700,22.942104736328126,0.0057268571108579636,0.018325943499803543,0.0035888305865228176
1710891333311064800,22.96106494140625,-0.01259908638894558,0.047952886670827866,0.006337722297757864
1710891333330025200,22.980025146484376,0.002672533504664898,-0.004886918235570192,0.009697478264570236
1710891333348985300,22.9989853515625,0.02283107116818428,-0.03787361457943916,0.002672533504664898
1710891333367945500,23.017945556640626,0.0029779658652842045,0.021991131827235222,-0.005268708802759647
1710891333386905900,23.03690576171875,0.001450803829357028,0.03237583488225937,0.007864884100854397
1710891333405866000,23.055865966796876,0.01000291109085083,-0.03390299528837204,0.012140937149524689
1710891333424826000,23.074826171875,0.002672533504664898,-0.04734202101826668,0.003894262947142124
1710891333443786500,23.093786376953126,0.008781181648373604,0.011606430634856224,-0.013209951110184193
1710891333462746600,23.11274658203125,0.013057234697043896,0.006414080038666725,-0.008323032408952713
1710891333481706800,23.131706787109376,0.012751801870763302,-0.021380268037319183,0.0066431546583771706
1710891333500667100,23.150667236328125,-0.0025198173243552446,-0.018631376326084137,0.01030834298580885
1710891333519627300,23.169627197265626,0.007254019379615784,0.006414080038666725,0.009697478264570236
1710891333538587600,23.188587646484375,0.040546149015426636,-0.01954767294228077,0.0017562361899763346
1710891333557547800,23.2075478515625,-0.00007635809743078426,0.021380268037319183,-0.03581194952130318
1710891333576508000,23.2265078125,-0.014431680552661419,0.06994401663541794,-0.025732679292559624
1710891333595468300,23.24546826171875,0.018860450014472008,-0.01740964688360691,0.007254019379615784
1710891333614428400,23.264428466796875,0.02649625949561596,-0.09651663154363632,0.017944153398275375
1710891333633388800,23.283388916015625,0.002061668550595641,0.007635809946805239,-0.011377356946468353
1710891333652349000,23.302348876953126,-0.0009926552884280682,0.056810423731803894,-0.020540328696370125
1710891333671309000,23.32130908203125,0.020082179456949234,0.024434590712189674,-0.02084576152265072
1710891333690269400,23.34026953125,0.02283107116818428,-0.008857538923621178,-0.022983787581324577
