time,seconds_elapsed,z,y,x
1710891310454698500,0.104698486328125,0.2101374864578247,-0.5222893953323364,0.1539379209280014
1710891310473658000,0.123658203125,0.19242240488529205,-0.7351757884025574,0.17348559200763702
1710891310492618000,0.142617919921875,0.2461785078048706,-1.1594213247299194,0.16340632736682892
1710891310511577900,0.161577880859375,0.37323838472366333,-1.6719368696212769,0.1230892539024353
1710891310530537500,0.180537353515625,0.3439168632030487,-2.12580943107605,0.10354158282279968
1710891310549497300,0.199497314453125,0.3231474757194519,-2.310595989227295,0.20769402384757996
1710891310568457000,0.21845703125,0.18264856934547424,-2.1355831623077393,0.29993459582328796
1710891310587416800,0.237416748046875,0.022907428443431854,-2.0237951278686523,0.49571678042411804
1710891310606376400,0.25637646484375,0.1185077652335167,-1.5296053886413574,0.5943714380264282
1710891310625336300,0.27533642578125,0.04917461425065994,-1.1029163599014282,0.6630937457084656
1710891310644296200,0.294296142578125,-0.17531819641590118,-1.1004729270935059,0.7290670871734619
1710891310663255800,0.313255859375,-0.10751219838857651,-1.2547162771224976,0.7987056970596313
1710891310682215700,0.332215576171875,-0.3020726442337036,-1.247385859489441,0.8103121519088745
1710891310701175300,0.35117529296875,-0.3900371491909027,-1.1801908016204834,0.8561269640922546
1710891310720135200,0.37013525390625,-0.4728093445301056,-1.0503820180892944,0.8866702318191528
1710891310739095000,0.389094970703125,-0.5283980369567871,-0.9929606914520264,1.1511746644973755
1710891310758054700,0.4080546875,-0.6600393652915955,-0.9266818761825562,1.29503333568573
1710891310777014500,0.4270146484375,-0.6692023873329163,-0.6206386089324951,1.2635737657546997
1710891310795974100,0.44597412109375,-0.7260127663612366,-0.28008151054382324,1.2388337850570679
1710891310814934000,0.46493408203125,-0.8539889454841614,0.018325943499803543,1.4074324369430542
1710891310833894000,0.483893798828125,-0.8436042666435242,0.21349723637104034,1.5683953762054443
1710891310852853500,0.502853515625,-0.7996219992637634,0.42394015192985535,1.6661336421966553
1710891310871813400,0.5218134765625,-0.9401208758354187,0.6820304989814758,1.729358196258545
1710891310890773000,0.54077294921875,-0.9114102721214294,0.8775072693824768,1.8655810356140137
1710891310909732900,0.55973291015625,-0.6759218573570251,1.239444613456726,1.8261802196502686
1710891310928692500,0.5786923828125,-0.6133082509040833,1.5396846532821655,1.729358196258545
1710891310947652400,0.59765234375,-0.5549706816673279,1.5793908834457397,1.7348560094833374
1710891310966612200,0.6166123046875,-0.3185659945011139,1.5858049392700195,1.7424918413162231
1710891310985571800,0.63557177734375,-0.021685699000954628,1.8237367868423462,1.6334524154663086
1710891311004531700,0.65453173828125,0.20647229254245758,2.0919065475463867,1.574504017829895
1710891311023491300,0.6734912109375,0.40805765986442566,2.402531147003174,1.574504017829895
1710891311042451200,0.692451171875,0.4783071279525757,2.520733594894409,1.5482367277145386
1710891311061411000,0.7114111328125,0.40866854786872864,2.251647472381592,1.4758492708206177
1710891311080371000,0.730370849609375,0.6557633280754089,2.0244059562683105,1.293506145477295
1710891311099330600,0.74933056640625,0.942258894443512,2.079078197479248,1.0094540119171143
1710891311118290200,0.768290283203125,0.7363975048065186,1.8130466938018799,0.8646790981292725
1710891311137250000,0.78725,0.4770853817462921,1.6875139474868774,0.7764091491699219
1710891311156210000,0.8062099609375,0.6035344004631042,1.7779219150543213,0.8035926222801208
1710891311175169800,0.825169677734375,0.6536253094673157,1.9330816268920898,0.8643736839294434
1710891311194129400,0.84412939453125,0.610559344291687,1.6581923961639404,0.7974839806556702
1710891311213089300,0.86308935546875,0.6282744407653809,1.1548398733139038,0.5751292109489441
1710891311232049200,0.882049072265625,0.7959567904472351,1.0653481483459473,0.44929105043411255
1710891311251008800,0.9010087890625,0.7892373204231262,0.980132520198822,0.516791582107544
1710891311269968600,0.91996875,0.5540543794631958,0.7834340929985046,0.6386591196060181
1710891311288928300,0.93892822265625,0.35216355323791504,0.5949822664260864,0.5803215503692627
1710891311307888000,0.95788818359375,0.2770271897315979,0.6643154621124268,0.5125155448913574
1710891311326848000,0.976847900390625,0.2257145345211029,0.7461713552474976,0.4862483739852905
1710891311345807600,0.9958076171875,0.35124725103378296,0.711046576499939,0.4416552484035492
1710891311364767500,1.014767578125,0.2003636509180069,0.33628106117248535,0.3601047992706299
1710891311383727400,1.033727294921875,-0.1951712965965271,-0.28038692474365234,0.30451610684394836
1710891311402687000,1.05268701171875,-0.18356487154960632,-0.425467312335968,0.3686569035053253
1710891311421646800,1.071646728515625,-0.1380554437637329,0.007024944759905338,0.40866854786872864
1710891311440606700,1.090606689453125,-0.21319180727005005,0.9214895367622375,0.33750277757644653
1710891311459566300,1.10956640625,-0.20799945294857025,1.5238021612167358,0.39217519760131836
1710891311478526200,1.128526123046875,-0.14569124579429626,1.1673625707626343,0.462424635887146
1710891311497486000,1.147486083984375,-0.1432477980852127,0.27488914132118225,0.37781986594200134
1710891311516445700,1.16644580078125,-0.11239911615848541,-0.21777328848838806,0.1698204129934311
1710891311535405600,1.185405517578125,-0.32039856910705566,-0.18387030065059662,-0.07605266571044922
1710891311554365400,1.204365478515625,-0.3601047992706299,-0.13469567894935608,-0.056199558079242706
1710891311573325300,1.2233251953125,-0.4517345130443573,0.12767073512077332,0.047036588191986084
1710891311592285000,1.242284912109375,-0.36285367608070374,0.41447174549102783,0.06597339361906052
1710891311611244800,1.261244873046875,-0.19608759880065918,0.970969557762146,-0.09285144507884979
1710891311630204700,1.28020458984375,-0.3836230933666229,1.3191624879837036,0.060781046748161316
1710891311649164300,1.299164306640625,-0.6117810606956482,1.362228512763977,0.05406153202056885
1710891311668124200,1.318124267578125,-0.41874781250953674,1.4257583618164062,-0.13958260416984558
1710891311687084000,1.337083984375,-0.2971857190132141,1.3506220579147339,-0.11942406743764877
1710891311706043600,1.356043701171875,-0.42302384972572327,1.1594213247299194,-0.07269290834665298
1710891311725003500,1.37500341796875,-0.4972439408302307,1.0393863916397095,-0.11239911615848541
1710891311743963400,1.39396337890625,-0.5626064538955688,0.9862411618232727,0.01740964688360691
1710891311762923300,1.41292333984375,-0.7351757884025574,1.0879502296447754,-0.03909534588456154
1710891311781883000,1.4318828125,-0.9856303334236145,1.062904715538025,-0.22479823231697083
1710891311800842800,1.4508427734375,-1.164919137954712,1.0109812021255493,-0.4471530318260193
1710891311819802600,1.469802734375,-1.1606431007385254,1.2464696168899536,-0.34208428859710693
1710891311838762500,1.488762451171875,-0.6356047987937927,1.2800670862197876,-0.053145237267017365
1710891311857722400,1.507722412109375,0.06230820715427399,0.9266818761825562,-0.04764745384454727
1710891311876682000,1.526681884765625,0.13591741025447845,0.5849030017852783,0.027488915249705315
1710891311895641900,1.545641845703125,-0.15302163362503052,0.210442915558815,0.12278381735086441
1710891311914601700,1.564601806640625,-0.15149445831775665,-0.1805105358362198,0.4056142270565033
1710891311933561600,1.5835615234375,0.3530798554420471,-0.5436696410179138,0.7522799968719482
1710891311952521200,1.602521240234375,1.1029163599014282,-0.6612611413002014,0.6472112536430359
1710891311971481300,1.6214814453125,1.3634501695632935,-0.5687150955200195,0.22266021370887756
1710891311990441000,1.64044091796875,1.0653481483459473,-0.5186241865158081,0.13561198115348816
1710891312009400800,1.65940087890625,0.7776308655738831,-0.6627882719039917,0.23762640357017517
1710891312028360700,1.678360595703125,0.5528326034545898,-0.9398154616355896,0.4673115611076355
1710891312047320600,1.697320556640625,0.4657844007015228,-1.481041669845581,0.5387827157974243
1710891312066280200,1.7162802734375,0.21135921776294708,-1.6646065711975098,0.5852084755897522
1710891312085240300,1.735240234375,-0.28985533118247986,-1.2281436920166016,0.56382817029953
1710891312104200000,1.754199951171875,-0.5983420610427856,-0.5021308660507202,0.5751292109489441
1710891312123159800,1.773159912109375,-0.4569268524646759,0.04550942778587341,0.7302888631820679
1710891312142119700,1.79211962890625,-0.22876885533332825,0.4819723069667816,0.8371901512145996
1710891312161079600,1.81107958984375,-0.16157373785972595,0.8619301915168762,0.7247910499572754
1710891312180039400,1.830039306640625,-0.13255766034126282,1.2449424266815186,0.6414080262184143
1710891312198999300,1.848999267578125,0.6209440231323242,1.5399900674819946,0.4428769648075104
1710891312217959200,1.867959228515625,0.3949240744113922,1.5201369524002075,0.5287034511566162
1710891312236919000,1.8869189453125,0.1997527778148651,1.1707223653793335,0.40378162264823914
1710891312255878700,1.905878662109375,0.2629773020744324,0.8011491298675537,0.33139413595199585
1710891312274838500,1.924838623046875,0.28466299176216125,0.637742817401886,0.28527384996414185
1710891312293798400,1.94379833984375,0.1536324918270111,0.5061014890670776,0.3136790692806244
1710891312312758300,1.96275830078125,0.11453714966773987,0.2733619809150696,0.38270679116249084
1710891312331718100,1.98171826171875,0.2620609998703003,0.11117739230394363,0.38301220536231995
1710891312350678000,2.000677978515625,0.32039856910705566,-0.040317077189683914,0.4376846253871918
1710891312369638000,2.019637939453125,0.282524973154068,0.06108647957444191,0.44929105043411255
1710891312388597800,2.03859765625,0.13744457066059113,-0.16859868168830872,0.4468475878238678
1710891312407557600,2.0575576171875,-0.021685699000954628,-0.8823941946029663,0.3802633285522461
1710891312426517500,2.076517578125,-0.04214967042207718,-1.434615969657898,0.2929096519947052
1710891312445477400,2.095477294921875,0.13988803327083588,-1.7440189123153687,0.24312418699264526
1710891312464437200,2.114437255859375,0.22327107191085815,-1.7901391983032227,0.18081597983837128
1710891312483396900,2.13339697265625,0.11636973917484283,-1.5179989337921143,0.03451386094093323
1710891312502356700,2.152356689453125,-0.017715077847242355,-0.9767727851867676,-0.044898562133312225
1710891312521316900,2.17131689453125,-0.1130099818110466,-0.3445277214050293,-0.08765909820795059
1710891312540276500,2.1902763671875,-0.20952661335468292,-0.01435532234609127,-0.2415970265865326
1710891312559236400,2.209236328125,-0.3484983444213867,0.02871064469218254,-0.43951719999313354
1710891312578196200,2.2281962890625,-0.4825831651687622,-0.1747073233127594,-0.6618719696998596
1710891312597156000,2.247156005859375,-0.619722306728363,-0.43432486057281494,-0.8814778923988342
1710891312616116000,2.266115966796875,-0.7910698652267456,-0.2929096519947052,-1.0293071269989014
1710891312635075800,2.285075927734375,-0.8842267394065857,0.14110976457595825,-1.1927134990692139
1710891312654035700,2.30403564453125,-0.9880737662315369,0.794124186038971,-1.2351685762405396
1710891312672995600,2.32299560546875,-1.0864230394363403,1.536935806274414,-1.3164136409759521
1710891312691955500,2.34195556640625,-1.2486076354980469,1.7055344581604004,-1.3371829986572266
1710891312710915300,2.360915283203125,-1.3771946430206299,1.1377356052398682,-1.2202024459838867
1710891312729875200,2.379875244140625,-1.4129302501678467,0.20189081132411957,-1.1081087589263916
1710891312748835000,2.3988349609375,-1.3949097394943237,-0.6456840634346008,-1.0131192207336426
1710891312767795000,2.417794921875,-1.3240493535995483,-1.314886450767517,-0.9816597104072571
1710891312786754800,2.4367548828125,-1.2721259593963623,-1.5677844285964966,-0.9511164426803589
1710891312805714700,2.455714599609375,-1.2232567071914673,-1.6795727014541626,-0.8164207935333252
1710891312824674600,2.474674560546875,-1.1924080848693848,-1.6630793809890747,-0.6252201199531555
1710891312843634700,2.493634765625,-1.2947279214859009,-1.350927472114563,-0.4526508152484894
1710891312862594600,2.512594482421875,-1.4749330282211304,-0.9025527238845825,-0.27091851830482483
1710891312881554400,2.531554443359375,-1.5573997497558594,-0.5158752799034119,-0.12064579129219055
1710891312900514000,2.55051416015625,-1.5134174823760986,-0.1279761642217636,0.01954767294228077
1710891312919474200,2.56947412109375,-1.357952356338501,0.1230892539024353,0.10384701192378998
1710891312938434000,2.58843408203125,-1.191797137260437,0.035735588520765305,0.047036588191986084
1710891312957394000,2.607393798828125,-1.0152572393417358,-0.30115634202957153,0.007024944759905338
1710891312976353800,2.626353759765625,-0.7263182401657104,-0.6291907429695129,-0.1279761642217636
1710891312995313700,2.645313720703125,-0.4740310609340668,-0.8585704565048218,-0.32192572951316833
1710891313014273500,2.6642734375,-0.24434591829776764,-0.8173370957374573,-0.4990765154361725
1710891313033233400,2.6832333984375,-0.12247838824987411,-0.528092622756958,-0.6004800796508789
1710891313052193300,2.702193359375,-0.07391463965177536,-0.10048725455999374,-0.6453786492347717
1710891313071153200,2.721153076171875,-0.09468404203653336,0.3026835024356842,-0.6389645338058472
1710891313090113000,2.740113037109375,-0.16279546916484833,0.6059778332710266,-0.5794052481651306
1710891313109073000,2.759072998046875,-0.16340632736682892,0.766940712928772,-0.48013970255851746
1710891313128033000,2.778032958984375,-0.13927717506885529,0.7284562587738037,-0.38179048895835876
1710891313146993000,2.796992919921875,-0.14630211889743805,0.4938841760158539,-0.32559093832969666
1710891313165952800,2.815952880859375,-0.15485422313213348,0.16249002516269684,-0.34605491161346436
1710891313184912600,2.83491259765625,-0.16829325258731842,-0.1798996776342392,-0.3955349326133728
1710891313203872500,2.85387255859375,-0.12522727251052856,-0.3656025826931,-0.39186975359916687
1710891313222832400,2.872832275390625,-0.025045456364750862,-0.3958403766155243,-0.4667007029056549
1710891313241792300,2.891792236328125,0.12217295914888382,-0.3610210716724396,-0.5870410799980164
1710891313260752100,2.910752197265625,0.2364046722650528,-0.25381430983543396,-0.627968966960907
1710891313279712000,2.9297119140625,0.2565632164478302,-0.07757982611656189,-0.6417134404182434
1710891313298671900,2.948671875,0.23457208275794983,0.05589412897825241,-0.6407971382141113
1710891313317631700,2.9676318359375,0.20861032605171204,0.10995566099882126,-0.6151408553123474
1710891313336592000,2.986591796875,0.2009745091199875,0.10934479534626007,-0.6053670048713684
1710891313355551700,3.0055517578125,0.14996729791164398,0.03298669680953026,-0.6249146461486816
1710891313374511600,3.02451171875,0.06597339361906052,-0.0766635313630104,-0.6450732350349426
1710891313393471500,3.043471435546875,-0.035735588520765305,-0.2263254076242447,-0.6527090072631836
1710891313412431400,3.062431396484375,-0.09865466505289078,-0.36835145950317383,-0.6539307236671448
1710891313431391200,3.08139111328125,-0.13713914155960083,-0.4834994673728943,-0.6914989352226257
1710891313450351400,3.100351318359375,-0.15790854394435883,-0.5977311730384827,-0.7192932963371277
1710891313469311200,3.119311279296875,-0.21471896767616272,-0.7018836140632629,-0.7293725609779358
1710891313488271000,3.13827099609375,-0.2712239623069763,-0.8356630206108093,-0.7235693335533142
1710891313507231000,3.15723095703125,-0.34788748621940613,-0.8906408548355103,-0.7550288438796997
1710891313526190800,3.17619091796875,-0.4508182108402252,-0.9282090067863464,-0.7867938280105591
1710891313545150700,3.195150634765625,-0.5051851868629456,-0.9935715794563293,-0.7977893948554993
1710891313564110600,3.214110595703125,-0.4923570156097412,-1.0079269409179688,-0.7910698652267456
1710891313583070700,3.23307080078125,-0.4453204274177551,-0.9123265743255615,-0.813671886920929
1710891313602030600,3.252030517578125,-0.37110036611557007,-0.6594285368919373,-0.8472694754600525
1710891313620990500,3.270990478515625,-0.31123560667037964,-0.2809978127479553,-0.8631519079208374
1710891313639950300,3.289950439453125,-0.22174391150474548,0.15638138353824615,-0.8371901512145996
1710891313658910200,3.30891015625,-0.08857539296150208,0.5907062292098999,-0.7626646757125854
1710891313677870000,3.3278701171875,-0.08093958348035812,0.8475748896598816,-0.7241802215576172
1710891313696830200,3.346830322265625,-0.21441353857517242,0.7913753390312195,-0.6667588949203491
1710891313715790000,3.3657900390625,-0.314289927482605,0.5830704569816589,-0.5299251675605774
1710891313734750000,3.38475,-0.25381430983543396,0.3185659945011139,-0.4147771894931793
1710891313753709800,3.403709716796875,-0.20463970303535461,0.10873392969369888,-0.30054548382759094
1710891313772669700,3.422669677734375,-0.22204934060573578,-0.000305432389723137,-0.1331685185432434
1710891313791629600,3.441629638671875,-0.2458730787038803,0.041844237595796585,0.04428769648075104
1710891313810589700,3.460589599609375,-0.2880227565765381,0.17134757339954376,0.19364413619041443
1710891313829549600,3.479549560546875,-0.34636032581329346,0.2684750556945801,0.3094030022621155
1710891313848509400,3.498509521484375,-0.3906480371952057,0.17745621502399445,0.36682429909706116
1710891313867469300,3.51746923828125,-0.37232208251953125,-0.056199558079242706,0.41263917088508606
1710891313886429200,3.53642919921875,-0.25381430983543396,-0.38209593296051025,0.40744680166244507
1710891313905389300,3.555389404296875,-0.1328630894422531,-0.6102539300918579,0.3539961278438568
1710891313924349200,3.57434912109375,-0.08093958348035812,-0.6081159114837646,0.3133736252784729
1710891313943309000,3.59330908203125,-0.1185077652335167,-0.42424559593200684,0.2984074354171753
1710891313962269000,3.61226904296875,-0.17653992772102356,-0.27947062253952026,0.34697118401527405
1710891313981229000,3.63122900390625,-0.18234314024448395,-0.18692462146282196,0.43004879355430603
1710891314000189000,3.65018896484375,-0.185092031955719,-0.13530655205249786,0.5112938284873962
1710891314019148800,3.669148681640625,-0.2260199636220932,-0.1698204129934311,0.6356047987937927
1710891314038108700,3.688108642578125,-0.33108872175216675,-0.37110036611557007,0.7327322959899902
1710891314057068500,3.707068603515625,-0.37323838472366333,-0.667064368724823,0.664926290512085
1710891314076028400,3.7260283203125,-0.2813032269477844,-0.888502836227417,0.5305360555648804
1710891314094988500,3.744988525390625,-0.1542433500289917,-0.9227112531661987,0.38850998878479004
1710891314113948400,3.763948486328125,-0.25931209325790405,-0.8356630206108093,0.23273947834968567
1710891314132908300,3.782908203125,-0.527481734752655,-0.7703005075454712,0.12034036219120026
1710891314151868400,3.801868408203125,-0.7757982611656189,-0.832608699798584,0.14263692498207092
1710891314170828300,3.820828369140625,-0.7867938280105591,-0.9938769936561584,0.23426663875579834
1710891314189788200,3.8397880859375,-0.7370083332061768,-1.3542872667312622,0.3139844834804535
1710891314208748000,3.858748046875,-0.7513636946678162,-1.8127412796020508,0.4218021333217621
1710891314227708000,3.8777080078125,-0.7293725609779358,-2.0696098804473877,0.62857985496521
1710891314246667800,3.896667724609375,-0.618806004524231,-2.110232353210449,0.8017600178718567
1710891314265628000,3.9156279296875,-0.4318813979625702,-2.0598361492156982,0.8662062287330627
1710891314284587800,3.934587890625,-0.11117739230394363,-1.8784091472625732,0.7263182401657104
1710891314303547600,3.953547607421875,0.2620609998703003,-1.5659518241882324,0.5589412450790405
1710891314322507800,3.9725078125,0.42424559593200684,-1.3674207925796509,0.4367683231830597
1710891314341467600,3.991467529296875,0.4615083336830139,-1.5140283107757568,0.2977965772151947
1710891314360427500,4.010427490234375,0.5971203446388245,-1.767231822013855,0.16859868168830872
1710891314379387400,4.029387451171875,0.739757239818573,-1.9147557020187378,-0.008552107028663158
1710891314398347300,4.04834716796875,0.7806851863861084,-1.9749258756637573,-0.19608759880065918
1710891314417307400,4.067307373046875,0.7226530313491821,-1.83839750289917,-0.3436114490032196
1710891314436267300,4.086267333984375,0.6264418363571167,-1.5079196691513062,-0.47006043791770935
1710891314455227400,4.105227294921875,0.43371400237083435,-0.9682206511497498,-0.5360338687896729
1710891314474187300,4.124187255859375,0.20463970303535461,-0.4315759539604187,-0.5485565662384033
1710891314493147100,4.143147216796875,0.07147117704153061,-0.15760311484336853,-0.4517345130443573
1710891314512107000,4.16210693359375,-0.09621120244264603,-0.13500112295150757,-0.34238970279693604
1710891314531067000,4.18106689453125,-0.18203771114349365,-0.37110036611557007,-0.20158538222312927
1710891314550027000,4.200027099609375,-0.14049890637397766,-0.5134318470954895,-0.07238747924566269
1710891314568987000,4.21898681640625,-0.189673513174057,-0.3130682110786438,0.028099779039621353
1710891314587946800,4.23794677734375,-0.37781986594200134,-0.06322450190782547,0.12400554865598679
1710891314606907000,4.256906982421875,-0.4111120104789734,0.2052505612373352,0.20127993822097778
1710891314625866800,4.27586669921875,-0.3787361681461334,0.3069595396518707,0.16707152128219604
1710891314644826600,4.29482666015625,-0.3194822669029236,0.14263692498207092,0.05528326332569122
1710891314663786500,4.313786376953125,-0.17867794632911682,0.028099779039621353,-0.12553271651268005
1710891314682746600,4.33274658203125,-0.03695731982588768,0.11759147047996521,-0.26939135789871216
1710891314701706500,4.35170654296875,0.048563748598098755,0.35582873225212097,-0.38331764936447144
1710891314720666400,4.370666259765625,0.10659590363502502,0.6249146461486816,-0.48502662777900696
1710891314739626200,4.389626220703125,0.09071341902017593,0.8338304162025452,-0.4566214084625244
1710891314758586400,4.40858642578125,-0.04764745384454727,0.9932661056518555,-0.36651885509490967
1710891314777546200,4.427546142578125,-0.18661919236183167,0.897665798664093,-0.27488914132118225
1710891314796506000,4.446506103515625,-0.18142683804035187,0.5360338687896729,-0.2214384824037552
1710891314815466200,4.46546630859375,-0.1945604383945465,0.24526220560073853,-0.13561198115348816
1710891314834426000,4.484426025390625,-0.3090975880622864,0.028099779039621353,-0.09376774728298187
1710891314853386000,4.503385986328125,-0.39309149980545044,-0.15515965223312378,-0.10873392969369888
1710891314872346000,4.52234619140625,-0.40744680166244507,-0.1945604383945465,-0.13500112295150757
1710891314891306000,4.541305908203125,-0.35796675086021423,-0.17073670029640198,-0.22418737411499023
1710891314910265900,4.560265869140625,-0.231212317943573,-0.26480987668037415,-0.3430005609989166
1710891314929225700,4.579225830078125,-0.1127045527100563,-0.39370235800743103,-0.4312705397605896
1710891314948185900,4.598185791015625,-0.022296564653515816,-0.5491674542427063,-0.4944950342178345
1710891314967145700,4.617145751953125,0.12247838824987411,-0.7266236543655396,-0.5241219997406006
1710891314986105600,4.636105712890625,0.28405213356018066,-0.9138537049293518,-0.5006036758422852
1710891315005065700,4.655065673828125,0.4511236250400543,-1.1545344591140747,-0.44379326701164246
1710891315024025600,4.674025634765625,0.600785493850708,-1.4920371770858765,-0.38331764936447144
1710891315042985500,4.6929853515625,0.7641918659210205,-1.84145188331604,-0.3686569035053253
1710891315061945600,4.711945556640625,0.9886846542358398,-2.0888521671295166,-0.3964512348175049
1710891315080905500,4.730905517578125,1.1404845714569092,-2.285856008529663,-0.41935867071151733
1710891315099865300,4.749865234375,1.227838158607483,-2.3878703117370605,-0.39186975359916687
1710891315118825500,4.768825439453125,1.2516618967056274,-2.430325508117676,-0.38789913058280945
1710891315137785300,4.787785400390625,1.3350449800491333,-2.489579439163208,-0.41783151030540466
1710891315156745200,4.8067451171875,1.4382811784744263,-2.542113780975342,-0.44409868121147156
1710891315175705000,4.825705078125,1.509141445159912,-2.6331326961517334,-0.4560105502605438
1710891315194665200,4.844665283203125,1.5680898427963257,-2.741255760192871,-0.4682278633117676
1710891315213625000,4.863625,1.6432262659072876,-2.7598869800567627,-0.4633409380912781
1710891315232585200,4.882585205078125,1.7385212182998657,-2.7177374362945557,-0.44318240880966187
1710891315251545000,4.901545166015625,1.823431372642517,-2.6273293495178223,-0.41783151030540466
1710891315270505000,4.9205048828125,1.8640538454055786,-2.394895315170288,-0.31612253189086914
1710891315289465000,4.939465087890625,1.8341214656829834,-1.9569053649902344,-0.18203771114349365
1710891315308425000,4.958425048828125,1.8292346000671387,-1.5790854692459106,-0.07269290834665298
1710891315327384800,4.977384765625,1.824653148651123,-1.3258819580078125,0.037262752652168274
1710891315346345000,4.996344970703125,1.823125958442688,-1.0784817934036255,0.11209368705749512
1710891315365304800,5.015304931640625,1.8380920886993408,-0.8759800791740417,0.1905898153781891
1710891315384264700,5.0342646484375,1.8286237716674805,-0.7877101302146912,0.25931209325790405
1710891315403224600,5.053224609375,1.777311086654663,-0.7073814272880554,0.3072649836540222
1710891315422184700,5.072184814453125,1.7336342334747314,-0.6444623470306396,0.3637699782848358
1710891315441144600,5.09114453125,1.673464059829712,-0.6786707639694214,0.3491092324256897
1710891315460104400,5.1101044921875,1.572060465812683,-0.7461713552474976,0.3222311735153198
1710891315479064600,5.129064697265625,1.4602723121643066,-0.7281508445739746,0.3659079968929291
1710891315498024400,5.1480244140625,1.341153621673584,-0.637742817401886,0.36224281787872314
1710891315516984600,5.166984619140625,1.193018913269043,-0.4871646761894226,0.3326158821582794
1710891315535944400,5.1859443359375,1.0210604667663574,-0.28038692474365234,0.2929096519947052
1710891315554904300,5.204904296875,0.815199077129364,-0.09040798991918564,0.2419024556875229
1710891315573864400,5.223864501953125,0.6267472505569458,0.021991131827235222,0.16859868168830872
1710891315592824300,5.24282421875,0.45937031507492065,0.07757982611656189,0.1282816082239151
1710891315611784200,5.2617841796875,0.2617555558681488,0.09834922850131989,0.1340848207473755
1710891315630744300,5.280744384765625,-0.007330377586185932,0.07910698652267456,0.11575887352228165
1710891315649704200,5.2997041015625,-0.25411975383758545,-0.018631376326084137,0.03940077871084213
1710891315668664000,5.3186640625,-0.4166097939014435,-0.19181154668331146,-0.050090912729501724
1710891315687624200,5.337624267578125,-0.4990765154361725,-0.20861032605171204,-0.1178968995809555
1710891315706584000,5.356583984375,-0.6896663308143616,-0.07330377399921417,-0.16859868168830872
1710891315725544000,5.3755439453125,-0.8558215498924255,0.26542073488235474,-0.2055560052394867
1710891315744504000,5.394504150390625,-0.9492838382720947,0.6444623470306396,-0.16768237948417664
1710891315763464000,5.4134638671875,-0.9923498630523682,0.8680388331413269,-0.14172062277793884
1710891315782424000,5.432424072265625,-0.9459241032600403,0.8362739086151123,-0.09804379940032959
1710891315801384000,5.451384033203125,-0.8118392825126648,0.6624828577041626,-0.035735588520765305
1710891315820343800,5.47034375,-0.6655371785163879,0.4560105502605438,0.048563748598098755
1710891315839304000,5.489303955078125,-0.5338957905769348,0.2883281707763672,0.11514800786972046
1710891315858263800,5.508263916015625,-0.3750709891319275,0.13133592903614044,0.13072505593299866
1710891315877223700,5.5272236328125,-0.26358816027641296,-0.002443459117785096,0.1334739476442337
1710891315896183800,5.546183837890625,-0.24373504519462585,0.01893680728971958,0.12217295914888382
1710891315915143700,5.565143798828125,-0.1740964651107788,0.21441353857517242,0.15485422313213348
1710891315934103600,5.584103515625,-0.10476330667734146,0.425467312335968,0.20952661335468292
1710891315953063700,5.603063720703125,-0.09315688163042068,0.4819723069667816,0.24953825771808624
1710891315972023600,5.6220234375,-0.09987638890743256,0.35674503445625305,0.2623664140701294
1710891315990983400,5.6409833984375,-0.0870482325553894,0.1432477980852127,0.2620609998703003
1710891316009943600,5.659943603515625,-0.04734202101826668,-0.013744457624852657,0.2513708472251892
1710891316028903400,5.6789033203125,-0.008552107028663158,-0.1288924664258957,0.21716243028640747
1710891316047863300,5.69786328125,-0.05039634555578232,-0.1853974610567093,0.18142683804035187
1710891316066823400,5.716823486328125,-0.08460476994514465,-0.10048725455999374,0.15485422313213348
1710891316085783600,5.735783447265625,-0.07635809481143951,0.05283980444073677,0.09407317638397217
1710891316104743400,5.754743408203125,-0.09407317638397217,0.06047561392188072,0.022907428443431854
1710891316123703300,5.773703369140625,-0.185092031955719,0.020158538594841957,-0.04886918142437935
1710891316142663400,5.792663330078125,-0.25992295145988464,0.1438586562871933,-0.08399390429258347
1710891316161623300,5.811623291015625,-0.2626718580722809,0.3805687427520752,-0.07788526266813278
1710891316180583200,5.830583251953125,-0.3481929302215576,0.476779967546463,-0.0925460159778595
1710891316199543300,5.849543212890625,-0.4969384968280792,0.5033525824546814,-0.08949168771505356
1710891316218503200,5.868503173828125,-0.5476402640342712,0.5384773015975952,-0.08002328872680664
1710891316237463300,5.88746337890625,-0.555276095867157,0.6026180982589722,-0.04673115536570549
1710891316256423200,5.906423095703125,-0.5797106623649597,0.6267472505569458,-0.007330377586185932
1710891316275383000,5.925383056640625,-0.5537489056587219,0.6340776681900024,-0.01282816007733345
1710891316294343200,5.94434326171875,-0.462424635887146,0.6267472505569458,0.008552107028663158
1710891316313303000,5.963302978515625,-0.41447174549102783,0.5555815100669861,0.06750056147575378
1710891316332263000,5.982262939453125,-0.39889469742774963,0.4862483739852905,0.12553271651268005
1710891316351223000,6.00122314453125,-0.35216355323791504,0.4416552484035492,0.13988803327083588
1710891316370183000,6.020182861328125,-0.2984074354171753,0.3845393657684326,0.13072505593299866
1710891316389143000,6.03914306640625,-0.2874118685722351,0.35796675086021423,0.11606431007385254
1710891316408103000,6.05810302734375,-0.2669478952884674,0.37659814953804016,0.13683371245861053
1710891316427062800,6.077062744140625,-0.2626718580722809,0.3582721948623657,0.09590577334165573
1710891316446023000,6.09602294921875,-0.24862197041511536,0.34574946761131287,0.0769689604640007
1710891316464982800,6.114982666015625,-0.2559523284435272,0.36743515729904175,0.06414080411195755
1710891316483943000,6.13394287109375,-0.2782489061355591,0.30543237924575806,0.06414080411195755
1710891316502902800,6.15290283203125,-0.27916520833969116,0.22479823231697083,0.04153880476951599
1710891316521863000,6.17186279296875,-0.2828303873538971,0.2052505612373352,0.019853105768561363
1710891316540822800,6.19082275390625,-0.27458372712135315,0.24342961609363556,0.0360410213470459
1710891316559783000,6.209782958984375,-0.25809037685394287,0.27091851830482483,0.07024945318698883
1710891316578742800,6.22874267578125,-0.2516762912273407,0.2886336147785187,0.07269290834665298
1710891316597703000,6.247702880859375,-0.24220788478851318,0.26542073488235474,0.06536252796649933
1710891316616662800,6.266662841796875,-0.21288637816905975,0.21807873249053955,0.07269290834665298
1710891316635623000,6.285622802734375,-0.17318016290664673,0.185092031955719,0.09010255336761475
1710891316654582800,6.304582763671875,-0.1496618688106537,0.16737695038318634,0.10079269111156464
1710891316673543000,6.32354296875,-0.1285870373249054,0.17806708812713623,0.10506874322891235
1710891316692502800,6.342502685546875,-0.11392628401517868,0.17531819641590118,0.10567960888147354
1710891316711463000,6.361462890625,-0.10903936624526978,0.18417572975158691,0.08491020649671555
1710891316730422800,6.3804228515625,-0.09468404203653336,0.20250166952610016,0.0769689604640007
1710891316749382700,6.399382568359375,-0.10506874322891235,0.18356487154960632,0.05742128938436508
1710891316768342800,6.4183427734375,-0.1233946830034256,0.19089524447917938,0.04459312930703163
1710891316787302700,6.437302734375,-0.13713914155960083,0.22663083672523499,0.051618073135614395
1710891316806262800,6.4562626953125,-0.1701258420944214,0.23548837006092072,0.05192350596189499
1710891316825222700,6.47522265625,-0.19333870708942413,0.272751122713089,0.04978547990322113
1710891316844182800,6.494182861328125,-0.20372340083122253,0.3176496922969818,0.0360410213470459
1710891316863143000,6.513142822265625,-0.23396120965480804,0.33017241954803467,0.020769402384757996
1710891316882102800,6.532102783203125,-0.24770566821098328,0.2971857190132141,0.017104214057326317
1710891316901063000,6.55106298828125,-0.23518294095993042,0.2263254076242447,0.07452550530433655
1710891316920022800,6.570022705078125,-0.1484401375055313,0.1536324918270111,0.06994401663541794
1710891316938983000,6.58898291015625,-0.03237583488225937,0.03787361457943916,0.05100720748305321
1710891316957942800,6.60794287109375,0.06933315098285675,-0.2309068888425827,0.08491020649671555
1710891316976903000,6.62690283203125,0.22663083672523499,-0.6743947267532349,0.07422006875276566
1710891316995862800,6.64586279296875,0.4166097939014435,-1.1976003646850586,0.08399390429258347
1710891317014823000,6.664822998046875,0.6255255341529846,-1.638950228691101,0.2055560052394867
1710891317033782800,6.68378271484375,0.859792172908783,-1.9382739067077637,0.37323838472366333
1710891317052743000,6.702742919921875,1.1594213247299194,-2.1251986026763916,0.5018253922462463
1710891317071702800,6.721702880859375,1.431867003440857,-2.160017967224121,0.6508764028549194
1710891317090663000,6.740662841796875,1.5974113941192627,-2.0408992767333984,0.7660244107246399
1710891317109622800,6.759622802734375,1.7739512920379639,-1.7458515167236328,0.7806851863861084
1710891317128583000,6.7785830078125,1.824653148651123,-1.3942989110946655,0.7696896195411682
1710891317147542800,6.797542724609375,1.8255693912506104,-1.303279995918274,0.7235693335533142
1710891317166503000,6.8165029296875,1.8261802196502686,-1.3390156030654907,0.5543597936630249
1710891317185463000,6.835463134765625,1.8243476152420044,-1.0305289030075073,0.32131487131118774
1710891317204423000,6.8544228515625,1.7767002582550049,-0.3659079968929291,0.11209368705749512
1710891317223383000,6.873383056640625,1.6114612817764282,0.2910770773887634,-0.04978547990322113
1710891317242343000,6.892343017578125,1.36772620677948,0.8087849617004395,-0.1279761642217636
1710891317261303000,6.911302978515625,1.112079381942749,0.9462295174598694,-0.08979712426662445
1710891317280263200,6.93026318359375,0.9294307827949524,0.6780598759651184,-0.0824667438864708
1710891317299223000,6.94922314453125,0.8127555847167969,0.20891575515270233,-0.09437860548496246
1710891317318183200,6.96818310546875,0.7144063711166382,-0.22449280321598053,0.010384701192378998
1710891317337143300,6.987143310546875,0.6160571575164795,-0.4780016839504242,0.06750056147575378
1710891317356103200,7.006103271484375,0.5583304166793823,-0.5241219997406006,-0.005803215317428112
1710891317375063300,7.025063232421875,0.583375871181488,-0.4169152081012726,-0.10445787757635117
1710891317394023400,7.0440234375,0.6511818766593933,-0.18753549456596375,-0.10720676928758621
1710891317412983300,7.0629833984375,0.674700140953064,0.0821613147854805,-0.057726722210645676
1710891317431943400,7.081943359375,0.6783653497695923,0.29474225640296936,-0.06047561392188072
1710891317450903600,7.100903564453125,0.7373138070106506,0.3277289569377899,-0.08002328872680664
1710891317469863400,7.119863525390625,0.7739656567573547,0.2614501118659973,-0.05436696484684944
1710891317488823300,7.1388232421875,0.7953459620475769,0.12492185086011887,0.017104214057326317
1710891317507783400,7.157783447265625,0.7987056970596313,0.01282816007733345,0.09162971377372742
1710891317526743600,7.17674365234375,0.7980948090553284,-0.0565049909055233,0.129197895526886
1710891317545703700,7.19570361328125,0.7898481488227844,-0.07605266571044922,0.15760311484336853
1710891317564663600,7.21466357421875,0.8035926222801208,-0.13225223124027252,0.18325942754745483
1710891317583623700,7.233623779296875,0.8255837559700012,-0.16096286475658417,0.2052505612373352
1710891317602583800,7.252583740234375,0.915686309337616,-0.1844811588525772,0.1698204129934311
1710891317621543700,7.271543701171875,0.9245438575744629,-0.10506874322891235,0.19120067358016968
1710891317640503800,7.29050390625,0.9049961566925049,-0.043371398001909256,0.21777328848838806
1710891317659464000,7.3094638671875,0.9789108037948608,-0.04245510324835777,0.2009745091199875
1710891317678424000,7.328424072265625,1.036942958831787,-0.025961752980947495,0.23426663875579834
1710891317697384000,7.347384033203125,1.0458004474639893,-0.046425722539424896,0.2938259541988373
1710891317716344000,7.366343994140625,1.0852012634277344,-0.09987638890743256,0.2965748608112335
1710891317735304000,7.385303955078125,1.1352921724319458,-0.09590577334165573,0.3237583339214325
1710891317754264000,7.40426416015625,1.1487312316894531,-0.09712749719619751,0.374765545129776
1710891317773224200,7.42322412109375,1.155145287513733,-0.14172062277793884,0.34636032581329346
1710891317792184300,7.442184326171875,1.165224552154541,-0.010690134018659592,0.3396408259868622
1710891317811144400,7.46114453125,1.102000117301941,-0.018631376326084137,0.3897317349910736
1710891317830104300,7.480104248046875,1.0952805280685425,-0.05497783049941063,0.3607156574726105
1710891317849064400,7.499064453125,1.0882556438446045,-0.03481929376721382,0.3179551064968109
1710891317868024600,7.518024658203125,1.0622938871383667,-0.0668896958231926,0.3329212963581085
1710891317886984400,7.536984375,0.9886846542358398,-0.1230892539024353,0.3484983444213867
1710891317905944600,7.555944580078125,0.8854485154151917,-0.16798780858516693,0.3381136655807495
1710891317924904700,7.57490478515625,0.7681624889373779,-0.05864302068948746,0.25992295145988464
1710891317943864800,7.59386474609375,0.5958985686302185,-0.010995565913617611,0.18814635276794434
1710891317962824700,7.61282470703125,0.4108065664768219,-0.019242240116000175,0.07757982611656189
1710891317981784800,7.631784912109375,0.250149130821228,0.028099779039621353,0.010995565913617611
1710891318000745000,7.650744873046875,0.019242240116000175,0.1230892539024353,-0.04917461425065994
1710891318019705000,7.669705078125,-0.22388194501399994,0.19914191961288452,-0.13683371245861053
1710891318038665200,7.688665283203125,-0.3851502537727356,0.07971785217523575,-0.3072649836540222
1710891318057625000,7.707625,-0.48563748598098755,0.0818558782339096,-0.4050033390522003
1710891318076585200,7.726585205078125,-0.6017017960548401,0.17531819641590118,-0.3738492429256439
1710891318095545300,7.74554541015625,-0.7660244107246399,0.15607595443725586,-0.3283398151397705
1710891318114505500,7.76450537109375,-0.961195707321167,0.04550942778587341,-0.3402516841888428
1710891318133465600,7.783465576171875,-1.0586286783218384,-0.07513637095689774,-0.4682278633117676
1710891318152425500,7.802425537109375,-1.130405306816101,-0.0513126403093338,-0.6866120100021362
1710891318171385600,7.821385498046875,-1.2003493309020996,0.07941242307424545,-0.9291253089904785
1710891318190345700,7.840345703125,-1.2360849380493164,0.2623664140701294,-1.071456789970398
1710891318209305900,7.859305908203125,-1.2253947257995605,0.5338957905769348,-1.1517854928970337
1710891318228265700,7.878265625,-1.2629629373550415,0.6976075768470764,-1.2773182392120361
1710891318247225900,7.897225830078125,-1.3616175651550293,0.6319395899772644,-1.3997966051101685
1710891318266186000,7.91618603515625,-1.3991857767105103,0.46059203147888184,-1.413846492767334
1710891318285146000,7.93514599609375,-1.4107922315597534,0.3035998046398163,-1.4135410785675049
1710891318304106200,7.954106201171875,-1.4144574403762817,0.16768237948417664,-1.4593559503555298
1710891318323066400,7.97306640625,-1.3271037340164185,0.10109812021255493,-1.5387684106826782
1710891318342026200,7.992026123046875,-1.237917423248291,0.24953825771808624,-1.5378520488739014
1710891318360986400,8.010986328125,-1.242193579673767,0.46608981490135193,-1.4593559503555298
1710891318379946500,8.029946533203125,-1.3613121509552002,0.5482511520385742,-1.433088779449463
1710891318398906600,8.04890673828125,-1.5332705974578857,0.5061014890670776,-1.3335177898406982
1710891318417866800,8.06786669921875,-1.848476767539978,0.42271843552589417,-1.1026109457015991
1710891318436827000,8.086826904296874,-2.3124287128448486,0.19608759880065918,-0.68386310338974
1710891318455787000,8.105787109375,-2.422384262084961,-0.3072649836540222,-0.7360920310020447
1710891318474747100,8.1247470703125,-2.209803342819214,-1.1062761545181274,-1.451720118522644
1710891318493707000,8.14370703125,-2.3185372352600098,-1.3548980951309204,-1.9721769094467163
1710891318512667100,8.162667236328126,-2.86159610748291,-0.739757239818573,-1.7898337841033936
1710891318531627300,8.181627197265625,-2.5867068767547607,0.43401941657066345,-2.0418155193328857
1710891318550587400,8.20058740234375,-2.2867722511291504,1.1853830814361572,-2.3011276721954346
1710891318569547500,8.219547607421875,-2.2980732917785645,2.0470077991485596,-2.3118176460266113
1710891318588507600,8.238507568359376,-2.5106542110443115,2.581514596939087,-2.1496331691741943
1710891318607467800,8.2574677734375,-2.545168161392212,2.849989652633667,-2.064417600631714
1710891318626428000,8.276427978515626,-2.447735071182251,3.0973899364471436,-2.0949606895446777
1710891318645387800,8.2953876953125,-2.4349069595336914,3.540266752243042,-1.904065489768982
1710891318664348000,8.314347900390626,-2.620304584503174,3.9495463371276855,-1.5488476753234863
1710891318683308000,8.33330810546875,-2.7849326133728027,4.12516975402832,-1.1658353805541992
1710891318702268200,8.35226806640625,-2.7895140647888184,4.104094982147217,-0.7147117853164673
1710891318721228300,8.371228271484375,-2.7840161323547363,3.9632906913757324,-0.2208276242017746
1710891318740188400,8.3901884765625,-2.631910800933838,3.5085017681121826,-0.17134757339954376
1710891318759148500,8.4091484375,-2.4886631965637207,2.196058988571167,-0.3072649836540222
1710891318778108700,8.428108642578126,-2.5332562923431396,0.8432988524436951,-0.3448331654071808
1710891318797068800,8.44706884765625,-2.5436408519744873,0.1490510106086731,-0.5812378525733948
1710891318816029000,8.46602880859375,-2.5442519187927246,-0.43951719999313354,-0.7748819589614868
1710891318834989000,8.484989013671875,-2.381150960922241,-0.8066469430923462,-0.9211840629577637
1710891318853949000,8.503948974609376,-1.950491189956665,-0.7672461867332458,-1.089477300643921
1710891318872909000,8.522908935546875,-1.6148210763931274,-0.17715078592300415,-1.0986403226852417
1710891318891869200,8.541869140625,-1.4489712715148926,0.6976075768470764,-0.9960150122642517
1710891318910829300,8.560829345703125,-1.4538581371307373,1.240360975265503,-0.7525854110717773
1710891318929789400,8.57978955078125,-1.314886450767517,0.9550870656967163,-0.4871646761894226
1710891318948749600,8.59874951171875,-0.8683443069458008,0.26358816027641296,-0.34636032581329346
1710891318967709700,8.617709716796876,-0.4508182108402252,-0.3549124300479889,-0.3998109996318817
1710891318986669800,8.636669921875,-0.2632827162742615,-0.6640099883079529,-0.33322674036026
1710891319005630000,8.6556298828125,-0.05222893878817558,-0.4324922561645508,-0.31673339009284973
1710891319024590000,8.674590087890625,0.13255766034126282,0.15760311484336853,-0.33628106117248535
1710891319043550200,8.69355029296875,0.26389357447624207,0.7718276381492615,-0.38179048895835876
1710891319062510000,8.712510009765625,0.2367101013660431,1.4175117015838623,-0.2919933497905731
1710891319081470200,8.73147021484375,0.0668896958231926,1.7919718027114868,-0.06536252796649933
1710891319100430300,8.750430419921875,0.023212861269712448,1.7883065938949585,0.23426663875579834
1710891319119390500,8.769390380859376,-0.03634645417332649,1.711643099784851,0.5754346251487732
1710891319138350600,8.7883505859375,-0.20922118425369263,1.6447534561157227,0.7932079434394836
1710891319157310700,8.807310791015626,-0.16829325258731842,1.7229441404342651,1.0748165845870972
1710891319176270800,8.826270751953125,-0.250149130821228,2.5949535369873047,1.3720022439956665
1710891319195231000,8.84523095703125,-0.33017241954803467,2.906189203262329,1.6759074926376343
1710891319214191000,8.864191162109375,-0.2910770773887634,2.4770567417144775,1.644142508506775
1710891319233151200,8.883151123046876,-0.04764745384454727,1.1133010387420654,1.2101231813430786
1710891319252111400,8.902111328125,0.09437860548496246,-0.7522799968719482,1.0216712951660156
1710891319271071500,8.921071533203126,0.2605338394641876,-2.000887632369995,0.934623122215271
1710891319290031600,8.940031494140625,0.30146175622940063,-1.6056580543518066,0.5296197533607483
1710891319308991700,8.95899169921875,0.06536252796649933,-1.0855066776275635,0.2162461280822754
1710891319327952000,8.977951904296875,0.11881320178508759,-0.527481734752655,0.17806708812713623
1710891319346911700,8.996911865234376,0.44898560643196106,0.1081230640411377,0.011911863461136818
1710891319365871900,9.015871826171875,0.7498365044593811,0.23365578055381775,-0.16737695038318634
1710891319384832000,9.03483203125,0.9660826325416565,0.09712749719619751,-0.3124573230743408
1710891319403792100,9.053792236328125,1.0054833889007568,-0.08674279600381851,-0.36163195967674255
1710891319422752300,9.072752197265626,1.0106757879257202,-0.24556763470172882,-0.23487751185894012
1710891319441712400,9.09171240234375,0.888502836227417,-0.16249002516269684,-0.006719512399286032
1710891319460672500,9.110672607421876,0.6389645338058472,-0.06933315098285675,0.17043127119541168
1710891319479632600,9.129632568359375,0.5549706816673279,-0.22754712402820587,0.15729768574237823
1710891319498592800,9.1485927734375,0.6548470258712769,-0.41386088728904724,0.09315688163042068
1710891319517553000,9.167552978515625,0.7137954831123352,-0.30634868144989014,0.014966187067329884
1710891319536513000,9.186512939453126,0.6860011219978333,0.019853105768561363,-0.03817904740571976
1710891319555473000,9.205472900390625,0.5439751148223877,0.4059196412563324,0.0766635313630104
1710891319574433000,9.22443310546875,0.32192572951316833,0.7825177907943726,0.19944734871387482
1710891319593393400,9.243393310546875,0.060781046748161316,0.674700140953064,0.2370155304670334
1710891319612353500,9.262353515625,0.04306596517562866,0.19242240488529205,0.20127993822097778
1710891319631313400,9.2813134765625,0.09896009415388107,-0.22449280321598053,0.13194678723812103
1710891319650273500,9.3002734375,0.2528980076313019,-0.3894262909889221,0.18631376326084137
1710891319669233700,9.319233642578125,0.27580544352531433,0.3090975880622864,0.3695732057094574
1710891319688193800,9.33819384765625,0.016798781231045723,1.2266165018081665,0.5296197533607483
1710891319707154000,9.35715380859375,0.04550942778587341,1.4666863679885864,0.6847794055938721
1710891319726114000,9.376114013671875,0.2660316228866577,1.1927134990692139,0.9196569323539734
1710891319745074200,9.39507421875,0.29413139820098877,1.0858120918273926,1.1563670635223389
1710891319764034300,9.414034423828125,0.2202167510986328,0.02779434807598591,0.8219185471534729
1710891319782994400,9.432994384765625,0.6050615906715393,-1.4575233459472656,0.4468475878238678
1710891319801954600,9.45195458984375,0.8744529485702515,-1.6936225891113281,-0.022296564653515816
1710891319820914700,9.470914794921875,0.5986474752426147,-1.2980875968933105,-0.14508038759231567
1710891319839874600,9.48987451171875,0.0824667438864708,-0.7235693335533142,-0.19792018830776215
1710891319858834700,9.508834716796875,-0.2608392536640167,-0.6817250847816467,-0.3494146466255188
1710891319877794800,9.527794921875,-0.09468404203653336,-1.4556907415390015,-0.40744680166244507
1710891319896755000,9.5467548828125,0.168904110789299,-2.718348264694214,-0.5076286196708679
1710891319915715000,9.565715087890625,0.3176496922969818,-3.579972982406616,-0.6062833070755005
1710891319934675200,9.58467529296875,0.2968802750110626,-3.7241370677948,-0.5589412450790405
1710891319953635300,9.60363525390625,0.3552178740501404,-3.338986873626709,-0.4572322964668274
1710891319972595500,9.622595458984375,0.49999281764030457,-2.576627731323242,-0.31520622968673706
1710891319991555600,9.6415556640625,0.6404917240142822,-1.7076724767684937,-0.19700388610363007
1710891320010515700,9.660515625,0.7067705392837524,-1.053436279296875,-0.09804379940032959
1710891320029475800,9.679475830078125,0.795040488243103,-0.9123265743255615,0.010079269297420979
1710891320048435700,9.698435791015624,0.8940005898475647,-1.3274091482162476,0.12156209349632263
1710891320067395800,9.717395751953125,1.043662428855896,-1.9306381940841675,0.2513708472251892
1710891320086356000,9.73635595703125,1.1643083095550537,-2.620304584503174,0.41874781250953674
1710891320105316000,9.755316162109375,1.283732295036316,-3.1975717544555664,0.574212908744812
1710891320124276200,9.774276123046874,1.3735294342041016,-3.327991247177124,0.7082977294921875
1710891320143236400,9.793236328125,1.469740629196167,-2.9914047718048096,0.7614429593086243
1710891320162196500,9.812196533203124,1.673769474029541,-2.308458089828491,0.7021890878677368
1710891320181156600,9.831156494140625,1.7913609743118286,-1.4092650413513184,0.5891790986061096
1710891320200116700,9.85011669921875,1.5659518241882324,-0.2525925934314728,0.5143481492996216
1710891320219076900,9.869076904296875,1.2260055541992188,0.9566142559051514,0.5018253922462463
1710891320238036700,9.88803662109375,1.018311619758606,1.6499457359313965,0.5030471682548523
1710891320256996900,9.906996826171875,1.0021237134933472,1.4379756450653076,0.383928507566452
1710891320275957000,9.92595703125,0.943786084651947,0.4056142270565033,-0.04276053607463837
1710891320294917000,9.944917236328125,0.6511818766593933,-0.6606502532958984,-0.3836230933666229
1710891320313877200,9.963877197265624,0.5140427350997925,-1.008537769317627,-0.33689191937446594
1710891320332837400,9.98283740234375,0.3646862804889679,-0.7064651250839233,-0.47494736313819885
1710891320351797500,10.001797607421874,0.15027274191379547,-0.5348120927810669,-0.8268054723739624
1710891320370757400,10.02075732421875,0.019853105768561363,-0.40255987644195557,-1.1331541538238525
1710891320389717500,10.039717529296874,-0.029626941308379173,0.3182605504989624,-1.2699878215789795
1710891320408677600,10.058677734375,-0.21471896767616272,1.2018764019012451,-1.1160500049591064
1710891320427637800,10.0776376953125,-0.6178897023200989,1.8017456531524658,-0.9028581380844116
1710891320446598000,10.096597900390625,-0.7803797721862793,2.0051636695861816,-0.9123265743255615
1710891320465558000,10.11555810546875,-0.8701768517494202,2.464839458465576,-0.8139773011207581
1710891320484518100,10.13451806640625,-1.2550216913223267,2.4400994777679443,-0.4725039005279541
1710891320503478300,10.153478271484374,-1.5128066539764404,1.889099359512329,-0.28435754776000977
1710891320522438400,10.1724384765625,-1.2034035921096802,0.7959567904472351,-0.20769402384757996
1710891320541398300,10.191398193359374,-1.1218531131744385,-0.4783071279525757,0
1710891320560358400,10.2103583984375,-1.4468332529067993,-0.32009315490722656,0.15699224174022675
1710891320579318500,10.229318603515624,-1.4651591777801514,0.5051851868629456,0.19089524447917938
1710891320598278700,10.248278564453125,-1.2467750310897827,0.7431169748306274,0.18784092366695404
1710891320617238800,10.26723876953125,-1.1407899856567383,0.4608974754810333,0.27427828311920166
1710891320636199000,10.286198974609375,-0.868955135345459,0.11881320178508759,0.27519458532333374
1710891320655159000,10.305158935546874,-0.5537489056587219,-0.11514800786972046,0.3130682110786438
1710891320674119200,10.324119140625,-0.22999058663845062,0.02779434807598591,0.35766133666038513
1710891320693079000,10.3430791015625,0.06383536756038666,0.1334739476442337,0.3549124300479889
1710891320712039200,10.3620390625,0.25045454502105713,0.1334739476442337,0.4062250852584839
1710891320730999300,10.380999267578124,0.31490078568458557,0.09621120244264603,0.528092622756958
1710891320749959400,10.39995947265625,0.3277289569377899,0.11331541836261749,0.6896663308143616
1710891320768919600,10.41891943359375,0.2715294063091278,0.21258094906806946,0.9776890873908997
1710891320787879700,10.437879638671875,0.12278381735086441,0.18112140893936157,1.1420117616653442
1710891320806839600,10.456839599609374,0.030543239787220955,0.017715077847242355,1.1212422847747803
1710891320825799700,10.475799560546875,0.05039634555578232,-0.2813032269477844,1.028390884399414
1710891320844759800,10.494759765625,0.07391463965177536,-0.3759872615337372,0.9208786487579346
1710891320863720000,10.513719970703125,0.05955931544303894,-0.38240134716033936,0.7510582208633423
1710891320882680000,10.53268017578125,0.07605266571044922,-0.383928507566452,0.5623010396957397
1710891320901640200,10.55164013671875,0.07788526266813278,-0.2929096519947052,0.3634645342826843
1710891320920600000,10.57060009765625,-0.009773836471140385,-0.20647229254245758,0.26450446248054504
1710891320939560200,10.589560302734375,-0.08949168771505356,-0.11423171311616898,0.27519458532333374
1710891320958520300,10.608520263671876,-0.07452550530433655,-0.12186752259731293,0.16615521907806396
1710891320977480400,10.62748046875,-0.07849612087011337,-0.1740964651107788,0.08491020649671555
1710891320996440600,10.646440673828126,-0.07299833744764328,-0.25442516803741455,-0.02260199747979641
1710891321015400700,10.665400634765625,-0.07360920310020447,-0.3225366175174713,-0.08765909820795059
1710891321034360600,10.684360595703126,-0.06872228533029556,-0.406530499458313,-0.09834922850131989
1710891321053320700,10.70332080078125,-0.09682206809520721,-0.37720900774002075,-0.1585194170475006
1710891321072280800,10.72228076171875,-0.10873392969369888,-0.2919933497905731,-0.21777328848838806
1710891321091241000,10.741240966796875,-0.13164135813713074,-0.22510367631912231,-0.21685700118541718
1710891321110201000,10.760201171875,-0.13439024984836578,-0.19333870708942413,-0.18264856934547424
1710891321129161000,10.779160888671875,-0.09071341902017593,-0.12431098520755768,-0.17684535682201385
1710891321148121000,10.79812109375,-0.0256563201546669,-0.1081230640411377,-0.18906265497207642
1710891321167081200,10.817081298828125,0.01282816007733345,-0.07360920310020447,-0.16829325258731842
1710891321186041300,10.836041259765626,-0.01649334840476513,0.04581485688686371,-0.2052505612373352
1710891321205001500,10.85500146484375,0.0513126403093338,0.08338304609060287,-0.26542073488235474
1710891321223961300,10.87396142578125,0.10415244847536087,0.1646280586719513,-0.27947062253952026
1710891321242921500,10.89292138671875,0.03176496922969818,0.30146175622940063,-0.26511532068252563
1710891321261881600,10.911881591796876,-0.027488915249705315,0.22999058663845062,-0.23243404924869537
1710891321280841700,10.930841796875,0.01740964688360691,0.15760311484336853,-0.2461785078048706
1710891321299801900,10.9498017578125,0.03298669680953026,0.0772743970155716,-0.3029889166355133
1710891321318762000,10.968761962890625,-0.008857538923621178,0.10506874322891235,-0.2733619809150696
1710891321337721900,10.987721923828126,0.03176496922969818,0.2006690800189972,-0.26908594369888306
1710891321356682000,11.006681884765625,0.10598503798246384,0.277332603931427,-0.25411975383758545
1710891321375642000,11.02564208984375,0.20647229254245758,0.22327107191085815,-0.314289927482605
1710891321394602200,11.044602294921875,0.36743515729904175,0.03390299528837204,-0.34574946761131287
1710891321413562400,11.063562255859376,0.42913252115249634,-0.2458730787038803,-0.35063639283180237
1710891321432522500,11.0825224609375,0.3854556679725647,-0.5302306413650513,-0.3194822669029236
1710891321451482400,11.101482421875,0.44440412521362305,-0.5900954008102417,-0.38789913058280945
1710891321470442500,11.1204423828125,0.6869174242019653,-0.6044507026672363,-0.638353705406189
1710891321489402600,11.139402587890626,0.8261946439743042,-0.7623592615127563,-0.8274163603782654
1710891321508362800,11.15836279296875,0.7241802215576172,-0.7525854110717773,-0.9227112531661987
1710891321527323000,11.177322998046876,0.7770199775695801,-1.128878116607666,-0.8585704565048218
1710891321546283000,11.196282958984375,1.1450660228729248,-1.7904446125030518,-0.702799916267395
1710891321565243000,11.215242919921875,1.6988149881362915,-2.612057685852051,-0.6615665555000305
1710891321584203000,11.234203125,2.1193952560424805,-3.4193155765533447,-0.685390293598175
1710891321603163100,11.2531630859375,2.291659116744995,-3.34173583984375,-0.39675667881965637
1710891321622123300,11.272123291015625,2.472780704498291,-2.6358814239501953,0.1178968995809555
1710891321641083400,11.29108349609375,2.7149884700775146,-2.234848737716675,0.5598575472831726
1710891321660043500,11.31004345703125,2.9575018882751465,-2.366184711456299,0.8329141139984131
1710891321679003600,11.329003662109375,3.2195627689361572,-2.9287912845611572,1.0149518251419067
1710891321697963800,11.3479638671875,3.5158321857452393,-3.5701992511749268,1.2076796293258667
1710891321716923600,11.366923583984375,3.77453351020813,-3.716195821762085,1.5265511274337769
1710891321735883800,11.3858837890625,4.040870666503906,-3.3344054222106934,1.943160891532898
1710891321754844000,11.404843994140625,4.136776447296143,-2.3377795219421387,2.4834706783294678
1710891321773804000,11.423803955078125,3.9629852771759033,-1.0558797121047974,2.8512113094329834
1710891321792764200,11.44276416015625,3.830733060836792,-0.051618073135614395,2.855792760848999
1710891321811724300,11.461724365234375,3.718944787979126,0.5497782826423645,2.7620251178741455
1710891321830684400,11.480684326171875,3.546070098876953,0.7852666974067688,2.626718521118164
1710891321849644500,11.49964453125,3.2934775352478027,0.2864955961704254,2.3628249168395996
1710891321868604700,11.518604736328125,3.031111001968384,-0.4776962697505951,2.1169519424438477
1710891321887564800,11.537564697265625,2.7537784576416016,-0.796262264251709,2.0069961547851562
1710891321906524700,11.556524658203125,2.413526773452759,-1.0045671463012695,1.785557746887207
1710891321925484800,11.57548486328125,2.1166465282440186,-0.8429933786392212,1.6322306394577026
1710891321944445000,11.59444482421875,1.6725478172302246,-0.4862483739852905,1.571755051612854
1710891321963405000,11.613405029296874,1.286786675453186,-0.2516762912273407,1.342680811882019
1710891321982365200,11.632365234375,1.0039563179016113,0.000610864779446274,1.0916153192520142
1710891322001325300,11.6513251953125,0.7874047160148621,0.13683371245861053,0.711046576499939
1710891322020285400,11.670285400390625,0.6001746654510498,0.3433060050010681,0.17592905461788177
1710891322039245600,11.68924560546875,0.2415970265865326,0.8921679854393005,-0.11575887352228165
1710891322058205400,11.708205322265625,-0.11392628401517868,1.4685189723968506,-0.3787361681461334
1710891322077165600,11.72716552734375,-0.5571087002754211,2.0048582553863525,-0.2309068888425827
1710891322096125700,11.746125732421875,-0.6869174242019653,1.619402527809143,-0.027488915249705315
1710891322115085800,11.7650859375,-0.2614501118659973,-0.07757982611656189,-0.2110537886619568
1710891322134046000,11.7840458984375,0.06322450190782547,-1.3820815086364746,-0.3298669755458832
1710891322153006000,11.803006103515624,0.4111120104789734,-1.2892301082611084,-0.3029889166355133
1710891322171966200,11.82196630859375,0.35643959045410156,-0.06200277432799339,-0.24526220560073853
1710891322190926300,11.84092626953125,0.2562577724456787,1.3781108856201172,-0.2868010103702545
1710891322209886500,11.859886474609375,0.18906265497207642,1.647196888923645,-0.19914191961288452
1710891322228846600,11.8788466796875,0.18387030065059662,1.0937533378601074,-0.06872228533029556
1710891322247806700,11.897806640625,0.06108647957444191,0.4621191918849945,0.2712239623069763
1710891322266766800,11.916766845703124,-0.18631376326084137,0.10567960888147354,0.49144071340560913
1710891322285727000,11.93572705078125,-0.43921178579330444,0.016798781231045723,0.4831940531730652
1710891322304686800,11.954686767578124,-0.471587598323822,0.01588248461484909,0.3961458206176758
1710891322323647000,11.97364697265625,-0.4016436040401459,0.050090912729501724,0.28435754776000977
1710891322342607000,11.992607177734374,-0.4062250852584839,0.1695149689912796,0.2003636509180069
1710891322361567200,12.011567138671875,-0.5213730931282043,0.3811796307563782,0.09865466505289078
1710891322380527400,12.03052734375,-0.6160571575164795,0.6869174242019653,-0.053145237267017365
1710891322399487500,12.049487548828125,-0.5140427350997925,0.963333785533905,-0.16279546916484833
1710891322418447600,12.068447509765624,-0.4156934916973114,1.099556565284729,-0.21777328848838806
1710891322437407700,12.08740771484375,-0.4114174246788025,1.0387755632400513,-0.23793183267116547
1710891322456367900,12.106367919921874,-0.34147340059280396,0.8588758707046509,-0.1591302752494812
1710891322475328000,12.125327880859375,-0.12950333952903748,0.6872228980064392,-0.0720820426940918
1710891322494288100,12.1442880859375,-0.11423171311616898,0.5980366468429565,-0.08093958348035812
1710891322513248300,12.163248291015625,-0.26450446248054504,0.776714563369751,-0.1334739476442337
1710891322532208400,12.18220849609375,-0.3442223072052002,0.9502001404762268,-0.12217295914888382
1710891322551168500,12.20116845703125,-0.3280344009399414,0.8527672290802002,-0.08155044913291931
1710891322570128600,12.220128662109374,-0.2525925934314728,0.5635227560997009,-0.07055488228797913
1710891322589088800,12.2390888671875,-0.18723005056381226,0.2519817352294922,-0.07269290834665298
1710891322608049000,12.258048828125,-0.12522727251052856,0.16187916696071625,-0.12064579129219055
1710891322627009000,12.277009033203125,-0.16676609218120575,0.3271180987358093,-0.18112140893936157
1710891322645969200,12.29596923828125,-0.1646280586719513,0.45387253165245056,-0.20952661335468292
1710891322664929300,12.31492919921875,-0.05039634555578232,0.43951719999313354,-0.14019346237182617
1710891322683889400,12.333889404296874,0.018631376326084137,0.2669478952884674,-0.14141519367694855
1710891322702849500,12.352849609375,0.0720820426940918,0.15149445831775665,-0.05925388261675835
1710891322721809700,12.3718095703125,0.13041962683200836,0.035124726593494415,0.05436696484684944
1710891322740769800,12.390769775390625,0.10048725455999374,-0.205861434340477,0.07269290834665298
1710891322759730000,12.40972998046875,0.09834922850131989,-0.4770853817462921,0.14202606678009033
1710891322778690000,12.42868994140625,0.11087195575237274,-0.5439751148223877,0.24831652641296387
1710891322797650200,12.447650146484374,0.16035200655460358,-0.6154462695121765,0.32162031531333923
1710891322816610300,12.4666103515625,0.25961753726005554,-0.7605266571044922,0.3023780584335327
1710891322835570400,12.4855703125,0.324063777923584,-0.8909462690353394,0.2987128794193268
1710891322854530600,12.504530517578125,0.31031930446624756,-0.9563088417053223,0.2706131041049957
1710891322873490700,12.52349072265625,0.2822195291519165,-0.7877101302146912,0.21716243028640747
1710891322892450800,12.542450927734375,0.2632827162742615,-0.6918043494224548,0.2110537886619568
1710891322911411000,12.561410888671874,0.32650721073150635,-0.5229002237319946,0.22418737411499023
1710891322930371000,12.58037109375,0.4251618981361389,-0.48105600476264954,0.21135921776294708
1710891322949331200,12.599331298828124,0.5149590373039246,-0.565049946308136,0.24556763470172882
1710891322968291300,12.618291259765625,0.5543597936630249,-0.6298015713691711,0.3552178740501404
1710891322987251500,12.63725146484375,0.6594285368919373,-0.7171552777290344,0.46364638209342957
1710891323006211600,12.656211669921875,0.647516667842865,-0.9654718041419983,0.6496546864509583
1710891323025171700,12.675171630859374,0.5623010396957397,-1.4556907415390015,0.8298597931861877
1710891323044131800,12.6941318359375,0.35124725103378296,-1.898873209953308,0.9761618971824646
1710891323063092000,12.713092041015624,-0.12675444781780243,-2.2278237342834473,0.897665798664093
1710891323082052400,12.73205224609375,-0.7748819589614868,-2.780656576156616,0.6209440231323242
1710891323101012500,12.751012451171874,-1.2641847133636475,-2.9932374954223633,0.3601047992706299
1710891323119972600,12.76997265625,-1.452636480331421,-2.8399102687835693,0.009773836471140385
1710891323138932700,12.7889326171875,-1.5063925981521606,-2.623664140701294,-0.5561923980712891
1710891323157892900,12.807892822265625,-1.471267819404602,-1.9233077764511108,-0.9621120095252991
1710891323176853000,12.82685302734375,-1.2513564825057983,-0.9089667797088623,-1.2632683515548706
1710891323195813000,12.845813232421875,-1.1768310070037842,0.17806708812713623,-1.515555500984192
1710891323214773200,12.864773193359374,-1.3142756223678589,0.9025527238845825,-1.5036436319351196
1710891323233733400,12.8837333984375,-1.45294189453125,0.9013310074806213,-1.1743875741958618
1710891323252693500,12.902693603515624,-1.3894119262695312,0.5287034511566162,-0.8161153197288513
1710891323271653600,12.921653564453125,-1.3234385251998901,-0.33231043815612793,-0.7278453707695007
1710891323290613800,12.94061376953125,-1.3045017719268799,-0.9034690260887146,-0.5632173418998718
1710891323309574100,12.95957421875,-1.3949097394943237,-1.1154390573501587,-0.6884446144104004
1710891323328534300,12.9785341796875,-1.3439024686813354,-1.1267400979995728,-0.7883210182189941
1710891323347494400,12.997494384765625,-1.2070688009262085,-0.916602611541748,-0.749531090259552
1710891323366454500,13.01645458984375,-0.9599739909172058,-0.5983420610427856,-0.664926290512085
1710891323385414700,13.03541455078125,-0.536339282989502,-0.3640754222869873,-0.6065887212753296
1710891323404374800,13.054374755859374,-0.09132428467273712,-0.33108872175216675,-0.6823359727859497
1710891323423335000,13.0733349609375,0.328645259141922,-0.3698786199092865,-0.9312633275985718
1710891323442295000,13.092294921875,0.41935867071151733,0.17256930470466614,-0.8967494964599609
1710891323461255400,13.11125537109375,0.3387245237827301,0.6557633280754089,-0.942258894443512
1710891323480215300,13.13021533203125,-0.020769402384757996,0.5439751148223877,-1.0528254508972168
1710891323499175700,13.14917578125,-0.3484983444213867,0.11117739230394363,-1.3518437147140503
1710891323518135800,13.1681357421875,-0.6569850444793701,0.11392628401517868,-1.314581036567688
1710891323537096000,13.187095947265625,-1.0793980360031128,0.15057817101478577,-1.2354739904403687
1710891323556056000,13.20605615234375,-1.1041381359100342,0.6343830823898315,-0.9871574640274048
1710891323575016200,13.22501611328125,-0.804814338684082,0.8845322132110596,-0.01282816007733345
1710891323593976300,13.243976318359374,-0.3246746361255646,0.23762640357017517,0.5464185476303101
1710891323612936400,13.2629365234375,-0.05528326332569122,-0.40378162264823914,-0.13469567894935608
1710891323631896800,13.281896728515624,-0.27519458532333374,-0.2510654330253601,-0.29962918162345886
1710891323650857000,13.30085693359375,-0.476779967546463,0.032681263983249664,-0.2761108875274658
1710891323669817000,13.319817138671874,-0.09560033679008484,-0.1328630894422531,-0.3130682110786438
1710891323688777200,13.338777099609375,0.2666424810886383,-0.14691297709941864,-0.2828303873538971
1710891323707737300,13.3577373046875,0.318871408700943,-0.033597562462091446,-0.41386088728904724
1710891323726697500,13.376697509765625,0.27488914132118225,0.19761475920677185,-0.5015199780464172
1710891323745657600,13.39565771484375,0.1740964651107788,0.47006043791770935,-0.6123919486999512
1710891323764618000,13.414617919921875,-0.11759147047996521,0.5128209590911865,-0.5971203446388245
1710891323783578000,13.433578125,-0.4318813979625702,0.0256563201546669,-0.6191114783287048
1710891323802538200,13.452538330078125,-0.4520399272441864,-0.3854556679725647,-0.6411026120185852
1710891323821498400,13.471498291015624,-0.3588830530643463,-0.516791582107544,-0.6304124593734741
1710891323840458500,13.49045849609375,-0.2968802750110626,-0.4202749729156494,-0.5864301919937134
1710891323859418600,13.509418701171874,-0.28466299176216125,-0.2006690800189972,-0.5790998339653015
1710891323878378800,13.528378662109375,-0.34147340059280396,-0.10720676928758621,-0.5510000586509705
1710891323897339100,13.547339111328125,-0.29596397280693054,-0.13591741025447845,-0.4560105502605438
1710891323916299300,13.56629931640625,-0.15760311484336853,-0.09346231073141098,-0.3900371491909027
1710891323935259400,13.58525927734375,-0.04428769648075104,0.08124501258134842,-0.3656025826931
1710891323954219500,13.604219482421875,-0.10201441496610641,0.2049451321363449,-0.43340855836868286
1710891323973179600,13.6231796875,-0.18661919236183167,0.38850998878479004,-0.527481734752655
1710891323992139800,13.642139892578125,-0.28985533118247986,0.3292561173439026,-0.5946768522262573
1710891324011100200,13.66110009765625,-0.4153880476951599,0.18112140893936157,-0.675616443157196
1710891324030060300,13.680060302734375,-0.5351175665855408,0.06780599057674408,-0.8292489647865295
1710891324049020400,13.6990205078125,-0.7406735420227051,0.015271619893610477,-1.016784429550171
1710891324067980500,13.71798046875,-1.0778708457946777,0.07086031138896942,-1.3084723949432373
1710891324086940700,13.736940673828125,-1.3665045499801636,0.3659079968929291,-1.5809180736541748
1710891324105900800,13.75590087890625,-1.6768238544464111,0.8857539296150208,-1.6798781156539917
1710891324124861000,13.77486083984375,-2.073885917663574,1.6615521907806396,-1.7534873485565186
1710891324143821300,13.7938212890625,-2.5167629718780518,2.2815799713134766,-1.9010112285614014
1710891324162781400,13.812781494140625,-2.656651020050049,2.682918071746826,-2.092517375946045
1710891324181741600,13.831741455078125,-2.6215262413024902,3.299891471862793,-2.2256858348846436
1710891324200701700,13.85070166015625,-2.5741841793060303,4.378678798675537,-2.042731761932373
1710891324219662000,13.869662109375,-2.626413106918335,5.66027307510376,-1.5540399551391602
1710891324238622000,13.8886220703125,-2.953836679458618,6.878948211669922,-0.776103675365448
1710891324257582300,13.907582275390626,-3.375638723373413,7.395434379577637,0.12583814561367035
1710891324276542500,13.92654248046875,-3.5888304710388184,6.7686872482299805,0.593149721622467
1710891324295502600,13.945502685546876,-3.584554433822632,5.264432907104492,0.7883210182189941
1710891324314462700,13.964462646484375,-2.776685953140259,3.392742872238159,0.4789179861545563
1710891324333422800,13.9834228515625,-2.0222678184509277,1.1074978113174438,-0.12370011955499649
1710891324352383200,14.00238330078125,-1.675296664237976,0.03695731982588768,-0.25411975383758545
1710891324371343000,14.021343017578126,-1.5491530895233154,0.6273581385612488,-0.21502439677715302
1710891324390303500,14.040303466796875,-1.7834197282791138,1.6090178489685059,-0.2874118685722351
1710891324409263600,14.059263671875,-1.9737040996551514,2.397644281387329,-0.28435754776000977
1710891324428223700,14.0782236328125,-1.839924693107605,2.1813981533050537,-0.3026835024356842
1710891324447184000,14.097183837890626,-1.5347977876663208,1.3103049993515015,-0.43371400237083435
1710891324466144000,14.11614404296875,-1.1270455121994019,0.7144063711166382,-0.581848680973053
1710891324485104400,14.1351044921875,-1.0195332765579224,0.7302888631820679,-0.41386088728904724
1710891324504064500,14.154064453125,-0.9767727851867676,0.6334667801856995,-0.4883863925933838
1710891324523024600,14.173024658203126,-0.4676169753074646,0.1853974610567093,-0.5100721120834351
1710891324541984800,14.19198486328125,0.33322674036026,0.2159406989812851,-0.6423243284225464
1710891324560945000,14.21094482421875,0.7703005075454712,0.5589412450790405,-0.6704241037368774
1710891324579905000,14.229905029296875,0.7192932963371277,0.9083559513092041,-0.592233419418335
1710891324598865200,14.248865234375,0.7422007322311401,0.7889318466186523,-0.5238165259361267
1710891324617825300,14.2678251953125,0.8646790981292725,0.4318813979625702,-0.45387253165245056
1710891324636785700,14.28678564453125,0.7849612236022949,0.24465134739875793,-0.4428769648075104
1710891324655745800,14.305745849609375,0.5369501113891602,0.16035200655460358,-0.3802633285522461
1710891324674706000,14.324705810546876,0.4776962697505951,-0.06261363625526428,-0.3295615613460541
1710891324693666000,14.343666015625,0.6267472505569458,-0.07238747924566269,-0.36774060130119324
1710891324712626200,14.362626220703126,0.42455101013183594,-0.09010255336761475,-0.36224281787872314
1710891324731586300,14.38158642578125,0.08093958348035812,-0.1750127524137497,-0.189673513174057
1710891324750546400,14.40054638671875,-0.1493564397096634,-0.15821397304534912,0.05070177838206291
1710891324769506600,14.419506591796875,-0.31520622968673706,-0.12675444781780243,0.1792888194322586
1710891324788467000,14.438467041015626,-0.4889972507953644,-0.19303326308727264,0.2461785078048706
1710891324807427000,14.457427001953125,-0.5873464941978455,-0.22754712402820587,0.29474225640296936
1710891324826387200,14.47638720703125,-0.6371319890022278,-0.006414080038666725,0.34666576981544495
1710891324845347300,14.495347412109375,-0.6976075768470764,0.2663370370864868,0.314289927482605
1710891324864307500,14.514307373046876,-0.6435460448265076,0.4770853817462921,0.15271618962287903
1710891324883267600,14.533267578125,-0.6093376278877258,0.7293725609779358,0.08857539296150208
1710891324902227700,14.552227783203126,-0.7418952584266663,1.1713331937789917,0.10079269111156464
1710891324921188000,14.57118798828125,-0.7791580557823181,1.2006547451019287,0.023823726922273636
1710891324940148200,14.590148193359376,-0.8399390578269958,1.0024291276931763,-0.007635809946805239
1710891324959108400,14.6091083984375,-0.953559935092926,0.6056724190711975,0.0027488914784044027
1710891324978068500,14.628068359375,-1.1429280042648315,0.6243038177490234,0.007635809946805239
1710891324997028600,14.647028564453125,-0.8387173414230347,0.06017018109560013,-0.18570289015769958
1710891325015988700,14.66598876953125,-0.40408703684806824,-0.7993165850639343,-0.27580544352531433
1710891325034948900,14.684948974609375,-0.09346231073141098,-0.9324851036071777,-0.43921178579330444
1710891325053909000,14.703908935546876,-0.01282816007733345,-0.6108647584915161,-0.5253437161445618
1710891325072869400,14.722869384765625,-0.11148282140493393,-0.2984074354171753,-0.4364628791809082
1710891325091829200,14.741829345703126,0.33689191937446594,0.14110976457595825,-0.5048797130584717
1710891325110789600,14.76078955078125,0.6911935210227966,0.15546508133411407,-0.5968148708343506
1710891325129749800,14.779749755859376,0.7400626540184021,-0.028405211865901947,-0.4462367296218872
1710891325148710000,14.7987099609375,0.8118392825126648,0.31093016266822815,-0.1078176349401474
1710891325167670000,14.817669921875,0.593149721622467,0.6044507026672363,0.18142683804035187
1710891325186630100,14.836630126953125,0.1847866028547287,0.35674503445625305,0.3594939112663269
1710891325205590300,14.85559033203125,0.06261363625526428,-0.007024944759905338,0.3292561173439026
1710891325224550400,14.87455029296875,0.10506874322891235,-0.12950333952903748,0.21868959069252014
1710891325243510500,14.893510498046876,0.2605338394641876,0.1389717310667038,0.2715294063091278
1710891325262470700,14.912470703125,0.3591884970664978,1.0018181800842285,0.4459312856197357
1710891325281431000,14.93143115234375,0.41386088728904724,1.5974113941192627,0.4566214084625244
1710891325300391000,14.950390869140625,0.4471530318260193,1.858250617980957,0.5030471682548523
1710891325319351300,14.969351318359376,0.2562577724456787,2.1752893924713135,0.4828886091709137
1710891325338311400,14.9883115234375,-0.1484401375055313,1.0458004474639893,0.4361574649810791
1710891325357271600,15.007271484375,0.24556763470172882,-0.9782999157905579,0.2415970265865326
1710891325376231700,15.026231689453125,1.046105980873108,-1.5861103534698486,-0.047036588191986084
1710891325395191800,15.04519189453125,1.4523310661315918,-1.2333359718322754,-0.43432486057281494
1710891325414152000,15.06415185546875,1.099861979484558,-0.8610138893127441,-0.6514872908592224
1710891325433112000,15.083112060546876,0.8258891701698303,-0.33658650517463684,-0.720820426940918
1710891325452072200,15.102072265625,0.8032872080802917,-0.2202167510986328,-0.7092140316963196
1710891325471032300,15.1210322265625,0.9193515181541443,-0.5253437161445618,-0.6539307236671448
1710891325489992400,15.139992431640625,1.1148282289505005,-0.8280271887779236,-0.6557633280754089
1710891325508952600,15.15895263671875,1.17194402217865,-0.9401208758354187,-0.5555815100669861
1710891325527912700,15.17791259765625,1.0247256755828857,-0.7938187718391418,-0.29565855860710144
1710891325546873000,15.196873046875,0.8481857180595398,-0.5155698657035828,-0.0009162971982732415
1710891325565833200,15.215833251953125,0.859792172908783,-0.4816668927669525,0.2562577724456787
1710891325584793000,15.23479296875,1.0488548278808594,-0.6298015713691711,0.43829548358917236
1710891325603753500,15.25375341796875,1.1795798540115356,-0.9596685767173767,0.5283980369567871
1710891325622713600,15.272713623046876,1.2263110876083374,-1.3781108856201172,0.5900954008102417
1710891325641673700,15.291673828125,1.3206896781921387,-1.7797545194625854,0.6432406306266785
1710891325660633900,15.3106337890625,1.3997966051101685,-1.997833251953125,0.6911935210227966
1710891325679594000,15.329593994140625,1.3127484321594238,-1.896124243736267,0.732121467590332
1710891325698554000,15.34855419921875,1.091309905052185,-1.5858049392700195,0.7275399565696716
1710891325717514200,15.36751416015625,0.9303470849990845,-1.3820815086364746,0.7122683525085449
1710891325736474400,15.386474365234376,0.9556979537010193,-1.398574948310852,0.6997455954551697
1710891325755434500,15.4054345703125,1.0552688837051392,-1.646891474723816,0.5714640021324158
1710891325774394600,15.42439453125,1.147204041481018,-2.1306962966918945,0.38728827238082886
1710891325793354800,15.443354736328125,1.2678498029708862,-2.609614372253418,0.23732095956802368
1710891325812315000,15.46231494140625,1.4159845113754272,-3.0140068531036377,0.1795942485332489
1710891325831275000,15.48127490234375,1.4740166664123535,-3.2042911052703857,0.15729768574237823
1710891325850235100,15.500235107421876,1.4361430406570435,-3.1966552734375,0.21868959069252014
1710891325869195300,15.5191953125,1.3353503942489624,-3.0778422355651855,0.30115634202957153
1710891325888155400,15.5381552734375,1.2483022212982178,-2.9883503913879395,0.2684750556945801
1710891325907115500,15.557115478515625,1.2562434673309326,-2.9290966987609863,0.24373504519462585
1710891325926075600,15.57607568359375,1.349400281906128,-2.966970205307007,0.24312418699264526
1710891325945036000,15.5950361328125,1.4691298007965088,-2.9776604175567627,0.31520622968673706
1710891325963996000,15.613995849609376,1.563202977180481,-3.012174129486084,0.5827649831771851
1710891325982956000,15.6329560546875,1.6172645092010498,-3.079369306564331,0.8497129082679749
1710891326001916200,15.651916259765626,1.6533055305480957,-3.5085017681121826,0.9755510687828064
1710891326020876500,15.67087646484375,1.5809180736541748,-4.348135471343994,1.107803225517273
1710891326039836700,15.689836669921876,1.4624103307724,-5.107134819030762,1.3869684934616089
1710891326058796500,15.708796630859375,1.4291181564331055,-5.120879650115967,1.6838487386703491
1710891326077757000,15.7277568359375,1.2947279214859009,-4.263225078582764,1.9104795455932617
1710891326096717000,15.746717041015625,1.2202024459838867,-2.931540012359619,2.028987407684326
1710891326115677200,15.76567724609375,1.25715970993042,-1.656970739364624,2.0042474269866943
1710891326134637000,15.784636962890625,1.4013237953186035,-0.6817250847816467,1.9788964986801147
1710891326153597400,15.803597412109376,1.3845250606536865,-0.15577052533626556,1.867719054222107
1710891326172557600,15.8225576171875,1.214093804359436,0.07941242307424545,1.609323263168335
1710891326191517700,15.841517578125,1.0522146224975586,0.26908594369888306,1.370169758796692
1710891326210477600,15.8604775390625,0.8973603844642639,0.5568032264709473,1.1850776672363281
1710891326229438000,15.87943798828125,0.8329141139984131,0.805425226688385,0.9883792400360107
1710891326248398000,15.898398193359375,0.5271763205528259,0.8936951756477356,0.6151408553123474
1710891326267358200,15.917358154296876,0.2528980076313019,0.952032744884491,0.2770271897315979
1710891326286318300,15.936318359375,0.1844811588525772,0.9966259002685547,0.10476330667734146
1710891326305278500,15.955278564453126,0.049480047076940536,0.5320632457733154,0.2559523284435272
1710891326324238600,15.974238525390625,-0.04214967042207718,-0.2919933497905731,0.08918625861406326
1710891326343198700,15.99319873046875,-0.1692095398902893,-1.0140355825424194,-0.3546070158481598
1710891326362158800,16.012158935546875,-0.12400554865598679,-1.2583814859390259,-0.5519163012504578
1710891326381119000,16.031118896484376,0.10537417232990265,-0.9306524991989136,-0.536339282989502
1710891326400079000,16.0500791015625,0.34666576981544495,-0.7247910499572754,-0.3946186602115631
1710891326419039200,16.069039306640626,0.4874700903892517,-0.33597561717033386,-0.1591302752494812
1710891326437999400,16.087999267578127,0.3646862804889679,0.039706211537122726,-0.04367683082818985
1710891326456959500,16.10695947265625,0.22327107191085815,0.029626941308379173,0.09804379940032959
1710891326475919600,16.125919677734377,0.18295399844646454,-0.09651663154363632,0.23915356397628784
1710891326494879700,16.144879638671874,0.1695149689912796,-0.03543015569448471,0.2263254076242447
1710891326513839900,16.16383984375,0.18631376326084137,0.22296564280986786,0.16187916696071625
1710891326532800000,16.182800048828124,0.24404047429561615,0.43004879355430603,0.13622283935546875
1710891326551760100,16.201760009765625,0.2562577724456787,0.7388409376144409,0.06444623321294785
1710891326570720300,16.22072021484375,0.19853104650974274,1.1713331937789917,0.2929096519947052
1710891326589680400,16.239680419921875,0.2415970265865326,0.7513636946678162,0.18417572975158691
1710891326608640500,16.258640625,0.5256491303443909,0.3347539007663727,-0.20922118425369263
1710891326627600600,16.2776005859375,0.25473061203956604,0.4355465769767761,-0.1536324918270111
1710891326646560800,16.296560791015626,0.004581485874950886,0.5387827157974243,0.009773836471140385
1710891326665521000,16.31552099609375,-0.04673115536570549,0.1597411334514618,-0.25809037685394287
1710891326684481000,16.33448095703125,-0.2626718580722809,0.30451610684394836,-0.370184063911438
1710891326703441200,16.353441162109377,-0.4214966893196106,0.8582650423049927,-0.18784092366695404
1710891326722401300,16.3724013671875,-0.5299251675605774,1.2241730690002441,-0.015271619893610477
1710891326741361700,16.391361572265627,-0.44898560643196106,1.34237539768219,0.30451610684394836
1710891326760321500,16.410321533203124,-0.32131487131118774,1.0198386907577515,0.5390881896018982
1710891326779281700,16.42928173828125,-0.2981020212173462,0.8045089244842529,0.6169734001159668
1710891326798242000,16.448241943359374,-0.518318772315979,0.7794634699821472,0.6407971382141113
1710891326817202200,16.4672021484375,-0.8210022449493408,0.609948456287384,0.481361448764801
1710891326836162000,16.486162109375,-0.8549052476882935,0.7660244107246399,0.516791582107544
1710891326855122400,16.505122314453125,-0.7354812026023865,1.036332130432129,0.8478803038597107
1710891326874082600,16.52408251953125,-0.43279770016670227,1.015562653541565,0.7556397318840027
1710891326893042700,16.543042724609375,-0.19669845700263977,1.0042617321014404,0.5842921733856201
1710891326912002800,16.5620029296875,-0.0668896958231926,0.896138608455658,0.5885682106018066
1710891326930963000,16.580962890625,0.12583814561367035,0.7614429593086243,0.5623010396957397
1710891326949923000,16.599923095703126,0.4046979248523712,0.528092622756958,0.3741546869277954
1710891326968883200,16.61888330078125,0.5418370366096497,0.4627300798892975,0.2159406989812851
1710891326987843300,16.63784326171875,0.5836812853813171,0.40286532044410706,0.007635809946805239
1710891327006803500,16.656803466796877,0.5998691916465759,0.5277871489524841,-0.30604326725006104
1710891327025763600,16.675763671875,0.5681042671203613,0.9911280870437622,-0.4407389461994171
1710891327044723700,16.6947236328125,0.44379326701164246,1.1905754804611206,-0.4838049113750458
1710891327063683800,16.713683837890624,0.33200499415397644,1.1557561159133911,-0.5971203446388245
1710891327082644200,16.732644287109373,0.1902843713760376,1.1499528884887695,-0.6395754218101501
1710891327101604400,16.751604248046874,0.010995565913617611,1.1420117616653442,-0.48960810899734497
1710891327120564500,16.770564453125,-0.08032871782779694,1.017395257949829,-0.27580544352531433
1710891327139524600,16.789524658203124,-0.08857539296150208,0.9282090067863464,-0.14508038759231567
1710891327158484700,16.808484619140625,-0.0717766135931015,0.6945532560348511,-0.12003492563962936
1710891327177444900,16.82744482421875,-0.07116574794054031,0.3952295184135437,-0.022907428443431854
1710891327196405000,16.846405029296875,-0.09315688163042068,0.06933315098285675,0.11728604137897491
1710891327215365000,16.865365234375,-0.06750056147575378,-0.21258094906806946,0.15088360011577606
1710891327234325500,16.884325439453125,-0.01802051067352295,-0.29962918162345886,0.03787361457943916
1710891327253285600,16.90328564453125,-0.0009162971982732415,-0.20372340083122253,0.013133592903614044
1710891327272245800,16.922245849609375,-0.07880155742168427,-0.05497783049941063,0.026878049597144127
1710891327291206000,16.941205810546876,-0.16096286475658417,0.001221729558892548,-0.01802051067352295
1710891327310166000,16.960166015625,-0.15027274191379547,-0.025350889191031456,-0.05925388261675835
1710891327329126100,16.979126220703126,-0.15699224174022675,-0.16157373785972595,-0.021991131827235222
1710891327348086300,16.998086181640623,-0.18356487154960632,-0.40927940607070923,-0.016187917441129684
1710891327367046400,17.01704638671875,-0.2367101013660431,-0.48960810899734497,-0.07330377399921417
1710891327386006500,17.036006591796873,-0.23365578055381775,-0.3857611119747162,-0.0925460159778595
1710891327404967000,17.054966796875,-0.20738859474658966,-0.2617555558681488,-0.08643736690282822
1710891327423927000,17.073927001953123,-0.26389357447624207,-0.2513708472251892,-0.13652828335762024
1710891327442887200,17.09288720703125,-0.32131487131118774,-0.38667741417884827,-0.1646280586719513
1710891327461847300,17.111847412109373,-0.32528549432754517,-0.5232056975364685,-0.18387030065059662
1710891327480807400,17.130807373046874,-0.3170388340950012,-0.6551524996757507,-0.19914191961288452
1710891327499767600,17.149767578125,-0.2926042377948761,-0.7974839806556702,-0.20311254262924194
1710891327518727700,17.168727783203124,-0.28527384996414185,-0.8225294351577759,-0.21960589289665222
1710891327537688000,17.18768798828125,-0.26542073488235474,-0.9758564829826355,-0.28496840596199036
1710891327556648200,17.206648193359374,-0.30604326725006104,-1.0137300491333008,-0.23976442217826843
1710891327575608300,17.2256083984375,-0.40744680166244507,-0.8127555847167969,-0.21960589289665222
1710891327594568400,17.244568359375,-0.4199695289134979,-0.6472112536430359,-0.2880227565765381
1710891327613528600,17.263528564453125,-0.4269944727420807,-0.4569268524646759,-0.28527384996414185
1710891327632489000,17.282489013671874,-0.4676169753074646,-0.07910698652267456,-0.40317076444625854
1710891327651448800,17.30144873046875,-0.44501498341560364,0.16279546916484833,-0.6331613659858704
1710891327670409200,17.3204091796875,-0.379347026348114,-0.010384701192378998,-0.685390293598175
1710891327689369300,17.339369384765625,-0.38209593296051025,-0.060781046748161316,-0.7473930716514587
1710891327708329500,17.35832958984375,-0.364991694688797,-0.2009745091199875,-0.850934624671936
1710891327727289600,17.37728955078125,-0.2770271897315979,-0.25961753726005554,-0.9419534802436829
1710891327746250000,17.39625,-0.17226386070251465,-0.23212862014770508,-1.0063997507095337
1710891327765210000,17.415210205078125,-0.1844811588525772,-0.22235478460788727,-1.0207550525665283
1710891327784170200,17.434170166015626,-0.28466299176216125,-0.04550942778587341,-0.9083559513092041
1710891327803130400,17.45313037109375,-0.4608974754810333,0.0616973415017128,-0.8817833065986633
1710891327822090500,17.472090576171876,-0.7855721116065979,0.12370011955499649,-0.7718276381492615
1710891327841050600,17.491050537109373,-1.2751802206039429,0.09101885557174683,-0.6459894776344299
1710891327860011000,17.510010986328126,-1.4850122928619385,0.07513637095689774,-0.5305360555648804
1710891327878971100,17.52897119140625,-1.4101812839508057,-0.16157373785972595,-0.6178897023200989
1710891327897931300,17.54793115234375,-1.626121997833252,0.06230820715427399,-0.5216785073280334
1710891327916891400,17.566891357421873,-1.497840404510498,0.22724169492721558,-0.7043271064758301
1710891327935851800,17.585851806640626,-1.481041669845581,0.0616973415017128,-0.7648026943206787
1710891327954811600,17.604811767578123,-1.4092650413513184,0.0412333719432354,-0.6444623470306396
1710891327973772000,17.62377197265625,-1.3466514348983765,0.2974911332130432,-0.4770853817462921
1710891327992732200,17.642732177734374,-1.3723077774047852,0.45509424805641174,-0.3998109996318817
1710891328011692300,17.6616923828125,-1.2944225072860718,0.2834412455558777,-0.129197895526886
1710891328030652400,17.68065234375,-1.2116502523422241,0.21838416159152985,0.10659590363502502
1710891328049612800,17.69961279296875,-1.1588104963302612,0.27550002932548523,0.2877173125743866
1710891328068573000,17.718572998046874,-1.0274745225906372,0.13469567894935608,0.4257727563381195
1710891328087533000,17.737532958984374,-0.9349285364151001,-0.16737695038318634,0.5772672295570374
1710891328106493400,17.756493408203124,-0.7654135823249817,-0.23426663875579834,0.602007269859314
1710891328125453300,17.775453369140624,-0.5647444725036621,-0.23182319104671478,0.5729911923408508
1710891328144413700,17.79441357421875,-0.5369501113891602,0.04153880476951599,0.6411026120185852
1710891328163373800,17.813373779296874,0.06200277432799339,0.14294235408306122,0.5842921733856201
1710891328182334000,17.832333984375,0.12980876863002777,-0.2764163017272949,0.6585122346878052
1710891328201294000,17.851294189453125,0.17684535682201385,-0.4010327160358429,0.6426297426223755
1710891328220254500,17.87025439453125,0.5525271892547607,-0.04245510324835777,0.5913171172142029
1710891328239214600,17.889214599609375,0.7748819589614868,0.006414080038666725,0.6527090072631836
1710891328258174700,17.9081748046875,0.9700532555580139,-0.18784092366695404,0.7437278628349304
1710891328277135000,17.927135009765625,1.0473276376724243,-0.2782489061355591,0.664926290512085
1710891328296095200,17.94609521484375,1.2067633867263794,-0.3430005609989166,0.48563748598098755
1710891328315055400,17.965055419921875,1.3188570737838745,-0.18814635276794434,0.5064069032669067
1710891328334015500,17.984015380859375,1.341459035873413,0.30085089802742004,0.7736602425575256
1710891328352975600,18.0029755859375,1.4538581371307373,0.10873392969369888,0.841160774230957
1710891328371936000,18.02193603515625,1.3237439393997192,-0.6108647584915161,0.9532544612884521
1710891328390896000,18.040896240234375,1.3451242446899414,-0.5717694163322449,1.1294889450073242
1710891328409856300,18.059856201171876,1.423925757408142,-0.09651663154363632,1.1435388326644897
1710891328428816600,18.078816650390625,1.2217295169830322,-0.40775224566459656,1.109025001525879
1710891328447776800,18.09777685546875,1.2724313735961914,-0.16768237948417664,1.0946696996688843
1710891328466737000,18.11673681640625,1.4688243865966797,0.04428769648075104,1.0152572393417358
1710891328485697000,18.135697021484376,1.482263445854187,-0.13194678723812103,0.999069333076477
1710891328504657200,18.1546572265625,1.45294189453125,-0.2880227565765381,0.9272927641868591
1710891328523617500,18.173617431640626,1.5919135808944702,-0.11148282140493393,0.7904590368270874
1710891328542577700,18.19257763671875,1.6496403217315674,0.03329212963581085,0.9184352159500122
1710891328561537800,18.211537841796876,1.5558725595474243,-0.19883649051189423,1.0109812021255493
1710891328580498200,18.230498291015625,1.4358376264572144,-0.3970620930194855,1.0525200366973877
1710891328599458300,18.249458251953126,1.2996147871017456,-0.3430005609989166,0.8888082504272461
1710891328618418400,18.26841845703125,1.3744457960128784,-0.0772743970155716,0.9459241032600403
1710891328637378800,18.28737890625,1.5665627717971802,0.25809037685394287,1.0399973392486572
1710891328656339000,18.3063388671875,1.7400482892990112,0.18600831925868988,1.0848958492279053
1710891328675299000,18.325299072265626,1.7070616483688354,-0.4370737373828888,0.980743408203125
1710891328694259500,18.344259521484375,1.472795009613037,-0.7412844300270081,0.8875865340232849
1710891328713219600,18.363219482421876,1.463021159172058,-0.18081597983837128,0.9761618971824646
1710891328732179700,18.3821796875,1.5332705974578857,0.5134318470954895,0.990517258644104
1710891328751139800,18.401139892578126,1.5250239372253418,0.3289506733417511,0.8805615901947021
1710891328770100000,18.420099853515627,1.4550799131393433,-0.1646280586719513,0.8588758707046509
1710891328789060400,18.439060302734376,1.5238021612167358,-0.10506874322891235,0.9511164426803589
1710891328808020500,18.4580205078125,1.5610649585723877,-0.4685332775115967,0.7816014885902405
1710891328826980600,18.476980712890626,1.4950915575027466,-0.35277441143989563,0.6902772188186646
1710891328845941000,18.49594091796875,1.4837905168533325,0.600785493850708,0.7727439403533936
1710891328864901000,18.514901123046876,1.6169590950012207,0.5415316224098206,0.48502662777900696
1710891328883861200,18.533861328125,1.4923427104949951,0.10598503798246384,0.20891575515270233
1710891328902821600,18.552821533203126,1.3057234287261963,0.2528980076313019,0.49113526940345764
1710891328921781800,18.57178173828125,1.360395908355713,0.4218021333217621,0.8469640016555786
1710891328940742000,18.590741943359376,1.5094468593597412,0.09132428467273712,0.5836812853813171
1710891328959702300,18.609702392578125,1.34237539768219,-0.2889390289783478,0.16310089826583862
1710891328978662400,18.628662353515626,1.1533126831054688,0.3136790692806244,0.3637699782848358
1710891328997622500,18.64762255859375,1.2470804452896118,0.6695078015327454,0.2886336147785187
1710891329016583000,18.6665830078125,1.2828160524368286,0.5485565662384033,0.168904110789299
1710891329035543000,18.68554296875,1.1013891696929932,0.6902772188186646,0.14080433547496796
1710891329054503200,18.704503173828126,1.0861176252365112,0.8768963813781738,0.1847866028547287
1710891329073463300,18.72346337890625,1.0977239608764648,0.472198486328125,0.09193515032529831
1710891329092423700,18.742423583984376,0.9926552772521973,0.2608392536640167,0.07971785217523575
1710891329111383800,18.7613837890625,0.9224058389663696,0.36254823207855225,-0.04306596517562866
1710891329130344000,18.780343994140626,1.0140355825424194,0.674700140953064,-0.287106454372406
1710891329149304300,18.79930419921875,0.915075421333313,1.1939351558685303,-0.19181154668331146
1710891329168264400,18.818264404296876,0.7608320713043213,0.9673043489456177,-0.11972949653863907
1710891329187224600,18.837224609375,0.9132428169250488,0.4248564541339874,-0.21135921776294708
1710891329206185000,18.85618505859375,0.84177166223526,0.3191768527030945,-0.23304490745067596
1710891329225145000,18.87514501953125,0.711046576499939,0.5210676789283752,-0.20219624042510986
1710891329244105200,18.894105224609376,0.7095194458961487,0.722347617149353,-0.21930044889450073
1710891329263065600,18.913065673828125,0.6175842881202698,0.5403099060058594,-0.37720900774002075
1710891329282025700,18.932025634765626,0.7855721116065979,0.8439096808433533,-0.3341430425643921
1710891329300985900,18.95098583984375,0.5619956254959106,0.8564324378967285,-0.0717766135931015
1710891329319946200,18.9699462890625,0.508544921875,0.09590577334165573,-0.07788526266813278
1710891329338906400,18.98890625,0.527481734752655,-0.056810423731803894,-0.014049889519810677
1710891329357866500,19.007866455078126,0.45417797565460205,0.13775001466274261,-0.06017018109560013
1710891329376827000,19.026826904296875,0.4969384968280792,0.3842339515686035,-0.16096286475658417
1710891329395786800,19.045786865234376,0.4272999167442322,0.5100721120834351,-0.14752385020256042
1710891329414747100,19.0647470703125,0.2868010103702545,0.37201663851737976,-0.16737695038318634
1710891329433707300,19.083707275390626,0.2822195291519165,0.31551164388656616,-0.2629773020744324
1710891329452667400,19.10266748046875,0.3640754222869873,0.3594939112663269,-0.2919933497905731
1710891329471627800,19.121627685546876,0.3292561173439026,0.416304349899292,-0.17165300250053406
1710891329490588000,19.140587890625,0.33078327775001526,0.23884813487529755,-0.2009745091199875
1710891329509548000,19.159548095703126,0.31581708788871765,0.33047783374786377,-0.16829325258731842
1710891329528508400,19.17850830078125,0.15179990231990814,0.3136790692806244,-0.11698060482740402
1710891329547468500,19.197468505859376,0.2467893660068512,0.035124726593494415,-0.1802051067352295
1710891329566428700,19.2164287109375,0.287106454372406,0.12461641430854797,-0.26480987668037415
1710891329585389000,19.23538916015625,0.13439024984836578,0.47464191913604736,-0.27519458532333374
1710891329604349200,19.25434912109375,0.08826996386051178,0.38820457458496094,-0.25473061203956604
1710891329623309300,19.273309326171876,0.11911863088607788,0.06750056147575378,-0.23854269087314606
1710891329642269400,19.29226953125,0.19120067358016968,-0.03848448023200035,-0.14080433547496796
1710891329661229600,19.3112294921875,0.1698204129934311,-0.15577052533626556,-0.02626718580722809
1710891329680190000,19.33018994140625,0.07422006875276566,-0.09682206809520721,-0.0766635313630104
1710891329699150000,19.349150146484376,0.07513637095689774,0.10323614627122879,-0.16035200655460358
1710891329718110200,19.368110107421874,0.10170898586511612,0.21288637816905975,-0.19120067358016968
1710891329737070600,19.387070556640627,0.08857539296150208,0.11911863088607788,-0.15302163362503052
1710891329756030700,19.40603076171875,0.10018182545900345,0.10018182545900345,-0.11209368705749512
1710891329774990800,19.424990966796877,0.10720676928758621,0.04245510324835777,-0.031154103577136993
1710891329793951000,19.443950927734374,0.1026252806186676,-0.05528326332569122,0.0412333719432354
1710891329812911400,19.462911376953127,0.07391463965177536,-0.04673115536570549,-0.002443459117785096
1710891329831871500,19.48187158203125,0.04764745384454727,0.09712749719619751,-0.08796452730894089
1710891329850831600,19.50083154296875,0.05406153202056885,0.18723005056381226,-0.12247838824987411
1710891329869791700,19.519791748046874,-0.0009162971982732415,0.09957095980644226,-0.0668896958231926
1710891329888752000,19.538752197265627,0.024434590712189674,-0.036651886999607086,-0.009162971749901772
1710891329907712300,19.557712158203124,0.0870482325553894,-0.0818558782339096,0.022907428443431854
1710891329926672400,19.57667236328125,0.060781046748161316,0.010079269297420979,0.0308486707508564
1710891329945632500,19.595632568359374,0.026878049597144127,0.1078176349401474,0.010690134018659592
1710891329964593000,19.614593017578127,0.07788526266813278,0.12950333952903748,-0.007330377586185932
1710891329983553000,19.633552978515624,0.02932151034474373,0.16523891687393188,-0.014049889519810677
1710891330002513200,19.65251318359375,-0.006414080038666725,0.1545487940311432,0.002443459117785096
1710891330021473300,19.671473388671874,0.015271619893610477,0.09957095980644226,0.021380268037319183
1710891330040433400,19.690433349609375,0.08765909820795059,0.10720676928758621,0.004276053514331579
1710891330059393800,19.709393798828124,0.08155044913291931,0.24434591829776764,0.007024944759905338
1710891330078354000,19.72835400390625,0.01649334840476513,0.37110036611557007,-0.006719512399286032
1710891330097314000,19.74731396484375,0.053145237267017365,0.32620179653167725,-0.014049889519810677
1710891330116274200,19.766274169921875,0.05253437161445618,0.12125665694475174,0.025961752980947495
1710891330135234600,19.785234619140624,-0.0009162971982732415,-0.0873536616563797,0.0717766135931015
1710891330154194700,19.804194580078125,0.013744457624852657,-0.03909534588456154,0.056199558079242706
1710891330173154800,19.82315478515625,0.026878049597144127,0.11331541836261749,0.04001164436340332
1710891330192115000,19.842114990234375,0.010995565913617611,0.16646064817905426,0.05039634555578232
1710891330211075000,19.861074951171876,-0.005803215317428112,0.12675444781780243,0.06872228533029556
1710891330230035500,19.880035400390625,0.032681263983249664,0.06230820715427399,0.07024945318698883
1710891330248995600,19.89899560546875,0.048563748598098755,0.0665842592716217,0.06322450190782547
1710891330267955700,19.917955810546875,-0.002443459117785096,0.09376774728298187,0.05070177838206291
1710891330286915800,19.936915771484376,-0.014966187067329884,0.12217295914888382,0.041844237595796585
1710891330305876200,19.955876220703125,0.0021380267571657896,0.08307760953903198,0.043371398001909256
1710891330324836400,19.97483642578125,-0.016798781231045723,0.08002328872680664,0.02871064469218254
1710891330343796500,19.99379638671875,-0.025961752980947495,0.1490510106086731,0.0021380267571657896
1710891330362756600,20.012756591796876,-0.047952886670827866,0.1536324918270111,0.004581485874950886
1710891330381716700,20.031716796875,-0.030543239787220955,0.11728604137897491,0.02626718580722809
1710891330400676900,20.0506767578125,0.01740964688360691,0.04153880476951599,0.044898562133312225
1710891330419637200,20.06963720703125,-0.0009162971982732415,0.0668896958231926,0.02871064469218254
1710891330438597400,20.088597412109376,-0.04153880476951599,0.14569124579429626,-0.023212861269712448
1710891330457557500,20.1075576171875,-0.04153880476951599,0.18570289015769958,-0.03390299528837204
1710891330476517600,20.126517578125,-0.000610864779446274,0.11148282140493393,0.011911863461136818
1710891330495478000,20.14547802734375,0.010690134018659592,0.009773836471140385,0.025045456364750862
1710891330514438100,20.164438232421876,-0.008552107028663158,-0.001221729558892548,0.006719512399286032
1710891330533398300,20.183398193359373,-0.047036588191986084,0.10720676928758621,-0.017104214057326317
1710891330552358400,20.2023583984375,-0.02871064469218254,0.08949168771505356,-0.01893680728971958
1710891330571318500,20.221318603515623,0.008552107028663158,0.028099779039621353,-0.0021380267571657896
1710891330590278700,20.240278564453124,0.029932374134659767,-0.029932374134659767,0.010384701192378998
1710891330609239000,20.259239013671873,0.011606430634856224,0.03176496922969818,-0.003970621153712273
1710891330628199200,20.27819921875,0.007941242307424545,0.009773836471140385,0.004276053514331579
1710891330647159300,20.2971591796875,0,-0.06322450190782547,-0.008857538923621178
1710891330666119400,20.316119384765624,0.01740964688360691,-0.04062250629067421,-0.013744457624852657
1710891330685079600,20.33507958984375,0.043371398001909256,-0.04825831577181816,-0.026878049597144127
1710891330704039700,20.354039794921874,0.006108647678047419,-0.007941242307424545,-0.023212861269712448
1710891330723000000,20.373,0.013744457624852657,-0.007941242307424545,-0.007024944759905338
1710891330741960200,20.391960205078124,0.0412333719432354,-0.07574722915887833,0.008552107028663158
1710891330760920300,20.41092041015625,0.05406153202056885,-0.08643736690282822,-0.025350889191031456
1710891330779880400,20.42988037109375,0.025961752980947495,-0.024434590712189674,-0.04581485688686371
1710891330798840600,20.448840576171875,0.018631376326084137,0.04550942778587341,-0.05192350596189499
1710891330817800700,20.46780078125,0.024740023538470268,0.06627883017063141,-0.06230820715427399
1710891330836760800,20.4867607421875,0.030543239787220955,0.04428769648075104,-0.0409279391169548
1710891330855721200,20.50572119140625,0.007330377586185932,-0.003970621153712273,-0.007941242307424545
1710891330874681300,20.524681396484375,0.04001164436340332,-0.05833758786320686,-0.016798781231045723
1710891330893641500,20.543641357421876,0.04673115536570549,-0.051618073135614395,-0.003970621153712273
1710891330912601600,20.5626015625,0.03848448023200035,-0.0015271619195118546,-0.014966187067329884
1710891330931561700,20.581561767578126,0.020769402384757996,-0.011911863461136818,-0.0204639695584774
1710891330950521900,20.60052197265625,0.03451386094093323,-0.007024944759905338,-0.032681263983249664
1710891330969482200,20.619482177734376,0.021991131827235222,0.017104214057326317,-0.03787361457943916
1710891330988442400,20.6384423828125,0.007941242307424545,0.017715077847242355,-0.036651886999607086
1710891331007402500,20.657402587890626,0.022296564653515816,-0.049480047076940536,0.0015271619195118546
1710891331026362600,20.676362548828124,0.0256563201546669,-0.0513126403093338,-0.010690134018659592
1710891331045322800,20.69532275390625,0.008552107028663158,0.034208428114652634,-0.048563748598098755
1710891331064283000,20.714282958984374,-0.015271619893610477,0.08368847519159317,-0.04764745384454727
1710891331083243000,20.733242919921874,-0.0021380267571657896,0.005803215317428112,-0.01954767294228077
1710891331102203100,20.752203125,0.020158538594841957,-0.07849612087011337,0.007941242307424545
1710891331121163500,20.77116357421875,0.023212861269712448,-0.018631376326084137,-0.003665188793092966
1710891331140123600,20.79012353515625,0.0030543238390237093,0.032070402055978775,-0.01435532234609127
1710891331159083800,20.809083740234374,0.003359756199643016,0.021380268037319183,-0.021685699000954628
1710891331178044000,20.8280439453125,-0.008246674202382565,-0.0030543238390237093,-0.02412915788590908
1710891331197004000,20.847004150390624,-0.013133592903614044,-0.012522728182375431,-0.008246674202382565
1710891331215964200,20.865964111328125,-0.009162971749901772,-0.011300998739898205,-0.01435532234609127
1710891331234924300,20.88492431640625,0.003970621153712273,0.026878049597144127,-0.022296564653515816
1710891331253884700,20.903884765625,-0.015271619893610477,0.0565049909055233,-0.02718348242342472
1710891331272844800,20.9228447265625,-0.021685699000954628,0.06444623321294785,-0.0054977829568088055
1710891331291805000,20.941804931640625,-0.011911863461136818,0.01893680728971958,0.0054977829568088055
1710891331310765000,20.96076513671875,-0.012522728182375431,-0.003665188793092966,0.007024944759905338
1710891331329725200,20.97972509765625,-0.006108647678047419,0.05345066636800766,-0.0054977829568088055
1710891331348685300,20.998685302734376,-0.017104214057326317,0.08643736690282822,-0.029932374134659767
1710891331367645400,21.0176455078125,-0.029626941308379173,0.0824667438864708,-0.022907428443431854
1710891331386605800,21.036605712890626,-0.028405211865901947,0.05192350596189499,-0.008246674202382565
1710891331405565700,21.055565673828124,0.013744457624852657,-0.044898562133312225,0.024740023538470268
1710891331424526000,21.074526123046876,0.007330377586185932,-0.053756099194288254,0.0204639695584774
1710891331443486200,21.093486328125,-0.0030543238390237093,0.010995565913617611,-0.01435532234609127
1710891331462446300,21.1124462890625,-0.023823726922273636,0.004581485874950886,-0.0021380267571657896
1710891331481406500,21.131406494140624,-0.019853105768561363,-0.02626718580722809,-0.001832594396546483
1710891331500366600,21.15036669921875,-0.014049889519810677,-0.0665842592716217,0.003970621153712273
1710891331519327000,21.169326904296874,0.005803215317428112,-0.07635809481143951,0.010690134018659592
1710891331538286800,21.188286865234375,0.014049889519810677,-0.054672397673130035,0.01954767294228077
1710891331557247200,21.207247314453124,0.006719512399286032,-0.017104214057326317,0.011300998739898205
1710891331576207400,21.226207275390625,0.0015271619195118546,0.01954767294228077,-0.001221729558892548
1710891331595167500,21.24516748046875,-0.034208428114652634,0.0030543238390237093,-0.007635809946805239
1710891331614127600,21.264127685546875,-0.01282816007733345,-0.000305432389723137,-0.02412915788590908
1710891331633087700,21.283087646484375,-0.0054977829568088055,0.022907428443431854,-0.02718348242342472
1710891331652048100,21.302048095703125,-0.007941242307424545,0.06872228533029556,-0.021685699000954628
1710891331671008000,21.321008056640625,0.000305432389723137,0.03390299528837204,0.013439024798572063
1710891331689968400,21.339968505859375,-0.000610864779446274,-0.0513126403093338,0.03023780696094036
1710891331708928500,21.358928466796876,0.004581485874950886,-0.03695731982588768,0.003359756199643016
1710891331727888600,21.377888671875,0.0027488914784044027,0.041844237595796585,-0.02718348242342472
1710891331746848800,21.396848876953126,0.006719512399286032,0.07849612087011337,-0.04153880476951599
1710891331765809000,21.415808837890626,0.0054977829568088055,-0.015577051788568497,-0.0308486707508564
1710891331784769300,21.434769287109376,-0.006719512399286032,-0.0412333719432354,-0.007330377586185932
1710891331803729400,21.4537294921875,0.006108647678047419,-0.014660755172371864,0.010690134018659592
1710891331822689500,21.472689453125,0.02932151034474373,-0.057726722210645676,0.014049889519810677
1710891331841649700,21.491649658203126,0.0256563201546669,-0.08093958348035812,0.0027488914784044027
1710891331860609800,21.51060986328125,0.007024944759905338,-0.05222893878817558,-0.022296564653515816
1710891331879570000,21.52956982421875,0.009162971749901772,-0.0412333719432354,-0.013133592903614044
1710891331898530300,21.5485302734375,0.02626718580722809,0.022296564653515816,-0.02871064469218254
1710891331917490400,21.567490478515627,0.019242240116000175,0.06047561392188072,-0.03329212963581085
1710891331936450600,21.586450439453124,0.016798781231045723,0.007635809946805239,-0.007330377586185932
1710891331955410700,21.60541064453125,0.035124726593494415,-0.08826996386051178,0.006414080038666725
1710891331974370800,21.624370849609374,0.016798781231045723,-0.08155044913291931,0
1710891331993331000,21.6433310546875,0.0021380267571657896,0.036651886999607086,-0.03451386094093323
1710891332012291300,21.662291259765624,-0.003665188793092966,0.09315688163042068,-0.05833758786320686
1710891332031251500,21.68125146484375,0.014966187067329884,0.043371398001909256,-0.04520399495959282
1710891332050211600,21.700211669921874,0.005192350596189499,-0.0027488914784044027,-0.021991131827235222
1710891332069171700,21.719171630859375,-0.002443459117785096,0.032681263983249664,-0.023823726922273636
1710891332088131800,21.7381318359375,-0.005803215317428112,0.07941242307424545,-0.04367683082818985
1710891332107092200,21.75709228515625,-0.003359756199643016,0.09010255336761475,-0.05222893878817558
1710891332126052400,21.77605224609375,0.007330377586185932,0.04581485688686371,-0.031154103577136993
1710891332145012500,21.795012451171875,0.012522728182375431,-0.013133592903614044,-0.017715077847242355
1710891332163972600,21.81397265625,-0.018325943499803543,0.02626718580722809,-0.02932151034474373
1710891332182933000,21.83293310546875,-0.003970621153712273,0.07330377399921417,-0.049480047076940536
1710891332201893000,21.85189306640625,0.0021380267571657896,0.05955931544303894,-0.03940077871084213
1710891332220853200,21.870853271484375,-0.010384701192378998,0.03298669680953026,-0.02932151034474373
1710891332239813400,21.8898134765625,-0.01588248461484909,0.04917461425065994,-0.03237583488225937
1710891332258773500,21.9087734375,0.014966187067329884,0.05039634555578232,-0.03237583488225937
1710891332277733600,21.927733642578126,0.025350889191031456,0.03390299528837204,-0.01435532234609127
1710891332296694000,21.946694091796875,-0.01588248461484909,0.05070177838206291,-0.020769402384757996
1710891332315654100,21.965654052734376,-0.05558869615197182,-0.02626718580722809,0.028099779039621353
1710891332334614300,21.9846142578125,-0.004886918235570192,-0.13225223124027252,0.060781046748161316
1710891332353574700,22.00357470703125,0.028405211865901947,-0.1951712965965271,0.05100720748305321
1710891332372534800,22.02253466796875,0.022907428443431854,-0.08277218043804169,-0.006414080038666725
1710891332391495000,22.041494873046876,0.002443459117785096,0.014049889519810677,-0.034208428114652634
1710891332410455000,22.060455078125,-0.03481929376721382,0.08032871782779694,-0.056810423731803894
1710891332429415400,22.07941552734375,-0.01282816007733345,0.08918625861406326,-0.0461202897131443
1710891332448375600,22.09837548828125,0.01649334840476513,-0.0054977829568088055,-0.012217295356094837
1710891332467335700,22.117335693359376,0.001221729558892548,-0.03298669680953026,-0.014049889519810677
1710891332486295800,22.1362958984375,-0.017104214057326317,0.04673115536570549,-0.034208428114652634
1710891332505256000,22.155255859375,0.02107483521103859,0.07330377399921417,-0.043371398001909256
1710891332524216300,22.17421630859375,0.015271619893610477,0.011300998739898205,-0.01893680728971958
1710891332543176400,22.193176513671876,0.021380268037319183,-0.021380268037319183,-0.015577051788568497
1710891332562136600,22.212136474609373,0.03145953640341759,0.0027488914784044027,-0.016798781231045723
1710891332581097000,22.231096923828126,0.015271619893610477,0.05589412897825241,-0.030543239787220955
1710891332600057000,22.25005712890625,0.023518294095993042,0.05345066636800766,-0.05406153202056885
1710891332619017200,22.269017333984376,0.02932151034474373,0.08338304609060287,-0.06536252796649933
1710891332637977300,22.287977294921873,-0.010690134018659592,0.09529490768909454,-0.04306596517562866
1710891332656937500,22.3069375,-0.024434590712189674,0.09040798991918564,-0.047036588191986084
1710891332675897900,22.32589794921875,0,0.03390299528837204,-0.021380268037319183
1710891332694858000,22.34485791015625,0.01954767294228077,-0.020769402384757996,-0.01954767294228077
1710891332713818000,22.363818115234373,-0.014966187067329884,0.026572618633508682,-0.03848448023200035
1710891332732778500,22.382778564453126,-0.023823726922273636,0.10384701192378998,-0.038789913058280945
1710891332751738600,22.401738525390623,0.006719512399286032,0.06566796451807022,-0.020769402384757996
1710891332770698800,22.42069873046875,0.018325943499803543,0.016798781231045723,-0.035124726593494415
1710891332789659100,22.4396591796875,0.012217295356094837,0.007635809946805239,-0.029626941308379173
1710891332808619300,22.458619384765626,0.004581485874950886,0.010690134018659592,-0.01740964688360691
1710891332827579400,22.477579345703123,0.007024944759905338,0.004886918235570192,-0.018325943499803543
1710891332846539800,22.496539794921876,-0.001832594396546483,-0.028405211865901947,0.000305432389723137
1710891332865500000,22.5155,-0.016187917441129684,-0.05192350596189499,-0.003665188793092966
1710891332884460000,22.5344599609375,-0.01649334840476513,-0.02107483521103859,-0.011300998739898205
1710891332903420400,22.55342041015625,0.000305432389723137,-0.037262752652168274,-0.0030543238390237093
1710891332922380500,22.572380615234376,0.000610864779446274,-0.0461202897131443,-0.0030543238390237093
1710891332941340700,22.591340576171874,-0.014049889519810677,0.0409279391169548,-0.025961752980947495
1710891332960300800,22.61030078125,-0.010384701192378998,0.0870482325553894,-0.03451386094093323
1710891332979261200,22.62926123046875,-0.023518294095993042,0.006414080038666725,-0.001832594396546483
1710891332998221300,22.64822119140625,-0.0256563201546669,-0.02260199747979641,-0.007024944759905338
1710891333017181400,22.667181396484374,-0.031154103577136993,0.026878049597144127,-0.020158538594841957
1710891333036141800,22.686141845703126,-0.020158538594841957,0.09498947113752365,-0.024434590712189674
1710891333055102000,22.70510205078125,-0.002443459117785096,0.041844237595796585,-0.014049889519810677
1710891333074062000,22.72406201171875,-0.029932374134659767,0.047952886670827866,-0.019853105768561363
1710891333093022500,22.7430224609375,-0.02260199747979641,0.04886918142437935,0.001221729558892548
1710891333111982600,22.761982666015626,-0.012217295356094837,-0.007024944759905338,0.006108647678047419
1710891333130942700,22.780942626953124,-0.006108647678047419,0.004581485874950886,0.000610864779446274
1710891333149903000,22.799903076171876,-0.014049889519810677,0.021685699000954628,-0.010384701192378998
1710891333168863200,22.81886328125,-0.014049889519810677,0.0665842592716217,-0.012217295356094837
1710891333187823400,22.8378232421875,-0.006108647678047419,0.03543015569448471,-0.005803215317428112
1710891333206783700,22.85678369140625,0.0054977829568088055,-0.011911863461136818,0.006719512399286032
1710891333225744000,22.875743896484376,-0.004276053514331579,0.016798781231045723,-0.0030543238390237093
1710891333244704300,22.894704345703126,-0.007330377586185932,0.016187917441129684,-0.003359756199643016
1710891333263664400,22.913664306640626,0.004276053514331579,-0.003359756199643016,-0.0021380267571657896
1710891333282624500,22.93262451171875,0.013439024798572063,-0.0015271619195118546,-0.011606430634856224
1710891333301585000,22.9515849609375,-0.007330377586185932,0.03543015569448471,-0.00946840364485979
1710891333320545000,22.970544921875,-0.010079269297420979,0.025350889191031456,-0.007330377586185932
1710891333339505200,22.989505126953127,0.016187917441129684,-0.03298669680953026,-0.004581485874950886
1710891333358465300,23.00846533203125,0.012522728182375431,-0.022296564653515816,-0.017715077847242355
1710891333377425700,23.02742578125,0.000610864779446274,0.04306596517562866,-0.013133592903614044
1710891333396386000,23.046385986328126,0.0027488914784044027,-0.008552107028663158,0.000305432389723137
1710891333415346200,23.06534619140625,0.01282816007733345,-0.05497783049941063,-0.000610864779446274
1710891333434306300,23.084306396484376,0.003665188793092966,-0.018631376326084137,-0.026572618633508682
1710891333453266400,23.103266357421877,0.012217295356094837,0.010690134018659592,-0.021380268037319183
1710891333472226800,23.122226806640626,0.015577051788568497,-0.011911863461136818,-0.016798781231045723
1710891333491187000,23.14118701171875,0.006108647678047419,-0.026572618633508682,-0.004581485874950886
1710891333510147300,23.160147216796876,-0.004581485874950886,-0.006719512399286032,-0.0027488914784044027
1710891333529107500,23.179107421875,0.03145953640341759,-0.00946840364485979,-0.007330377586185932
1710891333548067600,23.198067626953126,0.023212861269712448,-0.017715077847242355,-0.031154103577136993
1710891333567028000,23.217028076171875,-0.017715077847242355,0.056810423731803894,-0.0513126403093338
1710891333585988000,23.235988037109376,0.003359756199643016,0.03481929376721382,-0.02107483521103859
1710891333604948500,23.254948486328125,0.0308486707508564,-0.0772743970155716,0.0021380267571657896
1710891333623908600,23.27390869140625,0.009773836471140385,-0.06108647957444191,-0.008246674202382565
1710891333642868700,23.29286865234375,-0.0015271619195118546,0.0412333719432354,-0.03298669680953026
1710891333661829000,23.3118291015625,0.007330377586185932,0.047036588191986084,-0.03329212963581085
1710891333680789200,23.330789306640625,0.025350889191031456,-0.008552107028663158,-0.035124726593494415
1710891333699749600,23.34974951171875,0.013439024798572063,0.008246674202382565,-0.03329212963581085
1710891333718709800,23.368709716796875,-0.0027488914784044027,0.03329212963581085,-0.02260199747979641
1710891333737670000,23.387669921875,0.0030543238390237093,-0.0030543238390237093,-0.01802051067352295
1710891333756630300,23.40663037109375,0.005803215317428112,-0.030543239787220955,-0.01435532234609127
