time,seconds_elapsed,z,y,x
1710887967668511200,0.04051123046875,0.4503808319568634,8.290830612182617,5.218205451965332
1710887967687470600,0.059470703125,0.483819842338562,8.23389720916748,5.304643630981445
1710887967706430500,0.078430419921875,0.523105263710022,8.200726509094238,5.352087020874023
1710887967725390000,0.09739013671875,0.5535034537315369,8.19601058959961,5.356252193450928
1710887967744349700,0.116349609375,0.5580053925514221,8.20543384552002,5.341336727142334
1710887967763309300,0.135309326171875,0.54213547706604,8.219852447509766,5.320760726928711
1710887967782269000,0.15426904296875,0.5134222507476807,8.242380142211914,5.288662910461426
1710887967801228500,0.173228515625,0.4837167263031006,8.271222114562988,5.2462639808654785
1710887967820188200,0.192188232421875,0.4543856978416443,8.297863006591797,5.206667423248291
1710887967839147800,0.211147705078125,0.42653119564056396,8.3142671585083,5.182801723480225
1710887967858107600,0.230107666015625,0.4048864543437958,8.320573806762695,5.174408435821533
1710887967877067300,0.2490673828125,0.3919275999069214,8.322096824645996,5.172956466674805
1710887967896027000,0.26802685546875,0.3884378671646118,8.322128295898438,5.173169136047363
1710887967914986500,0.286986572265625,0.3892773985862732,8.319684028625488,5.177036762237549
1710887967933946000,0.305946044921875,0.38847097754478455,8.318537712097168,5.178938388824463
1710887967952905700,0.32490576171875,0.38004037737846375,8.321141242980957,5.175381183624268
1710887967971865300,0.343865234375,0.3635353446006775,8.329121589660645,5.16371488571167
1710887967990825000,0.362824951171875,0.3408806324005127,8.342771530151367,5.143184185028076
1710887968009784800,0.381784912109375,0.3111278712749481,8.360379219055176,5.11640739440918
1710887968028744400,0.400744384765625,0.2746484875679016,8.382302284240723,5.082515239715576
1710887968047704000,0.4197041015625,0.230741947889328,8.409876823425293,5.03895902633667
1710887968066663700,0.43866357421875,0.180620938539505,8.442569732666016,4.986059188842773
1710887968085623300,0.457623291015625,0.1286928504705429,8.47696590423584,4.928983211517334
1710887968104583000,0.4765830078125,0.07511208206415176,8.511015892028809,4.87107515335083
1710887968123542800,0.495542724609375,0.02935671992599964,8.54428482055664,4.812973976135254
1710887968142502400,0.51450244140625,0.00214182585477829,8.579633712768555,4.749762535095215
1710887968161462000,0.5334619140625,-0.006243641953915358,8.620009422302246,4.676087856292725
1710887968180421600,0.552421630859375,-0.0008539748378098011,8.667543411254883,4.5873823165893555
1710887968199381200,0.57138134765625,0.014784353785216808,8.721219062805176,4.484473705291748
1710887968218341000,0.590341064453125,0.03768554702401161,8.776741027832031,4.374675750732422
1710887968237300700,0.60930078125,0.06308046728372574,8.83059024810791,4.264631748199463
1710887968256260400,0.62826025390625,0.08717949688434601,8.88363265991211,4.152574062347412
1710887968275220000,0.647219970703125,0.10708661377429962,8.938064575195312,4.033599853515625
1710887968294179600,0.6661796875,0.12356600165367126,8.995440483093262,3.903481960296631
1710887968313139500,0.685139404296875,0.13222168385982513,9.05441951751709,3.7643609046936035
1710887968332099000,0.70409912109375,0.13167163729667664,9.111176490783691,3.6248459815979004
1710887968351058700,0.72305859375,0.12543119490146637,9.164758682250977,3.4873836040496826
1710887968370018300,0.742018310546875,0.10915891826152802,9.2169828414917,3.3474884033203125
1710887968388978200,0.760978271484375,0.08828400075435638,9.266648292541504,3.208085775375366
1710887968407937800,0.779937744140625,0.0568365603685379,9.312576293945312,3.072956085205078
1710887968426897400,0.7988974609375,0.013136256486177444,9.354108810424805,2.9446330070495605
1710887968445857300,0.817857177734375,-0.0431349016726017,9.391587257385254,2.8225185871124268
1710887968464817000,0.83681689453125,-0.09864621609449387,9.42369556427002,2.711941957473755
1710887968483776500,0.855776611328125,-0.13404682278633118,9.45283031463623,2.6069939136505127
1710887968502736100,0.874736083984375,-0.1300395131111145,9.481096267700195,2.502460479736328
1710887968521696000,0.893696044921875,-0.08809332549571991,9.508912086486816,2.3964993953704834
1710887968540655600,0.912655517578125,-0.029557935893535614,9.53448486328125,2.294144630432129
1710887968559615200,0.931615234375,0.03240954875946045,9.553132057189941,2.2151782512664795
1710887968578575000,0.9505751953125,0.09220420569181442,9.560361862182617,2.182058095932007
1710887968597534700,0.96953466796875,0.14377698302268982,9.554946899414062,2.2028870582580566
1710887968616494300,0.988494384765625,0.19459417462348938,9.53571891784668,2.2809181213378906
1710887968635454000,1.007453857421875,0.248243510723114,9.506417274475098,2.3951594829559326
1710887968654413800,1.026413818359375,0.30865803360939026,9.47341537475586,2.515852689743042
1710887968673373400,1.04537353515625,0.3706290125846863,9.442770957946777,2.620515823364258
1710887968692333000,1.0643330078125,0.42647528648376465,9.418185234069824,2.699310541152954
1710887968711292700,1.083292724609375,0.47181373834609985,9.400760650634766,2.7519962787628174
1710887968730252500,1.10225244140625,0.5102051496505737,9.389105796813965,2.7847371101379395
1710887968749212200,1.121212158203125,0.5462231636047363,9.381293296813965,2.8041703701019287
1710887968768172000,1.140172119140625,0.5799309611320496,9.375321388244629,2.8173420429229736
1710887968787131600,1.159131591796875,0.6144207119941711,9.368939399719238,2.8312253952026367
1710887968806091300,1.17809130859375,0.6459978222846985,9.362014770507812,2.847059726715088
1710887968825051100,1.197051025390625,0.6761027574539185,9.35460090637207,2.864389181137085
1710887968844010800,1.2160107421875,0.7045971155166626,9.347776412963867,2.879760980606079
1710887968862970600,1.234970703125,0.7271983623504639,9.343368530273438,2.8884315490722656
1710887968881930200,1.25393017578125,0.742192804813385,9.343125343322754,2.8854005336761475
1710887968900889900,1.272889892578125,0.7470999360084534,9.348292350769043,2.8673439025878906
1710887968919849700,1.291849609375,0.7389547824859619,9.358806610107422,2.834974527359009
1710887968938809300,1.310809326171875,0.7159624099731445,9.372980117797852,2.7937445640563965
1710887968957769200,1.329769287109375,0.6802622079849243,9.388249397277832,2.7510764598846436
1710887968976728800,1.348728759765625,0.6372030973434448,9.401508331298828,2.7158820629119873
1710887968995688700,1.367688720703125,0.5926477313041687,9.410447120666504,2.69492506980896
1710887969014648300,1.3866484375,0.5497780442237854,9.414835929870605,2.6886789798736572
1710887969033608000,1.40560791015625,0.5095884203910828,9.415830612182617,2.6931066513061523
1710887969052567800,1.42456787109375,0.4701772928237915,9.413933753967285,2.7068722248077393
1710887969071527400,1.44352734375,0.43246424198150635,9.408900260925293,2.730563163757324
1710887969090487300,1.4624873046875,0.4003952443599701,9.401521682739258,2.760695695877075
1710887969109447000,1.481447021484375,0.3796084225177765,9.392675399780273,2.7935497760772705
1710887969128406800,1.50040673828125,0.37062162160873413,9.3829345703125,2.827291965484619
1710887969147366400,1.519366455078125,0.3669036626815796,9.372590065002441,2.8618743419647217
1710887969166326300,1.538326171875,0.3624155521392822,9.36184310913086,2.897399663925171
1710887969185286000,1.557285888671875,0.35296201705932617,9.3514986038208,2.931767463684082
1710887969204245800,1.576245849609375,0.3353134095668793,9.341506958007812,2.96549916267395
1710887969223205400,1.595205322265625,0.3091975748538971,9.332169532775879,2.9975650310516357
1710887969242165200,1.614165283203125,0.2769251763820648,9.32490062713623,3.023233413696289
1710887969261124900,1.633124755859375,0.23679037392139435,9.321104049682617,3.0383121967315674
1710887969280084700,1.652084716796875,0.19229662418365479,9.321975708007812,3.0387816429138184
1710887969299044400,1.67104443359375,0.14791356027126312,9.32730484008789,3.0248825550079346
1710887969318004200,1.690004150390625,0.10655341297388077,9.335898399353027,3.0000040531158447
1710887969336963800,1.7089638671875,0.07081892341375351,9.346442222595215,2.968059539794922
1710887969355923700,1.727923828125,0.0403498075902462,9.358421325683594,2.930647373199463
1710887969374883600,1.746883544921875,0.013687865808606148,9.371781349182129,2.887892723083496
1710887969393843200,1.76584326171875,-0.007701549679040909,9.386646270751953,2.839223861694336
1710887969412803000,1.784802978515625,-0.02300322987139225,9.402660369873047,2.7856483459472656
1710887969431762700,1.8037626953125,-0.030458640307188034,9.419154167175293,2.729285478591919
1710887969450722600,1.82272265625,-0.029181035235524178,9.435392379760742,2.6726200580596924
1710887969469682200,1.84168212890625,-0.02192104235291481,9.450948715209961,2.617152690887451
1710887969488642000,1.86064208984375,-0.012696376070380211,9.465841293334961,2.562825918197632
1710887969507602000,1.879601806640625,-0.004331858828663826,9.480595588684082,2.507725954055786
1710887969526561500,1.8985615234375,0.0009965675417333841,9.495081901550293,2.4523050785064697
1710887969545521400,1.917521484375,0.0022384277544915676,9.508058547973633,2.4015021324157715
1710887969564481000,1.93648095703125,-0.0022606842685490847,9.518648147583008,2.3591790199279785
1710887969583441000,1.95544091796875,-0.013352413661777973,9.5271577835083,2.3245327472686768
1710887969602400800,1.97440087890625,-0.030540119856595993,9.53431224822998,2.294851303100586
1710887969621360400,1.9933603515625,-0.05290256068110466,9.538606643676758,2.2765252590179443
1710887969640320300,2.0123203125,-0.08198923617601395,9.54244327545166,2.259521484375
1710887969659280100,2.031280029296875,-0.11252275854349136,9.544886589050293,2.247856616973877
1710887969678240000,2.050239990234375,-0.13830627501010895,9.545830726623535,2.2424042224884033
1710887969697199600,2.06919970703125,-0.1556522399187088,9.546605110168457,2.237966537475586
1710887969716159200,2.0881591796875,-0.16392360627651215,9.549001693725586,2.2271230220794678
1710887969735119000,2.107119140625,-0.16277402639389038,9.552820205688477,2.2107765674591064
1710887969754079000,2.126078857421875,-0.1558455228805542,9.557145118713379,2.1925048828125
1710887969773038800,2.145038818359375,-0.14486536383628845,9.560873031616211,2.1769490242004395
1710887969791998500,2.16399853515625,-0.12792739272117615,9.564264297485352,2.1630663871765137
1710887969810958300,2.182958251953125,-0.09940707683563232,9.567915916442871,2.1483726501464844
1710887969829918200,2.201918212890625,-0.05772029981017113,9.570984840393066,2.1361887454986572
1710887969848877800,2.2208779296875,-0.006004576571285725,9.57303237915039,2.127769947052002
1710887969867837700,2.239837646484375,0.04156554490327835,9.573206901550293,2.1265835762023926
1710887969886797600,2.258797607421875,0.09207560867071152,9.57093620300293,2.1352035999298096
1710887969905757200,2.277757080078125,0.15398827195167542,9.567634582519531,2.14640212059021
1710887969924717000,2.296717041015625,0.1940792053937912,9.567651748657227,2.1430747509002686
1710887969943677000,2.315677001953125,0.20321141183376312,9.576565742492676,2.1020193099975586
1710887969962636500,2.334636474609375,0.19508551061153412,9.592881202697754,2.0270535945892334
1710887969981596400,2.353596435546875,0.19573800265789032,9.611372947692871,1.9374125003814697
1710887970000556300,2.372556396484375,0.2201072871685028,9.627691268920898,1.851889729499817
1710887970019516200,2.39151611328125,0.26484575867652893,9.639448165893555,1.7836192846298218
1710887970038476000,2.41047607421875,0.3184254467487335,9.645237922668457,1.7430955171585083
1710887970057435600,2.429435546875,0.367939293384552,9.644536972045898,1.7372159957885742
1710887970076395500,2.4483955078125,0.40643468499183655,9.638362884521484,1.7627164125442505
1710887970095355400,2.46735546875,0.43149012327194214,9.628663063049316,1.8091529607772827
1710887970114315000,2.48631494140625,0.4422440528869629,9.616565704345703,1.8698898553848267
1710887970133275000,2.50527490234375,0.4403804838657379,9.603296279907227,1.937304973602295
1710887970152234800,2.52423486328125,0.42621222138404846,9.590950012207031,2.0005977153778076
1710887970171194400,2.5431943359375,0.4019905924797058,9.580817222595215,2.05346417427063
1710887970190154200,2.562154296875,0.3727591931819916,9.572271347045898,2.0983455181121826
1710887970209114000,2.581114013671875,0.34296563267707825,9.563287734985352,2.1438968181610107
1710887970228074000,2.600073974609375,0.3150273859500885,9.55192756652832,2.1981422901153564
1710887970247033600,2.61903369140625,0.2910912036895752,9.53675365447998,2.2662713527679443
1710887970265993500,2.637993408203125,0.27206921577453613,9.517172813415527,2.349421262741089
1710887970284953300,2.656953369140625,0.2569250464439392,9.492925643920898,2.4471914768218994
1710887970303913200,2.675913330078125,0.24235855042934418,9.464202880859375,2.5574429035186768
1710887970322873000,2.694873046875,0.2240334451198578,9.431894302368164,2.675736665725708
1710887970341832700,2.713832763671875,0.19929851591587067,9.397189140319824,2.797053813934326
1710887970360792600,2.73279248046875,0.1685619354248047,9.360776901245117,2.9185338020324707
1710887970379752400,2.75175244140625,0.13471171259880066,9.323328018188477,3.0377280712127686
1710887970398712000,2.770712158203125,0.1043907031416893,9.286528587341309,3.1495838165283203
1710887970417672000,2.789671875,0.08449617773294449,9.25189208984375,3.2504966259002686
1710887970436631800,2.8086318359375,0.07883471995592117,9.21856689453125,3.343977689743042
1710887970455591700,2.827591796875,0.08702662587165833,9.18360424041748,3.43863582611084
1710887970474551600,2.846551513671875,0.10555959492921829,9.14519214630127,3.539024829864502
1710887970493511400,2.865511474609375,0.1323985904455185,9.104880332946777,3.6406068801879883
1710887970512471000,2.884470947265625,0.16425013542175293,9.067611694335938,3.731196641921997
1710887970531431000,2.903430908203125,0.1966506391763687,9.03726863861084,3.802565097808838
1710887970550390800,2.922390869140625,0.22509804368019104,9.016114234924316,3.850897789001465
1710887970569350700,2.9413505859375,0.2461710423231125,9.003739356994629,3.878462553024292
1710887970588310300,2.960310302734375,0.26284244656562805,8.99630069732666,3.8945958614349365
1710887970607270100,2.979270263671875,0.28201791644096375,8.988506317138672,3.9112143516540527
1710887970626230000,2.99822998046875,0.3149166405200958,8.976906776428223,3.935270309448242
1710887970645190000,3.01718994140625,0.3661116063594818,8.963701248168945,3.9608590602874756
1710887970664149800,3.036149658203125,0.4288918375968933,8.953401565551758,3.9778189659118652
1710887970683109400,3.055109375,0.4939438998699188,8.950849533081055,3.976015567779541
1710887970702069200,3.0740693359375,0.5493344664573669,8.96135139465332,3.944969654083252
1710887970721029000,3.093029052734375,0.5965632796287537,8.984062194824219,3.8860175609588623
1710887970739989000,3.111989013671875,0.6468386054039001,9.010066986083984,3.817155122756958
1710887970758948600,3.130948486328125,0.696540117263794,9.035367965698242,3.7479777336120605
1710887970777908500,3.149908447265625,0.7458956837654114,9.061807632446289,3.6739189624786377
1710887970796868400,3.168868408203125,0.7934092283248901,9.088841438293457,3.596364974975586
1710887970815828200,3.187828125,0.8426689505577087,9.11186695098877,3.526214599609375
1710887970834788000,3.2067880859375,0.9015238881111145,9.12967300415039,3.4650719165802
1710887970853748000,3.225748046875,0.9632483124732971,9.143237113952637,3.4122931957244873
1710887970872707600,3.24470751953125,1.0225279331207275,9.154959678649902,3.3632607460021973
1710887970891667500,3.26366748046875,1.0761387348175049,9.167102813720703,3.3130862712860107
1710887970910627300,3.28262744140625,1.123691201210022,9.180790901184082,3.2589542865753174
1710887970929587200,3.301587158203125,1.164014458656311,9.196237564086914,3.200730085372925
1710887970948547000,3.320547119140625,1.198591709136963,9.213556289672852,3.1375374794006348
1710887970967507000,3.3395068359375,1.2269794940948486,9.232479095458984,3.070218563079834
1710887970986466600,3.358466552734375,1.249876618385315,9.251679420471191,3.0024359226226807
1710887971005426400,3.377426513671875,1.270276665687561,9.269343376159668,2.938715934753418
1710887971024386300,3.39638623046875,1.2904963493347168,9.284424781799316,2.8817429542541504
1710887971043346200,3.41534619140625,1.3098804950714111,9.297989845275879,2.828779458999634
1710887971062305800,3.434305908203125,1.3241376876831055,9.312369346618652,2.774317741394043
1710887971081265700,3.453265625,1.3295451402664185,9.329797744750977,2.7124884128570557
1710887971100225500,3.4722255859375,1.3243169784545898,9.350727081298828,2.642062187194824
1710887971119185400,3.491185302734375,1.3080010414123535,9.37402057647705,2.5665664672851562
1710887971138145300,3.510145263671875,1.2834293842315674,9.397642135620117,2.491487503051758
1710887971157105200,3.529105224609375,1.254448652267456,9.419533729553223,2.42262864112854
1710887971176064800,3.548064697265625,1.2232182025909424,9.438726425170898,2.3631675243377686
1710887971195025000,3.56702490234375,1.1924772262573242,9.455191612243652,2.3125133514404297
1710887971213984500,3.585984619140625,1.1656663417816162,9.469313621520996,2.267977237701416
1710887971232944400,3.6049443359375,1.1441150903701782,9.48100757598877,2.2297725677490234
1710887971251904300,3.623904296875,1.1296495199203491,9.485233306884766,2.219147205352783
1710887971270864100,3.642864013671875,1.1183185577392578,9.482932090759277,2.2346696853637695
1710887971289823700,3.66182373046875,1.09671151638031,9.481114387512207,2.2530179023742676
1710887971308783600,3.68078369140625,1.0615390539169312,9.481607437133789,2.267738103866577
1710887971327743500,3.699743408203125,1.0153042078018188,9.486551284790039,2.2682344913482666
1710887971346703400,3.718703369140625,0.9549821019172668,9.493853569030762,2.2638766765594482
1710887971365663200,3.737663330078125,0.8715221881866455,9.497650146484375,2.2815539836883545
1710887971384623000,3.756623046875,0.7974911332130432,9.49209976196289,2.3311901092529297
1710887971403582700,3.775582763671875,0.7331811189651489,9.489075660705566,2.364377498626709
1710887971422542600,3.79454248046875,0.670380711555481,9.502739906311035,2.327855348587036
1710887971441502500,3.81350244140625,0.6144506931304932,9.524048805236816,2.255070447921753
1710887971460462300,3.83246240234375,0.5880456566810608,9.537579536437988,2.204357385635376
1710887971479422200,3.851422119140625,0.6077414155006409,9.534184455871582,2.2136757373809814
1710887971498382000,3.870382080078125,0.6377553343772888,9.516215324401855,2.281512975692749
1710887971517342000,3.889342041015625,0.6485984325408936,9.490228652954102,2.3843791484832764
1710887971536301600,3.908301513671875,0.6310992240905762,9.464750289916992,2.488088846206665
1710887971555261400,3.927261474609375,0.5864219069480896,9.44954776763916,2.5558853149414062
1710887971574221300,3.94622119140625,0.5299366116523743,9.446662902832031,2.5787816047668457
1710887971593181200,3.96518115234375,0.4799027740955353,9.45068073272705,2.573853015899658
1710887971612140800,3.984140869140625,0.44649752974510193,9.45296573638916,2.5714731216430664
1710887971631101000,4.003100830078125,0.4365459382534027,9.448212623596191,2.5905768871307373
1710887971650060500,4.022060546875,0.44786861538887024,9.435853958129883,2.63333797454834
1710887971669020400,4.0410205078125,0.4756302237510681,9.41794204711914,2.6919384002685547
1710887971687980300,4.059980224609375,0.5133326053619385,9.397453308105469,2.755857229232788
1710887971706940200,4.078940185546875,0.5563274025917053,9.37539291381836,2.8218588829040527
1710887971725900000,4.097900146484375,0.5968769192695618,9.352065086364746,2.8901584148406982
1710887971744859600,4.116859619140625,0.6256667375564575,9.32832145690918,2.959956407546997
1710887971763819500,4.135819580078125,0.6358786225318909,9.305595397949219,3.0285210609436035
1710887971782779400,4.154779296875,0.6246107816696167,9.286229133605957,3.0896949768066406
1710887971801739300,4.1737392578125,0.5966405272483826,9.272329330444336,3.136608600616455
1710887971820699100,4.19269921875,0.5609726905822754,9.264330863952637,3.1666829586029053
1710887971839659000,4.211658935546875,0.5263673663139343,9.261833190917969,3.1798996925354004
1710887971858618600,4.23061865234375,0.4978962540626526,9.262430191040039,3.1827492713928223
1710887971877578500,4.24957861328125,0.47687336802482605,9.262226104736328,3.1865570545196533
1710887971896538400,4.268538330078125,0.4625566601753235,9.258058547973633,3.200749158859253
1710887971915498200,4.287498291015625,0.4529084861278534,9.248462677001953,3.229734420776367
1710887971934458000,4.3064580078125,0.44285184144973755,9.233193397521973,3.2745096683502197
1710887971953418000,4.32541796875,0.42436233162879944,9.21232795715332,3.335162401199341
1710887971972377600,4.344377685546875,0.38970208168029785,9.188694953918457,3.403883695602417
1710887971991337500,4.36333740234375,0.33414554595947266,9.17225170135498,3.453770875930786
1710887972010297300,4.38229736328125,0.2571209669113159,9.173117637634277,3.4580609798431396
1710887972029257200,4.40125732421875,0.16834020614624023,9.19128131866455,3.415025472640991
1710887972048217000,4.420217041015625,0.08439259976148605,9.219343185424805,3.341700553894043
1710887972067177000,4.439177001953125,0.015872985124588013,9.248774528503418,3.2604150772094727
1710887972086136600,4.458136474609375,-0.03442767262458801,9.273802757263184,3.188382148742676
1710887972105096400,4.477096435546875,-0.06801146268844604,9.292611122131348,3.132591962814331
1710887972124056300,4.496056396484375,-0.08849162608385086,9.306593894958496,3.0902862548828125
1710887972143016200,4.51501611328125,-0.09919322282075882,9.31774616241455,3.0561678409576416
1710887972161976000,4.53397607421875,-0.10476107895374298,9.32694149017334,3.027804136276245
1710887972180936000,4.55293603515625,-0.11013098061084747,9.334688186645508,3.003638744354248
1710887972199895800,4.571895751953125,-0.12091188877820969,9.340970039367676,2.9836323261260986
1710887972218855400,4.59085546875,-0.14257869124412537,9.344619750976562,2.9712202548980713
1710887972237815300,4.609815185546875,-0.18027062714099884,9.344974517822266,2.9680535793304443
1710887972256775200,4.628775146484375,-0.2353004664182663,9.343277931213379,2.9695425033569336
1710887972275735000,4.647735107421875,-0.3047598600387573,9.340846061706543,2.9708778858184814
1710887972294694700,4.666694580078125,-0.3838026523590088,9.338001251220703,2.9706599712371826
1710887972313654800,4.68565478515625,-0.46391159296035767,9.33520221710205,2.9680259227752686
1710887972332614400,4.704614501953125,-0.5336195826530457,9.332342147827148,2.9653048515319824
1710887972351574300,4.72357421875,-0.5835201144218445,9.328949928283691,2.966578483581543
1710887972370534100,4.7425341796875,-0.608519971370697,9.32347583770752,2.9787395000457764
1710887972389494000,4.761493896484375,-0.6084575653076172,9.314094543457031,3.0079586505889893
1710887972408453600,4.78045361328125,-0.5839954018592834,9.298724174499512,3.0599136352539062
1710887972427413500,4.79941357421875,-0.5417686700820923,9.27632999420166,3.1347367763519287
1710887972446373400,4.818373291015625,-0.4949905574321747,9.249279975891113,3.221209764480591
1710887972465333200,4.837333251953125,-0.46063119173049927,9.221960067749023,3.303581953048706
1710887972484293000,4.856293212890625,-0.44871625304222107,9.197793960571289,3.371889114379883
1710887972503253000,4.8752529296875,-0.4589834213256836,9.177848815917969,3.424445390701294
1710887972522212900,4.894212890625,-0.48604658246040344,9.162749290466309,3.460949420928955
1710887972541172500,4.91317236328125,-0.5216984748840332,9.152082443237305,3.4839072227478027
1710887972560132400,4.93213232421875,-0.5569087862968445,9.145200729370117,3.4965057373046875
1710887972579092200,4.95109228515625,-0.5865758657455444,9.141319274902344,3.5017974376678467
1710887972598052000,4.970052001953125,-0.6094272136688232,9.139079093933105,3.503743886947632
1710887972617012000,4.989011962890625,-0.6252063512802124,9.136931419372559,3.506564140319824
1710887972635971600,5.0079716796875,-0.634332001209259,9.133909225463867,3.512794256210327
1710887972654931500,5.026931396484375,-0.6382831335067749,9.129742622375488,3.522892951965332
1710887972673891300,5.045891357421875,-0.6391597390174866,9.125033378601074,3.5349152088165283
1710887972692851200,5.064851318359375,-0.6390329599380493,9.121097564697266,3.5450828075408936
1710887972711811000,5.08381103515625,-0.6392489671707153,9.11882495880127,3.550884485244751
1710887972730770700,5.102770751953125,-0.6405172944068909,9.118341445922852,3.5518958568573
1710887972749730600,5.12173046875,-0.6437077522277832,9.120177268981934,3.5466041564941406
1710887972768690400,5.1406904296875,-0.6481740474700928,9.125486373901367,3.532104730606079
1710887972787650300,5.159650390625,-0.6548709273338318,9.138826370239258,3.496195077896118
1710887972806610200,5.178610107421875,-0.6630005836486816,9.153616905212402,3.4557363986968994
1710887972825569800,5.19756982421875,-0.6717182993888855,9.168493270874023,3.414367198944092
1710887972844529700,5.21652978515625,-0.6809630393981934,9.18242073059082,3.3748819828033447
1710887972863489500,5.235489501953125,-0.6898884773254395,9.19500732421875,3.338604211807251
1710887972882449400,5.254449462890625,-0.6963817477226257,9.205561637878418,3.3080317974090576
1710887972901409300,5.2734091796875,-0.7004672288894653,9.214128494262695,3.2832226753234863
1710887972920369200,5.292369140625,-0.7030692100524902,9.221049308776855,3.2631771564483643
1710887972939328800,5.311328857421875,-0.7040975093841553,9.226692199707031,3.246964454650879
1710887972958288600,5.33028857421875,-0.7055084109306335,9.231142044067383,3.233985662460327
1710887972977248500,5.34924853515625,-0.7059364318847656,9.234112739562988,3.2254014015197754
1710887972996208400,5.36820849609375,-0.7050263285636902,9.235137939453125,3.2226614952087402
1710887973015168000,5.38716796875,-0.7014364004135132,9.23434066772461,3.2257285118103027
1710887973034128000,5.4061279296875,-0.6953253746032715,9.232148170471191,3.2333195209503174
1710887973053087700,5.425087646484375,-0.6867344379425049,9.229025840759277,3.2440505027770996
1710887973072047600,5.444047607421875,-0.6771318912506104,9.224940299987793,3.2576606273651123
1710887973091007500,5.463007568359375,-0.6684120297431946,9.220165252685547,3.272942543029785
1710887973109967400,5.48196728515625,-0.6612119674682617,9.215139389038086,3.288522958755493
1710887973128927000,5.500927001953125,-0.6559357643127441,9.210261344909668,3.303215265274048
1710887973147886800,5.519886962890625,-0.6524494886398315,9.206191062927246,3.3152289390563965
1710887973166846700,5.5388466796875,-0.651124119758606,9.20365047454834,3.322535991668701
1710887973185806600,5.557806640625,-0.652012825012207,9.202513694763184,3.325510263442993
1710887973204766200,5.57676611328125,-0.6544519066810608,9.202753067016602,3.3243660926818848
1710887973223726000,5.59572607421875,-0.65739506483078,9.203948974609375,3.3204762935638428
1710887973242686000,5.61468603515625,-0.6588951349258423,9.206062316894531,3.3143138885498047
1710887973261645800,5.633645751953125,-0.6589953303337097,9.208708763122559,3.306931257247925
1710887973280605700,5.652605712890625,-0.6589219570159912,9.211893081665039,3.298063278198242
1710887973299565300,5.6715654296875,-0.6605032682418823,9.21525764465332,3.288334369659424
1710887973318525200,5.690525146484375,-0.664485514163971,9.218413352966309,3.2786762714385986
1710887973337485000,5.709485107421875,-0.6704684495925903,9.2212553024292,3.2694482803344727
1710887973356445000,5.72844482421875,-0.6768629550933838,9.22424030303955,3.259699583053589
1710887973375404500,5.747404541015625,-0.6824244260787964,9.227471351623535,3.249377489089966
1710887973394364400,5.766364501953125,-0.684707760810852,9.231108665466309,3.238548517227173
1710887973413324300,5.78532421875,-0.6826426386833191,9.234572410583496,3.229095935821533
1710887973432284200,5.8042841796875,-0.676216721534729,9.237448692321777,3.222212553024292
1710887973451244000,5.823244140625,-0.6658109426498413,9.239825248718262,3.2175662517547607
1710887973470203600,5.84220361328125,-0.6521520018577576,9.24157428741455,3.2153351306915283
1710887973489163500,5.86116357421875,-0.6376977562904358,9.242667198181152,3.215095281600952
1710887973508123400,5.880123291015625,-0.6248827576637268,9.243210792541504,3.2160470485687256
1710887973527083300,5.899083251953125,-0.6146146059036255,9.243256568908691,3.21789288520813
1710887973546043000,5.91804296875,-0.6057659983634949,9.243064880371094,3.2201225757598877
1710887973565002800,5.937002685546875,-0.5966653823852539,9.242696762084961,3.2228775024414062
1710887973583962600,5.955962646484375,-0.5877661108970642,9.241662979125977,3.227473020553589
1710887973602922500,5.974922607421875,-0.5809431672096252,9.240118026733398,3.233126640319824
1710887973621882400,5.99388232421875,-0.5749126672744751,9.238409042358398,3.2390828132629395
1710887973640842000,6.012842041015625,-0.5680783987045288,9.236922264099121,3.24452543258667
1710887973659801900,6.0318017578125,-0.5607361793518066,9.235750198364258,3.249138116836548
1710887973678761700,6.05076171875,-0.5540153384208679,9.2348051071167,3.2529702186584473
1710887973697721600,6.0697216796875,-0.5483570694923401,9.234228134155273,3.255568742752075
1710887973716681200,6.08868115234375,-0.5447723269462585,9.233755111694336,3.2575109004974365
1710887973735641000,6.10764111328125,-0.5409679412841797,9.233698844909668,3.2583014965057373
1710887973754601000,6.12660107421875,-0.5364928245544434,9.234384536743164,3.2570981979370117
1710887973773560800,6.145560791015625,-0.5336479544639587,9.235438346862793,3.2545814514160156
1710887973792520700,6.164520751953125,-0.5327955484390259,9.2366943359375,3.2511534690856934
1710887973811480300,6.183480224609375,-0.5322853326797485,9.238089561462402,3.247272253036499
1710887973830440200,6.202440185546875,-0.5309886336326599,9.239310264587402,3.2440073490142822
1710887973849400000,6.221400146484375,-0.5275105834007263,9.240411758422852,3.241438627243042
1710887973868360000,6.24035986328125,-0.5213494300842285,9.241314888000488,3.2398576736450195
1710887973887319600,6.259319580078125,-0.5122228860855103,9.242379188537598,3.238276958465576
1710887973906279700,6.27827978515625,-0.5009202361106873,9.243766784667969,3.236083984375
1710887973925239300,6.2972392578125,-0.4886247217655182,9.245661735534668,3.2325477600097656
1710887973944199200,6.31619921875,-0.4764215052127838,9.2479829788208,3.2277257442474365
1710887973963159000,6.335158935546875,-0.46442902088165283,9.250611305236816,3.2219369411468506
1710887973982119000,6.354118896484375,-0.4517652690410614,9.253640174865723,3.2150347232818604
1710887974001078500,6.37307861328125,-0.4401434361934662,9.2567720413208,3.2076215744018555
1710887974020038400,6.392038330078125,-0.42934539914131165,9.259580612182617,3.20097279548645
1710887974038998300,6.410998291015625,-0.4194242060184479,9.26200008392334,3.1952803134918213
1710887974057958100,6.429958251953125,-0.41041499376296997,9.263701438903809,3.191519021987915
1710887974076918000,6.44891796875,-0.4004192352294922,9.265027046203613,3.1889376640319824
1710887974095878000,6.4678779296875,-0.38993045687675476,9.266250610351562,3.18668270111084
1710887974114837500,6.48683740234375,-0.3803318738937378,9.267489433288574,3.184234857559204
1710887974133797400,6.50579736328125,-0.37285682559013367,9.26828384399414,3.1828105449676514
1710887974152757200,6.52475732421875,-0.36706215143203735,9.268651008605957,3.1824145317077637
1710887974171717000,6.543717041015625,-0.3614847660064697,9.268733978271484,3.182812452316284
1710887974190676700,6.5626767578125,-0.35581105947494507,9.26858139038086,3.183891534805298
1710887974209636900,6.581636962890625,-0.3513444662094116,9.268549919128418,3.1844801902770996
1710887974228596500,6.600596435546875,-0.3484707176685333,9.268498420715332,3.1849474906921387
1710887974247556400,6.619556396484375,-0.3469010889530182,9.268550872802734,3.1849687099456787
1710887974266516200,6.63851611328125,-0.3452130854129791,9.267975807189941,3.1868231296539307
1710887974285476000,6.65747607421875,-0.34271952509880066,9.267300605773926,3.1890532970428467
1710887974304436000,6.67643603515625,-0.3389182984828949,9.266712188720703,3.1911721229553223
1710887974323395600,6.6953955078125,-0.33312442898750305,9.266613006591797,3.192068576812744
1710887974342355500,6.71435546875,-0.3267885148525238,9.266992568969727,3.1916208267211914
1710887974361315300,6.7333154296875,-0.32059112191200256,9.268052101135254,3.189171314239502
1710887974380275200,6.752275146484375,-0.31570595502853394,9.269378662109375,3.1858036518096924
1710887974399235000,6.771235107421875,-0.31127822399139404,9.271183013916016,3.180983781814575
1710887974418195000,6.79019482421875,-0.3063366413116455,9.273640632629395,3.1742944717407227
1710887974437154800,6.80915478515625,-0.302355021238327,9.276557922363281,3.166140556335449
1710887974456114700,6.82811474609375,-0.3012448251247406,9.279678344726562,3.1570889949798584
1710887974475074300,6.84707421875,-0.3034372329711914,9.282285690307617,3.149203062057495
1710887974494034200,6.8660341796875,-0.3066287636756897,9.28404712677002,3.1436965465545654
1710887974512994000,6.884994140625,-0.3084005117416382,9.2853422164917,3.139695644378662
1710887974531954000,6.903953857421875,-0.3090118169784546,9.286290168762207,3.1368329524993896
1710887974550913800,6.922913818359375,-0.30969536304473877,9.28678035736084,3.135309934616089
1710887974569873700,6.941873779296875,-0.310554563999176,9.286822319030762,3.135103225708008
1710887974588833500,6.96083349609375,-0.3113771677017212,9.286406517028809,3.13625431060791
1710887974607793400,6.97979345703125,-0.31045132875442505,9.28597354888916,3.1376278400421143
1710887974626753000,6.9987529296875,-0.3083556890487671,9.286076545715332,3.1375300884246826
1710887974645713000,7.017712890625,-0.3068412244319916,9.286598205566406,3.1361310482025146
1710887974664672800,7.0366728515625,-0.3069477081298828,9.2874755859375,3.1335244178771973
1710887974683632600,7.055632568359375,-0.30777645111083984,9.28836441040039,3.1308059692382812
1710887974702592500,7.074592529296875,-0.3092403709888458,9.289101600646973,3.1284735202789307
1710887974721552400,7.093552490234375,-0.3107725977897644,9.289408683776855,3.127408504486084
1710887974740512300,7.11251220703125,-0.3123491108417511,9.289586067199707,3.126728057861328
1710887974759472000,7.13147216796875,-0.31465259194374084,9.289758682250977,3.125983953475952
1710887974778432000,7.150431884765625,-0.3188124895095825,9.289581298828125,3.1260859966278076
1710887974797392000,7.169391845703125,-0.3247685432434082,9.288905143737793,3.127485513687134
1710887974816351700,7.188351806640625,-0.33184412121772766,9.287818908691406,3.129965305328369
1710887974835311600,7.2073115234375,-0.3385641872882843,9.286728858947754,3.132479190826416
1710887974854271200,7.226271240234375,-0.3429146409034729,9.285926818847656,3.134382724761963
1710887974873231000,7.245231201171875,-0.3445092737674713,9.285135269165039,3.136554002761841
1710887974892191000,7.26419091796875,-0.3440443277359009,9.284015655517578,3.1399152278900146
1710887974911150800,7.28315087890625,-0.3421306014060974,9.282177925109863,3.1455516815185547
1710887974930110700,7.30211083984375,-0.33766064047813416,9.279431343078613,3.154128313064575
1710887974949070600,7.321070556640625,-0.33039501309394836,9.27632999420166,3.1640045642852783
1710887974968030500,7.340030517578125,-0.31924036145210266,9.272907257080078,3.1751632690429688
1710887974986990300,7.358990234375,-0.3052002787590027,9.269095420837402,3.187649965286255
1710887975005950200,7.3779501953125,-0.2898281216621399,9.264873504638672,3.201327323913574
1710887975024910000,7.39691015625,-0.2741383910179138,9.26103687286377,3.213787794113159
1710887975043870000,7.415869873046875,-0.2580624520778656,9.257862091064453,3.2242486476898193
1710887975062829800,7.434829833984375,-0.2407158762216568,9.255216598510742,3.233173370361328
1710887975081789700,7.453789794921875,-0.221951425075531,9.253440856933594,3.2395927906036377
1710887975100749600,7.47274951171875,-0.20197612047195435,9.252062797546387,3.2448322772979736
1710887975119709400,7.49170947265625,-0.1811009645462036,9.250779151916504,3.249718189239502
1710887975138669300,7.51066943359375,-0.160670667886734,9.249610900878906,3.2541158199310303
1710887975157629200,7.529629150390625,-0.1412055492401123,9.249027252197266,3.2566745281219482
1710887975176589000,7.548589111328125,-0.12363065034151077,9.248915672302246,3.2577097415924072
1710887975195549000,7.567548828125,-0.10809348523616791,9.249228477478027,3.2573719024658203
1710887975214508800,7.5865087890625,-0.0953005850315094,9.249856948852539,3.2559876441955566
1710887975233468700,7.60546875,-0.0851229801774025,9.250357627868652,3.2548482418060303
1710887975252428500,7.624428466796875,-0.07722503691911697,9.251053810119629,3.2530627250671387
1710887975271388400,7.643388427734375,-0.07117316126823425,9.251718521118164,3.2513108253479004
1710887975290348300,7.662348388671875,-0.06729650497436523,9.252263069152832,3.249845027923584
1710887975309308200,7.68130810546875,-0.06672096997499466,9.25252628326416,3.2491064071655273
1710887975328268000,7.70026806640625,-0.06858362257480621,9.252314567565918,3.2496697902679443
1710887975347228000,7.719227783203125,-0.07121460139751434,9.251497268676758,3.2519376277923584
1710887975366187800,7.738187744140625,-0.07375794649124146,9.250324249267578,3.2552194595336914
1710887975385147600,7.757147705078125,-0.07563653588294983,9.248960494995117,3.2590487003326416
1710887975404107500,7.776107421875,-0.07685458660125732,9.247461318969727,3.263273000717163
1710887975423067400,7.7950673828125,-0.07746978104114532,9.24584674835205,3.2678282260894775
1710887975442027300,7.81402734375,-0.07705525308847427,9.243903160095215,3.2733280658721924
1710887975460987100,7.832987060546875,-0.07631508260965347,9.241936683654785,3.278897762298584
1710887975479947000,7.851947021484375,-0.07568661868572235,9.240249633789062,3.283665895462036
1710887975498907000,7.870906982421875,-0.07460146397352219,9.238466262817383,3.2887027263641357
1710887975517866800,7.88986669921875,-0.0719534382224083,9.236737251281738,3.2936153411865234
1710887975536826600,7.90882666015625,-0.06695841997861862,9.235147476196289,3.298175811767578
1710887975555786500,7.927786376953125,-0.06117813661694527,9.233965873718262,3.301593065261841
1710887975574746400,7.946746337890625,-0.05533531308174133,9.233260154724121,3.303668260574341
1710887975593706200,7.965706298828125,-0.05055709183216095,9.233407020568848,3.303338050842285
1710887975612666000,7.984666015625,-0.04833544045686722,9.234268188476562,3.30096173286438
1710887975631626200,8.003626220703126,-0.0486595556139946,9.235835075378418,3.296570062637329
1710887975650586000,8.022586181640625,-0.05150238797068596,9.23776912689209,3.29110050201416
1710887975669546000,8.0415458984375,-0.05653893202543259,9.239837646484375,3.2852089405059814
1710887975688505900,8.060505859375,-0.06308279931545258,9.241678237915039,3.279906749725342
1710887975707465700,8.0794658203125,-0.07092281430959702,9.243693351745605,3.2740631103515625
1710887975726425600,8.098425537109375,-0.07932158559560776,9.246055603027344,3.267195701599121
1710887975745385500,8.117385498046875,-0.0877070426940918,9.248291015625,3.2606449127197266
1710887975764345300,8.136345458984374,-0.09540155529975891,9.249958992004395,3.25569486618042
1710887975783305200,8.15530517578125,-0.1028401255607605,9.25100040435791,3.252509117126465
1710887975802265000,8.17426513671875,-0.10996007919311523,9.251668930053711,3.250372886657715
1710887975821225000,8.193224853515625,-0.11769053339958191,9.252320289611816,3.248246192932129
1710887975840184800,8.212184814453124,-0.1261744350194931,9.253064155578613,3.24580717086792
1710887975859144700,8.231144775390625,-0.1357899308204651,9.25346565246582,3.2442755699157715
1710887975878104600,8.2501044921875,-0.1458052098751068,9.253314971923828,3.2442705631256104
1710887975897064400,8.269064453125,-0.15590721368789673,9.252401351928711,3.2464046478271484
1710887975916024600,8.288024658203126,-0.16482093930244446,9.250974655151367,3.250027656555176
1710887975934984400,8.306984375,-0.17229069769382477,9.248811721801758,3.2557921409606934
1710887975953944300,8.3259443359375,-0.17880752682685852,9.246468544006348,3.262091875076294
1710887975972904200,8.344904296875,-0.18434321880340576,9.24425220489502,3.2680563926696777
1710887975991864000,8.363864013671876,-0.18825212121009827,9.24252986907959,3.2727019786834717
1710887976010824000,8.382823974609375,-0.19055494666099548,9.24148941040039,3.2755093574523926
1710887976029783800,8.40178369140625,-0.19048918783664703,9.241140365600586,3.276495933532715
1710887976048743700,8.42074365234375,-0.1882704496383667,9.241561889648438,3.2754344940185547
1710887976067703600,8.43970361328125,-0.18451501429080963,9.242820739746094,3.2720932960510254
1710887976086663700,8.45866357421875,-0.18003828823566437,9.244978904724121,3.2662417888641357
1710887976105623600,8.47762353515625,-0.17435593903064728,9.247984886169434,3.258030891418457
1710887976124583400,8.49658349609375,-0.16828306019306183,9.252071380615234,3.2467286586761475
1710887976143543300,8.515543212890625,-0.16344547271728516,9.256945610046387,3.2330546379089355
1710887976162503200,8.534503173828124,-0.16290569305419922,9.262191772460938,3.218017578125
1710887976181463000,8.553463134765625,-0.16603708267211914,9.267547607421875,3.2023987770080566
1710887976200423000,8.5724228515625,-0.1708819419145584,9.272747039794922,3.187060832977295
1710887976219382800,8.5913828125,-0.17527256906032562,9.277795791625977,3.172091484069824
1710887976238343000,8.610343017578124,-0.17985963821411133,9.2821044921875,3.159203290939331
1710887976257302800,8.629302734375,-0.1847647726535797,9.285468101501465,3.149020195007324
1710887976276262700,8.6482626953125,-0.1896045207977295,9.28758716583252,3.14247727394104
1710887976295222500,8.667222412109375,-0.19360990822315216,9.288585662841797,3.139279842376709
1710887976314182400,8.686182373046876,-0.19622711837291718,9.288679122924805,3.1388394832611084
1710887976333142300,8.705142333984375,-0.19853821396827698,9.28832721710205,3.139734983444214
1710887976352102100,8.72410205078125,-0.19940803945064545,9.287652015686035,3.1416776180267334
1710887976371062300,8.743062255859375,-0.1983107477426529,9.286677360534668,3.1446268558502197
1710887976390022100,8.762022216796876,-0.19588887691497803,9.285467147827148,3.148355484008789
1710887976408982000,8.78098193359375,-0.19347432255744934,9.284296989440918,3.1519503593444824
1710887976427942000,8.79994189453125,-0.1908378154039383,9.283408164978027,3.154728651046753
1710887976446901800,8.81890185546875,-0.18721674382686615,9.283005714416504,3.1561264991760254
1710887976465861600,8.837861572265625,-0.18331082165241241,9.282934188842773,3.1565699577331543
1710887976484821500,8.856821533203124,-0.18057294189929962,9.283171653747559,3.156028985977173
1710887976503781400,8.875781494140625,-0.17921535670757294,9.283476829528809,3.1552047729492188
1710887976522741200,8.8947412109375,-0.1797621101140976,9.283785820007324,3.1542632579803467
1710887976541701000,8.913701171875,-0.18162956833839417,9.284063339233398,3.1533446311950684
1710887976560661200,8.9326611328125,-0.18442784249782562,9.28420352935791,3.152766704559326
1710887976579621000,8.95162109375,-0.1884489506483078,9.284476280212402,3.151724100112915
1710887976598581000,8.9705810546875,-0.19268886744976044,9.284638404846191,3.150991916656494
1710887976617540900,8.989540771484375,-0.19573765993118286,9.284724235534668,3.1505510807037354
1710887976636500700,9.008500732421876,-0.1975911557674408,9.284573554992676,3.1508779525756836
1710887976655460600,9.027460693359375,-0.19897204637527466,9.284261703491211,3.1517107486724854
1710887976674420500,9.04642041015625,-0.2000422179698944,9.284061431884766,3.1522328853607178
1710887976693380600,9.065380615234375,-0.20121146738529205,9.28377914428711,3.152989387512207
1710887976712340500,9.084340576171876,-0.2024446725845337,9.283363342285156,3.1541354656219482
1710887976731300400,9.10330029296875,-0.2034190148115158,9.282858848571777,3.1555562019348145
1710887976750260200,9.12226025390625,-0.20375147461891174,9.28213119506836,3.15767502784729
1710887976769220000,9.14122021484375,-0.2036876529455185,9.281356811523438,3.1599538326263428
1710887976788180000,9.160179931640625,-0.20314760506153107,9.280417442321777,3.162747621536255
1710887976807139800,9.179139892578124,-0.20218920707702637,9.279377937316895,3.1658577919006348
1710887976826100000,9.198099853515625,-0.20113083720207214,9.278299331665039,3.1690852642059326
1710887976845059800,9.217059814453124,-0.19980813562870026,9.277229309082031,3.172299385070801
1710887976864019700,9.236019775390625,-0.19877983629703522,9.27611255645752,3.175628185272217
1710887976882979600,9.2549794921875,-0.1979551911354065,9.275074005126953,3.178713321685791
1710887976901939500,9.273939453125,-0.19627980887889862,9.273971557617188,3.182029962539673
1710887976920899300,9.2928994140625,-0.1943303793668747,9.2727689743042,3.1856513023376465
1710887976939859200,9.311859130859375,-0.191972017288208,9.27176570892334,3.188713788986206
1710887976958819000,9.330819091796876,-0.18895603716373444,9.271309852600098,3.190218925476074
1710887976977779000,9.349779052734375,-0.186208575963974,9.271411895751953,3.190082550048828
1710887976996738800,9.36873876953125,-0.18433621525764465,9.271636009216309,3.1895406246185303
1710887977015699000,9.387698974609375,-0.1828000843524933,9.271600723266602,3.1897294521331787
1710887977034658800,9.406658935546876,-0.1798066645860672,9.27135944366455,3.1906039714813232
1710887977053618700,9.42561865234375,-0.17397016286849976,9.271343231201172,3.190974235534668
1710887977072578600,9.44457861328125,-0.1670919507741928,9.271803855895996,3.1900033950805664
1710887977091538400,9.463538330078125,-0.1611347198486328,9.27264404296875,3.1878662109375
1710887977110498300,9.482498291015625,-0.15608327090740204,9.273641586303711,3.1852171421051025
1710887977129458200,9.501458251953125,-0.1523125171661377,9.274415969848633,3.183142900466919
1710887977148418000,9.52041796875,-0.14844387769699097,9.2752046585083,3.1810245513916016
1710887977167378000,9.5393779296875,-0.145138680934906,9.275922775268555,3.1790847778320312
1710887977186337800,9.558337890625,-0.1425100415945053,9.276601791381836,3.1772210597991943
1710887977205297700,9.577297607421874,-0.13983339071273804,9.27737808227539,3.1750731468200684
1710887977224257800,9.5962578125,-0.1376265585422516,9.27812385559082,3.172992467880249
1710887977243217700,9.6152177734375,-0.13537535071372986,9.278841018676758,3.170989751815796
1710887977262177500,9.634177490234375,-0.13317643105983734,9.279409408569336,3.169419765472412
1710887977281137400,9.653137451171874,-0.130461186170578,9.280089378356934,3.1675405502319336
1710887977300097300,9.67209716796875,-0.1285656839609146,9.28068733215332,3.165862560272217
1710887977319057200,9.69105712890625,-0.1277221292257309,9.281131744384766,3.1645984649658203
1710887977338017000,9.71001708984375,-0.12891481816768646,9.281681060791016,3.162935972213745
1710887977356977000,9.728976806640626,-0.13093523681163788,9.282102584838867,3.1616146564483643
1710887977375936800,9.747936767578125,-0.13339944183826447,9.282308578491211,3.1609103679656982
1710887977394896600,9.766896728515626,-0.13679662346839905,9.282333374023438,3.16068959236145
1710887977413856800,9.785856689453125,-0.14102129638195038,9.282031059265137,3.161393880844116
1710887977432816400,9.80481640625,-0.14583386480808258,9.281204223632812,3.1635990142822266
1710887977451776300,9.8237763671875,-0.1502608060836792,9.280234336853027,3.1662349700927734
1710887977470736100,9.842736083984375,-0.15349918603897095,9.279129028320312,3.1693215370178223
1710887977489696000,9.861696044921874,-0.1541038155555725,9.27813720703125,3.172191619873047
1710887977508656000,9.88065625,-0.1569821834564209,9.27624797821045,3.1775734424591064
1710887977527616000,9.899615966796874,-0.16047675907611847,9.274353981018066,3.182921886444092
1710887977546576000,9.918575927734375,-0.15964312851428986,9.273945808410645,3.184155225753784
1710887977565535700,9.93753564453125,-0.15511296689510345,9.274867057800293,3.181694746017456
1710887977584495600,9.95649560546875,-0.15216180682182312,9.276366233825684,3.1774590015411377
1710887977603455500,9.97545556640625,-0.15302899479866028,9.278093338012695,3.1723718643188477
1710887977622415400,9.994415283203125,-0.15871010720729828,9.280072212219238,3.166297435760498
1710887977641375200,10.013375244140626,-0.16712698340415955,9.282553672790527,3.1585867404937744
1710887977660335000,10.032335205078125,-0.17626844346523285,9.28536319732666,3.149815559387207
1710887977679295000,10.051294921875,-0.18412481248378754,9.287826538085938,3.1420962810516357
1710887977698254800,10.0702548828125,-0.18754678964614868,9.290283203125,3.134622573852539
1710887977717214700,10.089214599609376,-0.1862672120332718,9.29281997680664,3.127169370651245
1710887977736174600,10.108174560546875,-0.1811855435371399,9.29591178894043,3.1182665824890137
1710887977755134500,10.127134521484376,-0.17529916763305664,9.300153732299805,3.1059277057647705
1710887977774094300,10.14609423828125,-0.17022481560707092,9.306117057800293,3.088297128677368
1710887977793054200,10.16505419921875,-0.16664886474609375,9.313459396362305,3.066283941268921
1710887977812014000,10.18401416015625,-0.1657072901725769,9.320865631103516,3.043745756149292
1710887977830974000,10.202973876953125,-0.1662646234035492,9.32730770111084,3.0239171981811523
1710887977849933800,10.221933837890624,-0.167496457695961,9.332383155822754,3.008148670196533
1710887977868893700,10.240893798828125,-0.16822363436222076,9.336712837219238,2.9946422576904297
1710887977887853600,10.259853515625,-0.1693911850452423,9.339896202087402,2.9846320152282715
1710887977906813400,10.2788134765625,-0.17136935889720917,9.341703414916992,2.9788568019866943
1710887977925773300,10.297773193359374,-0.17337924242019653,9.342291831970215,2.9768948554992676
1710887977944733200,10.316733154296875,-0.17523930966854095,9.342117309570312,2.97733736038208
1710887977963693000,10.335693115234376,-0.17656970024108887,9.342021942138672,2.9775540828704834
1710887977982653000,10.35465283203125,-0.17913581430912018,9.342302322387695,2.976520538330078
1710887978001612800,10.37361279296875,-0.18214930593967438,9.342960357666016,2.9742727279663086
1710887978020572700,10.39257275390625,-0.18572646379470825,9.343708992004395,2.971698760986328
1710887978039532800,10.41153271484375,-0.1904856264591217,9.344305038452148,2.969526529312134
1710887978058492400,10.430492431640625,-0.1950916051864624,9.344877243041992,2.967425584793091
1710887978077452300,10.449452392578126,-0.19822873175144196,9.345634460449219,2.9648282527923584
1710887978096412200,10.468412109375,-0.20030373334884644,9.346726417541504,2.9612441062927246
1710887978115372300,10.487372314453125,-0.20119643211364746,9.348048210144043,2.95700740814209
1710887978134332000,10.506331787109374,-0.20232011377811432,9.349357604980469,2.952786684036255
1710887978153291800,10.525291748046875,-0.20307357609272003,9.350652694702148,2.948634624481201
1710887978172251600,10.544251708984374,-0.20287910103797913,9.351441383361816,2.9461448192596436
1710887978191211500,10.56321142578125,-0.2017536163330078,9.351781845092773,2.945141077041626
1710887978210171400,10.58217138671875,-0.19974246621131897,9.351741790771484,2.945405960083008
1710887978229131300,10.60113134765625,-0.19588562846183777,9.351304054260254,2.9470558166503906
1710887978248091100,10.620091064453124,-0.1909085512161255,9.350479125976562,2.949995994567871
1710887978267051000,10.639051025390625,-0.18546094000339508,9.349603652954102,2.953120470046997
1710887978286011000,10.658010986328126,-0.1792665421962738,9.348812103271484,2.956005811691284
1710887978304970800,10.676970703125,-0.1741788536310196,9.348234176635742,2.9581339359283447
1710887978323930600,10.6959306640625,-0.1700211465358734,9.34790325164795,2.9594240188598633
1710887978342890500,10.714890380859375,-0.16762138903141022,9.347697257995605,2.960209846496582
1710887978361850400,10.733850341796876,-0.1666376143693924,9.347399711608887,2.961205244064331
1710887978380810200,10.752810302734375,-0.1671876162290573,9.346994400024414,2.9624555110931396
1710887978399770000,10.77177001953125,-0.1687416434288025,9.346551895141602,2.963761806488037
1710887978418730000,10.79072998046875,-0.17040394246578217,9.346209526062012,2.9647464752197266
1710887978437689900,10.80968994140625,-0.17272399365901947,9.346085548400879,2.9650044441223145
1710887978456649700,10.828649658203124,-0.17533114552497864,9.34615421295166,2.9646315574645996
1710887978475609600,10.847609619140625,-0.17796443402767181,9.346111297607422,2.964609146118164
1710887978494569500,10.866569580078124,-0.1797575056552887,9.345780372619629,2.9655466079711914
1710887978513529300,10.885529296875,-0.18114128708839417,9.345197677612305,2.9673006534576416
1710887978532489200,10.9044892578125,-0.1823040395975113,9.344963073730469,2.9679672718048096
1710887978551448800,10.92344873046875,-0.18458200991153717,9.344889640808105,2.9680564403533936
1710887978570408700,10.94240869140625,-0.1883535385131836,9.344388961791992,2.969397783279419
1710887978589368600,10.96136865234375,-0.19203037023544312,9.343443870544434,2.9721343517303467
1710887978608328400,10.980328369140626,-0.19269992411136627,9.342168807983398,2.97609543800354
1710887978627288300,10.999288330078125,-0.19070535898208618,9.340967178344727,2.9799890518188477
1710887978646248200,11.018248291015626,-0.18789838254451752,9.339798927307129,2.983829975128174
1710887978665208000,11.0372080078125,-0.18604382872581482,9.338857650756836,2.986889123916626
1710887978684168000,11.05616796875,-0.1854717880487442,9.337910652160645,2.9898860454559326
1710887978703127800,11.0751279296875,-0.1856117993593216,9.336873054504395,2.9931159019470215
1710887978722087700,11.094087646484375,-0.18667104840278625,9.335771560668945,2.9964816570281982
1710887978741047600,11.113047607421874,-0.1885722428560257,9.334860801696777,2.9991984367370605
1710887978760007400,11.13200732421875,-0.19038060307502747,9.334151268005371,3.0012948513031006
1710887978778967300,11.15096728515625,-0.192349374294281,9.333601951599121,3.002872943878174
1710887978797927200,11.16992724609375,-0.19445598125457764,9.333378791809082,3.003434896469116
1710887978816887000,11.188886962890624,-0.19665271043777466,9.333512306213379,3.002873659133911
1710887978835847000,11.207846923828125,-0.1988617479801178,9.333914756774902,3.0014808177948
1710887978854806500,11.226806640625,-0.20164957642555237,9.334502220153809,2.9994688034057617
1710887978873766700,11.2457666015625,-0.20477552711963654,9.335264205932617,2.9968836307525635
1710887978892726500,11.2647265625,-0.20745903253555298,9.336204528808594,2.9937632083892822
1710887978911686100,11.28368603515625,-0.20878340303897858,9.337071418762207,2.990971088409424
1710887978930646000,11.30264599609375,-0.2089892029762268,9.337911605834961,2.988330841064453
1710887978949606100,11.321606201171875,-0.20841731131076813,9.338653564453125,2.9860496520996094
1710887978968565800,11.340565673828126,-0.20842373371124268,9.339195251464844,2.9843552112579346
1710887978987525600,11.359525634765625,-0.208407461643219,9.33953857421875,2.9832828044891357
1710887979006485500,11.378485595703125,-0.20837529003620148,9.339612007141113,2.9830563068389893
1710887979025445400,11.3974453125,-0.2071673721075058,9.339456558227539,2.9836270809173584
1710887979044405200,11.4164052734375,-0.2042524814605713,9.339275360107422,2.9843931198120117
1710887979063365000,11.435365234375,-0.19961361587047577,9.33894157409668,2.985750675201416
1710887979082325000,11.454324951171875,-0.19475848972797394,9.338982582092285,2.9859418869018555
1710887979101284900,11.473284912109374,-0.18985851109027863,9.339142799377441,2.98575758934021
1710887979120244700,11.49224462890625,-0.18549251556396484,9.33956527709961,2.9847121238708496
1710887979139204600,11.51120458984375,-0.18154647946357727,9.34050178527832,2.982022285461426
1710887979158164500,11.53016455078125,-0.17869672179222107,9.341930389404297,2.977717638015747
1710887979177124400,11.549124267578126,-0.17666161060333252,9.343517303466797,2.972855567932129
1710887979196084200,11.568084228515625,-0.17486880719661713,9.345099449157715,2.9679834842681885
1710887979215044000,11.587044189453126,-0.17274463176727295,9.346349716186523,2.9641692638397217
1710887979234004000,11.60600390625,-0.1709676831960678,9.34780502319336,2.9596762657165527
1710887979252963800,11.6249638671875,-0.17029115557670593,9.349288940429688,2.955026149749756
1710887979271923700,11.643923828125,-0.17111961543560028,9.35060977935791,2.9507944583892822
1710887979290883600,11.662883544921876,-0.1715112030506134,9.35150146484375,2.9479494094848633
1710887979309843500,11.681843505859375,-0.16959190368652344,9.352177619934082,2.9459121227264404
1710887979328803300,11.70080322265625,-0.16465045511722565,9.352876663208008,2.943972110748291
1710887979347763200,11.71976318359375,-0.15898144245147705,9.353300094604492,2.942939043045044
1710887979366723000,11.73872314453125,-0.15466071665287018,9.353222846984863,2.943413019180298
1710887979385683000,11.757682861328124,-0.15129142999649048,9.352521896362305,2.945819139480591
1710887979404642800,11.776642822265625,-0.14812636375427246,9.351093292236328,2.9505114555358887
1710887979423602700,11.795602783203124,-0.14532418549060822,9.348823547363281,2.957832098007202
1710887979442562600,11.8145625,-0.14428187906742096,9.346734046936035,2.964477062225342
1710887979461522400,11.8335224609375,-0.1430651843547821,9.345064163208008,2.969799518585205
1710887979480482300,11.852482421875,-0.13968320190906525,9.3430814743042,2.9761881828308105
1710887979499442200,11.871442138671876,-0.13371722400188446,9.340324401855469,2.9851043224334717
1710887979518402000,11.890402099609375,-0.12433592230081558,9.337071418762207,2.9956676959991455
1710887979537362000,11.90936181640625,-0.11147193610668182,9.33401107788086,3.005697011947632
1710887979556321800,11.92832177734375,-0.09553275257349014,9.331733703613281,3.013308048248291
1710887979575281700,11.94728173828125,-0.07732459157705307,9.330490112304688,3.0176753997802734
1710887979594241500,11.966241455078125,-0.05750119686126709,9.330613136291504,3.0177383422851562
1710887979613201400,11.985201416015625,-0.03608906641602516,9.331857681274414,3.014218330383301
1710887979632161300,12.004161376953125,-0.014576658606529236,9.333930969238281,3.0079710483551025
1710887979651121200,12.02312109375,0.00629456015303731,9.33691692352295,2.9987194538116455
1710887979670081000,12.0420810546875,0.026271522045135498,9.340584754943848,2.9871671199798584
1710887979689041000,12.061041015625,0.045082688331604004,9.344749450683594,2.973890542984009
1710887979708000800,12.080000732421874,0.06355022639036179,9.349222183227539,2.959455966949463
1710887979726960600,12.098960693359375,0.08143722265958786,9.353925704956055,2.944119453430176
1710887979745920500,12.11792041015625,0.09840806573629379,9.358577728271484,2.9287755489349365
1710887979764880400,12.13688037109375,0.11627237498760223,9.363061904907227,2.913750648498535
1710887979783840300,12.15584033203125,0.13650988042354584,9.367246627807617,2.8993866443634033
1710887979802800000,12.174800048828125,0.1594008207321167,9.371238708496094,2.8852829933166504
1710887979821760000,12.193760009765626,0.18406754732131958,9.375052452087402,2.871394157409668
1710887979840720000,12.212719970703125,0.21029935777187347,9.378867149353027,2.857097864151001
1710887979859679700,12.2316796875,0.23814110457897186,9.382637977600098,2.8424956798553467
1710887979878639600,12.2506396484375,0.26597586274147034,9.386792182922363,2.8262643814086914
1710887979897599500,12.269599609375,0.2951516807079315,9.39148998260498,2.807703971862793
1710887979916559400,12.288559326171875,0.3229433298110962,9.397079467773438,2.785856246948242
1710887979935519200,12.307519287109375,0.3487425446510315,9.40341567993164,2.761256456375122
1710887979954479400,12.326479248046875,0.36975839734077454,9.4100923538208,2.7356553077697754
1710887979973439200,12.345439208984375,0.3862352967262268,9.417264938354492,2.708566427230835
1710887979992399000,12.364399169921874,0.40032118558883667,9.424434661865234,2.6814444065093994
1710887980011359000,12.38335888671875,0.41374412178993225,9.430624961853027,2.657538890838623
1710887980030318800,12.40231884765625,0.4254906177520752,9.434669494628906,2.6412792205810547
1710887980049278700,12.42127880859375,0.4332118034362793,9.435068130493164,2.638601541519165
1710887980068238600,12.440238525390624,0.4317488968372345,9.430612564086914,2.6547155380249023
1710887980087198500,12.459198486328125,0.4106401801109314,9.422534942626953,2.686556816101074
1710887980106158300,12.478158447265624,0.3879360258579254,9.415098190307617,2.7158477306365967
1710887980125118200,12.4971181640625,0.37224051356315613,9.415338516235352,2.7172093391418457
1710887980144078000,12.516078125,0.3495248556137085,9.421680450439453,2.698176860809326
1710887980163038200,12.5350380859375,0.32411643862724304,9.429244995117188,2.6748242378234863
1710887980181998000,12.553998046875,0.2986838221549988,9.436017036437988,2.6538217067718506
1710887980200958000,12.5729580078125,0.2724849283695221,9.44243335723877,2.6337404251098633
1710887980219917800,12.591917724609376,0.24456045031547546,9.449014663696289,2.6127963066101074
1710887980238877700,12.610877685546875,0.21754233539104462,9.45592212677002,2.590097188949585
1710887980257837600,12.629837646484376,0.19745217263698578,9.462413787841797,2.5679047107696533
1710887980276797400,12.64879736328125,0.1891826093196869,9.467489242553711,2.5497524738311768
1710887980295757300,12.66775732421875,0.19191358983516693,9.471610069274902,2.534198045730591
1710887980314717200,12.68671728515625,0.20300643146038055,9.474649429321289,2.521939277648926
1710887980333677000,12.705677001953125,0.21891316771507263,9.475447654724121,2.517610549926758
1710887980352637200,12.72463720703125,0.23736141622066498,9.47286605834961,2.5256400108337402
1710887980371597000,12.74359716796875,0.2556392550468445,9.466621398925781,2.5471794605255127
1710887980390557000,12.762556884765624,0.267830491065979,9.456995964050293,2.581449031829834
1710887980409516800,12.781516845703125,0.2708558738231659,9.444523811340332,2.62640380859375
1710887980428476700,12.8004765625,0.2636258900165558,9.429749488830566,2.679685592651367
1710887980447436500,12.8194365234375,0.24803240597248077,9.412659645080566,2.7405664920806885
1710887980466396400,12.838396484375,0.22609417140483856,9.392903327941895,2.8093833923339844
1710887980485356300,12.857356201171875,0.2006596028804779,9.370923042297363,2.8837356567382812
1710887980504316200,12.876316162109376,0.1742880940437317,9.347701072692871,2.9598135948181152
1710887980523276300,12.8952763671875,0.1518860161304474,9.324495315551758,3.0333328247070312
1710887980542236200,12.914236083984376,0.13836944103240967,9.302164077758789,3.1017708778381348
1710887980561196000,12.933196044921875,0.13614386320114136,9.281107902526855,3.164315700531006
1710887980580156000,12.952156005859376,0.14457009732723236,9.26137924194336,3.2212326526641846
1710887980599115800,12.97111572265625,0.16215351223945618,9.24340534210205,3.2716283798217773
1710887980618075600,12.99007568359375,0.18708083033561707,9.227215766906738,3.315704345703125
1710887980637035500,13.009035400390625,0.21765820682048798,9.212334632873535,3.354983329772949
1710887980655995400,13.027995361328125,0.2504306137561798,9.1980619430542,3.391655445098877
1710887980674955500,13.04695556640625,0.2810334265232086,9.183494567871094,3.4285330772399902
1710887980693915400,13.065915283203125,0.3076862096786499,9.166986465454102,3.470170021057129
1710887980712875300,13.084875244140624,0.332350492477417,9.148754119873047,3.515712261199951
1710887980731835100,13.103835205078125,0.35714003443717957,9.132128715515137,3.5562729835510254
1710887980750795000,13.122794921875,0.38221362233161926,9.123672485351562,3.5753214359283447
1710887980769755000,13.1417548828125,0.41444364190101624,9.129396438598633,3.557067632675171
1710887980788715000,13.160715087890624,0.46877381205558777,9.146819114685059,3.5051844120025635
1710887980807675000,13.1796748046875,0.5537282228469849,9.168184280395508,3.4363012313842773
1710887980826634800,13.198634765625,0.6718195080757141,9.181742668151855,3.3785557746887207
1710887980845594600,13.2175947265625,0.7981992959976196,9.18020248413086,3.3551669120788574
1710887980864554500,13.236554443359376,0.8982069492340088,9.165935516357422,3.368863344192505
1710887980883514600,13.2555146484375,0.9578327536582947,9.154193878173828,3.3843300342559814
1710887980902474500,13.274474609375,0.9769406318664551,9.158013343811035,3.368497133255005
1710887980921434400,13.293434326171875,0.9649559855461121,9.17232608795166,3.3328192234039307
1710887980940394200,13.312394287109376,0.9300881624221802,9.188167572021484,3.2989251613616943
1710887980959354000,13.33135400390625,0.8798984885215759,9.203580856323242,3.2695984840393066
1710887980978314200,13.350314208984376,0.8217455148696899,9.220144271850586,3.237910270690918
1710887980997274000,13.369274169921875,0.7623948454856873,9.23831558227539,3.2004148960113525
1710887981016234000,13.38823388671875,0.7091022729873657,9.258325576782227,3.1545162200927734
1710887981035193900,13.40719384765625,0.6717214584350586,9.280029296875,3.0984222888946533
1710887981054153700,13.42615380859375,0.6549880504608154,9.30258560180664,3.0336873531341553
1710887981073113600,13.445113525390624,0.6594361662864685,9.324914932250977,2.96335768699646
1710887981092073700,13.46407373046875,0.6856082081794739,9.346117973327637,2.889708995819092
1710887981111033600,13.48303369140625,0.7306236028671265,9.366154670715332,2.8127782344818115
1710887981129993500,13.501993408203125,0.7903403639793396,9.38503646850586,2.732553005218506
1710887981148953300,13.520953369140624,0.8551917672157288,9.40169620513916,2.65464448928833
1710887981167913200,13.539913330078125,0.9134424328804016,9.414003372192383,2.5908584594726562
1710887981186873000,13.558873046875,0.9569817185401917,9.42160415649414,2.547145128250122
1710887981205833200,13.577833251953125,0.9795051217079163,9.427511215209961,2.516540288925171
1710887981224793000,13.59679296875,0.9771117568016052,9.435816764831543,2.48616623878479
1710887981243753000,13.6157529296875,0.9468625783920288,9.44980525970459,2.444382429122925
1710887981262712800,13.634712890625,0.8899753093719482,9.471497535705566,2.38098406791687
1710887981281672700,13.653672607421875,0.8173359036445618,9.500506401062012,2.2897026538848877
1710887981300632800,13.6726328125,0.7409669756889343,9.533119201660156,2.177381992340088
1710887981319592700,13.6915927734375,0.6739159822463989,9.564525604248047,2.058171272277832
1710887981338552600,13.710552490234376,0.6238004565238953,9.590813636779785,1.9487314224243164
1710887981357512400,13.729512451171875,0.5871872901916504,9.610580444335938,1.8607404232025146
1710887981376472300,13.748472412109376,0.5623577833175659,9.624521255493164,1.7951973676681519
1710887981395432400,13.767432373046875,0.5513266324996948,9.634101867675781,1.7465758323669434
1710887981414392300,13.786392333984375,0.5512043833732605,9.641008377075195,1.708081603050232
1710887981433352200,13.805352294921875,0.5504705905914307,9.646193504333496,1.6787816286087036
1710887981452312000,13.82431201171875,0.5367048382759094,9.64753246307373,1.6755472421646118
1710887981471272000,13.84327197265625,0.5048857927322388,9.643198013305664,1.7100303173065186
1710887981490232000,13.862232177734375,0.4487147033214569,9.634648323059082,1.7727397680282593
1710887981509192000,13.88119189453125,0.3646433353424072,9.625954627990723,1.8380476236343384
1710887981528151800,13.90015185546875,0.25872886180877686,9.623313903808594,1.8695694208145142
1710887981547111700,13.919111572265624,0.1394985169172287,9.625967979431152,1.8686001300811768
1710887981566071600,13.938071533203125,0.032005425542593,9.624418258666992,1.8814678192138672
1710887981585031400,13.957031494140624,-0.03498523682355881,9.610255241394043,1.9524763822555542
1710887981603991600,13.975991455078125,-0.0594126358628273,9.583634376525879,2.078655958175659
1710887981622951400,13.994951416015626,-0.06263798475265503,9.550294876098633,2.2267332077026367
1710887981641911300,14.013911376953125,-0.06456030160188675,9.514383316040039,2.375443935394287
1710887981660871200,14.03287109375,-0.07611383497714996,9.476390838623047,2.5224220752716064
1710887981679831000,14.0518310546875,-0.0946526750922203,9.435028076171875,2.6723923683166504
1710887981698791000,14.070791015625,-0.11276458203792572,9.39108943939209,2.8222506046295166
1710887981717751000,14.0897509765625,-0.12448818236589432,9.346545219421387,2.9659719467163086
1710887981736711000,14.1087109375,-0.12802165746688843,9.302433967590332,3.101405143737793
1710887981755670800,14.1276708984375,-0.1205529272556305,9.256707191467285,3.2356185913085938
1710887981774630700,14.146630615234375,-0.09639565646648407,9.205645561218262,3.378932237625122
1710887981793590500,14.165590576171875,-0.052289772778749466,9.147682189941406,3.533776044845581
1710887981812550400,14.18455029296875,0.009883620776236057,9.084771156311035,3.692862033843994
1710887981831510500,14.203510498046874,0.08286674320697784,9.020245552062988,3.8469085693359375
1710887981850470400,14.222470458984375,0.16116036474704742,8.954484939575195,3.9951980113983154
1710887981869430300,14.24143017578125,0.23507452011108398,8.88686466217041,4.1399006843566895
1710887981888390100,14.26039013671875,0.29335954785346985,8.816383361816406,4.28435754776001
1710887981907350000,14.27935009765625,0.3300703465938568,8.743120193481445,4.429366588592529
1710887981926310000,14.298309814453125,0.34830284118652344,8.673264503479004,4.563284873962402
1710887981945270000,14.31727001953125,0.35025492310523987,8.616920471191406,4.668661117553711
1710887981964230000,14.33622998046875,0.3366442024707794,8.575112342834473,4.745997905731201
1710887981983189800,14.355189697265626,0.311336487531662,8.539348602294922,4.811756134033203
1710887982002149600,14.374149658203125,0.2849310040473938,8.50500202178955,4.873822212219238
1710887982021109500,14.393109619140626,0.2730344533920288,8.483509063720703,4.911813735961914
1710887982040069400,14.4120693359375,0.280235230922699,8.494733810424805,4.891968250274658
1710887982059029200,14.431029296875,0.3032553791999817,8.544658660888672,4.802834987640381
1710887982077989400,14.4499892578125,0.34399715065956116,8.622041702270508,4.659661293029785
1710887982096949200,14.46894921875,0.39870479702949524,8.706375122070312,4.495602130889893
1710887982115909000,14.4879091796875,0.4468176066875458,8.779195785522461,4.347006797790527
1710887982134869000,14.506868896484375,0.45917943120002747,8.837281227111816,4.226346969604492
1710887982153828900,14.525828857421875,0.4033496081829071,8.898406028747559,4.101957321166992
1710887982172788700,14.544788818359375,0.2962799668312073,8.978468894958496,3.9331552982330322
1710887982191748600,14.56374853515625,0.19695593416690826,9.064993858337402,3.7359726428985596
1710887982210708700,14.582708740234375,0.1255953460931778,9.136270523071289,3.5613441467285156
1710887982229668600,14.601668701171874,0.07071125507354736,9.186610221862793,3.4309709072113037
1710887982248628500,14.62062841796875,0.021388890221714973,9.222376823425293,3.334319591522217
1710887982267588400,14.63958837890625,-0.015172820538282394,9.250815391540527,3.2546207904815674
1710887982286548200,14.65854833984375,-0.029309755191206932,9.279193878173828,3.172710418701172
1710887982305508000,14.677508056640624,-0.01833787001669407,9.313146591186523,3.0717005729675293
1710887982324468200,14.69646826171875,0.017958687618374825,9.353983879089355,2.9450013637542725
1710887982343428000,14.715427978515624,0.07894977927207947,9.396974563598633,2.8037517070770264
1710887982362388000,14.734387939453125,0.17228564620018005,9.4359130859375,2.665376901626587
1710887982381347800,14.753347900390626,0.29805073142051697,9.466198921203613,2.544132709503174
1710887982400307700,14.7723076171875,0.4461458623409271,9.484695434570312,2.4519150257110596
1710887982419267600,14.791267578125,0.6024547815322876,9.492197036743164,2.3886420726776123
1710887982438227500,14.8102275390625,0.7501441836357117,9.492982864379883,2.343276262283325
1710887982457187300,14.829187255859376,0.8706615567207336,9.492239952087402,2.304278612136841
1710887982476147200,14.848147216796875,0.9534400105476379,9.493810653686523,2.2647085189819336
1710887982495107000,14.867107177734376,0.9948915839195251,9.498587608337402,2.2265236377716064
1710887982514067000,14.88606689453125,0.9996603727340698,9.50619888305664,2.191628932952881
1710887982533027000,14.905027099609375,0.9770876169204712,9.51741886138916,2.152765989303589
1710887982551987000,14.923987060546875,0.9378732442855835,9.534369468688965,2.0944199562072754
1710887982570946800,14.94294677734375,0.8916599750518799,9.555688858032227,2.0159707069396973
1710887982589906700,14.96190673828125,0.8475940823554993,9.576139450073242,1.9363659620285034
1710887982608866600,14.980866455078125,0.8060340285301208,9.592592239379883,1.8715935945510864
1710887982627826400,14.999826416015624,0.7631139755249023,9.604791641235352,1.826480746269226
1710887982646786300,15.018786376953125,0.7131024599075317,9.61347484588623,1.8008252382278442
1710887982665746200,15.03774609375,0.649556040763855,9.620630264282227,1.7866021394729614
1710887982684706000,15.0567060546875,0.5706467032432556,9.627097129821777,1.7786955833435059
1710887982703666000,15.075666015625,0.47998759150505066,9.629715919494629,1.7912497520446777
1710887982722625800,15.094625732421875,0.3750815689563751,9.625821113586426,1.836646318435669
1710887982741586000,15.1135859375,0.25167056918144226,9.617640495300293,1.8994858264923096
1710887982760545800,15.1325458984375,0.11387208849191666,9.608991622924805,1.9556884765625
1710887982779505700,15.151505615234376,-0.030661456286907196,9.604036331176758,1.982909917831421
1710887982798465500,15.170465576171875,-0.16788318753242493,9.60084342956543,1.9914865493774414
1710887982817425400,15.18942529296875,-0.2772487998008728,9.590658187866211,2.0280046463012695
1710887982836385300,15.20838525390625,-0.3394636809825897,9.567293167114258,2.126509189605713
1710887982855345200,15.22734521484375,-0.3462355136871338,9.532081604003906,2.27813982963562
1710887982874305000,15.246304931640625,-0.3124389946460724,9.488896369934082,2.4563446044921875
1710887982893265000,15.265264892578125,-0.2700512707233429,9.44118881225586,2.6384479999542236
1710887982912224800,15.284224853515624,-0.24422486126422882,9.39309024810791,2.807237148284912
1710887982931184600,15.3031845703125,-0.24153479933738708,9.347899436950684,2.9544599056243896
1710887982950144500,15.32214453125,-0.2540399134159088,9.306502342224121,3.081372022628784
1710887982969104400,15.3411044921875,-0.26962295174598694,9.268305778503418,3.193148612976074
1710887982988064300,15.360064208984374,-0.28108659386634827,9.230816841125488,3.298999071121216
1710887983007024000,15.379024169921875,-0.2818590998649597,9.190279960632324,3.4102368354797363
1710887983025984300,15.397984375,-0.2648412883281708,9.144777297973633,3.5317554473876953
1710887983044944000,15.41694384765625,-0.22622142732143402,9.094659805297852,3.661470413208008
1710887983063903700,15.43590380859375,-0.1677504926919937,9.040428161621094,3.7964320182800293
1710887983082863600,15.454863525390625,-0.09677838534116745,8.98189926147461,3.935288667678833
1710887983101823700,15.47382373046875,-0.025184685364365578,8.918110847473145,4.078853130340576
1710887983120783600,15.49278369140625,0.03562440723180771,8.848504066467285,4.227657794952393
1710887983139743500,15.511743408203126,0.07484490424394608,8.775725364685059,4.376235008239746
1710887983158703000,15.530703125,0.08813107013702393,8.707884788513184,4.509475231170654
1710887983177663000,15.5496630859375,0.07508139312267303,8.655705451965332,4.60906982421875
1710887983196623000,15.568623046875,0.033991727977991104,8.62101936340332,4.674106121063232
1710887983215583000,15.5875830078125,-0.03741205483675003,8.596938133239746,4.718224048614502
1710887983234542800,15.60654296875,-0.12834542989730835,8.578169822692871,4.75067663192749
1710887983253502500,15.62550244140625,-0.21723808348178864,8.570257186889648,4.761712551116943
1710887983272462600,15.644462646484374,-0.2927514314651489,8.588797569274902,4.7241129875183105
1710887983291422500,15.66342236328125,-0.3593277037143707,8.639198303222656,4.626611232757568
1710887983310382300,15.68238232421875,-0.4129440188407898,8.710260391235352,4.4867844581604
1710887983329342000,15.701342041015625,-0.4563761353492737,8.784551620483398,4.335175037384033
1710887983348302000,15.720302001953126,-0.49276649951934814,8.851675033569336,4.192306995391846
1710887983367262000,15.739261962890625,-0.5298689603805542,8.917370796203613,4.045999050140381
1710887983386221800,15.758221923828126,-0.5616873502731323,8.993364334106445,3.8696634769439697
1710887983405181400,15.777181396484375,-0.5393384099006653,9.075628280639648,3.675929307937622
1710887983424141300,15.796141357421876,-0.42922013998031616,9.149923324584961,3.502153158187866
1710887983443101400,15.815101318359375,-0.2626282274723053,9.205365180969238,3.3708531856536865
1710887983462061300,15.834061279296876,-0.07263863831758499,9.242034912109375,3.2787036895751953
1710887983481021000,15.85302099609375,0.11475859582424164,9.266983985900879,3.206277847290039
1710887983499980800,15.871980712890625,0.28388211131095886,9.284806251525879,3.1435916423797607
1710887983518941000,15.89094091796875,0.42397549748420715,9.299660682678223,3.0833346843719482
1710887983537900800,15.90990087890625,0.544371485710144,9.317809104919434,3.0087361335754395
1710887983556860400,15.9288603515625,0.652222216129303,9.343038558959961,2.9073405265808105
1710887983575820300,15.9478203125,0.733851432800293,9.371329307556152,2.794642210006714
1710887983594780400,15.966780517578124,0.8022946119308472,9.394611358642578,2.6959171295166016
1710887983613740300,15.985740234375,0.873931884765625,9.408289909362793,2.625018835067749
1710887983632700000,16.004699951171876,0.9563003182411194,9.410308837890625,2.5888149738311768
1710887983651659800,16.02365966796875,1.0459495782852173,9.401898384094238,2.5846986770629883
1710887983670619600,16.04261962890625,1.1362320184707642,9.386687278747559,2.6018178462982178
1710887983689579500,16.06157958984375,1.2236255407333374,9.369329452514648,2.62465238571167
1710887983708539400,16.080539306640624,1.3023256063461304,9.354979515075684,2.637930154800415
1710887983727499300,16.099499267578125,1.3654170036315918,9.347420692443848,2.6328206062316895
1710887983746459100,16.118459228515626,1.407448410987854,9.34879207611084,2.605675220489502
1710887983765419000,16.1374189453125,1.4221439361572266,9.35977840423584,2.557816505432129
1710887983784379000,16.15637890625,1.4076991081237793,9.379373550415039,2.493213176727295
1710887983803338800,16.1753388671875,1.37173593044281,9.404923439025879,2.4158079624176025
1710887983822298600,16.194298583984374,1.324607014656067,9.432683944702148,2.3324410915374756
1710887983841258500,16.213258544921874,1.2714972496032715,9.458950996398926,2.2543156147003174
1710887983860218400,16.23221826171875,1.2181049585342407,9.481429100036621,2.188401937484741
1710887983879178200,16.25117822265625,1.1679131984710693,9.500588417053223,2.131948471069336
1710887983898138000,16.27013818359375,1.1209988594055176,9.517303466796875,2.0819919109344482
1710887983917098000,16.289097900390626,1.0769460201263428,9.531661033630371,2.039121627807617
1710887983936057900,16.308057861328123,1.034952998161316,9.541001319885254,2.017066717147827
1710887983955017700,16.327017822265624,0.9858554601669312,9.544355392456055,2.025770425796509
1710887983973977600,16.3459775390625,0.9138520359992981,9.546512603759766,2.049229860305786
1710887983992937500,16.3649375,0.8084767460823059,9.552861213684082,2.063877582550049
1710887984011897300,16.3838974609375,0.6763313412666321,9.56534194946289,2.0535783767700195
1710887984030857200,16.402857177734376,0.5423124432563782,9.580015182495117,2.024747371673584
1710887984049817000,16.421817138671877,0.4309120774269104,9.588176727294922,2.012849807739258
1710887984068777000,16.44077685546875,0.34965935349464417,9.584039688110352,2.048003673553467
1710887984087736800,16.45973681640625,0.29150769114494324,9.568428993225098,2.128516674041748
1710887984106696700,16.47869677734375,0.2453475296497345,9.54499340057373,2.2368016242980957
1710887984125656600,16.497656494140625,0.20278477668762207,9.51559066772461,2.3627970218658447
1710887984144616400,16.516616455078125,0.1606733351945877,9.481768608093262,2.4981255531311035
1710887984163576300,16.535576416015626,0.12160941958427429,9.446557998657227,2.630234718322754
1710887984182536200,16.5545361328125,0.0902264192700386,9.41227912902832,2.7515885829925537
1710887984201496000,16.57349609375,0.0689268484711647,9.379549980163574,2.861762046813965
1710887984220456000,16.5924560546875,0.05854550749063492,9.34605598449707,2.969543933868408
1710887984239415800,16.611415771484374,0.06045886129140854,9.307440757751465,3.088408946990967
1710887984258375700,16.630375732421875,0.07802166789770126,9.259571075439453,3.2287237644195557
1710887984277335600,16.64933544921875,0.11198487877845764,9.20101547241211,3.3910410404205322
1710887984296295400,16.66829541015625,0.1586185246706009,9.131438255310059,3.5724024772644043
1710887984315255300,16.68725537109375,0.21331694722175598,9.051630973815918,3.767341375350952
1710887984334215200,16.706215087890627,0.2653537392616272,8.963103294372559,3.9702341556549072
1710887984353175000,16.725175048828124,0.29839539527893066,8.867467880249023,4.17724609375
1710887984372135000,16.744135009765625,0.3000527322292328,8.766371726989746,4.3853278160095215
1710887984391094800,16.7630947265625,0.26919445395469666,8.667549133300781,4.5794677734375
1710887984410054700,16.7820546875,0.20858240127563477,8.583882331848145,4.737494468688965
1710887984429014500,16.8010146484375,0.12070470303297043,8.519139289855957,4.855931282043457
1710887984447974400,16.819974365234376,0.013884484767913818,8.46904182434082,4.944242000579834
1710887984466934300,16.838934326171874,-0.09933814406394958,8.436702728271484,4.998258113861084
1710887984485894100,16.85789404296875,-0.2050335705280304,8.4310941696167,5.004497528076172
1710887984504854000,16.87685400390625,-0.2890419065952301,8.458479881286621,4.953884124755859
1710887984523814000,16.89581396484375,-0.34751206636428833,8.512451171875,4.856727600097656
1710887984542773800,16.914773681640625,-0.379743367433548,8.573925971984863,4.744889736175537
1710887984561733600,16.933733642578126,-0.39771318435668945,8.631392478942871,4.638025283813477
1710887984580693500,16.952693603515623,-0.43161851167678833,8.690200805664062,4.523771286010742
1710887984599653600,16.971653564453124,-0.5005102157592773,8.7635498046875,4.37265157699585
1710887984618613500,16.990613525390625,-0.577040433883667,8.85210132598877,4.180635929107666
1710887984637573000,17.009572998046874,-0.6213539838790894,8.938591003417969,3.9857101440429688
1710887984656533000,17.028532958984375,-0.6285295486450195,9.0067777633667,3.82796311378479
1710887984675493000,17.0474931640625,-0.6127936840057373,9.052668571472168,3.7207624912261963
1710887984694453000,17.066452880859377,-0.5758932828903198,9.084748268127441,3.647752285003662
1710887984713412900,17.085412841796874,-0.5087067484855652,9.116424560546875,3.5780458450317383
1710887984732372700,17.104372802734375,-0.41093137860298157,9.158211708068848,3.4826252460479736
1710887984751332600,17.12333251953125,-0.28412118554115295,9.213160514831543,3.347736358642578
1710887984770292500,17.14229248046875,-0.13188906013965607,9.276094436645508,3.179159164428711
1710887984789252400,17.16125244140625,0.038104236125946045,9.339323043823242,2.9909815788269043
1710887984808212200,17.180212158203126,0.22352634370326996,9.395535469055176,2.800773859024048
1710887984827172000,17.199172119140623,0.42118653655052185,9.439684867858887,2.6239936351776123
1710887984846132000,17.218132080078124,0.6158789992332458,9.470205307006836,2.471092462539673
1710887984865091800,17.237091796875,0.792719304561615,9.489068031311035,2.345121383666992
1710887984884052000,17.256052001953126,0.9371230006217957,9.500554084777832,2.243135690689087
1710887984903011800,17.27501171875,1.0344022512435913,9.508234977722168,2.166531801223755
1710887984921971700,17.2939716796875,1.0770263671875,9.513300895690918,2.123089075088501
1710887984940931600,17.312931640625,1.066280484199524,9.516329765319824,2.114924907684326
1710887984959891500,17.331891357421874,1.012829065322876,9.519362449645996,2.127511739730835
1710887984978851300,17.350851318359375,0.9313693046569824,9.526581764221191,2.1324098110198975
1710887984997811200,17.369811279296876,0.8384718894958496,9.541375160217285,2.104639768600464
1710887985016771000,17.38877099609375,0.7503244280815125,9.560637474060059,2.0497841835021973
1710887985035731000,17.40773095703125,0.6772529482841492,9.577917098999023,1.9937925338745117
1710887985054690800,17.42669091796875,0.621565580368042,9.58930492401123,1.956852674484253
1710887985073650700,17.445650634765624,0.5830919742584229,9.59388256072998,1.946233868598938
1710887985092610800,17.46461083984375,0.5587603449821472,9.595137596130371,1.947176218032837
1710887985111570700,17.48357080078125,0.5399402379989624,9.595890045166016,1.9487826824188232
1710887985130530600,17.502530517578126,0.5189095735549927,9.592626571655273,1.9704374074935913
1710887985149490400,17.521490478515624,0.4838413596153259,9.581933975219727,2.03047513961792
1710887985168450300,17.5404501953125,0.42007437348365784,9.569719314575195,2.1010494232177734
1710887985187410200,17.55941015625,0.32471564412117004,9.5648775100708,2.1396427154541016
1710887985206370000,17.5783701171875,0.2132812887430191,9.571002960205078,2.126216411590576
1710887985225330000,17.597329833984375,0.10820330679416656,9.5807523727417,2.0899441242218018
1710887985244289800,17.616289794921876,0.02105272375047207,9.58102035522461,2.0914113521575928
1710887985263249700,17.635249755859373,-0.04381309077143669,9.565059661865234,2.162891149520874
1710887985282209800,17.654209716796874,-0.08800821751356125,9.536223411560059,2.285403251647949
1710887985301169700,17.673169677734375,-0.11957654356956482,9.501811027526855,2.423156499862671
1710887985320129500,17.692129638671876,-0.159401074051857,9.467591285705566,2.5514121055603027
1710887985339089400,17.71108935546875,-0.21704095602035522,9.437871932983398,2.6551578044891357
1710887985358049300,17.73004931640625,-0.28322142362594604,9.414247512817383,2.7316882610321045
1710887985377009200,17.749009033203127,-0.3454397916793823,9.39443302154541,2.7920761108398438
1710887985395969000,17.767968994140624,-0.3959033489227295,9.375992774963379,2.846823215484619
1710887985414929200,17.78692919921875,-0.42540639638900757,9.356524467468262,2.90600323677063
1710887985433889000,17.805888916015626,-0.4256299138069153,9.3324613571167,2.9823479652404785
1710887985452849000,17.824848876953126,-0.39104530215263367,9.300785064697266,3.0842952728271484
1710887985471808800,17.843808837890624,-0.321347713470459,9.260586738586426,3.2107088565826416
1710887985490768600,17.8627685546875,-0.2225128412246704,9.212381362915039,3.35453724861145
1710887985509728500,17.881728515625,-0.10827798396348953,9.1564359664917,3.509751081466675
1710887985528688600,17.900688720703126,0.00385648594237864,9.09184455871582,3.675422191619873
1710887985547648500,17.9196484375,0.09899721294641495,9.018718719482422,3.8501033782958984
1710887985566608400,17.9386083984375,0.16563011705875397,8.941652297973633,4.023654937744141
1710887985585568300,17.957568359375,0.19331087172031403,8.868670463562012,4.180873870849609
1710887985604528000,17.976528076171874,0.17263364791870117,8.80586051940918,4.312470436096191
1710887985623488000,17.995488037109375,0.11081443727016449,8.752636909484863,4.421478271484375
1710887985642448000,18.01444775390625,0.03292209282517433,8.711589813232422,4.503054141998291
1710887985661408000,18.033407958984377,-0.036929450929164886,8.685256004333496,4.553607940673828
1710887985680367900,18.052367919921874,-0.09010083228349686,8.68035888671875,4.562199115753174
1710887985699327700,18.07132763671875,-0.1378116011619568,8.702999114990234,4.5176544189453125
1710887985718287600,18.09028759765625,-0.18106484413146973,8.745396614074707,4.433466911315918
1710887985737247500,18.10924755859375,-0.21735620498657227,8.786480903625488,4.34981632232666
1710887985756207400,18.128207275390626,-0.2560577988624573,8.819869041442871,4.279571056365967
1710887985775167500,18.14716748046875,-0.31009161472320557,8.858489036560059,4.195402145385742
1710887985794127400,18.16612744140625,-0.3705854117870331,8.91620922088623,4.066235065460205
1710887985813087200,18.185087158203125,-0.4033777117729187,8.986211776733398,3.9058494567871094
1710887985832047000,18.204047119140625,-0.3820388615131378,9.04951286315918,3.7590906620025635
1710887985851007000,18.223007080078126,-0.32276451587677,9.09592342376709,3.6510820388793945
1710887985869966800,18.241966796875,-0.2489970326423645,9.127917289733887,3.576241970062256
1710887985888927000,18.260927001953124,-0.1690707504749298,9.154754638671875,3.5117313861846924
1710887985907886800,18.279886962890625,-0.08260470628738403,9.184412002563477,3.436589479446411
1710887985926846700,18.2988466796875,0.007127601187676191,9.222604751586914,3.3337502479553223
1710887985945806600,18.317806640625,0.09810999780893326,9.269123077392578,3.2006466388702393
1710887985964766700,18.3367666015625,0.1905042827129364,9.319233894348145,3.047288417816162
1710887985983726600,18.3557265625,0.28743940591812134,9.367327690124512,2.8880691528320312
1710887986002686500,18.3746865234375,0.39376726746559143,9.408065795898438,2.739274024963379
1710887986021646300,18.393646240234375,0.5097534656524658,9.437695503234863,2.6154236793518066
1710887986040606200,18.412606201171876,0.6300272941589355,9.455355644226074,2.5238263607025146
1710887986059566300,18.43156640625,0.7425361275672913,9.463970184326172,2.460141181945801
1710887986078526200,18.450526123046874,0.829535186290741,9.46801471710205,2.416393756866455
1710887986097486000,18.469486083984375,0.8794031143188477,9.469724655151367,2.3919379711151123
1710887986116446000,18.488446044921876,0.8885959386825562,9.469322204589844,2.390129804611206
1710887986135405800,18.50740576171875,0.8614512085914612,9.467907905578613,2.405618190765381
1710887986154365700,18.52636572265625,0.8077331185340881,9.468899726867676,2.420309543609619
1710887986173325800,18.545325927734375,0.7416502237319946,9.476659774780273,2.411069869995117
1710887986192285700,18.56428564453125,0.6778730750083923,9.491046905517578,2.3729517459869385
1710887986211245600,18.58324560546875,0.6227778792381287,9.506387710571289,2.3261823654174805
1710887986230205400,18.602205322265625,0.575217604637146,9.518828392028809,2.2872300148010254
1710887986249165600,18.62116552734375,0.5345214009284973,9.52784252166748,2.2594001293182373
1710887986268125400,18.64012548828125,0.4980418086051941,9.534655570983887,2.238905668258667
1710887986287085300,18.659085205078124,0.4647909700870514,9.541303634643555,2.2176291942596436
1710887986306045200,18.678045166015625,0.43358269333839417,9.54581356048584,2.204503059387207
1710887986325005300,18.69700537109375,0.3997407555580139,9.5413179397583,2.2302145957946777
1710887986343965200,18.715965087890623,0.3517325818538666,9.529741287231445,2.2870724201202393
1710887986362925000,18.734925048828124,0.27975618839263916,9.523112297058105,2.3243181705474854
1710887986381885000,18.753885009765625,0.19513793289661407,9.530808448791504,2.3013036251068115
1710887986400844800,18.7728447265625,0.12478718161582947,9.546347618103027,2.2409937381744385
1710887986419804700,18.7918046875,0.08969023078680038,9.5542573928833,2.2087297439575195
1710887986438764500,18.8107646484375,0.09257680922746658,9.54651165008545,2.2418622970581055
1710887986457724700,18.829724609375,0.12251024693250656,9.526293754577637,2.32489013671875
1710887986476684500,18.8486845703125,0.16537225246429443,9.500569343566895,2.4253299236297607
1710887986495644400,18.86764453125,0.20357568562030792,9.474244117736816,2.523416042327881
1710887986514604300,18.886604248046876,0.22644120454788208,9.45060920715332,2.608656167984009
1710887986533564400,18.905564453125,0.23668065667152405,9.430739402770996,2.6787211894989014
1710887986552524300,18.924524169921874,0.2433079332113266,9.41240406036377,2.741868257522583
1710887986571484200,18.943484130859375,0.25719279050827026,9.390822410583496,2.813664197921753
1710887986590444000,18.962444091796876,0.27992722392082214,9.362847328186035,2.903294563293457
1710887986609404200,18.981404052734376,0.31678175926208496,9.32619571685791,3.015310287475586
1710887986628364000,19.000364013671874,0.3716503381729126,9.280074119567871,3.148411989212036
1710887986647324000,19.019323974609375,0.44072267413139343,9.226415634155273,3.2938427925109863
1710887986666283800,19.03828369140625,0.5143594741821289,9.16853141784668,3.441493272781372
1710887986685243600,19.05724365234375,0.5823445916175842,9.107888221740723,3.588541269302368
1710887986704203500,19.07620361328125,0.6373281478881836,9.042685508728027,3.7408597469329834
1710887986723163400,19.095163330078126,0.673168420791626,8.970098495483398,3.9057092666625977
1710887986742123500,19.11412353515625,0.6831350922584534,8.891440391540527,4.079950332641602
1710887986761083400,19.13308349609375,0.6660376787185669,8.813161849975586,4.249111652374268
1710887986780043300,19.152043212890625,0.6239666938781738,8.74271011352539,4.3984174728393555
1710887986799003100,19.171003173828126,0.5599086284637451,8.682357788085938,4.524770736694336
1710887986817963000,19.189962890625,0.47900861501693726,8.636368751525879,4.621047019958496
1710887986836923000,19.2089228515625,0.3896937370300293,8.617995262145996,4.663549900054932
1710887986855883000,19.227883056640625,0.2977416515350342,8.635499954223633,4.637873649597168
1710887986874843000,19.2468427734375,0.20794741809368134,8.682571411132812,4.554130554199219
1710887986893802800,19.265802734375,0.12880606949329376,8.741639137268066,4.442695617675781
1710887986912762600,19.2847626953125,0.06377603113651276,8.789554595947266,4.348568916320801
1710887986931722500,19.303722412109376,0.0032395021989941597,8.819295883178711,4.288403034210205
1710887986950682400,19.322682373046874,-0.06939186900854111,8.850224494934082,4.223634243011475
1710887986969642500,19.341642578125,-0.15018711984157562,8.898513793945312,4.118772506713867
1710887986988602400,19.360602294921875,-0.201032817363739,8.963876724243164,3.9722635746002197
1710887987007562200,19.379562255859376,-0.19519594311714172,9.028261184692383,3.8239736557006836
1710887987026522000,19.398522216796874,-0.1476246565580368,9.076786041259766,3.7095210552215576
1710887987045482000,19.41748193359375,-0.08354537189006805,9.111089706420898,3.6264917850494385
1710887987064441900,19.43644189453125,-0.005681968759745359,9.140241622924805,3.5533571243286133
1710887987083401700,19.455401611328124,0.08503862470388412,9.171060562133789,3.472003936767578
1710887987102361900,19.47436181640625,0.18288622796535492,9.20577621459961,3.374999523162842
1710887987121321700,19.49332177734375,0.28293755650520325,9.246865272521973,3.253584861755371
1710887987140281600,19.512281494140623,0.3828670084476471,9.292625427246094,3.109811544418335
1710887987159241500,19.531241455078124,0.48527461290359497,9.337963104248047,2.955901861190796
1710887987178201300,19.550201416015625,0.5964646935462952,9.378230094909668,2.804178237915039
1710887987197161200,19.5691611328125,0.7164158225059509,9.41037368774414,2.6649599075317383
1710887987216121300,19.588121337890627,0.8363056778907776,9.433048248291016,2.547269105911255
1710887987235081200,19.607081298828124,0.9429039359092712,9.446833610534668,2.457369089126587
1710887987254041000,19.626041015625,1.0237460136413574,9.454829216003418,2.3934378623962402
1710887987273001000,19.6450009765625,1.0722240209579468,9.460638999938965,2.348836660385132
1710887987291960800,19.6639609375,1.08354914188385,9.466008186340332,2.3218533992767334
1710887987310920700,19.682920654296876,1.0585083961486816,9.471100807189941,2.312619686126709
1710887987329880800,19.701880859375,1.0054341554641724,9.477877616882324,2.3085334300994873
1710887987348840700,19.7208408203125,0.9356558918952942,9.49132251739502,2.282482624053955
1710887987367800600,19.739800537109375,0.8641642332077026,9.51340103149414,2.2178399562835693
1710887987386760400,19.758760498046875,0.8074372410774231,9.538541793823242,2.129470109939575
1710887987405720300,19.77772021484375,0.7711901664733887,9.559294700622559,2.0482985973358154
1710887987424680200,19.79668017578125,0.7531108260154724,9.57317066192627,1.9893763065338135
1710887987443640000,19.81564013671875,0.7407259941101074,9.580717086791992,1.957435965538025
1710887987462600000,19.834599853515623,0.719852864742279,9.584712028503418,1.9456367492675781
1710887987481559800,19.853559814453124,0.6843569874763489,9.587824821472168,1.943108081817627
1710887987500519700,19.872519775390625,0.6328479647636414,9.587786674499512,1.960668683052063
1710887987519479600,19.8914794921875,0.5599899291992188,9.582757949829102,2.0068771839141846
1710887987538439700,19.910439697265623,0.45610061287879944,9.576518058776855,2.0622003078460693
1710887987557399600,19.929399658203124,0.32209527492523193,9.573372840881348,2.1017086505889893
1710887987576359400,19.948359375,0.17956677079200745,9.575835227966309,2.107491970062256
1710887987595319300,19.9673193359375,0.059557124972343445,9.581110954284668,2.0902514457702637
1710887987614279200,19.986279052734375,-0.019327927380800247,9.581209182739258,2.090564727783203
1710887987633239000,20.005239013671876,-0.05848430097103119,9.571418762207031,2.1342194080352783
1710887987652199000,20.024198974609376,-0.07020783424377441,9.55270004272461,2.2161638736724854
1710887987671158800,20.04315869140625,-0.07008823752403259,9.526517868041992,2.3261427879333496
1710887987690118700,20.06211865234375,-0.07543249428272247,9.493631362915039,2.4567573070526123
1710887987709078500,20.08107861328125,-0.09610968083143234,9.457755088806152,2.590754270553589
1710887987728038400,20.100038330078124,-0.12508727610111237,9.425249099731445,2.705444097518921
1710887987746998300,20.118998291015625,-0.15300694108009338,9.399306297302246,2.7928531169891357
1710887987765958100,20.137958251953126,-0.16986481845378876,9.378718376159668,2.860276460647583
1710887987784918000,20.15691796875,-0.1713685393333435,9.359745979309082,2.921673536300659
1710887987803878000,20.1758779296875,-0.1562221199274063,9.337386131286621,2.993194103240967
1710887987822838000,20.194838134765625,-0.11979997903108597,9.307703971862793,3.085883855819702
1710887987841798000,20.2137978515625,-0.05780651792883873,9.270216941833496,3.1984548568725586
1710887987860757800,20.2327578125,0.027022236958146095,9.226534843444824,3.3227572441101074
1710887987879717600,20.251717529296876,0.1237935796380043,9.177512168884277,3.4537410736083984
1710887987898677500,20.270677490234377,0.2171413004398346,9.122804641723633,3.5913336277008057
1710887987917637400,20.289637451171874,0.2947929799556732,9.062531471252441,3.735507011413574
1710887987936597200,20.30859716796875,0.34836435317993164,9.002555847167969,3.873373031616211
1710887987955557000,20.32755712890625,0.36470839381217957,8.953742980957031,3.983447313308716
1710887987974517000,20.34651708984375,0.33612561225891113,8.919954299926758,4.06101131439209
1710887987993476900,20.365476806640626,0.27413421869277954,8.894649505615234,4.120734214782715
1710887988012436700,20.384436767578126,0.19863805174827576,8.875155448913574,4.166837215423584
1710887988031396600,20.403396728515624,0.12121951580047607,8.867571830749512,4.185912132263184
1710887988050356500,20.4223564453125,0.04694807156920433,8.881612777709961,4.157540321350098
1710887988069316400,20.44131640625,-0.022957593202590942,8.92186164855957,4.070658206939697
1710887988088276200,20.460276123046874,-0.08713532984256744,8.9742431640625,3.9529428482055664
1710887988107236000,20.479236083984375,-0.1447000503540039,9.019234657287598,3.847446918487549
1710887988126196000,20.498196044921876,-0.1976669430732727,9.052909851074219,3.7651209831237793
1710887988145155800,20.51715576171875,-0.24828536808490753,9.089333534240723,3.6732466220855713
1710887988164115700,20.53611572265625,-0.279704749584198,9.140357971191406,3.5420384407043457
1710887988183075600,20.55507568359375,-0.2651321291923523,9.195770263671875,3.3967483043670654
1710887988202035500,20.574035400390624,-0.20600101351737976,9.237203598022461,3.28664231300354
1710887988220995300,20.592995361328125,-0.12194439023733139,9.258878707885742,3.2293457984924316
1710887988239955200,20.611955078125,-0.032010164111852646,9.269530296325684,3.200808048248291
1710887988258915000,20.6309150390625,0.0591517798602581,9.278843879699707,3.1733176708221436
1710887988277875000,20.649875,0.14750783145427704,9.294523239135742,3.124176502227783
1710887988296834800,20.668834716796876,0.23498041927814484,9.319347381591797,3.0438385009765625
1710887988315794700,20.687794677734374,0.3284592926502228,9.350726127624512,2.9370779991149902
1710887988334754600,20.706754638671875,0.42959892749786377,9.383393287658691,2.8174068927764893
1710887988353714400,20.72571435546875,0.5418927669525146,9.412734985351562,2.697619915008545
1710887988372674300,20.74467431640625,0.6673485636711121,9.435205459594727,2.588811159133911
1710887988391634200,20.76363427734375,0.8029825091362,9.448311805725098,2.500999927520752
1710887988410594000,20.782593994140626,0.9376102089881897,9.4518404006958,2.440077304840088
1710887988429554000,20.801553955078123,1.055914282798767,9.448521614074707,2.4043478965759277
1710887988448513800,20.820513671875,1.1425764560699463,9.443211555480957,2.3855113983154297
1710887988467473700,20.8394736328125,1.1873608827590942,9.439990043640137,2.376375675201416
1710887988486433500,20.85843359375,1.1870619058609009,9.44090461730957,2.3728890419006348
1710887988505393400,20.877393310546875,1.1454579830169678,9.445977210998535,2.3731508255004883
1710887988524353300,20.896353271484376,1.0723637342453003,9.455377578735352,2.369863986968994
1710887988543313200,20.915313232421877,0.9804158210754395,9.47037410736084,2.349719762802124
1710887988562272800,20.934272705078126,0.8820951581001282,9.489964485168457,2.3092989921569824
1710887988581233000,20.95323291015625,0.7870773673057556,9.510290145874023,2.2594900131225586
1710887988600192800,20.97219287109375,0.7022384405136108,9.52784252166748,2.213022232055664
1710887988619152400,20.99115234375,0.628966212272644,9.539905548095703,2.1828854084014893
1710887988638112300,21.0101123046875,0.561054527759552,9.546647071838379,2.171898126602173
1710887988657072400,21.029072265625,0.4938860237598419,9.550919532775879,2.1694247722625732
1710887988676032000,21.048031982421875,0.42921093106269836,9.551078796386719,2.1824464797973633
1710887988694992000,21.066991943359376,0.3678189516067505,9.54248046875,2.2307307720184326
1710887988713951700,21.08595166015625,0.2982577383518219,9.529069900512695,2.297442674636841
1710887988732911600,21.10491162109375,0.21162188053131104,9.518078804016113,2.3519744873046875
1710887988751871500,21.12387158203125,0.11519027501344681,9.513928413391113,2.375347137451172
1710887988770831400,21.142831298828124,0.033872682601213455,9.513937950134277,2.377859354019165
1710887988789791200,21.161791259765625,-0.009627986699342728,9.50795841217041,2.4018778800964355
1710887988808751000,21.180751220703126,-0.012742995284497738,9.489397048950195,2.474181652069092
1710887988827711000,21.1997109375,0.013161140494048595,9.461471557617188,2.578904390335083
1710887988846670800,21.2186708984375,0.048677295446395874,9.431061744689941,2.687582492828369
1710887988865630700,21.237630615234377,0.07424340397119522,9.402219772338867,2.7862389087677
1710887988884590600,21.256590576171874,0.08044342696666718,9.377252578735352,2.8689796924591064
1710887988903550500,21.275550537109375,0.07464414834976196,9.358222007751465,2.930614948272705
1710887988922510300,21.29451025390625,0.06690449267625809,9.344616889953613,2.973893642425537
1710887988941470200,21.31347021484375,0.06255148351192474,9.333331108093262,3.009221076965332
1710887988960430000,21.33243017578125,0.06519351899623871,9.320154190063477,3.0497303009033203
1710887988979390000,21.351389892578126,0.07893851399421692,9.300427436828613,3.109053611755371
1710887988998349800,21.370349853515624,0.1078246459364891,9.270821571350098,3.1954078674316406
1710887989017309700,21.389309814453124,0.15431897342205048,9.230289459228516,3.3088250160217285
1710887989036269600,21.40826953125,0.21692758798599243,9.1802339553833,3.4418952465057373
1710887989055229400,21.4272294921875,0.2908754050731659,9.122015953063965,3.5881187915802
1710887989074189300,21.446189208984375,0.3673609495162964,9.055938720703125,3.7450525760650635
1710887989093149000,21.46514892578125,0.4373054802417755,8.98288345336914,3.90985369682312
1710887989112109000,21.484109130859373,0.49302443861961365,8.906201362609863,4.075156211853027
1710887989131069000,21.50306884765625,0.5263680815696716,8.833329200744629,4.226773262023926
1710887989150028500,21.522028564453127,0.5305537581443787,8.768691062927246,4.358779430389404
1710887989168988400,21.540988525390624,0.5035228729248047,8.7086181640625,4.480719089508057
1710887989187948300,21.5599482421875,0.45121002197265625,8.647249221801758,4.603463649749756
1710887989206908400,21.578908447265626,0.39150717854499817,8.594285011291504,4.706949234008789
1710887989225868000,21.597867919921875,0.3352309465408325,8.575209617614746,4.745922088623047
1710887989244828000,21.616827880859375,0.2876712679862976,8.605907440185547,4.693184852600098
1710887989263787800,21.635787841796876,0.252644419670105,8.673883438110352,4.568403720855713
1710887989282748000,21.654747802734374,0.2287377268075943,8.749070167541504,4.424006462097168
1710887989301707500,21.67370751953125,0.20403656363487244,8.820562362670898,4.280937194824219
1710887989320667400,21.69266748046875,0.1535291075706482,8.897721290588379,4.120362758636475
1710887989339627300,21.711627197265624,0.10023291409015656,8.986870765686035,3.9238369464874268
1710887989358587400,21.73058740234375,0.09910851716995239,9.073164939880371,3.719980239868164
1710887989377547000,21.749547119140626,0.15069928765296936,9.136710166931152,3.55924129486084
1710887989396507000,21.7685068359375,0.2339034229516983,9.17283821105957,3.4604482650756836
1710887989415466800,21.787466796875,0.33569446206092834,9.190681457519531,3.4042718410491943
1710887989434426600,21.806426513671877,0.44625386595726013,9.204315185546875,3.3543717861175537
1710887989453386500,21.825386474609374,0.5541363954544067,9.223344802856445,3.285306215286255
1710887989472346400,21.844346435546875,0.6518926024436951,9.250113487243652,3.1907429695129395
1710887989491306200,21.86330615234375,0.736621081829071,9.281933784484863,3.0779025554656982
1710887989510266000,21.88226611328125,0.8129101991653442,9.314830780029297,2.9569411277770996
1710887989529226200,21.901226318359374,0.8914557695388794,9.345614433288574,2.8346424102783203
1710887989548185900,21.920185791015626,0.9807209372520447,9.371315002441406,2.7179083824157715
1710887989567145700,21.939145751953124,1.0797923803329468,9.389243125915527,2.6165904998779297
1710887989586105600,21.958105712890625,1.1828380823135376,9.39876937866211,2.5366146564483643
1710887989605065700,21.977065673828125,1.2807188034057617,9.402619361877441,2.4740445613861084
1710887989624025600,21.996025634765626,1.3621420860290527,9.404603004455566,2.4224793910980225
1710887989642985500,22.0149853515625,1.4157809019088745,9.408707618713379,2.3753292560577393
1710887989661945000,22.033945068359376,1.4376462697982788,9.416509628295898,2.3308603763580322
1710887989680905000,22.052905029296873,1.4337892532348633,9.428500175476074,2.2842979431152344
1710887989699865000,22.071864990234374,1.4124890565872192,9.445240020751953,2.2277166843414307
1710887989718825000,22.090824951171875,1.3788295984268188,9.466621398925781,2.1569206714630127
1710887989737784800,22.109784912109376,1.3342493772506714,9.490623474121094,2.078037977218628
1710887989756744700,22.12874462890625,1.2772012948989868,9.51385498046875,2.0064165592193604
1710887989775704600,22.14770458984375,1.2065396308898926,9.53433895111084,1.9521864652633667
1710887989794664400,22.16666455078125,1.127060890197754,9.552175521850586,1.9120793342590332
1710887989813624300,22.185624267578124,1.0444245338439941,9.569385528564453,1.8725430965423584
1710887989832584200,22.204584228515625,0.9600720405578613,9.588264465332031,1.8203915357589722
1710887989851544000,22.2235439453125,0.8813655972480774,9.606658935546875,1.7622913122177124
1710887989870504000,22.24250390625,0.8170642852783203,9.618245124816895,1.7297862768173218
1710887989889463800,22.2614638671875,0.7653273344039917,9.61893081665039,1.7495232820510864
1710887989908423700,22.280423583984376,0.7148151993751526,9.613760948181152,1.7986208200454712
1710887989927383600,22.299383544921874,0.6537544131278992,9.614169120788574,1.8195393085479736
1710887989946343400,22.318343505859374,0.5795677900314331,9.624323844909668,1.7907745838165283
1710887989965303300,22.33730322265625,0.5032283067703247,9.635329246520996,1.7543001174926758
1710887989984263400,22.356263427734376,0.4457812011241913,9.637057304382324,1.7603338956832886
1710887990003223300,22.375223388671873,0.4173569977283478,9.627630233764648,1.8179484605789185
1710887990022183200,22.39418310546875,0.40433886647224426,9.609818458557129,1.912664771080017
1710887990041143000,22.41314306640625,0.38251882791519165,9.58719253540039,2.027266025543213
1710887990060103000,22.43210302734375,0.3334483206272125,9.565366744995117,2.136111259460449
1710887990079062800,22.451062744140625,0.2579820156097412,9.549236297607422,2.217184543609619
1710887990098022700,22.470022705078126,0.17658604681491852,9.538250923156738,2.2717771530151367
1710887990116982500,22.488982421875,0.10963614284992218,9.528738975524902,2.315490245819092
1710887990135942400,22.5079423828125,0.06871292740106583,9.516797065734863,2.365638017654419
1710887990154902300,22.52690234375,0.054924849420785904,9.499098777770996,2.4360806941986084
1710887990173862100,22.545862060546874,0.06489933282136917,9.472939491271973,2.53566312789917
1710887990192822300,22.564822265625,0.0937320664525032,9.435880661010742,2.6694092750549316
1710887990211782100,22.5837822265625,0.13695788383483887,9.38637638092041,2.836825132369995
1710887990230742000,22.602741943359376,0.1905514895915985,9.324052810668945,3.0325095653533936
1710887990249702000,22.621701904296874,0.24881350994110107,9.25049114227295,3.24605655670166
1710887990268661800,22.640661865234375,0.30380362272262573,9.1679048538208,3.468086004257202
1710887990287621600,22.65962158203125,0.3489972651004791,9.078811645507812,3.6910383701324463
1710887990306581500,22.67858154296875,0.3808751702308655,8.989282608032227,3.9010398387908936
1710887990325541400,22.697541259765625,0.39510124921798706,8.908048629760742,4.081782341003418
1710887990344501200,22.716501220703126,0.38470733165740967,8.839542388916016,4.229052543640137
1710887990363461400,22.73546142578125,0.3529253900051117,8.785473823547363,4.342956066131592
1710887990382421200,22.754421142578124,0.3080117702484131,8.750560760498047,4.4162445068359375
1710887990401381000,22.773381103515625,0.25867223739624023,8.738506317138672,4.443195343017578
1710887990420341000,22.792341064453126,0.2109636813402176,8.74893569946289,4.425156593322754
1710887990439300900,22.81130078125,0.17165455222129822,8.778471946716309,4.36799430847168
1710887990458260700,22.8302607421875,0.14210358262062073,8.820279121398926,4.284024238586426
1710887990477220600,22.849220703125,0.1132032498717308,8.864080429077148,4.193524360656738
1710887990496180500,22.868180419921874,0.08023913204669952,8.915074348449707,4.084776878356934
1710887990515140600,22.887140625,0.04336186870932579,8.98346996307373,3.93265438079834
1710887990534100500,22.9061005859375,0.017724232748150826,9.07287883758545,3.721954107284546
1710887990553060400,22.925060302734376,0.024562934413552284,9.163908004760742,3.491788387298584
1710887990572020200,22.944020263671874,0.06166413053870201,9.228225708007812,3.3175957202911377
1710887990590980000,22.96297998046875,0.10501419752836227,9.256026268005371,3.238109588623047
1710887990609940000,22.98193994140625,0.12772499024868011,9.264537811279297,3.2128498554229736
1710887990628900000,23.000900146484376,0.12045194953680038,9.28005313873291,3.1680431365966797
1710887990647860000,23.01985986328125,0.09639092534780502,9.31653118133545,3.059957265853882
1710887990666819800,23.03881982421875,0.07960204780101776,9.369709968566895,2.893543243408203
1710887990685779700,23.05777978515625,0.08698242902755737,9.42719554901123,2.7001466751098633
1710887990704739600,23.076739501953124,0.12559841573238373,9.47989273071289,2.5072405338287354
1710887990723699500,23.095699462890625,0.19610899686813354,9.523297309875488,2.3321120738983154
1710887990742659600,23.11465966796875,0.298807829618454,9.555815696716309,2.183453321456909
1710887990761619500,23.133619384765623,0.4277585744857788,9.577691078186035,2.062824010848999
1710887990780579300,23.152579345703124,0.5688703656196594,9.58972454071045,1.970775842666626
1710887990799539200,23.171539306640625,0.7036359310150146,9.593506813049316,1.9078521728515625
1710887990818499300,23.190499267578126,0.818082332611084,9.591753959655762,1.8706644773483276
1710887990837459200,23.209459228515627,0.9069893956184387,9.58692741394043,1.8543373346328735
1710887990856419000,23.228419189453124,0.9646584391593933,9.58080768585205,1.856866717338562
1710887990875379000,23.24737890625,0.987091600894928,9.5748291015625,1.8758165836334229
1710887990894338800,23.2663388671875,0.9804056882858276,9.569738388061523,1.9050699472427368
1710887990913299000,23.285298828125,0.9639151692390442,9.567303657531738,1.9256048202514648
1710887990932258800,23.3042587890625,0.954767107963562,9.568120956420898,1.926104187965393
1710887990951218700,23.32321875,0.9580349922180176,9.569717407226562,1.9165236949920654
1710887990970178600,23.342178466796874,0.9713959097862244,9.569791793823242,1.9094122648239136
1710887990989138400,23.361138427734375,0.9882639050483704,9.566838264465332,1.9155488014221191
1710887991008098300,23.380098388671875,0.9991142153739929,9.561739921569824,1.9352707862854004
1710887991027058400,23.399058349609376,0.9974258542060852,9.557052612304688,1.9591548442840576
1710887991046018300,23.418018310546874,0.9842348694801331,9.552679061889648,1.9869599342346191
1710887991064978200,23.436978271484374,0.9601871371269226,9.54228687286377,2.0477261543273926
1710887991083938000,23.45593798828125,0.9146819114685059,9.524438858032227,2.149144172668457
1710887991102898200,23.474898193359376,0.8331986665725708,9.509671211242676,2.2455127239227295
1710887991121858000,23.493858154296873,0.7181944251060486,9.511143684387207,2.2787578105926514
1710887991140818000,23.51281787109375,0.5949612855911255,9.525372505187988,2.2547035217285156
1710887991159777800,23.53177783203125,0.4927166998386383,9.536087036132812,2.233978033065796
1710887991178737700,23.550737548828124,0.43154841661453247,9.531902313232422,2.2642858028411865
1710887991197697800,23.56969775390625,0.4074459373950958,9.512948989868164,2.3469536304473877
1710887991216657700,23.58865771484375,0.4021005928516388,9.487982749938965,2.446808099746704
1710887991235617500,23.607617431640627,0.3941417932510376,9.465218544006348,2.534693479537964
1710887991254577400,23.626577392578124,0.3727854788303375,9.44876480102539,2.598511219024658
1710887991273537500,23.64553759765625,0.3432849943637848,9.437996864318848,2.641357183456421
1710887991292497400,23.664497314453126,0.3162112832069397,9.428852081298828,2.677149772644043
1710887991311457300,23.683457275390627,0.2967447340488434,9.416769981384277,2.7215371131896973
1710887991330417200,23.702417236328124,0.28919804096221924,9.397576332092285,2.78788685798645
1710887991349377300,23.721377197265625,0.29903173446655273,9.368388175964355,2.883445978164673
1710887991368337200,23.740337158203126,0.32991936802864075,9.327609062194824,3.009523391723633
1710887991387297000,23.759297119140626,0.3806383013725281,9.275211334228516,3.1616358757019043
1710887991406257000,23.7782568359375,0.4464091658592224,9.211997985839844,3.333197593688965
1710887991425216800,23.797216796875,0.5213848352432251,9.139134407043457,3.517777442932129
1710887991444176600,23.8161767578125,0.5957209467887878,9.057380676269531,3.712054491043091
1710887991463136800,23.83513671875,0.6575981974601746,8.965832710266113,3.9181387424468994
1710887991482096600,23.8540966796875,0.7008750438690186,8.866750717163086,4.130360126495361
1710887991501056500,23.873056396484376,0.719144880771637,8.770391464233398,4.328216552734375
1710887991520016600,23.8920166015625,0.7028012275695801,8.687702178955078,4.494474411010742
1710887991538976500,23.9109765625,0.6474941968917847,8.622701644897461,4.626029968261719
1710887991557936400,23.929936279296875,0.5623357892036438,8.58249282836914,4.711156368255615
1710887991576896300,23.948896240234376,0.46238842606544495,8.57837963104248,4.7294816970825195
1710887991595856100,23.967856201171877,0.3686201572418213,8.615935325622559,4.669063568115234
1710887991614816000,23.98681591796875,0.2892496585845947,8.684412002563477,4.546175479888916
1710887991633776000,24.005776123046875,0.21922685205936432,8.758079528808594,4.40662956237793
1710887991652736000,24.024736083984376,0.1554824858903885,8.816157341003418,4.292037487030029
1710887991671696000,24.04369580078125,0.08934298902750015,8.861612319946289,4.199313640594482
1710887991690655700,24.06265576171875,0.004164062440395355,8.912543296813965,4.091081142425537
1710887991709615900,24.081615966796875,-0.08465912938117981,8.981734275817871,3.9359450340270996
1710887991728575700,24.10057568359375,-0.12897084653377533,9.055418014526367,3.762068748474121
1710887991747535600,24.11953564453125,-0.11883409321308136,9.112629890441895,3.621636390686035
1710887991766495500,24.13849560546875,-0.07019402831792831,9.151309967041016,3.524056911468506
1710887991785455600,24.15745556640625,-0.0027376108337193727,9.185985565185547,3.4333748817443848
1710887991804415500,24.17641552734375,0.07349469512701035,9.226613998413086,3.321835994720459
1710887991823375400,24.195375244140624,0.15859286487102509,9.275612831115723,3.1793479919433594
1710887991842335200,24.214335205078125,0.2519613802433014,9.33045482635498,3.008241891860962
1710887991861295000,24.233295166015626,0.35440388321876526,9.386439323425293,2.8177170753479004
1710887991880255000,24.2522548828125,0.4714946746826172,9.43780517578125,2.622197389602661
1710887991899215000,24.271215087890624,0.6075824499130249,9.47987174987793,2.435830593109131
1710887991918175000,24.290175048828125,0.7581143379211426,9.51077651977539,2.267328977584839
1710887991937134800,24.309134765625,0.9135519862174988,9.531055450439453,2.120089054107666
