time,seconds_elapsed,z,y,x
1710887967726497000,0.0984970703125,0.5778666734695435,8.260024070739746,5.359922885894775
1710887967745456600,0.11745654296875,0.47976094484329224,8.280363082885742,5.289334297180176
1710887967764416300,0.136416259765625,0.3194418251514435,8.329415321350098,5.175675392150879
1710887967783376000,0.1553759765625,0.25004997849464417,8.359326362609863,4.985445976257324
1710887967802335500,0.17433544921875,0.21176479756832123,8.350951194763184,4.852644443511963
1710887967821295000,0.193295166015625,0.19980068504810333,8.305487632751465,4.847858905792236
1710887967840255000,0.2122548828125,0.2392822653055191,8.300702095031738,4.9878387451171875
1710887967859214600,0.231214599609375,0.3002992272377014,8.286344528198242,5.0943193435668945
1710887967878174200,0.25017431640625,0.3936193287372589,8.289934158325195,5.133800983428955
1710887967897133800,0.2691337890625,0.48095735907554626,8.250452041625977,5.178068161010742
1710887967916093400,0.288093505859375,0.4833501875400543,8.196614265441895,5.194818019866943
1710887967935053000,0.307052978515625,0.40677985548973083,8.26241683959961,5.1529436111450195
1710887967954012700,0.3260126953125,0.29431718587875366,8.35573673248291,5.096712112426758
1710887967972972300,0.34497216796875,0.20578274130821228,8.402397155761719,4.956732273101807
1710887967991932200,0.36393212890625,0.12921242415905,8.338987350463867,4.762913703918457
1710887968010891800,0.382891845703125,0.07776673883199692,8.279166221618652,4.573880672454834
1710887968029851400,0.401851318359375,-0.01196411345154047,8.35573673248291,4.390829563140869
1710887968048811000,0.42081103515625,-0.10289137065410614,8.539983749389648,4.277170658111572
1710887968067770600,0.4397705078125,-0.17347964644432068,8.733802795410156,4.344169616699219
1710887968086730500,0.45873046875,-0.20817556977272034,8.82114028930664,4.535595417022705
1710887968105689900,0.47768994140625,-0.2907279431819916,8.6967134475708,4.861019134521484
1710887968124649700,0.496649658203125,-0.1818545162677765,8.542376518249512,5.042873859405518
1710887968143609300,0.515609375,0.016749758273363113,8.467002868652344,5.1050872802734375
1710887968162569000,0.53456884765625,0.14476576447486877,8.33300495147705,4.944767951965332
1710887968181528600,0.553528564453125,0.13878370821475983,8.310273170471191,4.6540398597717285
1710887968200488200,0.57248828125,0.06580262631177902,8.353343963623047,4.400400638580322
1710887968219448000,0.591447998046875,-0.06699903309345245,8.608179092407227,4.356133460998535
1710887968238407700,0.61040771484375,-0.1423729509115219,8.992227554321289,4.415954113006592
1710887968257367300,0.6293671875,-0.30628129839897156,9.177671432495117,4.388436794281006
1710887968276327000,0.648326904296875,-0.4247260093688965,9.10827922821045,3.9792640209198
1710887968295286500,0.66728662109375,-0.5072783827781677,9.007781028747559,3.3882367610931396
1710887968314246400,0.686246337890625,-0.5647061467170715,9.109476089477539,2.8247270584106445
1710887968333206000,0.7052060546875,-0.6017948985099792,9.351150512695312,2.6189444065093994
1710887968352165600,0.72416552734375,-0.9176474809646606,9.274580955505371,2.3880369663238525
1710887968371125500,0.74312548828125,-0.7058826684951782,9.396614074707031,2.255235433578491
1710887968390085000,0.762085205078125,-0.8171489238739014,9.455238342285156,2.2061824798583984
1710887968409044700,0.781044677734375,-0.8913264274597168,9.548559188842773,2.3509483337402344
1710887968428004400,0.80000439453125,-1.1521440744400024,9.897911071777344,2.7110681533813477
1710887968446964200,0.818964111328125,-1.3435698747634888,10.382457733154297,3.4552359580993652
1710887968465923800,0.837923828125,-1.3770694732666016,10.817951202392578,4.315455436706543
1710887968484883500,0.856883544921875,-1.1282159090042114,10.64686393737793,4.97348165512085
1710887968503843000,0.875843017578125,-0.5252245664596558,9.968499183654785,5.062016487121582
1710887968522803000,0.894802978515625,-0.24406790733337402,9.208778381347656,4.503292083740234
1710887968541762600,0.913762451171875,-0.24406790733337402,8.6967134475708,3.410968780517578
1710887968560722200,0.93272216796875,-0.33858439326286316,8.506484031677246,2.583052158355713
1710887968579682000,0.95168212890625,-0.5108676552772522,8.565108299255371,2.091326951980591
1710887968598641700,0.9706416015625,-0.589830756187439,8.779266357421875,2.273181438446045
1710887968617601300,0.989601318359375,-0.7860422134399414,9.269794464111328,2.779263496398926
1710887968636561000,1.008560791015625,-0.3936193287372589,9.713663101196289,3.5772697925567627
1710887968655520800,1.027520751953125,0.17706887423992157,9.873982429504395,4.133601188659668
1710887968674480400,1.04648046875,0.6544370055198669,9.931410789489746,4.3549370765686035
1710887968693440000,1.06543994140625,0.7896314859390259,9.863214492797852,4.232903480529785
1710887968712400000,1.08439990234375,0.8350951075553894,9.595218658447266,3.827319860458374
1710887968731359500,1.103359375,0.8590233325958252,9.146564483642578,3.2889347076416016
1710887968750319400,1.1223193359375,0.9403793215751648,8.748159408569336,2.8486554622650146
1710887968769279000,1.141279052734375,1.1748759746551514,8.312665939331055,2.654836654663086
1710887968788238600,1.160238525390625,1.384247899055481,8.073383331298828,2.702693223953247
1710887968807198200,1.1791982421875,1.5792629718780518,7.941778182983398,2.7804598808288574
1710887968826158000,1.198157958984375,1.7371892929077148,8.054241180419922,2.9479575157165527
1710887968845117700,1.21711767578125,1.836491346359253,8.367700576782227,3.1274192333221436
1710887968864077600,1.23607763671875,1.7012969255447388,8.806783676147461,3.2937204837799072
1710887968883037200,1.255037109375,1.534995675086975,9.332008361816406,3.3475589752197266
1710887968901997000,1.2739970703125,1.357926845550537,9.548559188842773,3.321237802505493
1710887968920956700,1.292956787109375,1.2335001230239868,9.525827407836914,3.084348440170288
1710887968939916300,1.311916259765625,1.1306086778640747,9.397810935974121,2.8498518466949463
1710887968958876200,1.330876220703125,1.0707881450653076,9.158528327941895,2.709871530532837
1710887968977835800,1.349835693359375,1.1318050622940063,8.974281311035156,2.720639228820801
1710887968996795600,1.368795654296875,1.2705888748168945,8.895318031311035,2.9168508052825928
1710887969015755300,1.38775537109375,1.5002998113632202,8.971888542175293,3.181257724761963
1710887969034715000,1.40671484375,1.7635103464126587,9.104690551757812,3.4396824836730957
1710887969053674800,1.4256748046875,1.8975083827972412,9.117850303649902,3.5880374908447266
1710887969072634400,1.44463427734375,1.9058831930160522,9.1657075881958,3.4719855785369873
1710887969091594200,1.46359423828125,1.7934205532073975,9.199206352233887,3.1920254230499268
1710887969110553900,1.482553955078125,1.688136339187622,9.175278663635254,2.8630123138427734
1710887969129513700,1.501513671875,1.5637096166610718,9.123832702636719,2.5052852630615234
1710887969148473300,1.520473388671875,1.3986048698425293,9.019744873046875,2.1607189178466797
1710887969167433200,1.53943310546875,1.2203395366668701,8.965906143188477,1.836491346359253
1710887969186392800,1.558392822265625,0.989432156085968,8.906085968017578,1.6618152856826782
1710887969205352700,1.577352783203125,0.7980063557624817,8.925228118896484,1.5996019840240479
1710887969224312300,1.596312255859375,0.5694918036460876,9.080761909484863,1.6713865995407104
1710887969243272200,1.615272216796875,0.36729827523231506,9.282955169677734,1.8687944412231445
1710887969262232000,1.634232177734375,0.21774685382843018,9.438488960266113,2.149951219558716
1710887969281191700,1.653191650390625,0.21655045449733734,9.482755661010742,2.4047868251800537
1710887969300151600,1.672151611328125,0.2548356056213379,9.377471923828125,2.5782663822174072
1710887969319111200,1.691111083984375,0.34695929288864136,9.30449104309082,2.7936203479766846
1710887969338071000,1.710071044921875,0.4103690981864929,9.33559799194336,2.999403238296509
1710887969357030700,1.72903076171875,0.29431718587875366,9.414560317993164,3.150151014328003
1710887969375990500,1.747990478515625,0.1339980661869049,9.426525115966797,3.1920254230499268
1710887969394950100,1.7669501953125,-0.010767702013254166,9.407382011413574,3.1166515350341797
1710887969413910000,1.785909912109375,-0.09451649338006973,9.33559799194336,3.0005996227264404
1710887969432870000,1.804869873046875,-0.02153540402650833,9.190832138061523,2.950350284576416
1710887969451829500,1.82382958984375,0.08733802288770676,9.004191398620605,2.8725836277008057
1710887969470789000,1.8427890625,0.12681959569454193,8.865407943725586,2.801995277404785
1710887969489749000,1.8617490234375,0.10887342691421509,8.811569213867188,2.713460922241211
1710887969508708900,1.880708984375,0.038285162299871445,8.81515884399414,2.5674986839294434
1710887969527668700,1.899668701171875,0.08015955984592438,8.811569213867188,2.4299113750457764
1710887969546628400,1.91862841796875,0.1782652884721756,8.861818313598633,2.4323041439056396
1710887969565588200,1.937588134765625,0.1866401731967926,9.017352104187012,2.541177749633789
1710887969584547800,1.9565478515625,0.18903298676013947,9.198010444641113,2.6213371753692627
1710887969603507700,1.9755078125,0.04426721855998039,9.354740142822266,2.662015199661255
1710887969622467600,1.994467529296875,-0.11485548317432404,9.527023315429688,2.6141586303710938
1710887969641427200,2.01342724609375,-0.2512463629245758,9.682557106018066,2.6021945476531982
1710887969660387000,2.032386962890625,-0.35892340540885925,9.829715728759766,2.6775684356689453
1710887969679347000,2.051346923828125,-0.46061834692955017,9.915857315063477,2.7421748638153076
1710887969698306600,2.070306640625,-0.5383850932121277,9.955338478088379,2.65842604637146
1710887969717266400,2.089266357421875,-0.5216353535652161,9.926624298095703,2.438286304473877
1710887969736226000,2.10822607421875,-0.5060819983482361,9.960124015808105,2.242074728012085
1710887969755186000,2.12718603515625,-0.5826523303985596,9.963713645935059,2.251646041870117
1710887969774145800,2.146145751953125,-0.7070791125297546,9.955338478088379,2.3952155113220215
1710887969793105400,2.16510546875,-0.7585247755050659,9.884750366210938,2.53399920463562
1710887969812065300,2.184065185546875,-0.6687939167022705,9.66939640045166,2.68953275680542
1710887969831025200,2.203025146484375,-0.5706881880760193,9.558130264282227,2.746960401535034
1710887969849984800,2.22198486328125,-0.763310432434082,9.748359680175781,2.823530673980713
1710887969868944600,2.240944580078125,-0.7680960893630981,10.339386940002441,2.7254250049591064
1710887969887904500,2.259904541015625,-0.9367900490760803,11.505887985229492,2.68953275680542
1710887969906864000,2.278864013671875,-0.7585247755050659,12.563515663146973,3.0891339778900146
1710887969925824000,2.297823974609375,-0.7932206988334656,12.77049446105957,3.751945972442627
1710887969944784000,2.316783935546875,-0.4498506486415863,11.775080680847168,4.07258415222168
1710887969963743700,2.33574365234375,-0.08015955984592438,10.164710998535156,3.981656789779663
1710887969982703400,2.354703369140625,0.381655216217041,8.797212600708008,3.601198196411133
1710887970001663200,2.373663330078125,0.638883650302887,7.840083599090576,3.128615617752075
1710887970020623000,2.392623046875,0.8051848411560059,7.313662528991699,2.520838737487793
1710887970039583000,2.4115830078125,0.8039883971214294,7.2921271324157715,1.932204246520996
1710887970058542600,2.43054248046875,0.5635097622871399,7.777870178222656,1.6845471858978271
1710887970077502500,2.44950244140625,0.3278166949748993,8.458627700805664,1.8652052879333496
1710887970096462300,2.46846240234375,0.18065811693668365,9.05444049835205,2.1308085918426514
1710887970115422000,2.487421875,0.09092725813388824,9.609575271606445,2.3533411026000977
1710887970134381800,2.5063818359375,-0.04785645380616188,10.02592658996582,2.520838737487793
1710887970153341700,2.525341796875,-0.2153540402650833,10.091729164123535,2.517249345779419
1710887970172301300,2.54430126953125,-0.22851456701755524,9.767501831054688,2.2241287231445312
1710887970191261400,2.563261474609375,-0.18544375896453857,9.306883811950684,1.8317056894302368
1710887970210221000,2.582220947265625,-0.17587246000766754,8.907281875610352,1.5541383028030396
1710887970229181000,2.601180908203125,-0.22013968229293823,8.714659690856934,1.4033905267715454
1710887970248140800,2.620140869140625,-0.27038896083831787,8.703892707824707,1.301695466041565
1710887970267100400,2.639100341796875,-0.31106695532798767,8.786444664001465,1.23589289188385
1710887970286060300,2.658060302734375,-0.3601198196411133,8.96949577331543,1.191625714302063
1710887970305020200,2.677020263671875,-0.4426721930503845,9.120243072509766,1.2179467678070068
1710887970323980000,2.69597998046875,-0.4941178858280182,9.226723670959473,1.333998680114746
1710887970342939600,2.714939697265625,-0.5742774605751038,9.254241943359375,1.456032633781433
1710887970361899500,2.7338994140625,-0.6735795736312866,9.291330337524414,1.6390835046768188
1710887970380859400,2.752859375,-0.6759724020957947,9.272188186645508,1.9872392416000366
1710887970399819300,2.7718193359375,-0.5742774605751038,9.127422332763672,2.3676979541778564
1710887970418779100,2.790779052734375,-0.34217363595962524,8.906085968017578,2.688336133956909
1710887970437738800,2.80973876953125,-0.09092725813388824,8.854640007019043,2.837887763977051
1710887970456698600,2.82869873046875,0.010767702013254166,9.132207870483398,3.0855448246002197
1710887970475658500,2.847658447265625,0.1052841991186142,9.632308006286621,3.345165967941284
1710887970494618400,2.866618408203125,-0.009571290574967861,10.12881851196289,3.693321704864502
1710887970513578000,2.885577880859375,-0.09690931439399719,10.40638542175293,3.9433717727661133
1710887970532537900,2.904537841796875,-0.1866401731967926,10.418350219726562,3.882354736328125
1710887970551497700,2.923497802734375,-0.363709032535553,10.242477416992188,3.6885361671447754
1710887970570457600,2.94245751953125,-0.3445664644241333,10.016355514526367,3.4779677391052246
1710887970589417500,2.96141748046875,-0.23808585107326508,9.77826976776123,3.1860432624816895
1710887970608377000,2.980377197265625,-0.16510476171970367,9.729216575622559,3.0388846397399902
1710887970627337000,2.9993369140625,0.08973085135221481,9.963713645935059,3.342773199081421
1710887970646296800,3.018296875,0.2584248483181,10.296316146850586,3.689732551574707
1710887970665256700,3.037256591796875,0.6556333899497986,10.62532901763916,4.005585193634033
1710887970684216300,3.05621630859375,1.0815558433532715,10.953145980834961,4.296313285827637
1710887970703176200,3.07517626953125,1.1198409795761108,11.036894798278809,4.247260093688965
1710887970722136000,3.094135986328125,1.5182459354400635,10.65523910522461,3.620340585708618
1710887970741096000,3.113095947265625,2.196611166000366,10.350153923034668,2.906083106994629
1710887970760055800,3.132055908203125,2.6021945476531982,9.979267120361328,2.562713146209717
1710887970779015400,3.151015380859375,2.5591237545013428,9.06999397277832,2.4023938179016113
1710887970797975300,3.169975341796875,2.3736801147460938,8.26839828491211,2.1990039348602295
1710887970816935200,3.18893505859375,2.358126640319824,8.132007598876953,2.2205393314361572
1710887970835895000,3.20789501953125,2.1056840419769287,8.350951194763184,2.4358935356140137
1710887970854855000,3.22685498046875,1.8640087842941284,8.47896671295166,2.524427890777588
1710887970873814800,3.245814697265625,1.6103696823120117,8.536395072937012,2.6249263286590576
1710887970892774400,3.2647744140625,1.5804593563079834,8.536395072937012,2.7864420413970947
1710887970911734300,3.283734375,1.4620146751403809,8.458627700805664,2.9718856811523438
1710887970930694100,3.302694091796875,1.4620146751403809,8.260024070739746,3.1310083866119385
1710887970949654000,3.321654052734375,1.4727823734283447,7.872386455535889,3.1405797004699707
1710887970968614000,3.34061376953125,1.550549030303955,7.4811601638793945,3.0903303623199463
1710887970987573500,3.359573486328125,1.5876377820968628,7.293323516845703,3.0795626640319824
1710887971006533400,3.378533447265625,1.612762451171875,7.296912670135498,3.146561861038208
1710887971025493200,3.3974931640625,1.526620864868164,7.539783954620361,3.2817561626434326
1710887971044453000,3.416453125,1.4919248819351196,7.825726509094238,3.3714871406555176
1710887971063413000,3.4354130859375,1.5170495510101318,8.079365730285645,3.418147087097168
1710887971082372600,3.45437255859375,1.4608181715011597,8.13679313659668,3.379862070083618
1710887971101332500,3.47333251953125,1.4093725681304932,8.133204460144043,3.311666488647461
1710887971120292400,3.492292236328125,1.3244273662567139,8.167900085449219,3.205185890197754
1710887971139252200,3.511252197265625,1.1808580160140991,8.311469078063965,3.111865758895874
1710887971158212000,3.530212158203125,1.0516455173492432,8.421539306640625,3.119044303894043
1710887971177172000,3.549171875,1.0049854516983032,8.441878318786621,3.190829038619995
1710887971196131800,3.5681318359375,0.9978070259094238,8.437092781066895,3.2781670093536377
1710887971215091500,3.587091552734375,1.1162517070770264,8.34736156463623,3.335594654083252
1710887971234051300,3.60605126953125,1.2957134246826172,8.277970314025879,3.280559778213501
1710887971253011200,3.62501123046875,1.4165509939193726,8.476573944091797,3.218346357345581
1710887971271971000,3.64397119140625,1.3878371715545654,8.975478172302246,3.160918712615967
1710887971290930700,3.6629306640625,1.215553879737854,9.52941608428955,3.1070802211761475
1710887971309890800,3.681890869140625,1.0959128141403198,9.885947227478027,3.005385160446167
1710887971328850400,3.700850341796875,1.3112667798995972,10.116853713989258,2.7349963188171387
1710887971347810300,3.719810302734375,1.4105689525604248,10.50808048248291,2.4358935356140137
1710887971366770200,3.738770263671875,0.7046862840652466,12.28953742980957,1.9824535846710205
1710887971385730000,3.75772998046875,0.8638089895248413,14.788840293884277,2.4047868251800537
1710887971404689700,3.776689697265625,1.5900306701660156,14.775679588317871,3.6993038654327393
1710887971423649800,3.79564990234375,2.8414769172668457,11.779866218566895,3.3308091163635254
1710887971442609400,3.814609375,3.060420274734497,9.493523597717285,2.1128623485565186
1710887971461569300,3.8335693359375,2.427518606185913,8.525627136230469,0.7022934556007385
1710887971480529200,3.852529052734375,2.1547367572784424,8.26839828491211,-0.004785645287483931
1710887971499489000,3.871489013671875,2.2025933265686035,9.123832702636719,0.02392822690308094
1710887971518449000,3.890448974609375,2.3258235454559326,10.847861289978027,0.7585247755050659
1710887971537408500,3.909408447265625,2.482553482055664,11.96889877319336,1.588834285736084
1710887971556368400,3.928368408203125,2.1200408935546875,11.861222267150879,1.7994025945663452
1710887971575328300,3.947328369140625,1.9980069398880005,10.906485557556152,1.734796404838562
1710887971594288000,3.9662880859375,2.0303099155426025,9.511469841003418,1.5026925802230835
1710887971613248000,3.985248046875,2.104487419128418,8.490931510925293,1.1700903177261353
1710887971632208000,4.004207763671875,2.0482561588287354,8.102097511291504,0.8015955686569214
1710887971651167500,4.02316748046875,1.9298114776611328,8.09252643585205,0.623330295085907
1710887971670127400,4.04212744140625,1.9417755603790283,8.287541389465332,0.5730810165405273
1710887971689087200,4.061087158203125,2.0709879398345947,8.367700576782227,0.4259224236011505
1710887971708047000,4.080047119140625,2.1918256282806396,8.543573379516602,0.1902294009923935
1710887971727007000,4.099007080078125,2.0685951709747314,8.842676162719727,0.06340979784727097
1710887971745966800,4.117966796875,1.7886348962783813,9.159725189208984,0.08374879509210587
1710887971764926500,4.136926513671875,1.5050854682922363,9.608379364013672,0.4211367964744568
1710887971783886300,4.15588623046875,1.1772687435150146,9.962516784667969,0.914058268070221
1710887971802846200,4.17484619140625,1.00259268283844,10.02712345123291,1.420140266418457
1710887971821806000,4.19380615234375,1.0348957777023315,9.728020668029785,1.770688772201538
1710887971840766000,4.212765869140625,1.085145115852356,9.159725189208984,1.9130617380142212
1710887971859725800,4.231725830078125,1.168893814086914,8.656036376953125,1.8711873292922974
1710887971878685700,4.250685791015625,1.089930772781372,8.37727165222168,1.812563180923462
1710887971897645300,4.269645263671875,0.9535398483276367,8.421539306640625,1.805384635925293
1710887971916605200,4.288605224609375,0.8530412912368774,8.676374435424805,1.903490424156189
1710887971935565000,4.30756494140625,0.8063812255859375,9.245866775512695,2.087737798690796
1710887971954525000,4.32652490234375,0.7860422134399414,10.115657806396484,2.4909284114837646
1710887971973484500,4.345484619140625,0.5491527915000916,11.021341323852539,3.3020951747894287
1710887971992444700,4.364444580078125,0.27038896083831787,11.45803165435791,4.222135543823242
1710887972011404300,4.383404296875,0.10767702013254166,11.198410034179688,4.482953071594238
1710887972030364200,4.4023642578125,0.10408778488636017,10.454241752624512,4.143172264099121
1710887972049324000,4.421323974609375,0.21176479756832123,9.541379928588867,3.6191442012786865
1710887972068284000,4.440283935546875,0.32662028074264526,8.787641525268555,3.1250264644622803
1710887972087243500,4.459243408203125,0.35892340540885925,8.336593627929688,2.8151557445526123
1710887972106203400,4.478203369140625,0.34576287865638733,8.166703224182129,2.7122645378112793
1710887972125163300,4.497163330078125,0.32303106784820557,8.202595710754395,2.757728099822998
1710887972144123100,4.516123046875,0.25722843408584595,8.210970878601074,2.7900311946868896
1710887972163083000,4.5350830078125,0.22971096634864807,8.226524353027344,2.7637102603912354
1710887972182043000,4.55404296875,0.19381862878799438,8.220541954040527,2.7565317153930664
1710887972201002800,4.573002685546875,0.19262222945690155,8.299505233764648,2.669193744659424
1710887972219962400,4.59196240234375,0.13160525262355804,8.675178527832031,2.7110681533813477
1710887972238922200,4.610922119140625,0.0729810893535614,9.28893756866455,2.937189817428589
1710887972257882000,4.629882080078125,-0.06699903309345245,9.830911636352539,3.243471145629883
1710887972276842000,4.648842041015625,-0.11964113265275955,10.287940979003906,3.4193434715270996
1710887972295801900,4.6678017578125,-0.14117653667926788,10.61097240447998,3.6095728874206543
1710887972314761700,4.68676171875,-0.2105683982372284,10.675578117370605,3.6466617584228516
1710887972333721300,4.705721435546875,-0.3002992272377014,10.231709480285645,3.517449378967285
1710887972352681200,4.72468115234375,-0.22492532432079315,9.505488395690918,3.22552490234375
1710887972371641000,4.74364111328125,-0.22971096634864807,8.94556713104248,2.8462624549865723
1710887972390601000,4.76260107421875,-0.3278166949748993,8.687142372131348,2.541177749633789
1710887972409560800,4.781560791015625,-0.4486542344093323,8.678768157958984,2.3916261196136475
1710887972428520700,4.800520751953125,-0.4103690981864929,8.839086532592773,2.427518606185913
1710887972447480300,4.819480224609375,-0.30987054109573364,9.038887977600098,2.6273193359375
1710887972466440200,4.838440185546875,-0.4307080805301666,9.200403213500977,2.7876384258270264
1710887972485400000,4.857400146484375,-0.6005984544754028,9.415757179260254,2.8354947566986084
1710887972504360000,4.87635986328125,-0.7178468108177185,9.559326171875,3.0795626640319824
1710887972523319800,4.89531982421875,-0.7070791125297546,9.471988677978516,3.442075490951538
1710887972542279700,4.91427978515625,-0.5970092415809631,9.315258979797363,3.7495529651641846
1710887972561239300,4.9332392578125,-0.4223332107067108,9.136993408203125,3.9385859966278076
1710887972580199200,4.95219921875,-0.30628129839897156,8.980263710021973,3.946960926055908
1710887972599159000,4.971158935546875,-0.28115665912628174,8.915657043457031,3.759124279022217
1710887972618119000,4.990118896484375,-0.3433700501918793,8.883354187011719,3.538984775543213
1710887972637078500,5.00907861328125,-0.4103690981864929,8.915657043457031,3.3056845664978027
1710887972656038400,5.028038330078125,-0.45942193269729614,8.981459617614746,3.1489546298980713
1710887972674998300,5.046998291015625,-0.49172505736351013,9.06401252746582,3.049652576446533
1710887972693958100,5.065958251953125,-0.49651068449020386,9.091529846191406,2.9802606105804443
1710887972712918000,5.08491796875,-0.5120640397071838,9.18006420135498,2.967100143432617
1710887972731878000,5.1038779296875,-0.6005984544754028,9.321240425109863,3.029313564300537
1710887972750837500,5.12283740234375,-0.6783652305603027,9.449256896972656,3.1238300800323486
1710887972769797400,5.14179736328125,-0.6735795736312866,9.404989242553711,3.1202406883239746
1710887972788757200,5.16075732421875,-0.656829833984375,9.241081237792969,3.0891339778900146
1710887972807717000,5.179717041015625,-0.6017948985099792,9.10229778289795,3.053241729736328
1710887972826676700,5.1986767578125,-0.5850451588630676,9.022137641906738,3.074777126312256
1710887972845636900,5.217636962890625,-0.605384111404419,9.046066284179688,3.1142587661743164
1710887972864596500,5.236596435546875,-0.6125625967979431,9.060422897338867,3.2099716663360596
1710887972883556400,5.255556396484375,-0.6185446381568909,9.126225471496582,3.2745778560638428
1710887972902516200,5.27451611328125,-0.6329016089439392,9.196813583374023,3.3092737197875977
1710887972921476000,5.29347607421875,-0.6496513485908508,9.281759262084961,3.3535408973693848
1710887972940435700,5.312435791015625,-0.6771687865257263,9.31884765625,3.3475589752197266
1710887972959395600,5.3313955078125,-0.7094719409942627,9.302098274230957,3.3547372817993164
1710887972978355500,5.35035546875,-0.7393822073936462,9.272188186645508,3.3583266735076904
1710887972997315300,5.3693154296875,-0.7310073375701904,9.21834945678711,3.3894333839416504
1710887973016275200,5.388275146484375,-0.6831508874893188,9.168100357055664,3.390629768371582
1710887973035235000,5.407235107421875,-0.6532405614852905,9.127422332763672,3.3535408973693848
1710887973054194700,5.426194580078125,-0.6245267391204834,9.09272575378418,3.314059257507324
1710887973073154600,5.445154541015625,-0.6520441770553589,9.087940216064453,3.2793633937835693
1710887973092114400,5.464114501953125,-0.6640082597732544,9.097511291503906,3.22552490234375
1710887973111074300,5.48307421875,-0.6951149702072144,9.107083320617676,3.1932218074798584
1710887973130034000,5.502033935546875,-0.6999006271362305,9.110671997070312,3.1549365520477295
1710887973148993800,5.520993896484375,-0.6999006271362305,9.158528327941895,3.105883836746216
1710887973167953700,5.53995361328125,-0.7058826684951782,9.17288589477539,3.0867412090301514
1710887973186913500,5.55891357421875,-0.714257538318634,9.190832138061523,3.091526746749878
1710887973205873400,5.577873291015625,-0.7154539823532104,9.159725189208984,3.10109806060791
1710887973224833000,5.5968330078125,-0.6771687865257263,9.134600639343262,3.1166515350341797
1710887973243793000,5.61579296875,-0.6185446381568909,9.097511291503906,3.1441688537597656
1710887973262752800,5.634752685546875,-0.5934200286865234,9.111868858337402,3.1585259437561035
1710887973281712600,5.653712646484375,-0.589830756187439,9.142974853515625,3.188436269760132
1710887973300672300,5.67267236328125,-0.6089733839035034,9.184849739074707,3.208775281906128
1710887973319632100,5.691632080078125,-0.6544370055198669,9.294919967651367,3.2685956954956055
1710887973338592000,5.710592041015625,-0.6915257573127747,9.431310653686523,3.346362352371216
1710887973357551900,5.7295517578125,-0.6975077986717224,9.487542152404785,3.3786656856536865
1710887973376511700,5.74851171875,-0.6628118753433228,9.45882797241211,3.3966116905212402
1710887973395471400,5.767471435546875,-0.6245267391204834,9.393025398254395,3.3918261528015137
1710887973414431200,5.78643115234375,-0.5874379873275757,9.306883811950684,3.3690943717956543
1710887973433391000,5.80539111328125,-0.5718846321105957,9.229117393493652,3.3104701042175293
1710887973452351000,5.82435107421875,-0.5419743061065674,9.176474571228027,3.2518460750579834
1710887973471310600,5.843310546875,-0.5156532526016235,9.177671432495117,3.1728827953338623
1710887973490270500,5.8622705078125,-0.5072783827781677,9.192028045654297,3.119044303894043
1710887973509230300,5.881230224609375,-0.5288137793540955,9.213563919067383,3.105883836746216
1710887973528190200,5.900190185546875,-0.5551348328590393,9.190832138061523,3.098705291748047
1710887973547150000,5.919150146484375,-0.5407779216766357,9.183652877807617,3.084348440170288
1710887973566109700,5.938109619140625,-0.5240281820297241,9.18843936920166,3.073580741882324
1710887973585069600,5.957069580078125,-0.5670989751815796,9.269794464111328,3.1106693744659424
1710887973604029400,5.976029541015625,-0.6029912829399109,9.376275062561035,3.1968109607696533
1710887973622989300,5.9949892578125,-0.5826523303985596,9.360722541809082,3.243471145629883
1710887973641949000,6.013948974609375,-0.5419743061065674,9.272188186645508,3.236292600631714
1710887973660908800,6.03290869140625,-0.503689169883728,9.220742225646973,3.2231321334838867
1710887973679868700,6.05186865234375,-0.4905286431312561,9.203991889953613,3.170490026473999
1710887973698828500,6.07082861328125,-0.5599204897880554,9.198010444641113,3.1692936420440674
1710887973717788400,6.089788330078125,-0.5814558863639832,9.190832138061523,3.1860432624816895
1710887973736748000,6.108748046875,-0.5539384484291077,9.128618240356445,3.160918712615967
1710887973755708000,6.1277080078125,-0.5324030518531799,9.115457534790039,3.129812002182007
1710887973774667800,6.146667724609375,-0.5778666734695435,9.181260108947754,3.128615617752075
1710887973793627600,6.165627685546875,-0.6017948985099792,9.231510162353516,3.160918712615967
1710887973812587300,6.184587158203125,-0.6137589812278748,9.239884376525879,3.2303106784820557
1710887973831547400,6.20354736328125,-0.6005984544754028,9.278169631958008,3.2781670093536377
1710887973850507000,6.222507080078125,-0.5802595019340515,9.266205787658691,3.332005500793457
1710887973869467000,6.241466796875,-0.5300102233886719,9.251849174499512,3.352344512939453
1710887973888426800,6.2604267578125,-0.49292147159576416,9.20279598236084,3.3343982696533203
1710887973907386600,6.27938671875,-0.48574298620224,9.19442081451416,3.267399311065674
1710887973926346200,6.29834619140625,-0.5024927258491516,9.212367057800293,3.2243285179138184
1710887973945306000,6.31730615234375,-0.5264210104942322,9.196813583374023,3.177668571472168
1710887973964266000,6.336265869140625,-0.4905286431312561,9.18843936920166,3.1274192333221436
1710887973983225900,6.355225830078125,-0.48454657196998596,9.168100357055664,3.073580741882324
1710887974002185700,6.374185791015625,-0.4546363055706024,9.150154113769531,3.053241729736328
1710887974021145300,6.393145263671875,-0.4618147611618042,9.156135559082031,3.0352954864501953
1710887974040105200,6.412105224609375,-0.5108676552772522,9.208778381347656,3.029313564300537
1710887974059065000,6.431065185546875,-0.503689169883728,9.260223388671875,3.046063184738159
1710887974078025000,6.45002490234375,-0.4701896607875824,9.250652313232422,3.0185458660125732
1710887974096984800,6.46898486328125,-0.41515472531318665,9.193224906921387,2.9359934329986572
1710887974115944400,6.4879443359375,-0.4175475537776947,9.200403213500977,2.8558337688446045
1710887974134904300,6.506904296875,-0.4307080805301666,9.255437850952148,2.8319056034088135
1710887974153864200,6.5258642578125,-0.42711883783340454,9.286544799804688,2.8558337688446045
1710887974172824000,6.544823974609375,-0.3888336718082428,9.239884376525879,2.8893332481384277
1710887974191784000,6.563783935546875,-0.3517449200153351,9.21715259552002,2.908475875854492
1710887974210743800,6.582743896484375,-0.3433700501918793,9.205188751220703,2.9455647468566895
1710887974229703400,6.601703369140625,-0.349352091550827,9.169296264648438,2.9527430534362793
1710887974248663300,6.620663330078125,-0.33738797903060913,9.151350021362305,3.025724172592163
1710887974267623200,6.639623046875,-0.31824541091918945,9.146564483642578,3.078366279602051
1710887974286583000,6.6585830078125,-0.2991028428077698,9.140582084655762,3.1621150970458984
1710887974305543000,6.67754296875,-0.2632105052471161,9.110671997070312,3.1956145763397217
1710887974324502800,6.696502685546875,-0.23808585107326508,9.08674430847168,3.184846878051758
1710887974343462400,6.71546240234375,-0.23449662327766418,9.10110092163086,3.1561331748962402
1710887974362422300,6.73442236328125,-0.2727817893028259,9.127422332763672,3.152543783187866
1710887974381382100,6.753382080078125,-0.31824541091918945,9.192028045654297,3.1716864109039307
1710887974400342000,6.772342041015625,-0.2847459018230438,9.184849739074707,3.1956145763397217
1710887974419302000,6.791302001953125,-0.26081767678260803,9.104690551757812,3.1764719486236572
1710887974438261800,6.81026171875,-0.25722843408584595,9.04845905303955,3.0723843574523926
1710887974457221600,6.8292216796875,-0.32542386651039124,9.110671997070312,3.0352954864501953
1710887974476181200,6.84818115234375,-0.3684946894645691,9.21715259552002,3.111865758895874
1710887974495141000,6.86714111328125,-0.3409772217273712,9.273384094238281,3.2231321334838867
1710887974514101000,6.88610107421875,-0.2632105052471161,9.22433090209961,3.2757742404937744
1710887974533060900,6.905060791015625,-0.21415762603282928,9.208778381347656,3.3056845664978027
1710887974552020700,6.924020751953125,-0.2189432680606842,9.196813583374023,3.291327476501465
1710887974570980600,6.942980712890625,-0.2871387302875519,9.215956687927246,3.273381471633911
1710887974589940500,6.9619404296875,-0.3038884699344635,9.253045082092285,3.291327476501465
1710887974608900400,6.980900390625,-0.27756741642951965,9.260223388671875,3.2590243816375732
1710887974627860000,6.99985986328125,-0.2560320198535919,9.231510162353516,3.2159535884857178
1710887974646820000,7.018820068359375,-0.2907279431819916,9.229117393493652,3.166900873184204
1710887974665779700,7.03777978515625,-0.30987054109573364,9.214759826660156,3.105883836746216
1710887974684739600,7.056739501953125,-0.33738797903060913,9.239884376525879,3.084348440170288
1710887974703699500,7.075699462890625,-0.35413774847984314,9.244669914245605,3.1250264644622803
1710887974722659300,7.094659423828125,-0.33379876613616943,9.212367057800293,3.1441688537597656
1710887974741619200,7.113619140625,-0.30628129839897156,9.170493125915527,3.139383316040039
1710887974760579000,7.1325791015625,-0.31106695532798767,9.156135559082031,3.1094729900360107
1710887974779539000,7.1515390625,-0.3433700501918793,9.255437850952148,3.1034910678863525
1710887974798498800,7.170498779296875,-0.4055834412574768,9.404989242553711,3.181257724761963
1710887974817458700,7.189458740234375,-0.4618147611618042,9.463613510131836,3.2590243816375732
1710887974836418600,7.20841845703125,-0.4462614357471466,9.426525115966797,3.2709884643554688
1710887974855378400,7.22737841796875,-0.39601215720176697,9.343972206115723,3.2709884643554688
1710887974874338300,7.24633837890625,-0.37088751792907715,9.298508644104004,3.2709884643554688
1710887974893298000,7.2652978515625,-0.36251261830329895,9.291330337524414,3.2721848487854004
1710887974912257800,7.2842578125,-0.363709032535553,9.30449104309082,3.3296127319335938
1710887974931217700,7.3032177734375,-0.35533416271209717,9.302098274230957,3.4025938510894775
1710887974950177500,7.322177490234375,-0.29312077164649963,9.230313301086426,3.4277184009552
1710887974969137400,7.341137451171875,-0.2273181527853012,9.18006420135498,3.414557933807373
1710887974988097300,7.36009716796875,-0.20338992774486542,9.221938133239746,3.4576287269592285
1710887975007057200,7.37905712890625,-0.2153540402650833,9.30329418182373,3.480360507965088
1710887975026017000,7.39801708984375,-0.25363919138908386,9.343972206115723,3.4791641235351562
1710887975044977000,7.416976806640625,-0.2560320198535919,9.336793899536133,3.4791641235351562
1710887975063936800,7.435936767578125,-0.22013968229293823,9.293723106384277,3.4121651649475098
1710887975082896600,7.454896728515625,-0.16510476171970367,9.213563919067383,3.3571300506591797
1710887975101856500,7.4738564453125,-0.1136590763926506,9.114261627197266,3.294916868209839
1710887975120816400,7.49281640625,-0.09690931439399719,9.072386741638184,3.2626137733459473
1710887975139776300,7.5117763671875,-0.07776673883199692,9.041280746459961,3.187239646911621
1710887975158736100,7.530736083984375,-0.07896314561367035,9.031708717346191,3.1142587661743164
1710887975177696000,7.549696044921875,-0.04666004329919815,9.031708717346191,3.0412776470184326
1710887975196655900,7.56865576171875,-0.016749758273363113,9.041280746459961,2.9563324451446533
1710887975215615700,7.58761572265625,-0.005982056725770235,9.083154678344727,2.92283296585083
1710887975234575600,7.60657568359375,0.02751746028661728,9.116654396057129,2.9036903381347656
1710887975253535500,7.625535400390625,0.04426721855998039,9.127422332763672,2.8929226398468018
1710887975272495400,7.644495361328125,0.05024927482008934,9.107083320617676,2.8486554622650146
1710887975291455200,7.663455322265625,0.03469592705368996,9.154939651489258,2.827120065689087
1710887975310415000,7.6824150390625,0.009571290574967861,9.262616157531738,2.8773691654205322
1710887975329375000,7.701375,0.02273181453347206,9.336793899536133,2.994617462158203
1710887975348334800,7.7203349609375,0.04546362906694412,9.34157943725586,3.0963125228881836
1710887975367294700,7.739294677734375,0.06580262631177902,9.30449104309082,3.1716864109039307
1710887975386254600,7.758254638671875,0.05503492057323456,9.257830619812012,3.201596736907959
1710887975405214500,7.77721435546875,0.01196411345154047,9.230313301086426,3.2542388439178467
1710887975424174300,7.79617431640625,-0.014356935396790504,9.198010444641113,3.3092737197875977
1710887975443134200,7.81513427734375,-0.03469592705368996,9.182456970214844,3.3643085956573486
1710887975462094000,7.834093994140625,-0.059820566326379776,9.169296264648438,3.3882367610931396
1710887975481054000,7.853053955078125,-0.08733802288770676,9.122636795043945,3.436093330383301
1710887975500013800,7.872013916015625,-0.0933200865983963,9.065208435058594,3.45882511138916
1710887975518973700,7.8909736328125,-0.058624155819416046,9.026923179626465,3.4923245906829834
1710887975537933600,7.90993359375,-0.0729810893535614,9.008976936340332,3.5018959045410156
1710887975556893400,7.9288935546875,-0.08015955984592438,9.001798629760742,3.4552359580993652
1710887975575853300,7.947853271484375,-0.0729810893535614,9.025727272033691,3.379862070083618
1710887975594813200,7.966813232421875,-0.08135596662759781,9.041280746459961,3.300898790359497
1710887975613773300,7.985773193359375,-0.09092725813388824,9.040083885192871,3.19441819190979
1710887975632733200,8.004733154296876,-0.09092725813388824,9.06281566619873,3.136990547180176
1710887975651693000,8.023693115234375,-0.09690931439399719,9.128618240356445,3.095116138458252
1710887975670653000,8.04265283203125,-0.0933200865983963,9.18724250793457,3.122633457183838
1710887975689612800,8.06161279296875,-0.08853443711996078,9.261420249938965,3.1310083866119385
1710887975708572700,8.08057275390625,-0.07058826833963394,9.286544799804688,3.136990547180176
1710887975727532500,8.099532470703124,-0.058624155819416046,9.29611587524414,3.128615617752075
1710887975746492400,8.118492431640625,-0.058624155819416046,9.323633193969727,3.1561331748962402
1710887975765452300,8.137452392578124,-0.059820566326379776,9.314062118530273,3.187239646911621
1710887975784412200,8.156412109375,-0.062213387340307236,9.28893756866455,3.201596736907959
1710887975803372000,8.1753720703125,-0.09451649338006973,9.260223388671875,3.198007345199585
1710887975822332000,8.194331787109375,-0.13040883839130402,9.233902931213379,3.1513473987579346
1710887975841291800,8.213291748046874,-0.18544375896453857,9.243474006652832,3.1381869316101074
1710887975860251600,8.232251708984375,-0.20817556977272034,9.245866775512695,3.157329559326172
1710887975879211500,8.25121142578125,-0.259621262550354,9.226723670959473,3.198007345199585
1710887975898171600,8.270171630859375,-0.26440688967704773,9.199206352233887,3.2099716663360596
1710887975917131500,8.289131591796876,-0.27038896083831787,9.19442081451416,3.2650065422058105
1710887975936091400,8.30809130859375,-0.2835494875907898,9.19442081451416,3.2745778560638428
1710887975955051300,8.32705126953125,-0.29312077164649963,9.2255277633667,3.294916868209839
1710887975974011100,8.34601123046875,-0.2955136001110077,9.266205787658691,3.3128628730773926
1710887975992971000,8.364970947265626,-0.31106695532798767,9.302098274230957,3.311666488647461
1710887976011931000,8.383930908203125,-0.27756741642951965,9.29731273651123,3.3032915592193604
1710887976030890800,8.402890869140625,-0.25004997849464417,9.285347938537598,3.284149169921875
1710887976049850600,8.4218505859375,-0.2153540402650833,9.256634712219238,3.236292600631714
1710887976068810500,8.440810546875,-0.2069791555404663,9.263813018798828,3.1896326541900635
1710887976087770600,8.4597705078125,-0.1950150430202484,9.229117393493652,3.1645078659057617
1710887976106730500,8.47873046875,-0.17587246000766754,9.176474571228027,3.0867412090301514
1710887976125690400,8.4976904296875,-0.1543370634317398,9.125029563903809,3.001796007156372
1710887976144650200,8.516650146484375,-0.21296121180057526,9.182456970214844,2.944368362426758
1710887976163610000,8.535610107421874,-0.26919254660606384,9.292527198791504,2.96111798286438
1710887976182570000,8.554570068359375,-0.27038896083831787,9.347561836242676,3.029313564300537
1710887976201529900,8.57352978515625,-0.2153540402650833,9.309276580810547,3.0628130435943604
1710887976220490000,8.592489990234375,-0.17946170270442963,9.241081237792969,3.111865758895874
1710887976239449900,8.611449951171876,-0.1746760457754135,9.200403213500977,3.13220477104187
1710887976258409700,8.63040966796875,-0.2153540402650833,9.181260108947754,3.166900873184204
1710887976277369600,8.64936962890625,-0.2632105052471161,9.196813583374023,3.2039895057678223
1710887976296329500,8.66832958984375,-0.2679961323738098,9.20159912109375,3.263810157775879
1710887976315289300,8.687289306640626,-0.2632105052471161,9.21117115020752,3.291327476501465
1710887976334249200,8.706249267578125,-0.2548356056213379,9.208778381347656,3.314059257507324
1710887976353209300,8.725209228515626,-0.2392822653055191,9.176474571228027,3.3176486492156982
1710887976372169200,8.744169189453125,-0.22013968229293823,9.18006420135498,3.304488182067871
1710887976391129000,8.763129150390625,-0.24646073579788208,9.269794464111328,3.297309637069702
1710887976410089000,8.7820888671875,-0.24885354936122894,9.324830055236816,3.3020951747894287
1710887976429048800,8.801048828125,-0.20937198400497437,9.29611587524414,3.2626137733459473
1710887976448008700,8.8200087890625,-0.1579262912273407,9.238688468933105,3.2135608196258545
1710887976466968600,8.838968505859375,-0.1423729509115219,9.183652877807617,3.1381869316101074
1710887976485928400,8.857928466796874,-0.15314064919948578,9.183652877807617,3.0927233695983887
1710887976504888300,8.876888427734375,-0.1746760457754135,9.199206352233887,3.074777126312256
1710887976523848200,8.89584814453125,-0.1818545162677765,9.206384658813477,3.0616166591644287
1710887976542808300,8.914808349609375,-0.1543370634317398,9.231510162353516,3.071187973022461
1710887976561768200,8.933768310546874,-0.1746760457754135,9.261420249938965,3.056830883026123
1710887976580728000,8.95272802734375,-0.17946170270442963,9.276973724365234,3.0831520557403564
1710887976599688000,8.97168798828125,-0.17946170270442963,9.276973724365234,3.0867412090301514
1710887976618647800,8.990647705078125,-0.1698904037475586,9.274580955505371,3.1142587661743164
1710887976637607700,9.009607666015626,-0.1818545162677765,9.265008926391602,3.1130621433258057
1710887976656567800,9.02856787109375,-0.18305093050003052,9.253045082092285,3.084348440170288
1710887976675527700,9.047527587890626,-0.19381862878799438,9.239884376525879,3.0867412090301514
1710887976694487600,9.066487548828125,-0.21415762603282928,9.242277145385742,3.06999135017395
1710887976713447400,9.085447509765626,-0.2069791555404663,9.243474006652832,3.0759735107421875
1710887976732407300,9.1044072265625,-0.20817556977272034,9.238688468933105,3.0867412090301514
1710887976751367200,9.1233671875,-0.19980068504810333,9.245866775512695,3.091526746749878
1710887976770327000,9.1423271484375,-0.19740787148475647,9.254241943359375,3.1130621433258057
1710887976789287000,9.161286865234375,-0.1986042857170105,9.255437850952148,3.135794162750244
1710887976808246800,9.180246826171874,-0.19381862878799438,9.256634712219238,3.170490026473999
1710887976827207000,9.19920703125,-0.18065811693668365,9.256634712219238,3.177668571472168
1710887976846166800,9.218166748046874,-0.19740787148475647,9.245866775512695,3.2027931213378906
1710887976865126700,9.237126708984375,-0.2069791555404663,9.219545364379883,3.2159535884857178
1710887976884086500,9.25608642578125,-0.1902294009923935,9.206384658813477,3.221935749053955
1710887976903046400,9.27504638671875,-0.19740787148475647,9.221938133239746,3.2338998317718506
1710887976922006300,9.29400634765625,-0.19740787148475647,9.230313301086426,3.243471145629883
1710887976940966100,9.312966064453125,-0.1902294009923935,9.219545364379883,3.253042459487915
1710887976959926000,9.331926025390626,-0.20099709928035736,9.181260108947754,3.1896326541900635
1710887976978886100,9.35088623046875,-0.2225325107574463,9.189635276794434,3.1238300800323486
1710887976997846000,9.369845947265626,-0.24885354936122894,9.274580955505371,3.150151014328003
1710887977016806000,9.388805908203125,-0.2273181527853012,9.317651748657227,3.236292600631714
1710887977035765800,9.407765869140626,-0.14117653667926788,9.282955169677734,3.266202926635742
1710887977054725600,9.4267255859375,-0.09092725813388824,9.206384658813477,3.214757204055786
1710887977073685500,9.445685546875,-0.09810572862625122,9.186046600341797,3.1441688537597656
1710887977092645400,9.464645263671875,-0.12681959569454193,9.182456970214844,3.0867412090301514
1710887977111605200,9.483605224609375,-0.16749759018421173,9.184849739074707,3.0963125228881836
1710887977130565000,9.502565185546874,-0.15912270545959473,9.214759826660156,3.1130621433258057
1710887977149525000,9.52152490234375,-0.1459621787071228,9.232706069946289,3.1250264644622803
1710887977168484900,9.54048486328125,-0.15314064919948578,9.255437850952148,3.139383316040039
1710887977187445000,9.559445068359375,-0.14835500717163086,9.259027481079102,3.152543783187866
1710887977206404900,9.57840478515625,-0.15194423496723175,9.232706069946289,3.1489546298980713
1710887977225364700,9.59736474609375,-0.16869398951530457,9.254241943359375,3.1477582454681396
1710887977244324600,9.61632470703125,-0.17228323221206665,9.250652313232422,3.174079179763794
1710887977263284500,9.635284423828125,-0.12323036789894104,9.21117115020752,3.187239646911621
1710887977282244400,9.654244384765626,-0.1136590763926506,9.163313865661621,3.1824541091918945
1710887977301204200,9.673204345703125,-0.12203395366668701,9.1657075881958,3.160918712615967
1710887977320164000,9.6921640625,-0.17228323221206665,9.184849739074707,3.1381869316101074
1710887977339124000,9.7111240234375,-0.18783657252788544,9.181260108947754,3.159722328186035
1710887977358083800,9.730083740234376,-0.14117653667926788,9.184849739074707,3.157329559326172
1710887977377043700,9.749043701171875,-0.10648060590028763,9.183652877807617,3.1680972576141357
1710887977396003800,9.76800390625,-0.08733802288770676,9.186046600341797,3.1345977783203125
1710887977414963700,9.786963623046875,-0.11844471842050552,9.241081237792969,3.1345977783203125
1710887977433923300,9.80592333984375,-0.13160525262355804,9.33559799194336,3.1130621433258057
1710887977452883200,9.82488330078125,-0.1902294009923935,9.349954605102539,3.1274192333221436
1710887977471843300,9.84384326171875,-0.09092725813388824,9.254241943359375,3.084348440170288
1710887977490803200,9.86280322265625,-0.1543370634317398,9.285347938537598,3.1166515350341797
1710887977509763000,9.88176318359375,-0.3002992272377014,9.477970123291016,3.243471145629883
1710887977528723000,9.900722900390624,-0.2679961323738098,9.419346809387207,3.3619158267974854
1710887977547682800,9.919682861328125,-0.10887342691421509,9.072386741638184,3.266202926635742
1710887977566642700,9.938642578125,-0.02392822690308094,8.796015739440918,3.0855448246002197
1710887977585602600,9.9576025390625,-0.03469592705368996,8.766105651855469,2.9934210777282715
1710887977604562400,9.9765625,-0.12681959569454193,8.827122688293457,3.014956474304199
1710887977623522300,9.995522216796875,-0.20937198400497437,8.94676399230957,3.10109806060791
1710887977642482200,10.014482177734376,-0.24885354936122894,9.132207870483398,3.2004003524780273
1710887977661442000,10.033442138671875,-0.26560330390930176,9.276973724365234,3.3475589752197266
1710887977680402000,10.05240185546875,-0.22133609652519226,9.370293617248535,3.4755749702453613
1710887977699361800,10.07136181640625,-0.16031911969184875,9.363115310668945,3.544966697692871
1710887977718321700,10.09032177734375,-0.10887342691421509,9.354740142822266,3.5066816806793213
1710887977737281500,10.109281494140625,-0.14835500717163086,9.365508079528809,3.4444682598114014
1710887977756241700,10.12824169921875,-0.2189432680606842,9.352347373962402,3.267399311065674
1710887977775201300,10.147201171875,-0.2715853750705719,9.274580955505371,3.0113673210144043
1710887977794161200,10.1661611328125,-0.3170489966869354,9.233902931213379,2.7912275791168213
1710887977813121000,10.18512109375,-0.3002992272377014,9.274580955505371,2.7074787616729736
1710887977832081000,10.204080810546875,-0.26440688967704773,9.328418731689453,2.772084951400757
1710887977851041000,10.223041015625,-0.16031911969184875,9.31047248840332,2.812762975692749
1710887977870000600,10.242000732421875,-0.08973085135221481,9.241081237792969,2.8223342895507812
1710887977888960500,10.26096044921875,-0.08015955984592438,9.22433090209961,2.8342983722686768
1710887977907920400,10.27992041015625,-0.10408778488636017,9.272188186645508,2.861815929412842
1710887977926880500,10.298880615234374,-0.1579262912273407,9.339186668395996,2.9001009464263916
1710887977945840400,10.31784033203125,-0.1339980661869049,9.365508079528809,2.9168508052825928
1710887977964800000,10.336800048828126,-0.13040883839130402,9.377471923828125,2.912065267562866
1710887977983760000,10.355759765625,-0.12203395366668701,9.337990760803223,2.871387243270874
1710887978002720000,10.374719970703126,-0.11724831163883209,9.294919967651367,2.8103702068328857
1710887978021679900,10.393679931640625,-0.17228323221206665,9.33440113067627,2.785245656967163
1710887978040639700,10.4126396484375,-0.22133609652519226,9.4121675491333,2.8079774379730225
1710887978059599400,10.431599365234375,-0.2189432680606842,9.485149383544922,2.86061954498291
1710887978078559200,10.450559326171875,-0.20458634197711945,9.45763111114502,2.885744094848633
1710887978097519400,10.469519287109375,-0.1579262912273407,9.437292098999023,2.882154941558838
1710887978116479200,10.488479248046875,-0.1782652884721756,9.409774780273438,2.8773691654205322
1710887978135438800,10.50743896484375,-0.2153540402650833,9.393025398254395,2.8630123138427734
1710887978154398700,10.526398681640625,-0.22612173855304718,9.369096755981445,2.878565549850464
1710887978173358800,10.54535888671875,-0.22492532432079315,9.339186668395996,2.908475875854492
1710887978192318500,10.564318359375,-0.21655045449733734,9.317651748657227,2.943171739578247
1710887978211278300,10.5832783203125,-0.16749759018421173,9.314062118530273,2.9790642261505127
1710887978230238200,10.60223828125,-0.16271193325519562,9.28893756866455,3.001796007156372
1710887978249198000,10.621197998046876,-0.17108681797981262,9.274580955505371,2.9970104694366455
1710887978268158000,10.640157958984375,-0.14835500717163086,9.276973724365234,2.981456995010376
1710887978287117800,10.659117919921876,-0.1698904037475586,9.28893756866455,2.9563324451446533
1710887978306077700,10.67807763671875,-0.16749759018421173,9.276973724365234,2.913261651992798
1710887978325037600,10.69703759765625,-0.18065811693668365,9.275776863098145,2.9144580364227295
1710887978343997400,10.71599755859375,-0.17946170270442963,9.263813018798828,2.9240293502807617
1710887978362957300,10.734957275390625,-0.18544375896453857,9.274580955505371,2.932404041290283
1710887978381917200,10.753917236328125,-0.20578274130821228,9.30449104309082,2.9694929122924805
1710887978400877000,10.772876953125,-0.19980068504810333,9.299705505371094,2.9754750728607178
1710887978419837000,10.7918369140625,-0.20937198400497437,9.276973724365234,2.988635540008545
1710887978438796800,10.810796875,-0.20817556977272034,9.267401695251465,2.994617462158203
1710887978457756700,10.829756591796874,-0.21774685382843018,9.233902931213379,2.9766714572906494
1710887978476716500,10.848716552734375,-0.2153540402650833,9.266205787658691,3.0173492431640625
1710887978495676400,10.867676513671874,-0.20937198400497437,9.239884376525879,3.0592236518859863
1710887978514636300,10.88663623046875,-0.19980068504810333,9.208778381347656,3.029313564300537
1710887978533596200,10.90559619140625,-0.2225325107574463,9.18843936920166,2.9515466690063477
1710887978552556000,10.92455615234375,-0.2476571500301361,9.278169631958008,2.9515466690063477
1710887978571516000,10.943515869140626,-0.27756741642951965,9.378668785095215,3.0173492431640625
1710887978590475500,10.9624755859375,-0.22133609652519226,9.391828536987305,3.1130621433258057
1710887978609435400,10.981435302734376,-0.15194423496723175,9.31884765625,3.1178479194641113
1710887978628395500,11.0003955078125,-0.11126625537872314,9.261420249938965,3.0831520557403564
1710887978647355100,11.019355224609376,-0.137587308883667,9.226723670959473,3.0065815448760986
1710887978666315000,11.03831494140625,-0.18903298676013947,9.213563919067383,2.968296527862549
1710887978685275000,11.05727490234375,-0.20578274130821228,9.226723670959473,2.944368362426758
1710887978704234800,11.07623486328125,-0.19980068504810333,9.239884376525879,2.9479575157165527
1710887978723194600,11.095194580078125,-0.18544375896453857,9.276973724365234,2.9455647468566895
1710887978742154500,11.114154541015624,-0.17228323221206665,9.256634712219238,2.93001127243042
1710887978761114400,11.1331142578125,-0.17587246000766754,9.273384094238281,2.9252257347106934
1710887978780074200,11.15207421875,-0.19262222945690155,9.317651748657227,2.9180471897125244
1710887978799034000,11.1710341796875,-0.21176479756832123,9.347561836242676,2.933600664138794
1710887978817994000,11.189993896484374,-0.19740787148475647,9.33320426940918,2.9515466690063477
1710887978836953900,11.208953857421875,-0.2069791555404663,9.322437286376953,2.9515466690063477
1710887978855913700,11.227913818359376,-0.21774685382843018,9.316454887390137,2.9515466690063477
1710887978874873600,11.24687353515625,-0.23330020904541016,9.32602596282959,2.9730820655822754
1710887978893833500,11.26583349609375,-0.22133609652519226,9.30449104309082,2.9934210777282715
1710887978912793000,11.28479296875,-0.21176479756832123,9.269794464111328,3.005385160446167
1710887978931753200,11.303753173828126,-0.1902294009923935,9.243474006652832,3.008974552154541
1710887978950713000,11.322713134765625,-0.2069791555404663,9.219545364379883,2.985046148300171
1710887978969672700,11.341672607421875,-0.22133609652519226,9.238688468933105,2.994617462158203
1710887978988632600,11.360632568359375,-0.2476571500301361,9.274580955505371,3.0209386348724365
1710887979007592700,11.3795927734375,-0.24406790733337402,9.30329418182373,3.0687949657440186
1710887979026552300,11.39855224609375,-0.22013968229293823,9.329615592956543,3.0963125228881836
1710887979045512200,11.41751220703125,-0.18305093050003052,9.29731273651123,3.135794162750244
1710887979064472000,11.43647216796875,-0.16749759018421173,9.269794464111328,3.1094729900360107
1710887979083432000,11.455431884765625,-0.18305093050003052,9.278169631958008,3.073580741882324
1710887979102391800,11.474391845703124,-0.19980068504810333,9.278169631958008,3.0412776470184326
1710887979121351700,11.4933515625,-0.1902294009923935,9.287740707397461,2.99222469329834
1710887979140311600,11.5123115234375,-0.1950150430202484,9.279366493225098,2.946761131286621
1710887979159271400,11.531271484375,-0.1902294009923935,9.266205787658691,2.913261651992798
1710887979178231300,11.550231201171876,-0.18544375896453857,9.290133476257324,2.89172625541687
1710887979197191200,11.569191162109375,-0.17706887423992157,9.28893756866455,2.9240293502807617
1710887979216151000,11.588151123046876,-0.1866401731967926,9.282955169677734,2.9001009464263916
1710887979235111000,11.60711083984375,-0.1950150430202484,9.293723106384277,2.8761727809906006
1710887979254070800,11.62607080078125,-0.23449662327766418,9.370293617248535,2.8582265377044678
1710887979273030700,11.64503076171875,-0.27397820353507996,9.477970123291016,2.9312076568603516
1710887979291990500,11.663990478515625,-0.25244277715682983,9.500701904296875,3.0340991020202637
1710887979310950400,11.682950439453125,-0.16151553392410278,9.400203704833984,3.0759735107421875
1710887979329910300,11.70191015625,-0.1136590763926506,9.278169631958008,3.0388846397399902
1710887979348870100,11.7208701171875,-0.15553347766399384,9.236295700073242,2.9958138465881348
1710887979367830000,11.739830078125,-0.2069791555404663,9.208778381347656,2.99222469329834
1710887979386790000,11.758789794921874,-0.25004997849464417,9.236295700073242,3.0556344985961914
1710887979405749800,11.777749755859375,-0.2799602448940277,9.28893756866455,3.187239646911621
1710887979424709600,11.796709716796874,-0.3445664644241333,9.314062118530273,3.267399311065674
1710887979443669500,11.81566943359375,-0.38763725757598877,9.266205787658691,3.2865419387817383
1710887979462629400,11.83462939453125,-0.35533416271209717,9.146564483642578,3.3176486492156982
1710887979481589200,11.85358935546875,-0.2907279431819916,9.09990406036377,3.3930225372314453
1710887979500549000,11.872549072265626,-0.2476571500301361,9.125029563903809,3.487539052963257
1710887979519509000,11.891509033203125,-0.19980068504810333,9.169296264648438,3.5437703132629395
1710887979538468900,11.91046875,-0.1698904037475586,9.200403213500977,3.55214524269104
1710887979557428700,11.9294287109375,-0.137587308883667,9.226723670959473,3.486342668533325
1710887979576388600,11.948388671875,-0.0933200865983963,9.245866775512695,3.376272678375244
1710887979595348500,11.967348388671875,-0.038285162299871445,9.254241943359375,3.2614171504974365
1710887979614308400,11.986308349609375,-0.004785645287483931,9.244669914245605,3.1764719486236572
1710887979633268200,12.005268310546874,0.015553346835076809,9.22433090209961,3.050848960876465
1710887979652228000,12.02422802734375,0.02392822690308094,9.20997428894043,2.9168508052825928
1710887979671188000,12.04318798828125,0.019142581149935722,9.223134994506836,2.843869686126709
1710887979690147800,12.06214794921875,0.04426721855998039,9.241081237792969,2.8103702068328857
1710887979709107700,12.081107666015624,0.07776673883199692,9.242277145385742,2.812762975692749
1710887979728067600,12.100067626953125,0.09451649338006973,9.200403213500977,2.857030153274536
1710887979747027500,12.11902734375,0.10767702013254166,9.203991889953613,2.8725836277008057
1710887979765987300,12.1379873046875,0.14835500717163086,9.221938133239746,2.9108686447143555
1710887979784947200,12.156947265625,0.1818545162677765,9.21715259552002,2.92283296585083
1710887979803907000,12.175906982421875,0.2392822653055191,9.232706069946289,2.9312076568603516
1710887979822867000,12.194866943359376,0.2991028428077698,9.278169631958008,2.8905298709869385
1710887979841826800,12.213826904296875,0.397208571434021,9.373882293701172,2.9012975692749023
1710887979860786700,12.23278662109375,0.45583271980285645,9.468399047851562,2.9012975692749023
1710887979879746600,12.25174658203125,0.5862415432929993,9.497113227844238,2.8929226398468018
1710887979898706400,12.27070654296875,0.6508477330207825,9.468399047851562,2.8342983722686768
1710887979917666600,12.28966650390625,0.6831508874893188,9.343972206115723,2.699103832244873
1710887979936626400,12.30862646484375,0.6364908218383789,9.253045082092285,2.585444927215576
1710887979955586300,12.32758642578125,0.5419743061065674,9.090332984924316,2.462214469909668
1710887979974546200,12.346546142578125,0.48095735907554626,8.756534576416016,2.3497519493103027
1710887979993506000,12.365506103515624,0.381655216217041,8.298309326171875,2.201396942138672
1710887980012466000,12.3844658203125,0.2560320198535919,7.992027759552002,2.0578274726867676
1710887980031425800,12.40342578125,0.08255238085985184,7.99083137512207,1.939382791519165
1710887980050385700,12.4223857421875,-0.08015955984592438,8.524430274963379,1.9896320104599
1710887980069345500,12.441345458984374,-0.37447673082351685,9.559326171875,2.355733871459961
1710887980088305400,12.460305419921875,-0.7010970115661621,10.455438613891602,3.067598581314087
1710887980107265300,12.479265380859376,-0.8554341197013855,10.730612754821777,3.6131622791290283
1710887980126225400,12.498225341796875,-0.7728816866874695,10.451848983764648,3.7256247997283936
1710887980145185300,12.517185302734376,-0.49292147159576416,10.061819076538086,3.631108283996582
1710887980164145200,12.536145263671875,-0.21296121180057526,9.879964828491211,3.731606960296631
1710887980183105000,12.55510498046875,-0.1543370634317398,9.811769485473633,4.027120590209961
1710887980202065000,12.57406494140625,-0.18903298676013947,9.678967475891113,4.171886444091797
1710887980221024800,12.593024658203126,-0.23688943684101105,9.306883811950684,4.100101470947266
1710887980239984600,12.611984619140625,-0.29312077164649963,8.855836868286133,3.8225340843200684
1710887980258944500,12.630944580078125,-0.40677985548973083,8.526823043823242,3.5988051891326904
1710887980277904400,12.649904296875,-0.4007977843284607,8.400003433227539,3.451646566390991
1710887980296864300,12.6688642578125,-0.39840495586395264,8.293522834777832,3.1728827953338623
1710887980315824000,12.68782421875,-0.3888336718082428,8.322237014770508,2.851048231124878
1710887980334784300,12.7067841796875,-0.5240281820297241,8.462217330932617,2.551945447921753
1710887980353744100,12.725744140625,-0.6317051649093628,8.622536659240723,2.335394859313965
1710887980372704000,12.7447041015625,-0.7716853022575378,8.74337387084961,2.1367905139923096
1710887980391663900,12.763663818359374,-0.8614161610603333,8.8438720703125,2.0159530639648438
1710887980410623700,12.782623779296875,-0.9631111025810242,8.96829891204834,2.0027925968170166
1710887980429583600,12.80158349609375,-1.0097711086273193,9.08674430847168,2.149951219558716
1710887980448543500,12.82054345703125,-0.9762716293334961,9.192028045654297,2.4083759784698486
1710887980467503400,12.83950341796875,-0.8195417523384094,9.279366493225098,2.8139593601226807
1710887980486463200,12.858463134765625,-0.7130611538887024,9.360722541809082,3.315255880355835
1710887980505423000,12.877423095703126,-0.607776939868927,9.426525115966797,3.735196113586426
1710887980524383200,12.89638330078125,-0.5288137793540955,9.448060035705566,4.059423446655273
1710887980543343000,12.915343017578126,-0.4414757788181305,9.456435203552246,4.293920040130615
1710887980562303000,12.934302978515625,-0.41156548261642456,9.499505996704102,4.423132419586182
1710887980581262800,12.953262939453126,-0.4378865361213684,9.571290969848633,4.494917392730713
1710887980600222700,12.97222265625,-0.5407779216766357,9.635896682739258,4.462614059448242
1710887980619182600,12.9911826171875,-0.6137589812278748,9.637093544006348,4.340580463409424
1710887980638142500,13.010142578125,-0.6400800347328186,9.65384292602539,4.187439441680908
1710887980657102600,13.0291025390625,-0.7645068168640137,9.712467193603516,4.0319061279296875
1710887980676062500,13.0480625,-0.8506484627723694,9.797411918640137,3.893122434616089
1710887980695022300,13.067022216796875,-0.7776673436164856,10.152746200561523,4.009174346923828
1710887980713982200,13.085982177734374,-0.6101697683334351,10.825129508972168,4.498506546020508
1710887980732942000,13.104942138671875,-0.364905446767807,11.368300437927246,5.134997367858887
1710887980751902000,13.12390185546875,-0.44027936458587646,11.288141250610352,5.471189022064209
1710887980770862000,13.142862060546875,-0.4295116662979126,10.62413215637207,5.085944652557373
1710887980789822000,13.161822021484374,0.672383189201355,9.56770133972168,3.7363924980163574
1710887980808781800,13.18078173828125,1.4931213855743408,8.4502534866333,1.94297194480896
1710887980827741700,13.19974169921875,2.4430718421936035,7.828119277954102,0.4618147611618042
1710887980846701600,13.21870166015625,2.159522533416748,8.38564682006836,-0.1866401731967926
1710887980865661400,13.237661376953126,1.6713865995407104,9.840482711791992,0.5096712112426758
1710887980884621600,13.25662158203125,1.7694923877716064,10.831111907958984,1.810170292854309
1710887980903581400,13.27558154296875,2.455035924911499,10.26042366027832,2.3306093215942383
1710887980922541300,13.294541259765625,2.9216363430023193,9.486345291137695,2.1954147815704346
1710887980941501200,13.313501220703126,2.744567632675171,9.548559188842773,2.3258235454559326
1710887980960461000,13.3324609375,2.1643080711364746,9.725627899169922,2.7601208686828613
1710887980979421200,13.351421142578126,1.5014961957931519,9.726823806762695,3.1692936420440674
1710887980998381000,13.370381103515625,0.6675975322723389,9.787840843200684,3.460021495819092
1710887981017341000,13.3893408203125,0.08374879509210587,9.622735977172852,3.568894863128662
1710887981036300800,13.40830078125,-0.008374879136681557,8.914461135864258,3.6131622791290283
1710887981055260700,13.4272607421875,0.11724831163883209,8.008777618408203,3.700500249862671
1710887981074220800,13.446220703125,0.1339980661869049,7.189235687255859,3.7363924980163574
1710887981093180700,13.4651806640625,0.1543370634317398,6.4941205978393555,3.617947816848755
1710887981112140500,13.484140625,0.26081767678260803,6.056233882904053,3.410968780517578
1710887981131100400,13.503100341796875,0.22133609652519226,5.79780912399292,2.9970104694366455
1710887981150060300,13.522060302734374,0.07058826833963394,5.682953834533691,2.592623233795166
1710887981169020400,13.5410205078125,-0.010767702013254166,5.793023586273193,2.4873390197753906
1710887981187980300,13.559980224609374,0.08374879509210587,6.175875186920166,2.840280532836914
1710887981206940200,13.578940185546875,0.13280165195465088,6.69990348815918,3.48993182182312
1710887981225900000,13.597900146484376,0.064606212079525,7.313662528991699,4.074976921081543
1710887981244860000,13.61685986328125,-0.1698904037475586,7.932207107543945,4.444668292999268
1710887981263819800,13.63581982421875,-0.3720839321613312,8.400003433227539,4.597808837890625
1710887981282779600,13.654779541015625,-0.5216353535652161,8.811569213867188,4.600201606750488
1710887981301739800,13.67373974609375,-0.5324030518531799,8.934800148010254,4.401597023010254
1710887981320699600,13.69269970703125,-0.26560330390930176,9.040083885192871,4.054637908935547
1710887981339659500,13.711659423828126,-0.11964113265275955,9.44327449798584,3.638286828994751
1710887981358619400,13.730619384765625,-0.09212367236614227,10.051051139831543,3.2338998317718506
1710887981377579300,13.749579345703125,-0.20338992774486542,10.77129077911377,2.7768707275390625
1710887981396539400,13.768539306640625,-0.42831525206565857,11.258230209350586,2.3018953800201416
1710887981415499300,13.787499267578125,-0.49172505736351013,11.228320121765137,1.7826528549194336
1710887981434459100,13.806459228515624,-0.5527420043945312,11.152946472167969,1.2143574953079224
1710887981453419000,13.8254189453125,-0.275174617767334,11.863615036010742,1.0049854516983032
1710887981472379100,13.844379150390624,0.41156548261642456,13.451252937316895,1.8891334533691406
1710887981491339000,13.863339111328125,0.9176474809646606,14.794822692871094,3.5497524738311768
1710887981510299000,13.882298828125,1.3591232299804688,14.762518882751465,4.892126083374023
1710887981529258800,13.9012587890625,1.7383856773376465,13.277772903442383,4.817948341369629
1710887981548218600,13.920218505859374,1.3591232299804688,11.564512252807617,3.2793633937835693
1710887981567178500,13.939178466796875,0.9750752449035645,10.555936813354492,1.8759729862213135
1710887981586138600,13.958138671875,0.4582255482673645,10.352546691894531,1.4404792785644531
1710887981605098500,13.977098388671875,0.1950150430202484,10.582258224487305,1.8077775239944458
1710887981624058400,13.996058349609376,0.07058826833963394,10.49970531463623,2.094916343688965
1710887981643018200,14.015018310546875,-0.38763725757598877,10.059426307678223,2.011167526245117
1710887981661978000,14.03397802734375,-0.9463613629341125,9.408578872680664,1.7742780447006226
1710887981680938000,14.05293798828125,-1.1904292106628418,8.903693199157715,1.6857435703277588
1710887981699898000,14.071898193359376,-1.1102696657180786,8.389236450195312,1.6893328428268433
1710887981718858000,14.09085791015625,-0.7704889178276062,7.810173034667969,1.887937068939209
1710887981737817900,14.10981787109375,-0.4414757788181305,7.159325122833252,2.159522533416748
1710887981756777700,14.12877783203125,-0.17946170270442963,6.68435001373291,2.396411895751953
1710887981775737600,14.147737548828125,-0.17347964644432068,6.530013084411621,2.554338216781616
1710887981794697500,14.166697509765624,-0.19621145725250244,6.6006011962890625,2.5878376960754395
1710887981813657600,14.18565771484375,-0.37088751792907715,6.771687984466553,2.368894338607788
1710887981832617500,14.204617431640624,-0.5491527915000916,6.941578388214111,1.9286150932312012
1710887981851577300,14.223577392578125,-0.7740781307220459,7.287341594696045,1.4895321130752563
1710887981870537200,14.242537109375,-1.042074203491211,7.680960655212402,1.2035897970199585
1710887981889497000,14.2614970703125,-1.1856436729431152,8.175078392028809,1.062413215637207
1710887981908457000,14.28045703125,-1.210768222808838,8.693124771118164,1.2287144660949707
1710887981927416800,14.299416748046875,-1.0600204467773438,8.851051330566406,1.8376877307891846
1710887981946377000,14.318376953125,-0.534795880317688,8.760123252868652,2.4777679443359375
1710887981965336800,14.3373369140625,0.11246266216039658,8.81515884399414,2.720639228820801
1710887981984296700,14.356296630859376,0.46779683232307434,9.548559188842773,3.0077781677246094
1710887982003256600,14.375256591796875,0.5108676552772522,10.878968238830566,3.9194436073303223
1710887982022216400,14.394216552734376,0.5706881880760193,12.053844451904297,5.350351333618164
1710887982041176300,14.41317626953125,0.5910272002220154,12.403196334838867,6.092126369476318
1710887982060136400,14.432136474609376,1.0169496536254883,11.650653839111328,5.717649936676025
1710887982079096300,14.451096435546875,1.7395820617675781,10.730612754821777,4.3657050132751465
1710887982098056200,14.47005615234375,1.923829436302185,10.445867538452148,2.715853691101074
1710887982117016000,14.48901611328125,1.6414763927459717,10.814361572265625,1.7934205532073975
1710887982135976000,14.507975830078125,1.5984054803848267,12.1806640625,2.6727828979492188
1710887982154935800,14.526935791015624,0.9044869542121887,13.038490295410156,4.491328239440918
1710887982173896000,14.54589599609375,1.4009976387023926,11.490334510803223,5.036891460418701
1710887982192855800,14.564855712890624,2.475374937057495,9.189635276794434,4.094119548797607
1710887982211815700,14.583815673828125,2.8905298709869385,8.286344528198242,3.297309637069702
1710887982230775600,14.602775634765624,1.94297194480896,8.84506893157959,3.198007345199585
1710887982249735400,14.6217353515625,0.45583271980285645,9.726823806762695,3.7256247997283936
1710887982268695300,14.6406953125,-0.6687939167022705,10.051051139831543,4.135993957519531
1710887982287655200,14.6596552734375,-0.9607182741165161,9.670592308044434,4.191029071807861
1710887982306615300,14.678615234375,-0.5970092415809631,8.812766075134277,3.981656789779663
1710887982325575200,14.6975751953125,-0.32183465361595154,7.668996810913086,3.4612178802490234
1710887982344535000,14.71653515625,-0.059820566326379776,6.764509677886963,3.0101709365844727
1710887982363495000,14.735494873046875,0.2907279431819916,6.110072612762451,2.7122645378112793
1710887982382454800,14.754454833984376,0.4175475537776947,5.61954402923584,2.348555326461792
1710887982401414700,14.77341455078125,0.45104706287384033,5.615954875946045,2.1846470832824707
1710887982420374500,14.79237451171875,0.5706881880760193,5.839683532714844,2.1104695796966553
1710887982439334400,14.81133447265625,0.30628129839897156,6.278766632080078,1.9094724655151367
1710887982458294300,14.830294189453125,0.16749759018421173,6.94038200378418,1.9286150932312012
1710887982477254100,14.849254150390625,-0.3194418251514435,7.57806921005249,1.8640087842941284
1710887982496214000,14.868214111328125,-0.4534398913383484,8.251648902893066,2.0159530639648438
1710887982515174100,14.887174072265625,-0.5623133182525635,8.73619556427002,2.480160713195801
1710887982534134000,14.906134033203125,-0.519242525100708,9.037691116333008,3.5581271648406982
1710887982553094000,14.925093994140624,-0.26201409101486206,8.94556713104248,4.542773723602295
1710887982572053800,14.9440537109375,0.19142581522464752,8.70628547668457,4.7988057136535645
1710887982591013600,14.963013671875,0.5802595019340515,8.913264274597168,4.649254322052002
1710887982609973500,14.981973388671875,0.7585247755050659,9.387042999267578,4.325026988983154
1710887982628933400,15.000933349609374,0.6628118753433228,9.952945709228516,3.6502509117126465
1710887982647893200,15.019893310546875,0.1256231814622879,10.682756423950195,3.1657042503356934
1710887982666853000,15.03885302734375,-0.380458801984787,11.097911834716797,2.685943365097046
1710887982685813000,15.05781298828125,-0.6364908218383789,11.199605941772461,1.820937991142273
1710887982704773000,15.076773193359376,-0.35054850578308105,11.936595916748047,1.2681959867477417
1710887982723733000,15.09573291015625,0.3314059376716614,13.330414772033691,2.146361827850342
1710887982742692900,15.11469287109375,0.8566305041313171,14.421542167663574,3.5066816806793213
1710887982761652700,15.13365283203125,1.5948163270950317,14.22413444519043,4.72582483291626
1710887982780612600,15.152612548828126,1.5146567821502686,12.814762115478516,4.715056896209717
1710887982799572500,15.171572509765625,1.2693923711776733,11.079965591430664,3.3535408973693848
1710887982818532400,15.190532470703126,0.50129634141922,10.338190078735352,2.0829520225524902
1710887982837492200,15.2094921875,-0.28953152894973755,10.50209903717041,1.7838492393493652
1710887982856452000,15.2284521484375,-0.4307080805301666,10.832307815551758,2.0195422172546387
1710887982875412000,15.247411865234374,-0.2871387302875519,10.944770812988281,2.304288148880005
1710887982894371800,15.266371826171875,-0.37806597352027893,10.691131591796875,2.417947292327881
1710887982913331700,15.285331787109374,-0.7238288521766663,9.891928672790527,2.251646041870117
1710887982932291600,15.30429150390625,-0.9750752449035645,8.833105087280273,1.8448662757873535
1710887982951251500,15.32325146484375,-0.7872386574745178,7.799405574798584,1.5756736993789673
1710887982970211300,15.34221142578125,-0.4666004180908203,6.8997039794921875,1.5912270545959473
1710887982989171500,15.36117138671875,-0.26919254660606384,6.235695838928223,1.817348837852478
1710887983008131300,15.38013134765625,-0.29790642857551575,5.959324836730957,2.1020946502685547
1710887983027091200,15.39909130859375,-0.3565305769443512,5.964110374450684,2.287538528442383
1710887983046050800,15.41805078125,-0.43908295035362244,6.095715522766113,2.245664119720459
1710887983065010700,15.4370107421875,-0.486939400434494,6.296712875366211,1.9561325311660767
1710887983083970800,15.455970703125,-0.6149554252624512,6.617351055145264,1.6139588356018066
1710887983102930700,15.4749306640625,-0.8003991842269897,7.15812873840332,1.3770694732666016
1710887983121890600,15.493890625,-1.1497513055801392,7.8424763679504395,1.384247899055481
1710887983140850400,15.512850341796875,-1.412961721420288,8.572287559509277,1.6390835046768188
1710887983159810300,15.531810302734375,-1.5002998113632202,8.919246673583984,2.097309112548828
1710887983178770200,15.550770263671875,-1.191625714302063,8.886942863464355,2.5387847423553467
1710887983197730000,15.56972998046875,-0.6269195079803467,9.192028045654297,2.9288148880004883
1710887983216690000,15.58868994140625,-0.2309073805809021,9.929018020629883,3.4157543182373047
1710887983235649800,15.60764990234375,-0.09212367236614227,10.8969144821167,4.131208419799805
1710887983254609700,15.626609619140625,-0.18424734473228455,11.864810943603516,5.406582832336426
1710887983273569500,15.645569580078124,-0.32183465361595154,12.363714218139648,6.320641040802002
1710887983292529400,15.664529296875,-0.06699903309345245,11.790633201599121,6.027520179748535
1710887983311489300,15.6834892578125,0.5156532526016235,11.265409469604492,4.815555572509766
1710887983330449200,15.70244921875,0.6795616149902344,11.684152603149414,3.9218363761901855
1710887983349409000,15.721408935546876,0.11844471842050552,12.589836120605469,4.1383867263793945
1710887983368369000,15.740368896484375,-0.5312066078186035,13.433306694030762,5.607579708099365
1710887983387328800,15.759328857421876,-0.6675975322723389,13.04207992553711,6.514459609985352
1710887983406288600,15.77828857421875,1.100698471069336,10.85743236541748,5.972485542297363
1710887983425248500,15.79724853515625,2.988635540008545,8.987442016601562,4.925625324249268
1710887983444208400,15.81620849609375,3.462414264678955,8.431110382080078,3.4959139823913574
1710887983463168300,15.835168212890625,2.89890456199646,8.658429145812988,2.3294129371643066
1710887983482128000,15.8541279296875,1.6737794876098633,9.116654396057129,1.4249259233474731
1710887983501088000,15.873087890625,0.6520441770553589,9.772287368774414,0.898504912853241
1710887983520047900,15.8920478515625,0.08973085135221481,9.956535339355469,0.9367900490760803
1710887983539007700,15.9110078125,0.08135596662759781,9.652647018432617,1.5996019840240479
1710887983557967400,15.92996728515625,-0.3038884699344635,8.694320678710938,1.3028919696807861
1710887983576927500,15.948927490234375,-0.49292147159576416,7.296912670135498,1.2203395366668701
1710887983595887400,15.967887451171874,-0.45224347710609436,6.16391134262085,1.5242279767990112
1710887983614847200,15.98684716796875,-0.26560330390930176,5.388636589050293,1.8975083827972412
1710887983633806800,16.005806884765626,-0.17108681797981262,5.134997367858887,2.3054845333099365
1710887983652767000,16.02476708984375,-0.08255238085985184,5.249852657318115,2.8247270584106445
1710887983671726800,16.043726806640624,0.13040883839130402,5.577669620513916,3.314059257507324
1710887983690686500,16.0626865234375,0.2548356056213379,5.96171760559082,3.7052857875823975
1710887983709646300,16.081646240234374,0.19621145725250244,6.358926296234131,4.037888050079346
1710887983728606200,16.100606201171875,0.04546362906694412,6.786045074462891,4.121636867523193
1710887983747566300,16.11956640625,-0.06819544732570648,7.335197925567627,3.9948174953460693
1710887983766526000,16.13852587890625,-0.20458634197711945,7.905886173248291,3.946960926055908
1710887983785485800,16.15748583984375,-0.22851456701755524,8.567501068115234,4.078566074371338
1710887983804445700,16.17644580078125,-0.02153540402650833,9.042476654052734,4.310669898986816
1710887983823405600,16.195405517578124,0.21774685382843018,9.395418167114258,4.503292083740234
1710887983842365400,16.214365478515624,0.21296121180057526,9.891928672790527,4.518845558166504
1710887983861325300,16.2333251953125,0.2799602448940277,10.599007606506348,4.529613494873047
1710887983880285200,16.25228515625,0.4498506486415863,11.058429718017578,4.289134502410889
1710887983899245000,16.2712451171875,0.3122633695602417,11.425727844238281,3.78544545173645
1710887983918205000,16.290204833984376,0.02392822690308094,11.921042442321777,2.9347970485687256
1710887983937164800,16.309164794921877,0.5288137793540955,12.721441268920898,1.9262222051620483
1710887983956124700,16.328124755859374,1.5242279767990112,13.745569229125977,2.1056840419769287
1710887983975084500,16.34708447265625,2.0721843242645264,14.506486892700195,2.9874391555786133
1710887983994044400,16.36604443359375,2.342573404312134,14.428720474243164,3.7052857875823975
1710887984013004300,16.38500439453125,2.2947168350219727,13.36989688873291,3.7507495880126953
1710887984031964200,16.403964111328126,1.7958134412765503,11.899506568908691,2.933600664138794
1710887984050924000,16.422924072265626,1.2598211765289307,10.780862808227539,1.7802600860595703
1710887984069884000,16.4418837890625,0.5563312768936157,10.415956497192383,1.2921242713928223
1710887984088843800,16.46084375,0.10767702013254166,10.357333183288574,1.2011969089508057
1710887984107803600,16.4798037109375,-0.1902294009923935,10.109675407409668,1.0552347898483276
1710887984126763500,16.498763427734374,-0.5467599630355835,9.754341125488281,1.2131611108779907
1710887984145723400,16.517723388671875,-0.7501499056816101,9.279366493225098,1.5804593563079834
1710887984164683300,16.536683349609376,-0.7226324677467346,8.429914474487305,1.8580267429351807
1710887984183643100,16.55564306640625,-0.3852444589138031,7.401000499725342,2.0027925968170166
1710887984202603000,16.57460302734375,-0.061016976833343506,6.3361945152282715,1.9932212829589844
1710887984221563000,16.59356298828125,0.05144568532705307,5.546562671661377,1.8735800981521606
1710887984240522800,16.612522705078124,-0.09571290761232376,5.127819061279297,1.6546368598937988
1710887984259482600,16.631482666015625,-0.21655045449733734,5.194818019866943,1.4679967164993286
1710887984278442500,16.6504423828125,-0.5204389095306396,5.513063430786133,1.3184453248977661
1710887984297402400,16.66940234375,-0.7178468108177185,5.962913990020752,1.1545369625091553
1710887984316362200,16.6883623046875,-0.9056833982467651,6.452246189117432,1.0289137363433838
1710887984335322000,16.707322021484377,-1.0755738019943237,7.001399040222168,0.9475577473640442
1710887984354282000,16.726281982421874,-1.2550355195999146,7.734799385070801,0.900897741317749
1710887984373241900,16.745241943359375,-1.6462619304656982,8.622536659240723,1.1425727605819702
1710887984392201700,16.76420166015625,-1.8352949619293213,9.359525680541992,1.9537396430969238
1710887984411161600,16.78316162109375,-1.5254244804382324,9.942177772521973,2.8043880462646484
1710887984430121500,16.80212158203125,-0.9367900490760803,10.747363090515137,3.5162527561187744
1710887984449081300,16.821081298828126,-0.3122633695602417,11.467602729797363,4.481756687164307
1710887984468041200,16.840041259765623,0.4498506486415863,11.82174015045166,5.61954402923584
1710887984487001300,16.85900146484375,0.7381857633590698,11.917452812194824,6.512066841125488
1710887984505961000,16.8779609375,0.43908295035362244,11.672188758850098,6.7070817947387695
1710887984524920800,16.8969208984375,0.4462614357471466,11.406585693359375,5.98444938659668
1710887984543880700,16.915880615234375,0.8769695162773132,11.843276023864746,4.956732273101807
1710887984562840800,16.9348408203125,1.0755738019943237,12.520444869995117,4.737788677215576
1710887984581800700,16.95380078125,0.6831508874893188,12.987045288085938,5.578866004943848
1710887984600760600,16.972760498046874,0.05144568532705307,12.509676933288574,6.052644729614258
1710887984619720400,16.991720458984375,1.2490534782409668,10.868200302124023,5.3108696937561035
1710887984638680000,17.01068017578125,2.544766902923584,9.360722541809082,4.372883319854736
1710887984657640200,17.02964013671875,2.59621262550354,8.992227554321289,3.6466617584228516
1710887984676600000,17.04860009765625,1.5804593563079834,9.69212818145752,3.428914785385132
1710887984695560000,17.067559814453126,0.519242525100708,10.479366302490234,3.513859987258911
1710887984714519800,17.086519775390624,-0.10767702013254166,10.705488204956055,3.8739798069000244
1710887984733479700,17.105479736328125,-0.1986042857170105,10.140782356262207,3.94815731048584
1710887984752439600,17.124439453125,0.0933200865983963,8.803194046020508,3.6059837341308594
1710887984771399400,17.1433994140625,0.3565305769443512,7.207181930541992,2.9240293502807617
1710887984790359300,17.162359375,0.5300102233886719,5.875576019287109,2.3365912437438965
1710887984809319200,17.181319091796876,0.6496513485908508,4.870590686798096,1.786242127418518
1710887984828279000,17.200279052734373,0.37806597352027893,4.4243292808532715,1.290927767753601
1710887984847239000,17.219239013671874,-0.01196411345154047,4.370490550994873,0.9308080077171326
1710887984866199000,17.238198974609375,-0.3158525824546814,4.71744966506958,0.711864709854126
1710887984885159000,17.257158935546876,-0.6604190468788147,5.270191669464111,0.6209374666213989
1710887984904118800,17.276118896484373,-0.8961120843887329,5.946164131164551,0.7968099117279053
1710887984923078700,17.29507861328125,-0.7836494445800781,6.728617191314697,1.3100703954696655
1710887984942038500,17.31403857421875,-0.5659025311470032,7.627122402191162,2.2576282024383545
1710887984960998400,17.332998291015624,-0.5180460810661316,8.455039024353027,3.744767427444458
1710887984979958300,17.351958251953125,-0.2787638306617737,9.043673515319824,5.458028316497803
1710887984998918100,17.370918212890626,0.2225325107574463,9.250652313232422,6.248856544494629
1710887985017878000,17.3898779296875,0.7130611538887024,9.5533447265625,5.992824077606201
1710887985036838000,17.408837890625,0.6915257573127747,10.219745635986328,5.288137912750244
1710887985055798000,17.427798095703125,0.381655216217041,11.131410598754883,4.098905086517334
1710887985074758000,17.4467578125,-0.20458634197711945,11.985648155212402,3.1178479194641113
1710887985093717800,17.4657177734375,-0.6472585201263428,12.228520393371582,2.297109842300415
1710887985112677600,17.484677734375,-0.6340979933738708,12.148360252380371,1.3256237506866455
1710887985131637500,17.503637451171876,-0.1663011759519577,12.565908432006836,0.5240281820297241
1710887985150597400,17.522597412109373,0.5838487148284912,13.592429161071777,1.4632110595703125
1710887985169557200,17.54155712890625,1.0504491329193115,14.298311233520508,3.2757742404937744
1710887985188517000,17.56051708984375,1.2263215780258179,13.557733535766602,4.794020175933838
1710887985207477000,17.57947705078125,1.581655740737915,11.523834228515625,4.541577339172363
1710887985226436900,17.598436767578125,1.817348837852478,9.832108497619629,3.201596736907959
1710887985245396700,17.617396728515626,1.2454642057418823,9.501898765563965,2.2229323387145996
1710887985264356900,17.63635693359375,0.3074777126312256,10.171889305114746,2.2121646404266357
1710887985283316700,17.655316650390624,-0.02632104977965355,11.09192943572998,2.544766902923584
1710887985302276600,17.674276611328125,-0.16271193325519562,11.477173805236816,2.7361927032470703
1710887985321236500,17.693236572265626,-0.4630111753940582,11.258230209350586,2.6225335597991943
1710887985340196400,17.7121962890625,-0.9272187948226929,10.307083129882812,2.276770830154419
1710887985359156200,17.73115625,-1.0145567655563354,8.793622970581055,1.7934205532073975
1710887985378116400,17.750116455078125,-0.6281159520149231,7.29810905456543,1.7048860788345337
1710887985397076200,17.769076171875,-0.24167509377002716,6.181857109069824,1.9728822708129883
1710887985416036000,17.7880361328125,-0.16749759018421173,5.525027275085449,2.1822543144226074
1710887985434996000,17.806995849609375,-0.17587246000766754,5.279763221740723,2.306680917739868
1710887985453955800,17.825955810546876,-0.28235307335853577,5.338387489318848,2.2959132194519043
1710887985472915700,17.844915771484374,-0.33738797903060913,5.605186939239502,2.1583259105682373
1710887985491875600,17.86387548828125,-0.5551348328590393,5.970092296600342,1.8089739084243774
1710887985510835700,17.882835693359375,-0.8195417523384094,6.508477687835693,1.399801254272461
1710887985529795600,17.901795654296876,-1.176072359085083,7.286144733428955,1.1030912399291992
1710887985548755500,17.92075537109375,-1.6366907358169556,8.182256698608398,1.038485050201416
1710887985567715300,17.93971533203125,-1.950150489807129,8.873783111572266,1.2059825658798218
1710887985586675200,17.95867529296875,-2.011167526245117,9.346364974975586,1.566102385520935
1710887985605635000,17.977635009765624,-1.8317056894302368,10.03549861907959,2.0039889812469482
1710887985624595200,17.99659521484375,-1.6175481081008911,10.908878326416016,2.912065267562866
1710887985643555000,18.01555517578125,-0.7968099117279053,11.649456977844238,4.194618225097656
1710887985662515000,18.034514892578127,0.10767702013254166,12.04666519165039,5.4628143310546875
1710887985681474800,18.053474853515624,0.6197410821914673,11.983255386352539,6.248856544494629
1710887985700434700,18.0724345703125,0.8374879360198975,11.385049819946289,6.025127410888672
1710887985719394600,18.09139453125,1.3363914489746094,11.011770248413086,4.7126641273498535
1710887985738354700,18.110354736328127,1.4919248819351196,11.559725761413574,3.9038901329040527
1710887985757314600,18.129314453125,0.9224331378936768,12.625728607177734,4.445864677429199
1710887985776274400,18.1482744140625,0.09451649338006973,13.334004402160645,5.517848968505859
1710887985795234300,18.167234375,0.4666004180908203,12.003594398498535,5.800201892852783
1710887985814194200,18.186194091796875,2.287538528442383,10.071390151977539,4.9531426429748535
1710887985833154000,18.205154052734375,3.376272678375244,9.114261627197266,3.8321053981781006
1710887985852114000,18.224114013671876,2.9359934329986572,9.263813018798828,3.0628130435943604
1710887985871074000,18.243073974609374,1.5780665874481201,9.900303840637207,2.6763720512390137
1710887985890034000,18.262033935546874,0.41994038224220276,10.39202880859375,2.5902304649353027
1710887985908993800,18.280993896484375,-0.23688943684101105,10.372885704040527,2.6392834186553955
1710887985927953700,18.29995361328125,-0.3768695592880249,9.524630546569824,2.6177480220794678
1710887985946913500,18.31891357421875,-0.2273181527853012,8.142775535583496,2.3437697887420654
1710887985965873700,18.337873779296874,-0.014356935396790504,6.809973239898682,2.0721843242645264
1710887985984833500,18.35683349609375,0.07058826833963394,5.7619171142578125,1.9178473949432373
1710887986003793400,18.37579345703125,0.014356935396790504,5.084748268127441,1.7874385118484497
1710887986022753300,18.394753173828125,-0.12323036789894104,4.790431022644043,1.7072789669036865
1710887986041713400,18.41371337890625,-0.2225325107574463,5.016552448272705,1.7994025945663452
1710887986060673300,18.43267333984375,-0.3768695592880249,5.5692949295043945,1.9812572002410889
1710887986079633200,18.451633056640624,-0.6245267391204834,6.153143405914307,1.9896320104599
1710887986098593000,18.470593017578125,-0.836291491985321,6.671189308166504,2.1655044555664062
1710887986117553000,18.489552978515626,-0.9451649188995361,7.231110095977783,2.6739792823791504
1710887986136512800,18.5085126953125,-1.0037890672683716,7.800601959228516,3.5222349166870117
1710887986155473000,18.527472900390624,-0.8542376756668091,8.277970314025879,4.5200419425964355
1710887986174432800,18.546432861328125,-0.5108676552772522,8.58066177368164,5.291727066040039
1710887986193392600,18.565392578125,-0.06340979784727097,8.915657043457031,5.551348686218262
1710887986212352500,18.5843525390625,0.30508488416671753,9.573683738708496,5.3934221267700195
1710887986231312400,18.6033125,0.38285163044929504,10.396814346313477,4.986642360687256
1710887986250272500,18.6222724609375,0.19980068504810333,11.319247245788574,4.249652862548828
1710887986269232400,18.641232421875,-0.4055834412574768,12.037094116210938,3.3990044593811035
1710887986288192300,18.660192138671874,-0.9595218896865845,12.31825065612793,2.441875457763672
1710887986307152100,18.679152099609375,-0.30987054109573364,12.842279434204102,1.301695466041565
1710887986326112300,18.6981123046875,0.6113662123680115,14.152349472045898,1.3830515146255493
1710887986345072000,18.717072021484373,1.5876377820968628,15.560525894165039,3.4432718753814697
1710887986364032000,18.736031982421874,1.8305093050003052,15.54377555847168,5.4795637130737305
1710887986382992000,18.754991943359375,2.0506489276885986,13.396217346191406,5.672185897827148
1710887986401951700,18.77395166015625,2.0446670055389404,10.949556350708008,4.001996040344238
1710887986420911900,18.792911865234377,1.4715858697891235,9.885947227478027,2.1104695796966553
1710887986439871700,18.811871826171874,0.2715853750705719,10.037891387939453,1.4572290182113647
1710887986458831600,18.83083154296875,-0.3529413342475891,10.466206550598145,1.4739787578582764
1710887986477791500,18.84979150390625,-0.5300102233886719,10.382457733154297,1.6199408769607544
1710887986496751400,18.86875146484375,-0.6317051649093628,9.747162818908691,1.8496519327163696
1710887986515711200,18.887711181640626,-0.6532405614852905,8.675178527832031,2.0267207622528076
1710887986534671400,18.90667138671875,-0.5611169338226318,7.395018577575684,1.9010975360870361
1710887986553631200,18.92563134765625,-0.17946170270442963,6.344569206237793,1.7455641031265259
1710887986572591000,18.944591064453125,0.02392822690308094,5.617151260375977,1.8029918670654297
1710887986591551000,18.963551025390625,0.03469592705368996,5.207978248596191,2.0063817501068115
1710887986610511000,18.982510986328126,-0.015553346835076809,5.179264545440674,2.152343988418579
1710887986629471000,19.001470947265624,-0.02512463741004467,5.400600910186768,2.1092731952667236
1710887986648430800,19.020430908203124,-0.09810572862625122,5.745167255401611,1.9621145725250244
1710887986667390700,19.039390625,-0.24047867953777313,6.094519138336182,1.6618152856826782
1710887986686350600,19.0583505859375,-0.4007977843284607,6.455835342407227,1.2382856607437134
1710887986705310700,19.077310791015623,-0.5431707501411438,6.94038200378418,0.7920243144035339
1710887986724270600,19.0962705078125,-0.867398202419281,7.5804619789123535,0.6508477330207825
1710887986743230500,19.11523046875,-1.222732424736023,8.287541389465332,0.7992027401924133
1710887986762190300,19.1341904296875,-1.423729419708252,8.994620323181152,1.176072359085083
1710887986781150200,19.153150146484375,-1.3100703954696655,9.9469633102417,1.7922241687774658
1710887986800110000,19.172110107421876,-0.9284151792526245,11.135000228881836,2.669193744659424
1710887986819070200,19.1910703125,-0.30149564146995544,11.92223834991455,3.975674867630005
1710887986838030000,19.210030029296874,0.44386860728263855,12.242877006530762,5.290530681610107
1710887986856990000,19.228989990234375,0.7992027401924133,12.223734855651855,5.960521221160889
1710887986875949800,19.24794970703125,0.867398202419281,11.639885902404785,5.79063081741333
1710887986894909700,19.26690966796875,1.439282774925232,11.142178535461426,4.948357105255127
1710887986913869600,19.28586962890625,1.7216359376907349,11.779866218566895,4.583451747894287
1710887986932829400,19.304829345703126,1.3435698747634888,12.839886665344238,5.715256690979004
1710887986951789600,19.32378955078125,0.867398202419281,13.787444114685059,7.302894592285156
1710887986970749400,19.34274951171875,0.8889335989952087,13.13539981842041,7.916653633117676
1710887986989709300,19.361709228515625,1.9202401638031006,10.709077835083008,6.805187702178955
1710887987008669200,19.380669189453126,3.1657042503356934,9.08554744720459,5.507081508636475
1710887987027629000,19.399629150390624,2.8666014671325684,8.86062240600586,4.400400638580322
1710887987046589000,19.4185888671875,1.903490424156189,9.336793899536133,3.7986059188842773
1710887987065549000,19.437549072265625,1.058824062347412,9.840482711791992,3.404986619949341
1710887987084509000,19.456509033203126,0.2715853750705719,9.866804122924805,2.8211379051208496
1710887987103468800,19.47546875,0.1746760457754135,9.4061861038208,2.592623233795166
1710887987122428700,19.4944287109375,0.39960137009620667,8.275577545166016,2.4837498664855957
1710887987141388500,19.513388427734377,0.3565305769443512,6.880561351776123,2.231307029724121
1710887987160348400,19.532348388671874,0.5144568681716919,5.647061347961426,2.124826431274414
1710887987179308300,19.551308349609375,0.39960137009620667,4.808377265930176,1.903490424156189
1710887987198268400,19.570268310546876,0.2189432680606842,4.4482574462890625,1.6737794876098633
1710887987217228300,19.589228271484377,0.1986042857170105,4.436293125152588,1.5696916580200195
1710887987236188200,19.608188232421874,0.014356935396790504,4.752145767211914,1.5278172492980957
1710887987255148000,19.62714794921875,-0.1986042857170105,5.231906890869141,1.719243049621582
1710887987274108000,19.64610791015625,-0.3684946894645691,5.8995041847229,2.0398812294006348
1710887987293067800,19.66506787109375,-0.4713860750198364,6.821937561035156,2.644068956375122
1710887987312028000,19.68402783203125,-0.6101697683334351,7.860422611236572,3.6634113788604736
1710887987330987800,19.70298779296875,-0.537188708782196,8.622536659240723,5.041677474975586
1710887987349947600,19.72194775390625,-0.12921242415905,8.895318031311035,6.239284992218018
1710887987368907500,19.740907470703124,0.3409772217273712,9.047262191772461,6.49770975112915
1710887987387867400,19.759867431640625,0.6149554252624512,9.394221305847168,5.772684574127197
1710887987406827300,19.7788271484375,0.6484549641609192,9.936196327209473,4.705485820770264
1710887987425787100,19.797787109375,0.6305087804794312,10.545169830322266,3.345165967941284
1710887987444747000,19.8167470703125,0.24646073579788208,11.437692642211914,2.2983062267303467
1710887987463707000,19.835706787109373,-0.30987054109573364,12.035898208618164,1.755135416984558
1710887987482666800,19.854666748046874,-0.3314059376716614,12.344572067260742,0.914058268070221
1710887987501626600,19.873626708984375,-0.10408778488636017,13.138989448547363,0.36610186100006104
1710887987520586800,19.892586669921876,0.7680960893630981,13.99801254272461,1.1856436729431152
1710887987539546600,19.911546630859377,1.32921302318573,14.459827423095703,2.6261229515075684
1710887987558506500,19.930506591796874,1.573280930519104,14.140385627746582,3.9900317192077637
1710887987577466400,19.94946630859375,1.3878371715545654,12.735798835754395,4.4135613441467285
1710887987596426200,19.96842626953125,1.2646067142486572,10.995019912719727,3.658625841140747
1710887987615386000,19.98738623046875,0.8398807644844055,10.065408706665039,2.746960401535034
1710887987634346000,20.006345947265626,0.32662028074264526,9.950552940368652,2.4131617546081543
1710887987653305900,20.025305908203126,0.02153540402650833,10.1276216506958,2.124826431274414
1710887987672265700,20.044265625,-0.17228323221206665,10.25922679901123,1.7874385118484497
1710887987691225600,20.0632255859375,-0.638883650302887,10.177870750427246,1.6259230375289917
1710887987710185700,20.082185791015625,-1.0971091985702515,9.726823806762695,1.6582261323928833
1710887987729145600,20.1011455078125,-1.290927767753601,8.871390342712402,1.628315806388855
1710887987748105200,20.120105224609375,-1.0193424224853516,7.5708909034729,1.5553346872329712
1710887987767065000,20.139065185546876,-0.41874396800994873,6.460621356964111,1.7216359376907349
1710887987786025000,20.15802490234375,0.003589233849197626,5.74397087097168,1.9609181880950928
1710887987804985000,20.176985107421874,0.10169496387243271,5.4951171875,2.1379871368408203
1710887987823945000,20.195945068359375,0.007178467698395252,5.680561065673828,2.2648067474365234
1710887987842904800,20.21490478515625,-0.0323031060397625,5.952146530151367,2.194218397140503
1710887987861864700,20.23386474609375,-0.1495514214038849,6.230910301208496,1.9417755603790283
1710887987880824600,20.252824462890626,-0.259621262550354,6.638886451721191,1.5744773149490356
1710887987899784400,20.271784423828127,-0.576670229434967,7.335197925567627,1.1868400573730469
1710887987918744300,20.290744384765624,-1.1198409795761108,8.190631866455078,0.9487541913986206
1710887987937704200,20.3097041015625,-1.5517455339431763,8.86062240600586,1.0683952569961548
1710887987956664000,20.3286640625,-1.4069796800613403,9.378668785095215,1.3100703954696655
1710887987975624000,20.3476240234375,-1.0600204467773438,9.994820594787598,1.3698909282684326
1710887987994583800,20.366583740234375,-1.046859860420227,10.811968803405762,1.9669002294540405
1710887988013543700,20.385543701171876,-0.6711867451667786,11.732009887695312,3.2793633937835693
1710887988032503600,20.404503662109374,-0.2153540402650833,12.424731254577637,4.67078971862793
1710887988051463400,20.42346337890625,0.14715859293937683,12.580265045166016,5.643472194671631
1710887988070423300,20.44242333984375,0.6915257573127747,12.096915245056152,5.574080467224121
1710887988089383200,20.461383056640624,1.317248821258545,11.795419692993164,4.706682205200195
1710887988108343000,20.480343017578125,1.0504491329193115,12.382857322692871,4.615755081176758
1710887988127303000,20.499302978515626,0.4486542344093323,13.39262866973877,5.614758491516113
1710887988146262800,20.5182626953125,0.18305093050003052,13.313665390014648,6.618547439575195
1710887988165222700,20.53722265625,1.2610175609588623,11.078768730163574,6.273981094360352
1710887988184182500,20.5561826171875,2.5459632873535156,9.005388259887695,4.686343193054199
1710887988203142400,20.575142333984374,3.016152858734131,8.688339233398438,3.4157543182373047
1710887988222102300,20.594102294921875,2.1332013607025146,9.471988677978516,2.874976396560669
1710887988241062100,20.613062255859376,1.0671988725662231,10.326226234436035,2.748156785964966
1710887988260022000,20.63202197265625,0.32542386651039124,10.86700439453125,2.7326035499572754
1710887988278982000,20.65098193359375,-0.04187439754605293,10.448260307312012,2.5495524406433105
1710887988297941800,20.669941650390626,0.18544375896453857,9.152546882629395,2.283949136734009
1710887988316901600,20.688901611328124,0.4654040038585663,7.513463020324707,1.9262222051620483
1710887988335861500,20.707861572265625,0.5383850932121277,6.20219612121582,1.7060825824737549
1710887988354821400,20.7268212890625,0.5539384484291077,5.314459323883057,1.5469598770141602
1710887988373781200,20.74578125,0.5060819983482361,4.743771076202393,1.4105689525604248
1710887988392741000,20.7647412109375,0.35054850578308105,4.599005222320557,1.28255295753479
1710887988411701000,20.783700927734376,0.15912270545959473,4.828716278076172,1.2454642057418823
1710887988430660900,20.802660888671873,-0.09810572862625122,5.437689304351807,1.4009976387023926
1710887988449620700,20.821620849609374,-0.4223332107067108,6.1435723304748535,1.5708880424499512
1710887988468580600,20.84058056640625,-0.6927221417427063,6.8518476486206055,1.7874385118484497
1710887988487540500,20.85954052734375,-0.8554341197013855,7.527820110321045,2.1379871368408203
1710887988506500400,20.878500244140625,-0.898504912853241,8.149953842163086,2.788834810256958
1710887988525460200,20.897460205078126,-0.7752745151519775,8.439485549926758,3.896711587905884
1710887988544420000,20.916420166015627,-0.1746760457754135,8.49571704864502,5.120640277862549
1710887988563380000,20.9353798828125,0.4821537733078003,8.652446746826172,6.02393102645874
1710887988582339800,20.95433984375,0.7417750358581543,9.237491607666016,6.460621356964111
1710887988601299700,20.9732998046875,0.8267202377319336,10.04267692565918,6.185446739196777
1710887988620259300,20.99225927734375,0.6305087804794312,10.959127426147461,5.4281182289123535
1710887988639219500,21.011219482421875,-0.038285162299871445,11.82174015045166,4.701896667480469
1710887988658179300,21.030179443359376,-0.7202396392822266,12.284751892089844,3.579662561416626
1710887988677139000,21.049138916015625,-0.5300102233886719,12.955938339233398,2.1535403728485107
1710887988696098800,21.068098876953126,0.19262222945690155,13.981263160705566,2.0446670055389404
1710887988715059000,21.087058837890623,1.0480563640594482,14.810376167297363,2.9587252140045166
1710887988734018600,21.1060185546875,1.5708880424499512,14.639288902282715,3.812962770462036
1710887988752978400,21.124978515625,1.1892328262329102,13.416556358337402,3.706482172012329
1710887988771938300,21.143938232421874,0.9906286001205444,11.758330345153809,2.5435705184936523
1710887988790898200,21.162898193359375,0.31106695532798767,10.876575469970703,1.4847464561462402
1710887988809858000,21.181858154296876,-0.3206382393836975,10.811968803405762,1.4883357286453247
1710887988828818000,21.20081787109375,-0.3732803463935852,10.901700019836426,1.9046868085861206
1710887988847777800,21.21977783203125,-0.28594231605529785,10.62413215637207,2.1092731952667236
1710887988866737700,21.238737548828126,-0.3409772217273712,10.171889305114746,2.251646041870117
1710887988885697500,21.257697509765624,-0.503689169883728,9.473184585571289,2.396411895751953
1710887988904657400,21.276657470703125,-0.4749752879142761,8.3629150390625,2.2683959007263184
1710887988923617300,21.2956171875,-0.11485548317432404,7.056434154510498,2.124826431274414
1710887988942577200,21.3145771484375,0.21176479756832123,5.980860233306885,2.117648124694824
1710887988961537000,21.333537109375,0.2560320198535919,5.344369411468506,2.1415762901306152
1710887988980497000,21.352496826171876,0.11246266216039658,5.162514686584473,2.1308085918426514
1710887988999456800,21.371456787109373,-0.10289137065410614,5.284548759460449,2.1128623485565186
1710887989018416600,21.390416748046874,-0.28953152894973755,5.553741455078125,2.0303099155426025
1710887989037376500,21.40937646484375,-0.3768695592880249,5.882754325866699,1.8915263414382935
1710887989056336400,21.42833642578125,-0.4019941985607147,6.265605926513672,1.6761722564697266
1710887989075296300,21.447296142578125,-0.5706881880760193,6.770491600036621,1.506281852722168
1710887989094256000,21.466256103515626,-0.8757730722427368,7.423732280731201,1.4979069232940674
1710887989113216000,21.485216064453127,-1.2406785488128662,8.123632431030273,1.7324036359786987
1710887989132176000,21.50417578125,-1.1904292106628418,8.662017822265625,2.0853450298309326
1710887989151135500,21.523135498046877,-0.8219345808029175,9.272188186645508,2.4011974334716797
1710887989170095600,21.542095703125,-0.4450650215148926,10.258030891418457,2.702693223953247
1710887989189055500,21.561055419921875,-0.3936193287372589,11.523834228515625,3.6885361671447754
1710887989208015400,21.580015380859376,-0.21774685382843018,12.570693969726562,5.490331649780273
1710887989226975000,21.59897509765625,0.18903298676013947,13.056436538696289,7.008577346801758
1710887989245935000,21.61793505859375,0.7250252366065979,12.41276741027832,6.778866767883301
1710887989264895000,21.63689501953125,1.7336000204086304,11.797812461853027,5.26899528503418
1710887989283854800,21.655854736328124,1.9680966138839722,12.09212875366211,4.383651256561279
1710887989302814500,21.674814453125,1.1198409795761108,12.941581726074219,5.027320384979248
1710887989321774300,21.6937744140625,0.08973085135221481,13.762319564819336,6.361319065093994
1710887989340734500,21.712734375,1.0911271572113037,12.15673542022705,6.151947021484375
1710887989359694300,21.7316943359375,3.434896945953369,9.299705505371094,4.609772682189941
1710887989378654000,21.750654052734376,4.289134502410889,7.9585280418396,2.89890456199646
1710887989397613800,21.76961376953125,3.4193434715270996,8.139185905456543,1.978864312171936
1710887989416574000,21.788573974609374,2.225325107574463,9.031708717346191,1.9381862878799438
1710887989435533800,21.807533935546875,1.0923235416412354,9.937392234802246,2.0506489276885986
1710887989454493400,21.826493408203124,0.16031911969184875,10.246066093444824,1.8460626602172852
1710887989473453300,21.845453369140625,-0.02751746028661728,9.66939640045166,1.5649060010910034
1710887989492413200,21.8644130859375,0.2189432680606842,8.438288688659668,1.4033905267715454
1710887989511373300,21.883373291015626,0.2787638306617737,7.238288402557373,1.4464613199234009
1710887989530333200,21.902333251953124,0.5850451588630676,6.226124286651611,1.690529227256775
1710887989549292800,21.921292724609376,0.5395814776420593,5.544169902801514,1.7012969255447388
1710887989568252700,21.940252685546874,0.4893322288990021,5.318048477172852,1.6414763927459717
1710887989587212800,21.959212890625,0.41156548261642456,5.407779216766357,1.6079767942428589
1710887989606172700,21.978172607421875,0.20817556977272034,5.638686656951904,1.698904037475586
1710887989625132500,21.997132568359376,0.12442677468061447,6.0741801261901855,1.9860427379608154
1710887989644092400,22.016092529296873,-0.16031911969184875,6.623332977294922,2.39401912689209
1710887989663052300,22.03505224609375,-0.3122633695602417,7.16650390625,2.9563324451446533
1710887989682012200,22.05401220703125,-0.349352091550827,7.582854747772217,3.52103853225708
1710887989700972000,22.072971923828124,-0.10408778488636017,7.8077802658081055,4.000799655914307
1710887989719932000,22.091931884765625,0.11605189740657806,8.097311973571777,4.208974838256836
1710887989738891800,22.110891845703126,0.22612173855304718,8.678768157958984,4.218546390533447
1710887989757851600,22.1298515625,0.4953143000602722,9.56052303314209,4.399204254150391
1710887989776811500,22.1488115234375,0.4749752879142761,10.572687149047852,4.42193603515625
1710887989795771400,22.167771484375,0.2679961323738098,11.69133186340332,4.4650068283081055
1710887989814731300,22.186731201171874,0.12681959569454193,12.373286247253418,4.235296249389648
1710887989833691100,22.205691162109375,-0.05623133108019829,12.275179862976074,3.451646566390991
1710887989852651000,22.224651123046876,-0.007178467698395252,11.754741668701172,2.283949136734009
1710887989871611000,22.24361083984375,0.3517449200153351,12.098111152648926,1.3387842178344727
1710887989890570800,22.26257080078125,0.9930213689804077,13.435699462890625,1.97407865524292
1710887989909530600,22.281530517578126,1.8233308792114258,14.350954055786133,3.84765887260437
1710887989928490500,22.300490478515623,2.2815563678741455,13.654642105102539,4.83469820022583
1710887989947450600,22.31945068359375,2.853440999984741,11.986845016479492,4.082155227661133
1710887989966410500,22.338410400390625,2.348555326461792,10.789237022399902,2.7493531703948975
1710887989985370400,22.357370361328126,1.290927767753601,10.455438613891602,1.7467604875564575
1710887990004330200,22.376330322265623,0.6963114142417908,10.590633392333984,1.4811571836471558
1710887990023290000,22.3952900390625,0.4666004180908203,10.86700439453125,1.4608181715011597
1710887990042250000,22.41425,0.26201409101486206,10.987841606140137,1.7611174583435059
1710887990061209900,22.4332099609375,-0.1746760457754135,10.559526443481445,2.3234307765960693
1710887990080169700,22.452169677734375,-0.5252245664596558,9.42054271697998,2.383251428604126
1710887990099129600,22.471129638671876,-0.4905286431312561,7.976474285125732,2.1020946502685547
1710887990118089500,22.49008935546875,-0.3074777126312256,6.594619274139404,1.8987047672271729
1710887990137049300,22.50904931640625,0.019142581149935722,5.670989513397217,1.872383713722229
1710887990156009500,22.528009521484375,0.15672987699508667,5.216353416442871,1.8795621395111084
1710887990174969300,22.54696923828125,0.0933200865983963,5.120640277862549,1.781456470489502
1710887990193929200,22.56592919921875,-0.007178467698395252,5.2941203117370605,1.6271194219589233
1710887990212889000,22.58488916015625,-0.2225325107574463,5.645864963531494,1.4488540887832642
1710887990231849000,22.603848876953126,-0.48574298620224,6.221338748931885,1.3495519161224365
1710887990250808800,22.622808837890624,-0.794417142868042,6.888936519622803,1.2335001230239868
1710887990269768700,22.641768798828124,-1.1174482107162476,7.585247993469238,1.2131611108779907
1710887990288728600,22.660728515625,-1.368694543838501,8.325826644897461,1.3663017749786377
1710887990307688400,22.6796884765625,-1.4428720474243164,9.041280746459961,1.9178473949432373
1710887990326648300,22.6986484375,-1.1282159090042114,9.882357597351074,2.6249263286590576
1710887990345608200,22.717608154296876,-0.6807580590248108,10.755738258361816,3.2829527854919434
1710887990364568300,22.736568359375,-0.24526432156562805,11.33958625793457,3.9948174953460693
1710887990383528200,22.755528076171874,0.2392822653055191,11.684152603149414,4.770092010498047
1710887990402488000,22.774488037109375,0.4701896607875824,11.760723114013672,5.258227825164795
1710887990421448000,22.793447998046876,0.6221339106559753,11.667403221130371,5.4556355476379395
1710887990440407800,22.81240771484375,0.9475577473640442,11.545369148254395,5.333601474761963
1710887990459367700,22.83136767578125,1.4009976387023926,11.834900856018066,4.5786662101745605
1710887990478327800,22.850327880859375,1.0755738019943237,12.550354957580566,4.524827480316162
1710887990497287700,22.86928759765625,0.9080761671066284,13.016955375671387,4.894518852233887
1710887990516247600,22.88824755859375,1.262213945388794,12.731013298034668,5.1182475090026855
1710887990535207400,22.90720751953125,2.606980323791504,10.53799057006836,4.244867324829102
1710887990554167300,22.926167236328126,4.346562385559082,8.421539306640625,2.355733871459961
1710887990573127200,22.945127197265624,4.49252462387085,7.813762187957764,0.7334001660346985
1710887990592087000,22.964087158203125,2.871387243270874,9.438488960266113,0.8937192559242249
1710887990611047200,22.983047119140625,0.9367900490760803,11.68893814086914,2.4059832096099854
1710887990630007000,23.002007080078126,-0.32183465361595154,12.55274772644043,3.631108283996582
1710887990648967000,23.020966796875,-0.8961120843887329,11.519047737121582,3.7232320308685303
1710887990667926800,23.0399267578125,-0.8279166221618652,9.302098274230957,2.967100143432617
1710887990686886700,23.05888671875,-0.3888336718082428,7.328019142150879,2.3736801147460938
1710887990705846500,23.077846435546874,-0.3002992272377014,5.955735683441162,2.0925233364105225
1710887990724806700,23.096806640625,-0.17228323221206665,5.163711071014404,2.2683959007263184
1710887990743766500,23.1157666015625,-0.3529413342475891,4.867001056671143,2.221735715866089
1710887990762726400,23.134726318359377,-0.4307080805301666,4.914857864379883,2.124826431274414
1710887990781686300,23.153686279296874,-0.2763710021972656,5.237888813018799,1.825723648071289
1710887990800646100,23.172646240234375,-0.3194418251514435,5.704489231109619,1.4620146751403809
1710887990819606300,23.191606201171876,-0.6628118753433228,6.214160442352295,1.4476577043533325
1710887990838566100,23.210566162109377,-0.9260223507881165,6.91765022277832,1.794616937637329
1710887990857526000,23.229526123046874,-0.8231309652328491,7.676175117492676,2.2636101245880127
1710887990876486000,23.24848583984375,-0.7286145091056824,8.48734188079834,2.8462624549865723
1710887990895446000,23.267446044921876,-0.6855437159538269,9.239884376525879,3.812962770462036
1710887990914406000,23.286406005859376,-0.5431707501411438,9.741181373596191,4.724628448486328
1710887990933365800,23.30536572265625,-0.27038896083831787,9.934999465942383,4.985445976257324
1710887990952325600,23.32432568359375,-0.05503492057323456,10.079765319824219,4.6372904777526855
1710887990971285500,23.343285400390624,0.1339980661869049,10.437492370605469,3.7495529651641846
1710887990990245400,23.362245361328124,0.01196411345154047,11.088339805603027,3.0113673210144043
1710887991009205500,23.38120556640625,-0.4259224236011505,11.453245162963867,2.6249263286590576
1710887991028165400,23.400165283203126,-0.6604190468788147,11.392229080200195,2.334198474884033
1710887991047125200,23.419125244140623,0.02871387079358101,11.653046607971191,1.6785650253295898
1710887991066085000,23.438085205078124,0.7381857633590698,12.768101692199707,1.734796404838562
1710887991085045000,23.457044921875,1.9417755603790283,14.386846542358398,3.5270206928253174
1710887991104005000,23.476005126953126,2.14516544342041,14.855839729309082,5.223531723022461
1710887991122965000,23.494965087890623,1.9621145725250244,13.350753784179688,5.441278457641602
1710887991141924900,23.5139248046875,2.1786649227142334,11.229516983032227,4.234099864959717
1710887991160885000,23.532885009765625,1.5182459354400635,10.529616355895996,3.0664021968841553
1710887991179844900,23.551844970703126,0.7585247755050659,10.788041114807129,2.8319056034088135
1710887991198804700,23.5708046875,0.5288137793540955,11.515459060668945,3.2207393646240234
1710887991217764600,23.5897646484375,0.2189432680606842,11.818151473999023,3.297309637069702
1710887991236724500,23.608724365234377,-0.014356935396790504,11.258230209350586,2.9790642261505127
1710887991255684400,23.627684326171874,-0.34695929288864136,10.021141052246094,2.342573404312134
1710887991274644500,23.64664453125,-0.7166503667831421,8.411968231201172,1.4177473783493042
1710887991293604400,23.665604248046876,-0.7513462901115417,6.8518476486206055,0.745364248752594
1710887991312564200,23.684564208984376,-0.7022934556007385,5.635097503662109,0.44386860728263855
1710887991331524400,23.7035244140625,-0.7668996453285217,4.9435715675354,0.4737788736820221
1710887991350484200,23.722484130859375,-0.7740781307220459,4.67078971862793,0.7238288521766663
1710887991369444000,23.741444091796875,-0.6759724020957947,4.704289436340332,0.9906286001205444
1710887991388404000,23.760404052734376,-0.5946164131164551,4.937589645385742,1.2215359210968018
1710887991407363800,23.77936376953125,-0.45583271980285645,5.371886730194092,1.4141582250595093
1710887991426323700,23.79832373046875,-0.38763725757598877,5.862415313720703,1.4979069232940674
1710887991445283800,23.817283935546875,-0.349352091550827,6.4905314445495605,1.4177473783493042
1710887991464243700,23.83624365234375,-0.49172505736351013,7.368697166442871,1.397408366203308
1710887991483203600,23.85520361328125,-0.9212366938591003,8.383254051208496,1.6977076530456543
1710887991502163500,23.87416357421875,-1.1030912399291992,9.29611587524414,2.2157537937164307
1710887991521123600,23.89312353515625,-0.989432156085968,10.363314628601074,2.6261229515075684
1710887991540083500,23.91208349609375,-0.760917603969574,11.629117965698242,3.212364435195923
1710887991559043300,23.931043212890625,-0.5491527915000916,12.861421585083008,4.521238327026367
1710887991578003200,23.950003173828126,0.14356936514377594,13.50748348236084,5.513063430786133
1710887991596963300,23.96896337890625,1.0372886657714844,12.719048500061035,5.753541946411133
1710887991615923200,23.987923095703124,1.8616160154342651,11.4652099609375,4.923232555389404
1710887991634883000,24.006883056640625,2.5292134284973145,10.910075187683105,3.544966697692871
1710887991653843000,24.025843017578126,2.2480568885803223,11.394621849060059,3.0173492431640625
1710887991672802800,24.044802734375,2.1403799057006836,12.43549919128418,4.0905303955078125
1710887991691762700,24.0637626953125,1.3926228284835815,13.077972412109375,5.711667537689209
1710887991710722800,24.082722900390625,2.0195422172546387,11.556137084960938,5.821737289428711
1710887991729682700,24.1016826171875,3.005385160446167,9.779465675354004,4.782055854797363
1710887991748642600,24.120642578125,2.908475875854492,9.554540634155273,4.005585193634033
1710887991767602400,24.1396025390625,1.8436698913574219,10.29751205444336,3.8392839431762695
1710887991786562600,24.1585625,0.7058826684951782,10.652846336364746,3.728017568588257
1710887991805522400,24.1775224609375,0.1663011759519577,10.462616920471191,3.48993182182312
1710887991824482300,24.196482421875,-0.2273181527853012,9.656235694885254,3.1130621433258057
1710887991843442200,24.215442138671875,-0.49651068449020386,8.389236450195312,2.640479803085327
1710887991862402000,24.234402099609376,-0.4342973232269287,7.0025954246521,2.1822543144226074
1710887991881362200,24.253362060546873,-0.2871387302875519,5.748756408691406,1.8041882514953613
