time,seconds_elapsed,z,y,x
1707164610807536600,0.04953662109375,4.520916938781738,5.873964309692383,6.420921325683594
1707164610826496300,0.068496337890625,4.5942606925964355,6.0279974937438965,6.223053932189941
1707164610845456000,0.087455810546875,4.707582473754883,6.303950309753418,5.853996276855469
1707164610864415500,0.10641552734375,4.620393753051758,6.617051124572754,5.5710835456848145
1707164610883375000,0.125375,4.429882526397705,6.87928581237793,5.405734062194824
1707164610902334700,0.144334716796875,4.196531295776367,7.072885036468506,5.341705322265625
1707164610921294300,0.16329443359375,3.8852527141571045,7.2428483963012695,5.349424362182617
1707164610940254000,0.18225390625,3.4947426319122314,7.4300384521484375,5.362060546875
1707164610959213600,0.201213623046875,3.1173126697540283,7.581179618835449,5.383164882659912
1707164610978173200,0.220173095703125,2.797287702560425,7.680477619171143,5.418102741241455
1707164610997132800,0.2391328125,2.4247772693634033,7.836658477783203,5.373790264129639
1707164611016092400,0.258092529296875,2.0881400108337402,7.970093727111816,5.318614482879639
1707164611035052000,0.277052001953125,1.8283337354660034,8.061931610107422,5.275683403015137
1707164611054011600,0.29601171875,1.669342279434204,8.09139633178711,5.2832746505737305
1707164611072971300,0.31497119140625,1.5914618968963623,8.099388122558594,5.29504919052124
1707164611091931000,0.333930908203125,1.5610939264297485,8.129916191101074,5.2571702003479
1707164611110890500,0.352890380859375,1.5343236923217773,8.206307411193848,5.145168781280518
1707164611129850000,0.37185009765625,1.468249797821045,8.328994750976562,4.9641194343566895
1707164611148809700,0.390809814453125,1.3396003246307373,8.478066444396973,4.7432332038879395
1707164611167769300,0.409769287109375,1.1578458547592163,8.624500274658203,4.521921634674072
1707164611186729000,0.42872900390625,0.9700448513031006,8.74754810333252,4.32548189163208
1707164611205688600,0.4476884765625,0.8134992122650146,8.841814041137695,4.163041114807129
1707164611224648200,0.466648193359375,0.7075812816619873,8.912057876586914,4.030502796173096
1707164611243607800,0.48560791015625,0.6558375954627991,8.971988677978516,3.904315710067749
1707164611262567400,0.5045673828125,0.6476131081581116,9.029994010925293,3.769641160964966
1707164611281527000,0.523527099609375,0.6800472736358643,9.086604118347168,3.6251256465911865
1707164611300486700,0.542486572265625,0.7432735562324524,9.139543533325195,3.476588487625122
1707164611319446300,0.5614462890625,0.8213246464729309,9.188754081726074,3.326047658920288
1707164611338406000,0.580406005859375,0.8959094882011414,9.23626708984375,3.17160964012146
1707164611357365500,0.599365478515625,0.9574393630027771,9.283638000488281,3.0112717151641846
1707164611376325000,0.6183251953125,1.0034946203231812,9.330360412597656,2.847412586212158
1707164611395284700,0.63728466796875,1.0340057611465454,9.375020027160645,2.685185432434082
1707164611414244400,0.656244384765625,1.049578309059143,9.415494918823242,2.533226728439331
1707164611433204000,0.675203857421875,1.0576627254486084,9.449236869812012,2.4007606506347656
1707164611452163600,0.69416357421875,1.0732907056808472,9.476178169250488,2.2848360538482666
1707164611471123200,0.713123291015625,1.0928806066513062,9.499006271362305,2.178274154663086
1707164611490082800,0.732082763671875,1.1082301139831543,9.520410537719727,2.0746047496795654
1707164611509042400,0.75104248046875,1.1229292154312134,9.540301322937012,1.972832202911377
1707164611528001800,0.770001708984375,1.1398255825042725,9.557482719421387,1.8776875734329224
1707164611546961700,0.788961669921875,1.164164662361145,9.568861961364746,1.8033250570297241
1707164611565921300,0.80792138671875,1.1935703754425049,9.576142311096191,1.7444959878921509
1707164611584881000,0.826880859375,1.2207599878311157,9.583330154418945,1.6852062940597534
1707164611603840300,0.84584033203125,1.2421648502349854,9.591164588928223,1.6238754987716675
1707164611622800000,0.8647998046875,1.2553361654281616,9.597758293151855,1.5740247964859009
1707164611641759700,0.883759765625,1.2605838775634766,9.601091384887695,1.5493066310882568
1707164611660719000,0.902718994140625,1.2600839138031006,9.60159969329834,1.5465624332427979
1707164611679678700,0.9216787109375,1.2528883218765259,9.601181030273438,1.5549901723861694
1707164611698638300,0.940638427734375,1.2405165433883667,9.601081848144531,1.56548011302948
1707164611717598000,0.959597900390625,1.2273894548416138,9.601101875305176,1.5756802558898926
1707164611736557600,0.9785576171875,1.2174500226974487,9.599940299987793,1.5903892517089844
1707164611755517200,0.99751708984375,1.2119196653366089,9.597525596618652,1.6090788841247559
1707164611774476800,1.016476806640625,1.2081445455551147,9.595015525817871,1.6267938613891602
1707164611793436400,1.0354365234375,1.2028342485427856,9.592926025390625,1.6429685354232788
1707164611812396000,1.05439599609375,1.194176435470581,9.591073989868164,1.6600134372711182
1707164611831355600,1.073355712890625,1.1792030334472656,9.589942932128906,1.6771589517593384
1707164611850315300,1.092315185546875,1.1583294868469238,9.59035587310791,1.6892961263656616
1707164611869275000,1.11127490234375,1.134620189666748,9.591915130615234,1.6965209245681763
1707164611888234500,1.130234375,1.1101014614105225,9.593710899353027,1.7025765180587769
1707164611907194000,1.149194091796875,1.0872279405593872,9.595622062683105,1.7065633535385132
1707164611926153500,1.168153564453125,1.0682361125946045,9.597546577453613,1.7077373266220093
1707164611945113000,1.187113037109375,1.0507506132125854,9.599836349487305,1.7057138681411743
1707164611964072700,1.20607275390625,1.0361682176589966,9.60229778289795,1.7007752656936646
1707164611983032300,1.2250322265625,1.0273082256317139,9.604423522949219,1.6941277980804443
1707164612001992000,1.243991943359375,1.0266045331954956,9.605690002441406,1.6873600482940674
1707164612020951600,1.26295166015625,1.0326273441314697,9.606170654296875,1.6809381246566772
1707164612039911200,1.2819111328125,1.042373538017273,9.606371879577637,1.6737593412399292
1707164612058870800,1.300870849609375,1.0512418746948242,9.606961250305176,1.6648061275482178
1707164612077830400,1.319830322265625,1.0644336938858032,9.607294082641602,1.654471516609192
1707164612096790000,1.3387900390625,1.083883285522461,9.606621742248535,1.6457217931747437
1707164612115749600,1.35774951171875,1.1063462495803833,9.605460166931152,1.6375311613082886
1707164612134709200,1.376709228515625,1.13300359249115,9.604182243347168,1.626768708229065
1707164612153668900,1.3956689453125,1.1639939546585083,9.603038787841797,1.611567497253418
1707164612172628500,1.41462841796875,1.1928071975708008,9.602324485778809,1.5946719646453857
1707164612191587800,1.433587890625,1.2107253074645996,9.602821350097656,1.578086495399475
1707164612210547500,1.45254736328125,1.2113102674484253,9.604828834533691,1.5653691291809082
1707164612229507000,1.471507080078125,1.1921685934066772,9.608654975891113,1.5565613508224487
1707164612248466700,1.490466796875,1.167906641960144,9.608912467956543,1.5732735395431519
1707164612267426300,1.50942626953125,1.1326794624328613,9.611576080322266,1.5827312469482422
1707164612286386000,1.528385986328125,1.094034194946289,9.61474323272705,1.5906579494476318
1707164612305345500,1.547345458984375,1.0588302612304688,9.616750717163086,1.6023035049438477
1707164612324305200,1.56630517578125,1.029395580291748,9.617466926574707,1.6171166896820068
1707164612343264800,1.5852646484375,1.0071039199829102,9.617081642150879,1.6333637237548828
1707164612362224400,1.604224365234375,0.990430474281311,9.616372108459473,1.6476707458496094
1707164612381184000,1.62318408203125,0.9745677709579468,9.616316795349121,1.6574245691299438
1707164612400143400,1.642143310546875,0.9558899402618408,9.616968154907227,1.664511799812317
1707164612419103000,1.66110302734375,0.9400462508201599,9.616700172424316,1.6750460863113403
1707164612438062600,1.6800625,0.934920072555542,9.613725662231445,1.6948734521865845
1707164612457022200,1.699022216796875,0.9398263096809387,9.609177589416504,1.717798113822937
1707164612475981800,1.71798193359375,0.9569798707962036,9.603437423706055,1.7402817010879517
1707164612494941400,1.73694140625,0.9907163381576538,9.596366882324219,1.7602856159210205
1707164612513901000,1.755901123046875,1.0382137298583984,9.587944984436035,1.7787100076675415
1707164612532860700,1.774860595703125,1.0903953313827515,9.578665733337402,1.797385573387146
1707164612551820300,1.7938203125,1.1369214057922363,9.569942474365234,1.8149340152740479
1707164612570780000,1.81277978515625,1.170105218887329,9.562873840332031,1.8310333490371704
1707164612589739500,1.831739501953125,1.1836193799972534,9.558237075805664,1.8464951515197754
1707164612608699100,1.85069921875,1.1733680963516235,9.556741714477539,1.8607221841812134
1707164612627658800,1.86965869140625,1.1417924165725708,9.558279037475586,1.8724285364151
1707164612646618400,1.888618408203125,1.095987319946289,9.56157112121582,1.882965326309204
1707164612665577700,1.90757763671875,1.0438731908798218,9.565999984741211,1.8900660276412964
1707164612684537300,1.926537353515625,0.9911208152770996,9.571261405944824,1.8918286561965942
1707164612703497000,1.9454970703125,0.9413686394691467,9.576237678527832,1.8920587301254272
1707164612722456600,1.96445654296875,0.8994548916816711,9.579695701599121,1.894942045211792
1707164612741416200,1.983416259765625,0.881829023361206,9.580039024353027,1.9014750719070435
1707164612760375800,2.002375732421875,0.8741664290428162,9.579405784606934,1.9081952571868896
1707164612779335400,2.02133544921875,0.8772510290145874,9.577878952026367,1.9144316911697388
1707164612798295000,2.040294921875,0.8899476528167725,9.574954986572266,1.9231797456741333
1707164612817254700,2.059254638671875,0.9073899388313293,9.570897102355957,1.9351898431777954
1707164612836214300,2.07821435546875,0.9264426231384277,9.566777229309082,1.9464991092681885
1707164612855174000,2.097173828125,0.9457310438156128,9.563336372375488,1.9541175365447998
1707164612874133200,2.11613330078125,0.9659057855606079,9.560844421386719,1.9564409255981445
1707164612893092900,2.1350927734375,0.9782364368438721,9.560153007507324,1.9536938667297363
1707164612912052700,2.154052734375,0.9794560670852661,9.561455726623535,1.946692943572998
1707164612931012400,2.173012451171875,0.9741268754005432,9.56396770477295,1.9370026588439941
1707164612949971700,2.1919716796875,0.9677345156669617,9.566222190856934,1.9290568828582764
1707164612968931300,2.210931396484375,0.9609483480453491,9.567973136901855,1.923758864402771
1707164612987891000,2.229890869140625,0.9534875154495239,9.569806098937988,1.9183499813079834
1707164613006850600,2.2488505859375,0.9454943537712097,9.571575164794922,1.9134737253189087
1707164613025810200,2.26781005859375,0.9360077977180481,9.57317066192627,1.9101523160934448
1707164613044769800,2.286769775390625,0.9260198473930359,9.574779510498047,1.9069561958312988
1707164613063729400,2.3057294921875,0.9176004528999329,9.576040267944336,1.9046930074691772
1707164613082689000,2.32468896484375,0.9141162037849426,9.576716423034668,1.9029682874679565
1707164613101648600,2.343648681640625,0.9153954386711121,9.576741218566895,1.9022270441055298
1707164613120608300,2.362608154296875,0.9193664789199829,9.57638931274414,1.9020774364471436
1707164613139567900,2.38156787109375,0.9253178834915161,9.576278686523438,1.8997544050216675
1707164613158527200,2.40052734375,0.9314278364181519,9.576640129089355,1.8949406147003174
1707164613177486800,2.41948681640625,0.9364669322967529,9.57759952545166,1.8875898122787476
1707164613196446500,2.438446533203125,0.9389063119888306,9.579080581665039,1.8788433074951172
1707164613215406000,2.457406005859375,0.9396353363990784,9.580548286437988,1.8709806203842163
1707164613234365700,2.47636572265625,0.938948929309845,9.581684112548828,1.865502119064331
1707164613253325300,2.4953251953125,0.9351832270622253,9.582687377929688,1.8622300624847412
1707164613272285000,2.514284912109375,0.9302772283554077,9.583312034606934,1.8614829778671265
1707164613291244500,2.53324462890625,0.9267607927322388,9.58309268951416,1.8643587827682495
1707164613310204200,2.5522041015625,0.9255066514015198,9.582019805908203,1.870487928390503
1707164613329163800,2.571163818359375,0.9251638054847717,9.580751419067383,1.8771449327468872
1707164613348123400,2.590123291015625,0.9230921268463135,9.580163955688477,1.881152629852295
1707164613367083000,2.6090830078125,0.9187411665916443,9.579983711242676,1.8841983079910278
1707164613386042600,2.628042724609375,0.9133682250976562,9.579426765441895,1.8896404504776
1707164613405002200,2.647002197265625,0.9080115556716919,9.57876205444336,1.8955811262130737
1707164613423961600,2.665961669921875,0.9011333584785461,9.578323364257812,1.9010748863220215
1707164613442921200,2.684921142578125,0.8944833278656006,9.578221321105957,1.904724359512329
1707164613461880800,2.703880859375,0.8901655077934265,9.577868461608887,1.9085191488265991
1707164613480840400,2.72284033203125,0.8875297904014587,9.577306747436523,1.912554383277893
1707164613499800000,2.741800048828125,0.8863123655319214,9.57681655883789,1.915574312210083
1707164613518759700,2.760759765625,0.8856946229934692,9.576416969299316,1.9178584814071655
1707164613537719300,2.77971923828125,0.8849109411239624,9.57628345489502,1.9188872575759888
1707164613556679000,2.798678955078125,0.8840911388397217,9.576476097106934,1.9183019399642944
1707164613575638500,2.817638427734375,0.8823080658912659,9.576866149902344,1.917176365852356
1707164613594598100,2.83659814453125,0.8803554773330688,9.577412605285645,1.9153432846069336
1707164613613557800,2.855557861328125,0.877476155757904,9.57837963104248,1.911821961402893
1707164613632517000,2.87451708984375,0.8725742101669312,9.579787254333496,1.9070022106170654
1707164613651477000,2.89347705078125,0.8679990172386169,9.581336975097656,1.9013092517852783
1707164613670436600,2.9124365234375,0.8654773235321045,9.58267879486084,1.895683765411377
1707164613689396000,2.93139599609375,0.8657235503196716,9.58364200592041,1.89069402217865
1707164613708355600,2.95035546875,0.8674909472465515,9.584675788879395,1.8846293687820435
1707164613727315200,2.969315185546875,0.8694158792495728,9.5859375,1.877312421798706
1707164613746274800,2.98827490234375,0.8700367212295532,9.587231636047363,1.8704031705856323
1707164613765234400,3.007234375,0.8691948056221008,9.588345527648926,1.8650791645050049
1707164613784194000,3.026194091796875,0.8683251738548279,9.58920955657959,1.8610379695892334
1707164613803153700,3.045153564453125,0.8679533004760742,9.589985847473145,1.857204556465149
1707164613822113300,3.06411328125,0.8670423626899719,9.590746879577637,1.853697419166565
1707164613841073000,3.083072998046875,0.8647683262825012,9.591447830200195,1.8511337041854858
1707164613860032500,3.102032470703125,0.8614163994789124,9.592053413391113,1.8495590686798096
1707164613878992100,3.1209921875,0.8584004044532776,9.592409133911133,1.8491147756576538
1707164613897951500,3.139951416015625,0.8563652038574219,9.592493057250977,1.8496273756027222
1707164613916911000,3.1589111328125,0.8545187711715698,9.592549324035645,1.8501863479614258
1707164613935871000,3.17787109375,0.8522694110870361,9.592656135559082,1.850665807723999
1707164613954830300,3.196830322265625,0.8491312265396118,9.593090057373047,1.8498615026474
1707164613973790000,3.2157900390625,0.8441771268844604,9.594013214111328,1.8473376035690308
1707164613992749600,3.23474951171875,0.8374846577644348,9.595479011535645,1.8427613973617554
1707164614011709200,3.253709228515625,0.8298559188842773,9.597125053405762,1.837641716003418
1707164614030668800,3.272668701171875,0.8191130757331848,9.598825454711914,1.8335750102996826
1707164614049628400,3.29162841796875,0.8052147626876831,9.600692749023438,1.8299471139907837
1707164614068588000,3.310588134765625,0.793049156665802,9.602596282958984,1.825272798538208
1707164614087547600,3.329547607421875,0.7861591577529907,9.60404109954834,1.8206440210342407
1707164614106507300,3.34850732421875,0.7828329205513,9.605164527893066,1.8161405324935913
1707164614125467000,3.367466796875,0.7808808088302612,9.606443405151367,1.810207724571228
1707164614144426500,3.386426513671875,0.7794010043144226,9.60843563079834,1.800244927406311
1707164614163385900,3.4053857421875,0.7790296077728271,9.61104679107666,1.7864176034927368
1707164614182345500,3.424345458984375,0.7799753546714783,9.61334228515625,1.7736035585403442
1707164614201305300,3.443305419921875,0.7953867316246033,9.61616039276123,1.7513483762741089
1707164614220265000,3.462264892578125,0.8183127045631409,9.617622375488281,1.732654333114624
1707164614239224300,3.481224365234375,0.8372350335121155,9.61638069152832,1.7305066585540771
1707164614258184000,3.500183837890625,0.832497775554657,9.615724563598633,1.7364256381988525
1707164614277143600,3.5191435546875,0.7911958694458008,9.61954402923584,1.7345824241638184
1707164614296103200,3.538103271484375,0.7310749292373657,9.62809944152832,1.7133675813674927
1707164614315062800,3.557062744140625,0.6695733666419983,9.63908863067627,1.6763120889663696
1707164614334022400,3.5760224609375,0.6130261421203613,9.647794723510742,1.6476095914840698
1707164614352982000,3.59498193359375,0.566923201084137,9.651634216308594,1.6416274309158325
1707164614371941600,3.613941650390625,0.5320524573326111,9.652462005615234,1.64841890335083
1707164614390901200,3.6329013671875,0.5007901787757874,9.65226936340332,1.6593009233474731
1707164614409860900,3.65186083984375,0.4777691960334778,9.650375366210938,1.6770135164260864
1707164614428820500,3.670820556640625,0.47337257862091064,9.648736000061035,1.6876558065414429
1707164614447779800,3.68977978515625,0.4890092611312866,9.649157524108887,1.6807798147201538
1707164614466739500,3.708739501953125,0.5200845003128052,9.649256706237793,1.670854091644287
1707164614485699300,3.72769921875,0.5656948685646057,9.649890899658203,1.652264952659607
1707164614504658700,3.74665869140625,0.6150796413421631,9.65142822265625,1.6254279613494873
1707164614523618300,3.765618408203125,0.6559008359909058,9.65438461303711,1.591551661491394
1707164614542578000,3.784577880859375,0.6850683689117432,9.658750534057617,1.5522953271865845
1707164614561537500,3.80353759765625,0.7071552872657776,9.663680076599121,1.5111650228500366
1707164614580497200,3.8224970703125,0.7271708250045776,9.668655395507812,1.4692577123641968
1707164614599456800,3.841456787109375,0.7482231855392456,9.673139572143555,1.428605079650879
1707164614618416400,3.86041650390625,0.7719721794128418,9.676249504089355,1.3945008516311646
1707164614637376000,3.8793759765625,0.7992964386940002,9.677523612976074,1.3700535297393799
1707164614656335600,3.898335693359375,0.8289710879325867,9.677281379699707,1.354039192199707
1707164614675295200,3.917295166015625,0.8570721745491028,9.676522254943848,1.3419123888015747
1707164614694254800,3.9362548828125,0.8781204223632812,9.67626667022705,1.3300937414169312
1707164614713214200,3.955214111328125,0.8884181380271912,9.676538467407227,1.3212497234344482
1707164614732173800,3.974173828125,0.8915768265724182,9.67696762084961,1.315961241722107
1707164614751133400,3.993133544921875,0.8995184302330017,9.675402641296387,1.3220628499984741
1707164614770093000,4.012093017578125,0.924349308013916,9.67074203491211,1.3389167785644531
1707164614789052700,4.031052734375,0.9463131427764893,9.671025276184082,1.3214129209518433
1707164614808012300,4.05001220703125,0.9673494696617126,9.676204681396484,1.2671535015106201
1707164614826972000,4.068971923828125,0.9830745458602905,9.681112289428711,1.2165601253509521
1707164614845931500,4.087931640625,0.9935851097106934,9.683137893676758,1.1916413307189941
1707164614864891100,4.10689111328125,1.0038443803787231,9.682445526123047,1.1886690855026245
1707164614883850800,4.125850830078125,0.9838702082633972,9.682479858398438,1.2049723863601685
1707164614902810400,4.144810302734375,0.9250519871711731,9.682884216308594,1.247567892074585
1707164614921769700,4.163769775390625,0.8445507884025574,9.683238983154297,1.3007702827453613
1707164614940729600,4.1827294921875,0.7603303790092468,9.682374000549316,1.3579084873199463
1707164614959689200,4.201689208984375,0.6897504925727844,9.679190635681152,1.4170024394989014
1707164614978648600,4.220648681640625,0.6499084234237671,9.673470497131348,1.473755121231079
1707164614997608200,4.239608154296875,0.6369324326515198,9.66542911529541,1.53107488155365
1707164615016567800,4.25856787109375,0.6351391077041626,9.654553413391113,1.5989384651184082
1707164615035527400,4.27752734375,0.6326518058776855,9.640499114990234,1.6825296878814697
1707164615054487000,4.296487060546875,0.6246636509895325,9.624489784240723,1.774646520614624
1707164615073446700,4.31544677734375,0.606013834476471,9.607739448547363,1.8693523406982422
1707164615092406300,4.33440625,0.5706192851066589,9.589102745056152,1.9732972383499146
1707164615111366000,4.353365966796875,0.5160782933235168,9.565481185913086,2.0989561080932617
1707164615130325500,4.372325439453125,0.4489589333534241,9.533610343933105,2.2536838054656982
1707164615149285000,4.39128515625,0.38158977031707764,9.493247032165527,2.429615020751953
1707164615168244700,4.41024462890625,0.32112088799476624,9.447070121765137,2.611536979675293
1707164615187204000,4.4292041015625,0.2647862434387207,9.39736270904541,2.7910313606262207
1707164615206163700,4.448163818359375,0.2091364860534668,9.343716621398926,2.9701216220855713
1707164615225123300,4.467123291015625,0.15600332617759705,9.286072731018066,3.1487927436828613
1707164615244083000,4.4860830078125,0.10996901988983154,9.224760055541992,3.325972557067871
1707164615263042600,4.50504248046875,0.07413996011018753,9.161911964416504,3.496321678161621
1707164615282002200,4.524002197265625,0.051720716059207916,9.100502967834473,3.653566837310791
1707164615300961800,4.5429619140625,0.04287341237068176,9.043575286865234,3.7923972606658936
1707164615319921400,4.56192138671875,0.04173850268125534,8.992512702941895,3.911952257156372
1707164615338881000,4.580881103515625,0.039083246141672134,8.946178436279297,4.016808986663818
1707164615357840600,4.599840576171875,0.039862293750047684,8.904888153076172,4.107527256011963
1707164615376800300,4.61880029296875,0.0557207390666008,8.874213218688965,4.17320442199707
1707164615395759600,4.637759521484375,0.0972251147031784,8.860276222229004,4.2019572257995605
1707164615414719200,4.65671923828125,0.1639384627342224,8.864800453186035,4.19032621383667
1707164615433678800,4.675678955078125,0.23663952946662903,8.88011646270752,4.1542649269104
1707164615452638500,4.694638427734375,0.2962697446346283,8.904618263244629,4.097607135772705
1707164615471598000,4.71359814453125,0.3478492200374603,8.954740524291992,3.9827141761779785
1707164615490557700,4.7325576171875,0.3883369266986847,9.031952857971191,3.8004486560821533
1707164615509517300,4.751517333984375,0.4132160544395447,9.112859725952148,3.599362850189209
1707164615528477000,4.770476806640625,0.4367578625679016,9.182502746582031,3.4148576259613037
1707164615547436500,4.7894365234375,0.47909462451934814,9.236226081848145,3.260824680328369
1707164615566396200,4.808396240234375,0.5439350008964539,9.276450157165527,3.1340067386627197
1707164615585355800,4.827355712890625,0.6250706315040588,9.313249588012695,3.007166624069214
1707164615604315100,4.846315185546875,0.7093493938446045,9.349746704101562,2.872182607650757
1707164615623274800,4.865274658203125,0.7842683792114258,9.381823539733887,2.745304822921753
1707164615642234400,4.884234375,0.8556023240089417,9.40926742553711,2.627549409866333
1707164615661194000,4.903194091796875,0.9300847053527832,9.433642387390137,2.5123136043548584
1707164615680153600,4.922153564453125,1.0090534687042236,9.45694351196289,2.3913207054138184
1707164615699113200,4.94111328125,1.0947755575180054,9.47997760772705,2.2587316036224365
1707164615718072800,4.96007275390625,1.1882768869400024,9.501553535461426,2.11633038520813
1707164615737032400,4.979032470703125,1.2922892570495605,9.519585609436035,1.969223976135254
1707164615755992000,4.997991943359375,1.402910590171814,9.532883644104004,1.823837399482727
1707164615774951700,5.01695166015625,1.510831356048584,9.542028427124023,1.6844830513000488
1707164615793911300,5.035911376953125,1.6083126068115234,9.548333168029785,1.5533989667892456
1707164615812870700,5.05487060546875,1.6908482313156128,9.552849769592285,1.4333488941192627
1707164615831830300,5.073830322265625,1.7544777393341064,9.557043075561523,1.3248093128204346
1707164615850790000,5.092789794921875,1.7954814434051514,9.562385559082031,1.2277727127075195
1707164615869749500,5.11174951171875,1.816217303276062,9.569123268127441,1.1417591571807861
1707164615888709000,5.130709228515625,1.8220925331115723,9.57689380645752,1.064642310142517
1707164615907668700,5.149668701171875,1.8157732486724854,9.58604907989502,0.990469217300415
1707164615926628400,5.16862841796875,1.8035365343093872,9.596010208129883,0.9133578538894653
1707164615945588000,5.187587890625,1.7941175699234009,9.604220390319824,0.8429107069969177
1707164615964547300,5.20654736328125,1.7859973907470703,9.610486030578613,0.786867082118988
1707164615983507000,5.2255068359375,1.765589952468872,9.61765193939209,0.7442129254341125
1707164616002466800,5.244466796875,1.7315469980239868,9.625048637390137,0.7284060716629028
1707164616021426200,5.26342626953125,1.6883597373962402,9.630936622619629,0.7515794634819031
1707164616040385800,5.2823857421875,1.6131162643432617,9.641138076782227,0.7853008508682251
1707164616059345400,5.301345458984375,1.4991471767425537,9.657832145690918,0.8057427406311035
1707164616078305000,5.320304931640625,1.3797297477722168,9.673592567443848,0.8296554684638977
1707164616097264600,5.3392646484375,1.280969500541687,9.684131622314453,0.864353358745575
1707164616116224300,5.358224365234375,1.1928471326828003,9.689716339111328,0.9256882071495056
1707164616135184000,5.377183837890625,1.1070317029953003,9.690383911132812,1.0204523801803589
1707164616154143500,5.3961435546875,1.019710898399353,9.685270309448242,1.151565432548523
1707164616173102800,5.415102783203125,0.9259461760520935,9.673323631286621,1.3190197944641113
1707164616192062500,5.4340625,0.8298514485359192,9.6551513671875,1.5032566785812378
1707164616211022000,5.45302197265625,0.7372055649757385,9.632631301879883,1.6850332021713257
1707164616229981700,5.471981689453125,0.6508687734603882,9.605966567993164,1.8633742332458496
1707164616248941300,5.49094140625,0.5709431171417236,9.573392868041992,2.0480613708496094
1707164616267901000,5.50990087890625,0.5001968145370483,9.531745910644531,2.2507801055908203
1707164616286860500,5.528860595703125,0.4433644115924835,9.476806640625,2.482731819152832
1707164616305820200,5.547820068359375,0.39840343594551086,9.40467357635498,2.7502360343933105
1707164616324779500,5.566779541015625,0.35928162932395935,9.3136625289917,3.0490989685058594
1707164616343739100,5.5857392578125,0.31974706053733826,9.202754020690918,3.3730483055114746
1707164616362698800,5.60469873046875,0.2718135118484497,9.072830200195312,3.71217679977417
1707164616381658400,5.623658447265625,0.21135583519935608,8.928014755249023,4.051700592041016
1707164616400618000,5.642617919921875,0.13379789888858795,8.776357650756836,4.3735575675964355
1707164616419577600,5.66157763671875,0.03877883777022362,8.629878044128418,4.657691955566406
1707164616438537200,5.680537109375,-0.05773816630244255,8.500919342041016,4.888907432556152
1707164616457496800,5.699496826171875,-0.1391780525445938,8.396223068237305,5.06502103805542
1707164616476456200,5.718456298828125,-0.1962907612323761,8.318917274475098,5.189168930053711
1707164616495415800,5.737415771484375,-0.21748168766498566,8.270357131958008,5.265385150909424
1707164616514375400,5.75637548828125,-0.19978214800357819,8.247376441955566,5.302003383636475
1707164616533335000,5.7753349609375,-0.16686460375785828,8.240070343017578,5.314487457275391
1707164616552294700,5.794294677734375,-0.13749796152114868,8.264177322387695,5.277770519256592
1707164616571254300,5.813254150390625,-0.10201111435890198,8.35595703125,5.132053852081299
1707164616590214000,5.8322138671875,-0.06355778127908707,8.487862586975098,4.911469459533691
1707164616609173500,5.851173583984375,-0.016674375161528587,8.604339599609375,4.704833507537842
1707164616628133000,5.870133056640625,0.05794467777013779,8.68794059753418,4.548264503479004
1707164616647092700,5.8890927734375,0.15814456343650818,8.752004623413086,4.421288967132568
1707164616666052400,5.90805224609375,0.26237186789512634,8.82808780670166,4.262208461761475
1707164616685011700,5.92701171875,0.34619107842445374,8.926191329956055,4.046436309814453
1707164616703971300,5.945971435546875,0.399237722158432,9.027593612670898,3.8096652030944824
1707164616722931000,5.964930908203125,0.42593812942504883,9.115273475646973,3.5917630195617676
1707164616741890600,5.983890625,0.4466891884803772,9.190818786621094,3.391122817993164
1707164616760850200,6.00285009765625,0.4812377989292145,9.26294994354248,3.183795928955078
1707164616779809800,6.021809814453125,0.5379666686058044,9.336420059204102,2.9516470432281494
1707164616798769400,6.040769287109375,0.6200583577156067,9.408458709716797,2.695706605911255
1707164616817729000,6.05972900390625,0.7249284386634827,9.470373153686523,2.4406726360321045
1707164616836688600,6.078688720703125,0.8403483033180237,9.517017364501953,2.211465358734131
1707164616855648300,6.097648193359375,0.9560238122940063,9.550314903259277,2.0119383335113525
1707164616874607900,6.11660791015625,1.0662645101547241,9.574939727783203,1.8313963413238525
1707164616893567200,6.135567138671875,1.1615982055664062,9.595084190368652,1.6599500179290771
1707164616912526800,6.15452685546875,1.2314767837524414,9.613751411437988,1.4931960105895996
1707164616931486500,6.173486572265625,1.2703009843826294,9.632817268371582,1.3287409543991089
1707164616950446000,6.192446044921875,1.2848494052886963,9.652013778686523,1.165406346321106
1707164616969405700,6.21140576171875,1.285140037536621,9.669403076171875,1.0106713771820068
1707164616988365300,6.230365234375,1.2813812494277954,9.682962417602539,0.8767584562301636
1707164617007325000,6.249324951171875,1.2860691547393799,9.691274642944336,0.7717610001564026
1707164617026284500,6.268284423828125,1.2970212697982788,9.695934295654297,0.6906338334083557
1707164617045244200,6.287244140625,1.2965242862701416,9.700591087341309,0.62284255027771
1707164617064203800,6.306203857421875,1.2820054292678833,9.704792976379395,0.5863604545593262
1707164617083163400,6.325163330078125,1.2687686681747437,9.705998420715332,0.5951624512672424
1707164617102123000,6.344123046875,1.2372174263000488,9.708444595336914,0.6211105585098267
1707164617121082600,6.36308251953125,1.1768763065338135,9.714678764343262,0.6406028866767883
1707164617140042200,6.382042236328125,1.1207960844039917,9.719087600708008,0.6734556555747986
1707164617159001600,6.401001708984375,1.0788325071334839,9.718986511230469,0.7401370406150818
1707164617177961200,6.419961181640625,1.0427334308624268,9.714187622070312,0.8471341729164124
1707164617196920800,6.4389208984375,1.0050580501556396,9.704482078552246,0.9915993213653564
1707164617215880400,6.45788037109375,0.9591624140739441,9.689807891845703,1.165331482887268
1707164617234840000,6.476840087890625,0.8943787217140198,9.670792579650879,1.358771800994873
1707164617253799700,6.495799560546875,0.8066660761833191,9.647842407226562,1.561667561531067
1707164617272759300,6.51475927734375,0.7026452422142029,9.621936798095703,1.7592673301696777
1707164617291719000,6.533718994140625,0.5919845700263977,9.593517303466797,1.9453424215316772
1707164617310678500,6.552678466796875,0.4833022952079773,9.561190605163574,2.1261343955993652
1707164617329638100,6.57163818359375,0.3855017125606537,9.521136283874512,2.317270278930664
1707164617348597800,6.59059765625,0.3041948974132538,9.467394828796387,2.538952112197876
1707164617367557400,6.609557373046875,0.23881235718727112,9.395206451416016,2.8006181716918945
1707164617386517000,6.62851708984375,0.18487244844436646,9.302173614501953,3.099318027496338
1707164617405476600,6.6474765625,0.13310840725898743,9.186226844787598,3.430145502090454
1707164617424436200,6.666436279296875,0.071479432284832,9.043907165527344,3.7911770343780518
1707164617443395800,6.685395751953125,-0.00033443307620473206,8.878787994384766,4.163835525512695
1707164617462355500,6.70435546875,-0.07620962709188461,8.710184097290039,4.505248069763184
1707164617481315000,6.723315185546875,-0.1381232887506485,8.556218147277832,4.7898268699646
1707164617500274700,6.742274658203125,-0.17031879723072052,8.414566040039062,5.033535003662109
1707164617519234300,6.761234375,-0.1613561064004898,8.2760648727417,5.258432388305664
1707164617538194000,6.78019384765625,-0.10390347242355347,8.15020751953125,5.452863693237305
1707164617557153500,6.799153564453125,-0.009637806564569473,8.062214851379395,5.583098411560059
1707164617576113200,6.818113037109375,0.10142689198255539,8.02900505065918,5.629846096038818
1707164617595072800,6.83707275390625,0.20355503261089325,8.023636817932129,5.634730815887451
1707164617614032400,6.856032470703125,0.2722885310649872,8.022562026977539,5.633359909057617
1707164617632992000,6.874991943359375,0.29986950755119324,8.064984321594238,5.57103967666626
1707164617651951600,6.89395166015625,0.2906619608402252,8.17645263671875,5.406619548797607
1707164617670911200,6.9129111328125,0.26805737614631653,8.314096450805664,5.193680286407471
1707164617689870800,6.931870849609375,0.24932757019996643,8.435140609741211,4.995662212371826
1707164617708830500,6.95083056640625,0.2520076632499695,8.526986122131348,4.837083339691162
1707164617727789800,6.969789794921875,0.292328804731369,8.604086875915527,4.696235656738281
1707164617746749700,6.988749755859375,0.35222893953323364,8.693684577941895,4.523956298828125
1707164617765709300,7.007709228515625,0.4020700752735138,8.80626106262207,4.296336650848389
1707164617784668700,7.026668701171875,0.4323388338088989,8.924947738647461,4.04088830947876
1707164617803628500,7.045628662109375,0.45326751470565796,9.033340454101562,3.7899463176727295
1707164617822588200,7.064588134765625,0.47088393568992615,9.130875587463379,3.5462348461151123
1707164617841547500,7.083547607421875,0.489759236574173,9.223287582397461,3.2956767082214355
1707164617860507100,7.102507080078125,0.5178245306015015,9.311844825744629,3.0317962169647217
1707164617879467000,7.121467041015625,0.5649981498718262,9.390589714050293,2.7691147327423096
1707164617898426600,7.140426513671875,0.6371247172355652,9.45447063446045,2.525362014770508
1707164617917386000,7.159385986328125,0.7280871868133545,9.50444221496582,2.3034427165985107
1707164617936345900,7.178345947265625,0.8251444101333618,9.544251441955566,2.096853256225586
1707164617955305500,7.197305419921875,0.9146156311035156,9.577890396118164,1.8968068361282349
1707164617974264800,7.216264892578125,0.9794885516166687,9.608327865600586,1.7003021240234375
1707164617993224400,7.235224365234375,1.0135997533798218,9.635964393615723,1.513664722442627
1707164618012184300,7.254184326171875,1.0311039686203003,9.660045623779297,1.338181495666504
1707164618031143700,7.273143798828125,1.0505621433258057,9.679478645324707,1.1723436117172241
1707164618050103300,7.292103271484375,1.0761692523956299,9.69381046295166,1.020928978919983
1707164618069063200,7.311063232421875,1.1087656021118164,9.702832221984863,0.8922200798988342
1707164618088022500,7.3300224609375,1.1438475847244263,9.707903861999512,0.7865078449249268
1707164618106982100,7.348982177734375,1.1633634567260742,9.711175918579102,0.7141692042350769
1707164618125942000,7.36794189453125,1.163728952407837,9.712333679199219,0.6976344585418701
1707164618144901400,7.3869013671875,1.1257244348526,9.715104103088379,0.7210356593132019
1707164618163861000,7.405861083984375,1.0358695983886719,9.72436809539795,0.7307770252227783
1707164618182820600,7.424820556640625,0.9463972449302673,9.734373092651367,0.7188211679458618
1707164618201780500,7.443780517578125,0.8784773349761963,9.74087142944336,0.7169923186302185
1707164618220739800,7.46273974609375,0.8352819681167603,9.741432189941406,0.7597348690032959
1707164618239699500,7.481699462890625,0.8239263892173767,9.732887268066406,0.8731725215911865
1707164618258659300,7.500659423828125,0.8187310099601746,9.715394020080566,1.05413019657135
1707164618277618700,7.51961865234375,0.789803147315979,9.693285942077637,1.259684443473816
1707164618296578300,7.538578369140625,0.7379990816116333,9.668195724487305,1.4668864011764526
1707164618315538200,7.5575380859375,0.677972137928009,9.63949203491211,1.6706148386001587
1707164618334497500,7.57649755859375,0.6177459359169006,9.608065605163574,1.8638262748718262
1707164618353457200,7.59545703125,0.5577768087387085,9.574414253234863,2.046917200088501
1707164618372417000,7.6144169921875,0.49924352765083313,9.535109519958496,2.2366974353790283
1707164618391376400,7.63337646484375,0.4413825571537018,9.485726356506348,2.4487879276275635
1707164618410336000,7.6523359375,0.39117005467414856,9.422085762023926,2.69103741645813
1707164618429295900,7.6712958984375,0.3485681712627411,9.339963912963867,2.968834400177002
1707164618448255200,7.690255126953125,0.31429585814476013,9.23961067199707,3.271268844604492
1707164618467214800,7.70921484375,0.2846466302871704,9.125336647033691,3.580166816711426
1707164618486174700,7.7281748046875,0.24104030430316925,9.003167152404785,3.880110740661621
1707164618505134000,7.747134033203125,0.17210929095745087,8.880019187927246,4.157647132873535
1707164618524093700,7.76609375,0.08382149785757065,8.763360977172852,4.400778770446777
1707164618543053600,7.785053466796875,-0.013241606764495373,8.659640312194824,4.602263927459717
1707164618562013200,7.80401318359375,-0.10509886592626572,8.569296836853027,4.7672319412231445
1707164618580972500,7.82297265625,-0.18221525847911835,8.49659538269043,4.893367767333984
1707164618599932200,7.84193212890625,-0.23171460628509521,8.451828956604004,4.968228816986084
1707164618618892000,7.86089208984375,-0.2349558025598526,8.442242622375488,4.984348297119141
1707164618637851400,7.879851318359375,-0.19001008570194244,8.454580307006836,4.965314865112305
1707164618656811000,7.89881103515625,-0.13208435475826263,8.471840858459473,4.937696933746338
1707164618675771000,7.91777099609375,-0.07569953799247742,8.514784812927246,4.864473819732666
1707164618694730200,7.936730224609375,-0.02161323092877865,8.603188514709473,4.706916809082031
1707164618713689900,7.95568994140625,0.019907990470528603,8.703097343444824,4.519523620605469
1707164618732649700,7.974649658203125,0.058287907391786575,8.785171508789062,4.357492923736572
1707164618751609000,7.993609130859375,0.11296562105417252,8.858418464660645,4.205477714538574
1707164618770568700,8.012568603515625,0.18624712526798248,8.93765926361084,4.031617641448975
1707164618789528600,8.031528564453126,0.24964578449726105,9.024253845214844,3.8302626609802246
1707164618808488000,8.050488037109375,0.2965821325778961,9.11121940612793,3.614985704421997
1707164618827447600,8.069447509765626,0.3454446494579315,9.19294548034668,3.397177219390869
1707164618846407200,8.0884072265625,0.4110618531703949,9.267468452453613,3.1804802417755127
1707164618865367000,8.107366943359375,0.4975787103176117,9.336007118225098,2.9600305557250977
1707164618884326400,8.126326416015624,0.6064876317977905,9.400396347045898,2.7267370223999023
1707164618903286000,8.1452861328125,0.7341075539588928,9.460522651672363,2.475879192352295
1707164618922246000,8.164245849609374,0.8722330927848816,9.512145042419434,2.2200698852539062
1707164618941205200,8.183205322265625,1.0087640285491943,9.551950454711914,1.9781367778778076
1707164618960164900,8.202164794921876,1.1361782550811768,9.580829620361328,1.7570394277572632
1707164618979124700,8.221124755859375,1.25087571144104,9.601009368896484,1.5576646327972412
1707164618998084000,8.240083984375,1.3466835021972656,9.614992141723633,1.3815745115280151
1707164619017043700,8.259043701171874,1.4163774251937866,9.625078201293945,1.2337522506713867
1707164619036003300,8.27800341796875,1.4551656246185303,9.633941650390625,1.1135739088058472
1707164619054963000,8.296962890625,1.467903733253479,9.642847061157227,1.0154606103897095
1707164619073922600,8.315922607421875,1.4701210260391235,9.650818824768066,0.933177649974823
1707164619092882200,8.334882080078126,1.4710369110107422,9.657879829406738,0.8554473519325256
1707164619111841800,8.353841796875,1.4670743942260742,9.664995193481445,0.7784296274185181
1707164619130801400,8.372801513671876,1.4554524421691895,9.671626091003418,0.7153288722038269
1707164619149761000,8.391760986328125,1.440421223640442,9.676629066467285,0.6770731806755066
1707164619168720600,8.410720703125,1.429336667060852,9.677661895751953,0.6857413649559021
1707164619187680300,8.42968017578125,1.4164707660675049,9.675034523010254,0.7467923760414124
1707164619206639900,8.448639892578125,1.3538023233413696,9.67919921875,0.8066598176956177
1707164619225599500,8.467599609375,1.2543691396713257,9.690196990966797,0.8348817229270935
1707164619244559000,8.48655908203125,1.1539262533187866,9.701281547546387,0.8508568406105042
1707164619263518700,8.505518798828126,1.0468254089355469,9.710427284240723,0.8843942880630493
1707164619282478300,8.524478271484375,0.9413824677467346,9.714768409729004,0.9526109099388123
1707164619301438000,8.54343798828125,0.8446325659751892,9.71298599243164,1.0558807849884033
1707164619320397600,8.5623974609375,0.7558572888374329,9.705432891845703,1.184752345085144
1707164619339357200,8.581357177734375,0.6715167760848999,9.692543983459473,1.3319287300109863
1707164619358316800,8.60031689453125,0.5940604209899902,9.675332069396973,1.485066294670105
1707164619377276400,8.6192763671875,0.5279581546783447,9.654826164245605,1.635839819908142
1707164619396236000,8.638236083984374,0.47674569487571716,9.630788803100586,1.7863370180130005
1707164619415195600,8.657195556640625,0.44358131289482117,9.600765228271484,1.9490861892700195
1707164619434155300,8.6761552734375,0.43131276965141296,9.561064720153809,2.1378493309020996
1707164619453115000,8.695114990234375,0.440077006816864,9.507972717285156,2.361180067062378
1707164619472074500,8.714074462890625,0.46622297167778015,9.4391508102417,2.6182925701141357
1707164619491034000,8.7330341796875,0.49830034375190735,9.355428695678711,2.897935152053833
1707164619509993700,8.75199365234375,0.5239299535751343,9.25893497467041,3.188732624053955
1707164619528953300,8.770953369140624,0.534739077091217,9.151167869567871,3.4843339920043945
1707164619547913000,8.789912841796875,0.5220133066177368,9.034645080566406,3.777970790863037
1707164619566872600,8.80887255859375,0.48869073390960693,8.91446304321289,4.057576656341553
1707164619585832200,8.827832275390625,0.42641282081604004,8.802803039550781,4.301072120666504
1707164619604791800,8.846791748046876,0.3295985162258148,8.71224594116211,4.489824295043945
1707164619623751200,8.865751220703125,0.2238437533378601,8.646498680114746,4.621509552001953
1707164619642711000,8.8847109375,0.12604902684688568,8.605385780334473,4.701258182525635
1707164619661670700,8.903670654296874,0.0645829513669014,8.586905479431152,4.736166000366211
1707164619680630300,8.92263037109375,0.04433894529938698,8.579987525939941,4.748919486999512
1707164619699589600,8.941589599609374,0.029977792873978615,8.574311256408691,4.75927209854126
1707164619718549500,8.960549560546875,0.015755632892251015,8.591712951660156,4.727856636047363
1707164619737509000,8.979509033203126,0.00546015752479434,8.656941413879395,4.607355117797852
1707164619756468500,8.998468505859375,-0.005407106131315231,8.748697280883789,4.4306488037109375
1707164619775428000,9.017427978515625,-0.007860015146434307,8.830097198486328,4.266112804412842
1707164619794388000,9.036387939453125,0.02894960716366768,8.894798278808594,4.129420757293701
1707164619813347300,9.055347412109375,0.11640792340040207,8.954292297363281,3.9971837997436523
1707164619832307000,9.074306884765624,0.21924017369747162,9.02237606048584,3.836542844772339
1707164619851266600,9.0932666015625,0.30438539385795593,9.101255416870117,3.6393539905548096
1707164619870226200,9.11222607421875,0.36192870140075684,9.180571556091309,3.4287760257720947
1707164619889185800,9.131185791015625,0.4013773202896118,9.252422332763672,3.225208282470703
1707164619908145400,9.1501455078125,0.44031965732574463,9.318239212036133,3.0243887901306152
1707164619927105000,9.16910498046875,0.4963463842868805,9.382061004638672,2.810863733291626
1707164619946064600,9.188064697265625,0.5800986289978027,9.444319725036621,2.5765700340270996
1707164619965024300,9.207024169921874,0.6936492919921875,9.500322341918945,2.330904722213745
1707164619983983900,9.22598388671875,0.8315014243125916,9.544633865356445,2.0925962924957275
1707164620002943500,9.244943603515624,0.9824835062026978,9.575883865356445,1.872847557067871
1707164620021903000,9.263903076171875,1.1312702894210815,9.59599781036377,1.6755411624908447
1707164620040862700,9.28286279296875,1.263886570930481,9.608567237854004,1.499466896057129
1707164620059822300,9.301822265625,1.3694992065429688,9.617241859436035,1.3429490327835083
1707164620078781700,9.32078173828125,1.43820321559906,9.625269889831543,1.2067055702209473
1707164620097741600,9.339741455078125,1.4691892862319946,9.634819030761719,1.0872646570205688
1707164620116701200,9.358701171875,1.4771102666854858,9.644848823547363,0.9825628399848938
1707164620135660500,9.37766064453125,1.4806588888168335,9.653307914733887,0.8897619843482971
1707164620154620200,9.3966201171875,1.4885368347167969,9.659424781799316,0.8063256144523621
1707164620173579800,9.415579833984374,1.4949655532836914,9.66420841217041,0.7338588237762451
1707164620192539400,9.434539306640625,1.4855890274047852,9.668963432312012,0.6888855695724487
1707164620211499000,9.4534990234375,1.450076699256897,9.673640251159668,0.6988150477409363
1707164620230458600,9.472458740234375,1.3899918794631958,9.67906379699707,0.7443405985832214
1707164620249418200,9.491418212890625,1.301194190979004,9.690157890319824,0.7603439092636108
1707164620268377900,9.5103779296875,1.2139272689819336,9.70260238647461,0.7458305954933167
1707164620287337500,9.52933740234375,1.155062198638916,9.7095947265625,0.7483177185058594
1707164620306297000,9.548297119140624,1.121242642402649,9.708986282348633,0.805469810962677
1707164620325256700,9.567256591796875,1.0948057174682617,9.701805114746094,0.9201967120170593
1707164620344216300,9.58621630859375,1.0626055002212524,9.690949440002441,1.0614906549453735
1707164620363176000,9.605176025390625,1.0189449787139893,9.678539276123047,1.207479476928711
1707164620382135600,9.624135498046876,0.9584373831748962,9.66483211517334,1.3575001955032349
1707164620401095200,9.64309521484375,0.8816401958465576,9.649344444274902,1.5110408067703247
1707164620420054500,9.662054443359375,0.8023609519004822,9.630744934082031,1.6659373044967651
1707164620439014100,9.68101416015625,0.7346013784408569,9.60764217376709,1.8231719732284546
1707164620457973800,9.699973876953125,0.6886022090911865,9.576723098754883,1.9956459999084473
1707164620476933400,9.718933349609374,0.6684859991073608,9.533642768859863,2.198448657989502
1707164620495893000,9.73789306640625,0.6713699102401733,9.474959373474121,2.4381980895996094
1707164620514852600,9.7568525390625,0.6885385513305664,9.399179458618164,2.7114081382751465
1707164620533812200,9.775812255859375,0.7059775590896606,9.308295249938965,3.004601001739502
1707164620552771800,9.794771728515625,0.7151533961296082,9.204705238342285,3.3064112663269043
1707164620571731500,9.8137314453125,0.7099760174751282,9.089091300964355,3.6131339073181152
1707164620590691000,9.832691162109375,0.6908079385757446,8.95904541015625,3.927936315536499
1707164620609650700,9.851650634765624,0.6666539311408997,8.81721019744873,4.240607738494873
1707164620628610000,9.870610107421875,0.6388339400291443,8.68088436126709,4.5171356201171875
1707164620647570000,9.88956982421875,0.5962099432945251,8.569037437438965,4.731438636779785
1707164620666529500,9.908529541015625,0.5344530940055847,8.490936279296875,4.877370834350586
1707164620685489000,9.927489013671876,0.4647405743598938,8.445605278015137,4.962474346160889
1707164620704448500,9.946448486328125,0.41891857981681824,8.422944068908691,5.004888534545898
1707164620723408100,9.965408203125,0.43026065826416016,8.419605255126953,5.009540557861328
1707164620742367700,9.98436767578125,0.48496121168136597,8.432801246643066,4.982274055480957
1707164620761327400,10.003327392578125,0.5447825193405151,8.46536922454834,4.9204792976379395
1707164620780287000,10.022286865234374,0.6055012345314026,8.540943145751953,4.780797481536865
1707164620799246600,10.04124658203125,0.6664327383041382,8.65563678741455,4.5613813400268555
1707164620818206200,10.060206298828126,0.723651111125946,8.763527870178223,4.3413472175598145
1707164620837165600,10.07916552734375,0.7870471477508545,8.835875511169434,4.180698871612549
1707164620856125200,10.098125244140626,0.8677595853805542,8.887129783630371,4.054171562194824
1707164620875084800,10.117084716796874,0.9508283734321594,8.949657440185547,3.8948605060577393
1707164620894044400,10.13604443359375,0.999994158744812,9.031722068786621,3.687601089477539
1707164620913004000,10.155004150390624,1.005902647972107,9.11650276184082,3.4710135459899902
1707164620931963600,10.173963623046875,0.9904043078422546,9.190675735473633,3.2742867469787598
1707164620950923300,10.19292333984375,0.9734725952148438,9.256961822509766,3.087298631668091
1707164620969883000,10.2118828125,0.9703370928764343,9.322468757629395,2.884514808654785
1707164620988842500,10.230842529296876,0.9897364377975464,9.389910697937012,2.6496012210845947
1707164621007802000,10.249802001953125,1.0322786569595337,9.454627990722656,2.390566349029541
1707164621026761700,10.26876171875,1.0959752798080444,9.508852005004883,2.1332969665527344
1707164621045721000,10.28772119140625,1.1759097576141357,9.548187255859375,1.9025635719299316
1707164621064680700,10.3066806640625,1.260672688484192,9.574857711791992,1.7038732767105103
1707164621083640300,10.325640380859374,1.3431757688522339,9.59250545501709,1.5330097675323486
1707164621102600000,10.344599853515625,1.4134198427200317,9.604776382446289,1.3859598636627197
1707164621121559600,10.3635595703125,1.4641413688659668,9.614609718322754,1.259346604347229
1707164621140519200,10.382519287109375,1.4956905841827393,9.623673439025879,1.1481372117996216
1707164621159478800,10.401478759765626,1.5195943117141724,9.631081581115723,1.0504765510559082
1707164621178438100,10.420438232421875,1.541414737701416,9.63614559173584,0.9690823554992676
1707164621197397800,10.439397705078125,1.5643812417984009,9.638279914855957,0.9092037081718445
1707164621216357400,10.458357421875,1.5903414487838745,9.637640953063965,0.8701103329658508
1707164621235317000,10.47731689453125,1.602583885192871,9.639199256896973,0.8294289112091064
1707164621254276600,10.496276611328126,1.5850589275360107,9.646834373474121,0.7723721265792847
1707164621273236200,10.515236328125,1.542745590209961,9.65737533569336,0.7248658537864685
1707164621292195800,10.53419580078125,1.4898606538772583,9.665304183959961,0.7297927141189575
1707164621311155500,10.553155517578125,1.4011280536651611,9.674604415893555,0.7805505394935608
1707164621330114800,10.57211474609375,1.2739369869232178,9.68763542175293,0.8349782228469849
1707164621349074400,10.591074462890624,1.1450014114379883,9.699222564697266,0.8856822848320007
1707164621368034000,10.610033935546875,1.032548427581787,9.70459270477295,0.9618330001831055
1707164621386993700,10.62899365234375,0.9236612319946289,9.702202796936035,1.0883455276489258
1707164621405953300,10.647953369140625,0.8089466691017151,9.691463470458984,1.2615610361099243
1707164621424913000,10.666912841796876,0.6930463910102844,9.67168140411377,1.4658241271972656
1707164621443872500,10.68587255859375,0.5772378444671631,9.645135879516602,1.6758705377578735
1707164621462832000,10.70483203125,0.46981915831565857,9.615425109863281,1.869030475616455
1707164621481791500,10.72379150390625,0.3763957917690277,9.584257125854492,2.0422351360321045
1707164621500751000,10.742751220703125,0.29620081186294556,9.551822662353516,2.2012107372283936
1707164621519710700,10.761710693359374,0.22751782834529877,9.516475677490234,2.3569724559783936
1707164621538670300,10.78067041015625,0.17045634984970093,9.470909118652344,2.5383477210998535
1707164621557630000,10.7996298828125,0.12304230779409409,9.405125617980957,2.7746834754943848
1707164621576589600,10.818589599609375,0.07924951612949371,9.314023971557617,3.0680720806121826
1707164621595549200,10.837549072265626,0.03191530704498291,9.198286056518555,3.4001305103302
1707164621614508800,10.8565087890625,-0.025293609127402306,9.062148094177246,3.747960329055786
1707164621633468200,10.87546826171875,-0.0972248911857605,8.908712387084961,4.098265647888184
1707164621652427800,10.894427734375,-0.1761314570903778,8.742936134338379,4.438516139984131
1707164621671387400,10.913387451171875,-0.24569152295589447,8.576848983764648,4.748439311981201
1707164621690347000,10.932346923828124,-0.29771700501441956,8.423934936523438,5.011890888214111
1707164621709306600,10.951306640625,-0.3244956433773041,8.290897369384766,5.227437973022461
1707164621728266200,10.970266357421876,-0.3220362961292267,8.183547973632812,5.394090175628662
1707164621747225900,10.989225830078125,-0.2884049117565155,8.109370231628418,5.506843090057373
1707164621766185500,11.008185546875,-0.22571733593940735,8.069706916809082,5.5676984786987305
1707164621785144800,11.027144775390624,-0.16867555677890778,8.052762985229492,5.594189167022705
1707164621804104400,11.0461044921875,-0.1305232048034668,8.066763877868652,5.575002670288086
1707164621823064000,11.06506396484375,-0.09277793765068054,8.147605895996094,5.456949710845947
1707164621842023700,11.084023681640625,-0.05655033513903618,8.27786636352539,5.2577667236328125
1707164621860983300,11.1029833984375,-0.02348182536661625,8.400390625,5.0599684715271
1707164621879943000,11.12194287109375,0.02212582342326641,8.489956855773926,4.908210754394531
1707164621898902500,11.140902587890626,0.09415794909000397,8.559229850769043,4.785511016845703
1707164621917862100,11.159862060546875,0.16456566751003265,8.644989013671875,4.626821041107178
1707164621936821500,11.178821533203125,0.1949918568134308,8.758636474609375,4.4066596031188965
1707164621955781000,11.197781005859374,0.19297973811626434,8.876827239990234,4.163541793823242
1707164621974740700,11.21674072265625,0.1882718801498413,8.982081413269043,3.9315602779388428
1707164621993700400,11.235700439453124,0.20264822244644165,9.077455520629883,3.705284833908081
1707164622012660000,11.254659912109375,0.25023725628852844,9.17194652557373,3.461672067642212
1707164622031619600,11.27361962890625,0.33153870701789856,9.267683029174805,3.189124822616577
1707164622050579200,11.2925791015625,0.4377347230911255,9.359050750732422,2.896024465560913
1707164622069538800,11.311538818359375,0.5579231381416321,9.437065124511719,2.6078548431396484
1707164622088498400,11.33049853515625,0.6814280152320862,9.497614860534668,2.345498561859131
1707164622107458000,11.3494580078125,0.8007799983024597,9.542973518371582,2.112060070037842
1707164622126417700,11.368417724609374,0.9169942736625671,9.577749252319336,1.8963689804077148
1707164622145377000,11.387376953125,1.0279831886291504,9.604435920715332,1.6936485767364502
1707164622164336600,11.406336669921876,1.118245244026184,9.624048233032227,1.5157885551452637
1707164622183296300,11.425296142578125,1.1857401132583618,9.637266159057617,1.3738675117492676
1707164622202256000,11.444255859375,1.2426953315734863,9.646647453308105,1.2523232698440552
1707164622221215500,11.463215576171875,1.2960270643234253,9.654253959655762,1.134056568145752
1707164622240175000,11.482175048828125,1.3474637269973755,9.659880638122559,1.020503282546997
1707164622259134700,11.501134765625,1.3908230066299438,9.663129806518555,0.927322506904602
1707164622278094300,11.52009423828125,1.4180704355239868,9.664278030395508,0.8724690675735474
1707164622297054000,11.539053955078124,1.4217684268951416,9.665873527526855,0.8484476804733276
1707164622316013600,11.558013671875,1.4048051834106445,9.666630744934082,0.8678500056266785
1707164622334973200,11.57697314453125,1.3658437728881836,9.667583465576172,0.9179881811141968
1707164622353932800,11.595932861328125,1.278331995010376,9.677449226379395,0.9397966861724854
1707164622372892400,11.614892333984375,1.1631803512573242,9.693469047546387,0.9241489171981812
1707164622391852000,11.63385205078125,1.0723028182983398,9.704169273376465,0.9217625260353088
1707164622410811600,11.652811767578125,1.0135191679000854,9.704676628112793,0.9810311794281006
1707164622429771300,11.671771240234374,0.9796672463417053,9.694703102111816,1.1060633659362793
1707164622448731000,11.69073095703125,0.9552947878837585,9.676727294921875,1.2722949981689453
1707164622467690200,11.709690185546876,0.9243531823158264,9.652379035949707,1.4654452800750732
1707164622486650000,11.728650146484375,0.8813469409942627,9.622635841369629,1.6728712320327759
1707164622505609700,11.747609619140626,0.8328178524971008,9.589958190917969,1.8733662366867065
1707164622524569000,11.766569091796875,0.7832101583480835,9.557717323303223,2.051098585128784
1707164622543529000,11.785529052734375,0.7375039458274841,9.526047706604004,2.209275484085083
1707164622562488600,11.804488525390624,0.702275812625885,9.490765571594238,2.366971492767334
1707164622581448000,11.823447998046875,0.682563841342926,9.446064949035645,2.544869899749756
1707164622600407800,11.84240771484375,0.6777101159095764,9.387218475341797,2.755218505859375
1707164622619367400,11.861367431640625,0.6815539598464966,9.31121826171875,3.0011789798736572
1707164622638327000,11.8803271484375,0.6848044991493225,9.219100952148438,3.2725508213043213
1707164622657286700,11.89928662109375,0.6757230758666992,9.11384391784668,3.556913137435913
1707164622676246300,11.918246337890626,0.6501219868659973,8.996732711791992,3.8479247093200684
1707164622695206000,11.937205810546875,0.6104148626327515,8.872066497802734,4.133307456970215
1707164622714165500,11.95616552734375,0.5522854328155518,8.749771118164062,4.393959045410156
1707164622733125000,11.975125,0.47553157806396484,8.63782787322998,4.618678569793701
1707164622752084700,11.994084716796875,0.3928299844264984,8.53962230682373,4.805300712585449
1707164622771044400,12.01304443359375,0.31170228123664856,8.461414337158203,4.947494029998779
1707164622790004000,12.03200390625,0.2519441545009613,8.40791130065918,5.041224479675293
1707164622808963600,12.050963623046876,0.24579930305480957,8.380806922912598,5.086456298828125
1707164622827923200,12.069923095703125,0.279666543006897,8.374292373657227,5.095430850982666
1707164622846882800,12.0888828125,0.3186042606830597,8.395524024963379,5.058069229125977
1707164622865842400,12.107842529296875,0.362528920173645,8.47386646270752,4.92265510559082
1707164622884802000,12.126802001953125,0.42140698432922363,8.602106094360352,4.690051078796387
1707164622903761700,12.14576171875,0.4883512854576111,8.720405578613281,4.459420680999756
1707164622922721300,12.16472119140625,0.5658571720123291,8.804418563842773,4.281634330749512
1707164622941681000,12.183680908203126,0.6642258763313293,8.870383262634277,4.128617763519287
1707164622960640500,12.202640625,0.7482452988624573,8.946905136108398,3.9450504779815674
1707164622979600100,12.22160009765625,0.7830150723457336,9.04417896270752,3.709459066390991
1707164622998559700,12.240559814453125,0.7698734998703003,9.141764640808105,3.4649441242218018
1707164623017519600,12.25951953125,0.7367050647735596,9.225929260253906,3.241894006729126
1707164623036479000,12.27847900390625,0.709741473197937,9.298956871032715,3.032500982284546
1707164623055438800,12.29743896484375,0.7046136260032654,9.36809253692627,2.8129611015319824
1707164623074398500,12.3163984375,0.7320599555969238,9.436457633972168,2.5666589736938477
1707164623093358000,12.335358154296875,0.7959016561508179,9.499890327453613,2.299785614013672
1707164623112317700,12.354317626953126,0.8926094174385071,9.551815032958984,2.0338315963745117
1707164623131277300,12.37327734375,1.0088328123092651,9.58961296081543,1.7866050004959106
1707164623150237000,12.39223681640625,1.1328576803207397,9.615021705627441,1.5615293979644775
1707164623169196500,12.411196533203125,1.252890944480896,9.631355285644531,1.3556020259857178
1707164623188156200,12.43015625,1.3600150346755981,9.64110279083252,1.1704131364822388
1707164623207115800,12.44911572265625,1.4517133235931396,9.645431518554688,1.0141884088516235
1707164623226075400,12.468075439453125,1.5277092456817627,9.645501136779785,0.8948793411254883
1707164623245035300,12.48703515625,1.5954216718673706,9.642497062683105,0.804530918598175
1707164623263994600,12.50599462890625,1.6584532260894775,9.636994361877441,0.7404577732086182
1707164623282954500,12.52495458984375,1.716567873954773,9.629595756530762,0.7033201456069946
1707164623301914000,12.5439140625,1.7700194120407104,9.622214317321777,0.671123743057251
1707164623320873700,12.562873779296876,1.811403512954712,9.617744445800781,0.6230547428131104
1707164623339833300,12.581833251953125,1.829808235168457,9.616888999938965,0.5810691714286804
1707164623358793000,12.60079296875,1.8148338794708252,9.619702339172363,0.5814782977104187
1707164623377752600,12.619752685546874,1.759813666343689,9.62849235534668,0.6046285033226013
1707164623396712200,12.638712158203125,1.6487326622009277,9.647422790527344,0.6158862709999084
1707164623415671800,12.657671875,1.5119520425796509,9.668956756591797,0.6290130019187927
1707164623434631400,12.67663134765625,1.3878209590911865,9.684638977050781,0.672390878200531
1707164623453591300,12.69559130859375,1.2921217679977417,9.691701889038086,0.7561206817626953
1707164623472550700,12.714550537109375,1.2307204008102417,9.689383506774902,0.8783876299858093
1707164623491510500,12.733510498046876,1.1927162408828735,9.678174018859863,1.0396029949188232
1707164623510470100,12.75247021484375,1.1645716428756714,9.659379005432129,1.2290489673614502
1707164623529429800,12.7714296875,1.134128212928772,9.636775970458984,1.4201035499572754
1707164623548389400,12.790389404296874,1.0972025394439697,9.614397048950195,1.5905619859695435
1707164623567349000,12.809348876953125,1.0576688051223755,9.594632148742676,1.730539083480835
1707164623586308600,12.82830859375,1.015965223312378,9.576229095458984,1.8531156778335571
1707164623605268200,12.847268310546875,0.9705589413642883,9.554710388183594,1.9839144945144653
1707164623624227800,12.866227783203126,0.924527645111084,9.523756980895996,2.1479532718658447
1707164623643187500,12.8851875,0.8833717107772827,9.477733612060547,2.3585188388824463
1707164623662147300,12.904147216796876,0.8473880887031555,9.4141206741333,2.612785577774048
1707164623681107000,12.92310693359375,0.8151490688323975,9.334833145141602,2.892543077468872
1707164623700066600,12.942066650390625,0.7828311920166016,9.242863655090332,3.182300329208374
1707164623719026200,12.961026123046874,0.7397519946098328,9.139453887939453,3.477574348449707
1707164623737985800,12.97998583984375,0.6817837953567505,9.025676727294922,3.7739531993865967
1707164623756945400,12.9989453125,0.6087619066238403,8.910404205322266,4.05024528503418
1707164623775905000,13.017905029296875,0.5189008712768555,8.806750297546387,4.2827887535095215
1707164623794864600,13.03686474609375,0.4163926839828491,8.720562934875488,4.46640682220459
1707164623813824500,13.055824462890625,0.315311461687088,8.653051376342773,4.603875160217285
1707164623832784000,13.074783935546876,0.2511085569858551,8.607559204101562,4.692254543304443
1707164623851743700,13.09374365234375,0.25187692046165466,8.590852737426758,4.72273063659668
1707164623870703400,13.112703369140625,0.2923175096511841,8.591961860656738,4.718383312225342
1707164623889663000,13.1316630859375,0.3324047327041626,8.60372257232666,4.694234371185303
1707164623908622600,13.15062255859375,0.35165175795555115,8.656278610229492,4.5951690673828125
1707164623927582200,13.169582275390624,0.36255040764808655,8.760549545288086,4.392232418060303
1707164623946541800,13.188541748046875,0.3810768127441406,8.87179946899414,4.161289691925049
1707164623965501400,13.20750146484375,0.4121593236923218,8.95387077331543,3.9785327911376953
1707164623984461300,13.22646142578125,0.4627922475337982,9.014482498168945,3.833446502685547
1707164624003420700,13.245420654296876,0.5130523443222046,9.078144073486328,3.673480987548828
1707164624022380500,13.264380615234375,0.5318623185157776,9.155482292175293,3.473423719406128
1707164624041340200,13.283340087890625,0.524653971195221,9.234673500061035,3.258211851119995
1707164624060299800,13.3022998046875,0.518699049949646,9.304972648620605,3.0526740550994873
1707164624079259400,13.32125927734375,0.5377042293548584,9.36917495727539,2.846020221710205
1707164624098219000,13.340218994140624,0.5910214781761169,9.431407928466797,2.6209964752197266
1707164624117178600,13.3591787109375,0.6805539131164551,9.493032455444336,2.3642239570617676
1707164624136138200,13.37813818359375,0.8054450154304504,9.548770904541016,2.0838937759399414
1707164624155097900,13.397097900390625,0.9543657302856445,9.590538024902344,1.811392068862915
1707164624174057500,13.416057373046876,1.1114177703857422,9.617416381835938,1.5621910095214844
1707164624193017300,13.435017333984375,1.2625867128372192,9.632880210876465,1.3356142044067383
1707164624211976700,13.453976806640625,1.3951549530029297,9.64077377319336,1.1311044692993164
1707164624230936600,13.4729365234375,1.5011579990386963,9.644317626953125,0.9508118033409119
1707164624249896200,13.491896240234375,1.576819658279419,9.646111488342285,0.7978440523147583
1707164624268855800,13.510855712890624,1.6243324279785156,9.648175239562988,0.6668093204498291
1707164624287815400,13.5298154296875,1.6451746225357056,9.651298522949219,0.562332808971405
1707164624306775000,13.548775146484376,1.6458580493927002,9.655006408691406,0.49232539534568787
1707164624325734700,13.567734619140625,1.6374808549880981,9.658825874328613,0.4428519606590271
1707164624344694300,13.5866943359375,1.6298999786376953,9.661745071411133,0.4055740237236023
1707164624363654000,13.60565380859375,1.619255781173706,9.664484024047852,0.38228633999824524
1707164624382613500,13.624613525390625,1.5944985151290894,9.667951583862305,0.39835333824157715
1707164624401573400,13.643573486328124,1.5481175184249878,9.672419548034668,0.46692079305648804
1707164624420532700,13.66253271484375,1.4635999202728271,9.681692123413086,0.5413983464241028
1707164624439492400,13.681492431640624,1.3547667264938354,9.694815635681152,0.5878236293792725
1707164624458452200,13.7004521484375,1.262453556060791,9.704174041748047,0.6368650794029236
1707164624477411800,13.719411865234376,1.1934309005737305,9.705748558044434,0.7379338145256042
1707164624496371500,13.738371337890625,1.1511249542236328,9.695846557617188,0.9142569899559021
1707164624515331000,13.7573310546875,1.128156304359436,9.673386573791504,1.1503173112869263
1707164624534290700,13.776290771484375,1.107445240020752,9.639787673950195,1.4207218885421753
1707164624553250300,13.795250244140625,1.0717543363571167,9.600010871887207,1.691605567932129
1707164624572210000,13.8142099609375,1.0175405740737915,9.560569763183594,1.931447982788086
1707164624591169500,13.83316943359375,0.9540079236030579,9.525596618652344,2.1267991065979004
1707164624610129200,13.852129150390626,0.8845160603523254,9.49413776397705,2.291149854660034
1707164624629088800,13.8710888671875,0.8118043541908264,9.459457397460938,2.4556124210357666
1707164624648048400,13.89004833984375,0.7422994375228882,9.413108825683594,2.648160219192505
1707164624667008300,13.90900830078125,0.6814324259757996,9.348180770874023,2.8840157985687256
1707164624685968000,13.9279677734375,0.6296848058700562,9.261610984802246,3.161712884902954
1707164624704927500,13.946927490234375,0.5819402933120728,9.154685020446777,3.4674882888793945
1707164624723887000,13.96588720703125,0.532103419303894,9.030083656311035,3.7874579429626465
1707164624742846700,13.9848466796875,0.4719734787940979,8.889373779296875,4.114202499389648
1707164624761806300,14.003806396484375,0.39853620529174805,8.73206901550293,4.445506572723389
1707164624780766000,14.022765869140626,0.3181288540363312,8.563231468200684,4.768672943115234
1707164624799725600,14.0417255859375,0.23917372524738312,8.405498504638672,5.045867919921875
1707164624818685200,14.060685302734376,0.15969666838645935,8.290060043334961,5.236390590667725
1707164624837644800,14.079644775390625,0.0720059797167778,8.225870132446289,5.33856201171875
1707164624856604400,14.0986044921875,-0.008149669505655766,8.201519966125488,5.376373291015625
1707164624875564000,14.11756396484375,-0.030658364295959473,8.205105781555176,5.3708176612854
1707164624894523600,14.136523681640625,0.009619694203138351,8.230992317199707,5.33113956451416
1707164624913483300,14.155483154296874,0.07307766377925873,8.271977424621582,5.266824722290039
1707164624932443000,14.17444287109375,0.14874562621116638,8.343864440917969,5.150550842285156
1707164624951402800,14.19340283203125,0.25247448682785034,8.469531059265137,4.936971187591553
1707164624970362000,14.212362060546875,0.387696772813797,8.620612144470215,4.658874988555908
1707164624989322000,14.231322021484376,0.5398421287536621,8.746832847595215,4.401349067687988
1707164625008281600,14.250281494140625,0.6957841515541077,8.831892013549805,4.205228805541992
1707164625027241000,14.269240966796875,0.8477954864501953,8.900345802307129,4.029325485229492
1707164625046200800,14.288200927734374,0.9731863141059875,8.980194091796875,3.8182995319366455
1707164625065160400,14.307160400390625,1.0456923246383667,9.072409629821777,3.573275327682495
1707164625084120000,14.3261201171875,1.0714079141616821,9.163684844970703,3.324054718017578
1707164625103079700,14.34507958984375,1.0783302783966064,9.246061325073242,3.085115432739258
1707164625122039300,14.364039306640626,1.0838840007781982,9.321383476257324,2.847346067428589
1707164625140999000,14.3829990234375,1.0941493511199951,9.3955659866333,2.5877726078033447
1707164625159958500,14.40195849609375,1.1105601787567139,9.469127655029297,2.2962257862091064
1707164625178918100,14.420918212890625,1.1335300207138062,9.535531997680664,1.989754319190979
1707164625197877800,14.439877685546875,1.1606744527816772,9.58790397644043,1.7015644311904907
1707164625216837400,14.45883740234375,1.1902897357940674,9.62488079071045,1.4544034004211426
1707164625235797000,14.477796875,1.2189394235610962,9.650023460388184,1.2496514320373535
1707164625254756600,14.496756591796874,1.238316297531128,9.66878604888916,1.0730926990509033
1707164625273716200,14.51571630859375,1.2418748140335083,9.684000015258789,0.9210204482078552
1707164625292675800,14.53467578125,1.230171799659729,9.69605541229248,0.8022297620773315
1707164625311635500,14.553635498046875,1.200714349746704,9.706271171569824,0.7189949154853821
1707164625330595000,14.572594970703125,1.1517930030822754,9.716568946838379,0.6573077440261841
1707164625349555000,14.591554931640625,1.1064311265945435,9.725223541259766,0.6051551103591919
1707164625368514300,14.610514404296875,1.0753008127212524,9.731668472290039,0.555648684501648
1707164625387474000,14.629473876953124,1.0486656427383423,9.737081527709961,0.5098513960838318
1707164625406433800,14.648433837890625,1.0242516994476318,9.740453720092773,0.4948407709598541
1707164625425393200,14.66739306640625,1.0092025995254517,9.739348411560059,0.5449718832969666
1707164625444352800,14.686352783203125,0.9710677266120911,9.737364768981934,0.6412078142166138
1707164625463312600,14.705312744140626,0.8661145567893982,9.741843223571777,0.7188361287117004
1707164625482272000,14.72427197265625,0.7373557686805725,9.74887466430664,0.7656046748161316
1707164625501231900,14.74323193359375,0.6226636171340942,9.751673698425293,0.8291833996772766
1707164625520191500,14.76219140625,0.5251922011375427,9.746916770935059,0.9445453882217407
1707164625539151000,14.781151123046875,0.44450312852859497,9.732887268066406,1.115217685699463
1707164625558110700,14.80011083984375,0.37808001041412354,9.709446907043457,1.3244186639785767
1707164625577070300,14.8190703125,0.32364803552627563,9.677364349365234,1.5537903308868408
1707164625596030000,14.838030029296876,0.27739161252975464,9.638371467590332,1.7875232696533203
1707164625614989600,14.856989501953125,0.23876284062862396,9.595131874084473,2.011671781539917
1707164625633949200,14.87594921875,0.20756152272224426,9.550171852111816,2.2184488773345947
1707164625652908800,14.89490869140625,0.18168990314006805,9.505258560180664,2.4057087898254395
1707164625671868400,14.913868408203125,0.1687406748533249,9.461199760437012,2.574415922164917
1707164625690828000,14.932828125,0.17947173118591309,9.411664962768555,2.749316930770874
1707164625709787600,14.95178759765625,0.21344861388206482,9.341285705566406,2.9774487018585205
1707164625728747300,14.970747314453124,0.24471677839756012,9.241656303405762,3.271434783935547
1707164625747707000,14.989706787109375,0.27357956767082214,9.124120712280273,3.5841257572174072
1707164625766666500,15.00866650390625,0.2858414649963379,8.994786262512207,3.896472215652466
1707164625785626000,15.027626220703125,0.271330863237381,8.858200073242188,4.1986985206604
1707164625804585700,15.046585693359376,0.22292588651180267,8.720436096191406,4.480478763580322
1707164625823545300,15.06554541015625,0.12792158126831055,8.589083671569824,4.730926513671875
1707164625842505000,15.0845048828125,-0.006084016058593988,8.47296142578125,4.937536239624023
1707164625861464600,15.103464599609374,-0.15445475280284882,8.375051498413086,5.099515438079834
1707164625880424200,15.122424072265625,-0.2842920124530792,8.300886154174805,5.213910102844238
1707164625899383800,15.1413837890625,-0.36609676480293274,8.26138687133789,5.271228790283203
1707164625918343400,15.160343505859375,-0.38722413778305054,8.257772445678711,5.275380611419678
1707164625937303000,15.179302978515626,-0.3731380105018616,8.274370193481445,5.250330448150635
1707164625956262700,15.1982626953125,-0.3492373824119568,8.312909126281738,5.190758228302002
1707164625975222300,15.21722216796875,-0.3122602701187134,8.41018009185791,5.034059524536133
1707164625994182000,15.236181884765625,-0.25525012612342834,8.559745788574219,4.778701305389404
1707164626013141500,15.2551416015625,-0.16977359354496002,8.695334434509277,4.531304359436035
1707164626032101000,15.27410107421875,-0.05933874845504761,8.787296295166016,4.3531928062438965
1707164626051060700,15.293060791015625,0.08011443167924881,8.855143547058105,4.213120460510254
1707164626070020400,15.312020263671876,0.21968363225460052,8.9290132522583,4.049054145812988
1707164626088980000,15.33097998046875,0.3068608343601227,9.022628784179688,3.829935073852539
1707164626107939600,15.349939697265626,0.3159916400909424,9.127053260803223,3.573155403137207
1707164626126899200,15.368899169921875,0.2752505838871002,9.223600387573242,3.319610834121704
1707164626145858800,15.38785888671875,0.22693508863449097,9.306414604187012,3.083756685256958
1707164626164818400,15.406818359375,0.19646869599819183,9.38201904296875,2.847719669342041
1707164626183778000,15.425778076171875,0.20356985926628113,9.455074310302734,2.594325542449951
1707164626202737700,15.444737548828124,0.258926123380661,9.521951675415039,2.3314764499664307
1707164626221697300,15.463697265625,0.3634411692619324,9.575199127197266,2.0865931510925293
1707164626240657000,15.482656982421876,0.5036870241165161,9.612519264221191,1.8751426935195923
1707164626259616500,15.501616455078125,0.6583571434020996,9.637648582458496,1.688991904258728
1707164626278575900,15.520575927734376,0.8014030456542969,9.656773567199707,1.5082635879516602
1707164626297535700,15.53953564453125,0.9078490138053894,9.674910545349121,1.3199658393859863
1707164626316495400,15.558495361328125,0.9652726650238037,9.692252159118652,1.1396821737289429
1707164626335454700,15.577454833984374,0.9817134737968445,9.7066068649292,0.9941931962966919
1707164626354414300,15.596414306640625,0.9721490740776062,9.71639347076416,0.9038863182067871
1707164626373374000,15.6153740234375,0.9521462917327881,9.721253395080566,0.8723762631416321
1707164626392333600,15.63433349609375,0.9359524250030518,9.722310066223145,0.8780996799468994
1707164626411293200,15.653293212890626,0.9254162907600403,9.722891807556152,0.8828144669532776
1707164626430252800,15.672252685546875,0.9073219299316406,9.726128578186035,0.8657711744308472
1707164626449212400,15.69121240234375,0.8756129145622253,9.730674743652344,0.8471450209617615
1707164626468172000,15.710172119140625,0.8446499109268188,9.731304168701172,0.8710105419158936
1707164626487131600,15.729131591796875,0.8136441111564636,9.727972030639648,0.9353826642036438
1707164626506091300,15.74809130859375,0.739689290523529,9.729092597961426,0.9838786721229553
1707164626525051000,15.76705078125,0.6566544771194458,9.733779907226562,0.9963502287864685
1707164626544010500,15.786010498046876,0.5972470641136169,9.736330032348633,1.008745789527893
1707164626562970000,15.80497021484375,0.5575459003448486,9.733989715576172,1.0530740022659302
1707164626581929700,15.8239296875,0.5337804555892944,9.725780487060547,1.137833833694458
1707164626600889300,15.842889404296875,0.5217722058296204,9.711812019348145,1.256523609161377
1707164626619849000,15.861848876953125,0.5097519159317017,9.692861557006836,1.3996341228485107
1707164626638808600,15.88080859375,0.48568713665008545,9.67082691192627,1.5522903203964233
1707164626657768200,15.899768310546875,0.4518875479698181,9.648345947265625,1.6957560777664185
1707164626676727800,15.918727783203124,0.4133387506008148,9.62696647644043,1.8223809003829956
1707164626695687400,15.9376875,0.3739027678966522,9.605020523071289,1.9427225589752197
1707164626714647000,15.95664697265625,0.34089282155036926,9.578516960144043,2.075136661529541
1707164626733606700,15.975606689453125,0.3212049901485443,9.543477058410645,2.2336666584014893
1707164626752566300,15.994566162109376,0.3157675862312317,9.496950149536133,2.4245824813842773
1707164626771526000,16.01352587890625,0.3211362063884735,9.438302040100098,2.6430513858795166
1707164626790485200,16.0324853515625,0.32782769203186035,9.368651390075684,2.879459857940674
1707164626809444900,16.05144482421875,0.32280606031417847,9.289325714111328,3.126436471939087
1707164626828404700,16.07040478515625,0.29616764187812805,9.203474044799805,3.373237133026123
1707164626847364000,16.089364013671876,0.24231937527656555,9.113877296447754,3.6123270988464355
1707164626866323700,16.10832373046875,0.1620444357395172,9.023253440856934,3.8373191356658936
1707164626885283300,16.127283447265626,0.060208600014448166,8.938276290893555,4.034101963043213
1707164626904243000,16.146242919921875,-0.057737238705158234,8.86627197265625,4.190022945404053
1707164626923202600,16.16520263671875,-0.17461180686950684,8.8099365234375,4.304060459136963
1707164626942162200,16.184162109375,-0.2581027150154114,8.7733793258667,4.373966693878174
1707164626961121800,16.203121826171873,-0.279425710439682,8.762043952941895,4.395326614379883
1707164626980081400,16.222081298828126,-0.24146795272827148,8.768274307250977,4.3851399421691895
1707164626999041000,16.241041015625,-0.17474889755249023,8.787269592285156,4.350142478942871
1707164627018000600,16.260000732421876,-0.08595956861972809,8.839578628540039,4.245568752288818
1707164627036960300,16.278960205078125,0.029023904353380203,8.928511619567871,4.056008815765381
1707164627055919900,16.297919921875,0.15856528282165527,9.011666297912598,3.8645997047424316
1707164627074879500,16.31687939453125,0.2955613434314728,9.06633186340332,3.726213216781616
1707164627093839000,16.335839111328124,0.4404715895652771,9.103043556213379,3.6209065914154053
1707164627112798700,16.354798828125,0.5674116611480713,9.145951271057129,3.4928481578826904
1707164627131758300,16.37375830078125,0.6484484672546387,9.202692985534668,3.325709104537964
1707164627150718000,16.392718017578126,0.6861956119537354,9.260977745056152,3.151796340942383
1707164627169677600,16.411677490234375,0.7122654318809509,9.3113374710083,2.9936721324920654
1707164627188637200,16.43063720703125,0.7480308413505554,9.354439735412598,2.8469808101654053
1707164627207596800,16.4495966796875,0.8047062158584595,9.395615577697754,2.6917009353637695
1707164627226556400,16.468556396484374,0.8871201276779175,9.437439918518066,2.5135881900787354
1707164627245516000,16.48751611328125,0.9941288232803345,9.47754955291748,2.3147687911987305
1707164627264475600,16.5064755859375,1.110243797302246,9.511968612670898,2.111920118331909
1707164627283435300,16.525435302734376,1.2276791334152222,9.539945602416992,1.91118323802948
1707164627302395000,16.544394775390625,1.333367943763733,9.56228256225586,1.7190879583358765
1707164627321354500,16.5633544921875,1.419412612915039,9.578706741333008,1.550493836402893
1707164627340314000,16.582314208984375,1.4842745065689087,9.58926773071289,1.4188919067382812
1707164627359273700,16.601273681640624,1.532709002494812,9.596086502075195,1.3176859617233276
1707164627378233300,16.6202333984375,1.5716315507888794,9.601166725158691,1.2320562601089478
1707164627397193000,16.63919287109375,1.6009349822998047,9.605133056640625,1.1613835096359253
1707164627416152600,16.658152587890626,1.6251434087753296,9.607477188110352,1.1070958375930786
1707164627435112200,16.6771123046875,1.6569386720657349,9.60737419128418,1.0598561763763428
1707164627454071800,16.69607177734375,1.6872671842575073,9.606942176818848,1.0149705410003662
1707164627473031400,16.715031494140625,1.6934317350387573,9.609234809875488,0.982496440410614
1707164627491991300,16.7339912109375,1.6685134172439575,9.61284065246582,0.9898224472999573
1707164627510950700,16.75295068359375,1.6212390661239624,9.617830276489258,1.0194642543792725
1707164627529910300,16.77191015625,1.533066987991333,9.631877899169922,1.0232394933700562
1707164627548870100,16.7908701171875,1.4088960886001587,9.652918815612793,1.003277063369751
1707164627567829500,16.80982958984375,1.2853598594665527,9.670127868652344,1.0034230947494507
1707164627586789400,16.828789306640626,1.1813814640045166,9.677213668823242,1.0612608194351196
1707164627605749000,16.8477490234375,1.1007719039916992,9.673233985900879,1.1778024435043335
1707164627624708600,16.86670849609375,1.0364797115325928,9.660795211791992,1.328586459159851
1707164627643668200,16.885668212890625,0.9833579659461975,9.642199516296387,1.493782877922058
1707164627662627800,16.9046279296875,0.9332695007324219,9.62012767791748,1.6590747833251953
1707164627681587500,16.92358740234375,0.8828679919242859,9.59720230102539,1.8123563528060913
1707164627700547000,16.942547119140624,0.8355438113212585,9.57479190826416,1.948233723640442
1707164627719506700,16.961506591796876,0.7936436533927917,9.55167293548584,2.0751049518585205
1707164627738466300,16.98046630859375,0.7589268684387207,9.52481746673584,2.2073235511779785
1707164627757426000,16.999426025390626,0.7319036722183228,9.488675117492676,2.366377592086792
1707164627776385800,17.0183857421875,0.7106299996376038,9.437368392944336,2.56933331489563
1707164627795345200,17.03734521484375,0.690820574760437,9.368391036987305,2.8153834342956543
1707164627814305000,17.056304931640625,0.6662703156471252,9.282402992248535,3.092484474182129
1707164627833264600,17.0752646484375,0.6338642835617065,9.18071460723877,3.388669729232788
1707164627852224300,17.094224365234375,0.5901021957397461,9.0665864944458,3.690416097640991
1707164627871184000,17.113183837890624,0.5336435437202454,8.947941780090332,3.977431058883667
1707164627890143500,17.1321435546875,0.46793192625045776,8.833738327026367,4.232788562774658
1707164627909103000,17.15110302734375,0.40063178539276123,8.731627464294434,4.44618558883667
1707164627928062700,17.170062744140626,0.34134113788604736,8.647059440612793,4.613269805908203
1707164627947022300,17.189022216796875,0.2985242009162903,8.582871437072754,4.734509468078613
1707164627965982200,17.207982177734376,0.2818281948566437,8.542640686035156,4.807728290557861
1707164627984941800,17.22694189453125,0.3059140145778656,8.53579044342041,4.8184123039245605
1707164628003901400,17.2459013671875,0.3709176778793335,8.557598114013672,4.774971008300781
1707164628022861000,17.264861083984375,0.44130438566207886,8.59677505493164,4.697989463806152
1707164628041820700,17.283820556640624,0.5122243165969849,8.665642738342285,4.5623064041137695
1707164628060780300,17.3027802734375,0.5938349366188049,8.77769947052002,4.3324055671691895
1707164628079740000,17.321739990234374,0.6850299835205078,8.899544715881348,4.061923503875732
1707164628098699500,17.340699462890626,0.770463228225708,8.990571975708008,3.840102434158325
1707164628117659400,17.359659423828123,0.8689284920692444,9.043435096740723,3.6921017169952393
1707164628136619000,17.378618896484376,0.9788283705711365,9.08336067199707,3.5643856525421143
1707164628155578600,17.39757861328125,1.056368350982666,9.140114784240723,3.3930516242980957
1707164628174538200,17.416538330078126,1.0907970666885376,9.219337463378906,3.159804105758667
1707164628193497900,17.435497802734375,1.1039918661117554,9.295243263244629,2.9240458011627197
1707164628212457500,17.45445751953125,1.1118500232696533,9.354135513305664,2.726595640182495
1707164628231417300,17.473417236328125,1.1225441694259644,9.40108871459961,2.5553503036499023
1707164628250376700,17.492376708984374,1.1514801979064941,9.44260311126709,2.383634567260742
1707164628269336600,17.511336669921874,1.2133837938308716,9.478151321411133,2.2051618099212646
1707164628288296200,17.530296142578123,1.3094351291656494,9.504182815551758,2.031322956085205
1707164628307255800,17.549255859375,1.4298977851867676,9.520065307617188,1.8692600727081299
1707164628326215400,17.56821533203125,1.559015154838562,9.528189659118652,1.7185691595077515
1707164628345175000,17.587175048828126,1.6763944625854492,9.53317642211914,1.5743696689605713
1707164628364134700,17.606134765625,1.7662124633789062,9.537707328796387,1.4432685375213623
1707164628383094500,17.625094482421876,1.8230934143066406,9.542637825012207,1.335955262184143
1707164628402054100,17.64405419921875,1.8490543365478516,9.548747062683105,1.2541168928146362
1707164628421013800,17.663013671875,1.8448837995529175,9.556783676147461,1.1977834701538086
1707164628439973400,17.681973388671874,1.8126851320266724,9.566433906555176,1.1695730686187744
1707164628458933000,17.70093310546875,1.7725025415420532,9.575029373168945,1.1607801914215088
1707164628477892600,17.719892578125,1.735124945640564,9.582245826721191,1.1577094793319702
1707164628496852200,17.738852294921877,1.6941875219345093,9.588739395141602,1.1645539999008179
1707164628515812000,17.75781201171875,1.6346442699432373,9.59542465209961,1.1942228078842163
1707164628534771700,17.776771728515627,1.5470404624938965,9.60209846496582,1.2556819915771484
1707164628553731300,17.7957314453125,1.4359924793243408,9.609447479248047,1.3292250633239746
1707164628572691000,17.81469091796875,1.2924234867095947,9.623480796813965,1.374274492263794
1707164628591650600,17.833650634765625,1.1238150596618652,9.64281177520752,1.386936068534851
1707164628610610200,17.852610107421874,0.973827064037323,9.65656566619873,1.40456223487854
1707164628629570000,17.871570068359375,0.8528608083724976,9.658547401428223,1.4681586027145386
1707164628648529400,17.890529296875,0.7504115104675293,9.649702072143555,1.5781409740447998
1707164628667489300,17.9094892578125,0.6624666452407837,9.631122589111328,1.7242381572723389
1707164628686449000,17.928448974609374,0.580773115158081,9.603330612182617,1.8997687101364136
1707164628705408500,17.947408447265627,0.5128763318061829,9.571118354797363,2.073896646499634
1707164628724368100,17.9663681640625,0.4665495753288269,9.540213584899902,2.2219455242156982
1707164628743327700,17.98532763671875,0.43580400943756104,9.51184368133545,2.346336841583252
1707164628762287600,18.00428759765625,0.41827279329299927,9.482752799987793,2.46431040763855
1707164628781247200,18.023247314453126,0.4162163734436035,9.447416305541992,2.5968217849731445
1707164628800206800,18.042206787109375,0.43100705742836,9.400076866149902,2.7610113620758057
1707164628819166500,18.06116650390625,0.4616905450820923,9.334711074829102,2.969914197921753
1707164628838126000,18.0801259765625,0.49774494767189026,9.25062370300293,3.2169225215911865
1707164628857085700,18.099085693359374,0.5278661847114563,9.153592109680176,3.4790072441101074
1707164628876045600,18.118045654296875,0.5333388447761536,9.04813289642334,3.743957281112671
1707164628895005000,18.1370048828125,0.5093923807144165,8.936123847961426,4.007071018218994
1707164628913964800,18.15596484375,0.46705421805381775,8.82460880279541,4.251885890960693
1707164628932924400,18.17492431640625,0.4043726623058319,8.723641395568848,4.4614973068237305
1707164628951884000,18.193884033203126,0.3280686140060425,8.63469409942627,4.637330532073975
1707164628970843600,18.21284375,0.2669038772583008,8.556167602539062,4.784468650817871
1707164628989803300,18.23180322265625,0.24031971395015717,8.496098518371582,4.891720294952393
1707164629008763100,18.25076318359375,0.24218600988388062,8.463403701782227,4.947981834411621
1707164629027722800,18.26972265625,0.2603747844696045,8.45489501953125,4.961585521697998
1707164629046682400,18.288682373046875,0.2623206079006195,8.46236515045166,4.948730945587158
1707164629065642000,18.30764208984375,0.248497873544693,8.507702827453613,4.8711018562316895
1707164629084601600,18.3266015625,0.2278158962726593,8.614763259887695,4.680206298828125
1707164629103561200,18.345561279296874,0.2103111445903778,8.73707103729248,4.448566436767578
1707164629122521000,18.36452099609375,0.2056487500667572,8.830876350402832,4.25954532623291
1707164629141480400,18.38348046875,0.23143281042575836,8.888315200805664,4.136991500854492
1707164629160440300,18.4024404296875,0.2903105318546295,8.937889099121094,4.024953842163086
1707164629179400000,18.42139990234375,0.3445107042789459,9.010546684265137,3.8550944328308105
1707164629198359600,18.440359619140626,0.36512383818626404,9.095989227294922,3.6469240188598633
1707164629217319200,18.459319091796875,0.36968934535980225,9.17609691619873,3.439908266067505
1707164629236278800,18.47827880859375,0.38257306814193726,9.246343612670898,3.2448642253875732
1707164629255238400,18.49723828125,0.41576430201530457,9.311281204223633,3.049194097518921
1707164629274198300,18.5161982421875,0.4759484827518463,9.375898361206055,2.834855556488037
1707164629293157600,18.53515771484375,0.5632361173629761,9.438984870910645,2.599749803543091
1707164629312117500,18.554117431640623,0.6739078760147095,9.494110107421875,2.3618032932281494
1707164629331077000,18.5730771484375,0.7991973161697388,9.536311149597168,2.1425280570983887
1707164629350036700,18.59203662109375,0.9269542098045349,9.566434860229492,1.947941541671753
1707164629368996400,18.610996337890626,1.0460678339004517,9.588276863098145,1.7723124027252197
1707164629387956000,18.6299560546875,1.1451834440231323,9.60499382019043,1.6133925914764404
1707164629406915600,18.64891552734375,1.2151201963424683,9.618471145629883,1.4761039018630981
1707164629425875500,18.66787548828125,1.258746862411499,9.629077911376953,1.3663101196289062
1707164629444835000,18.6868349609375,1.2846137285232544,9.63791561126709,1.2770053148269653
1707164629463794700,18.705794677734374,1.3058182001113892,9.64464282989502,1.2025344371795654
1707164629482754300,18.72475439453125,1.3382450342178345,9.647340774536133,1.1438084840774536
1707164629501714000,18.7437138671875,1.386765718460083,9.645848274230957,1.0976709127426147
1707164629520673500,18.762673583984373,1.4387459754943848,9.642792701721191,1.056860327720642
1707164629539633200,18.781633056640626,1.4814987182617188,9.640236854553223,1.0204901695251465
1707164629558592800,18.8005927734375,1.5059092044830322,9.637206077575684,1.0133459568023682
1707164629577552600,18.819552734375,1.5051977634429932,9.634068489074707,1.0437935590744019
1707164629596512000,18.838511962890625,1.457063913345337,9.638169288635254,1.0737969875335693
1707164629615471900,18.857471923828125,1.3690208196640015,9.651243209838867,1.072229027748108
1707164629634431500,18.876431396484374,1.2797502279281616,9.663900375366211,1.0684797763824463
1707164629653391000,18.89539111328125,1.2024965286254883,9.670068740844727,1.1018928289413452
1707164629672350700,18.914350830078124,1.137649416923523,9.66759204864502,1.1890289783477783
1707164629691310300,18.933310302734377,1.0758402347564697,9.657418251037598,1.3218249082565308
1707164629710270000,18.95227001953125,1.005973219871521,9.641491889953613,1.4832576513290405
1707164629729229800,18.971229736328127,0.9189968109130859,9.622726440429688,1.6519633531570435
1707164629748189200,18.990189208984376,0.8226722478866577,9.603464126586914,1.8075107336044312
1707164629767149000,19.009149169921876,0.7269901037216187,9.584366798400879,1.944678783416748
1707164629786108700,19.028108642578125,0.6351597905158997,9.564213752746582,2.071901559829712
1707164629805068300,19.047068359375,0.5527248382568359,9.539348602294922,2.2058358192443848
1707164629824028000,19.06602783203125,0.48719409108161926,9.504316329956055,2.3666439056396484
1707164629842987500,19.084987548828124,0.44024109840393066,9.45346450805664,2.5707197189331055
1707164629861947100,19.103947021484377,0.40710389614105225,9.384743690490723,2.816246747970581
1707164629880906800,19.12290673828125,0.3784743845462799,9.299771308898926,3.088916301727295
1707164629899866600,19.14186669921875,0.34431192278862,9.202582359313965,3.3710989952087402
1707164629918826000,19.160825927734376,0.2994261384010315,9.097148895263672,3.650017738342285
1707164629937785900,19.179785888671876,0.2394658625125885,8.989140510559082,3.91259503364563
1707164629956745500,19.198745361328125,0.1656215786933899,8.8825044631958,4.1525983810424805
1707164629975705000,19.217705078125,0.08967068046331406,8.78006362915039,4.367242813110352
1707164629994664700,19.236664794921875,0.023448431864380836,8.688143730163574,4.548186302185059
1707164630013624300,19.255624267578124,-0.02263188734650612,8.610661506652832,4.693227767944336
1707164630032584000,19.274583984375,-0.04427419602870941,8.554264068603516,4.795101642608643
1707164630051543600,19.29354345703125,-0.03840720281004906,8.530811309814453,4.8367509841918945
1707164630070503200,19.312503173828127,-0.008582654409110546,8.535744667053223,4.828185081481934
1707164630089462800,19.331462890625,0.025644240900874138,8.546008110046387,4.809935092926025
1707164630108422400,19.35042236328125,0.06142336130142212,8.569249153137207,4.768080711364746
1707164630127382000,19.369382080078125,0.10746248066425323,8.636177062988281,4.644920349121094
1707164630146341600,19.388341552734374,0.1661059707403183,8.733718872070312,4.457009792327881
1707164630165301500,19.407301513671875,0.22805744409561157,8.820456504821777,4.279945373535156
1707164630184260900,19.4262607421875,0.3052523136138916,8.884218215942383,4.140998363494873
1707164630203220700,19.445220703125,0.4097521901130676,8.935548782348633,4.019758224487305
1707164630222180400,19.464180419921874,0.5232460498809814,8.994268417358398,3.8729493618011475
1707164630241140000,19.483139892578127,0.6094592809677124,9.068893432617188,3.6815907955169678
1707164630260099600,19.502099609375,0.6529823541641235,9.148497581481934,3.4711649417877197
1707164630279059200,19.52105908203125,0.6684503555297852,9.222610473632812,3.2660388946533203
1707164630298018800,19.540018798828125,0.6759586334228516,9.289905548095703,3.0677571296691895
1707164630316978400,19.558978515625,0.6948127746582031,9.353628158569336,2.863085985183716
1707164630335938000,19.57793798828125,0.7383925318717957,9.414133071899414,2.645611047744751
1707164630354897700,19.596897705078124,0.8108118772506714,9.467312812805176,2.4254841804504395
1707164630373857300,19.615857177734377,0.906133770942688,9.509693145751953,2.2169923782348633
1707164630392817000,19.63481689453125,1.0134012699127197,9.54177474975586,2.0243422985076904
1707164630411776500,19.653776611328126,1.1232246160507202,9.565629959106445,1.845934510231018
1707164630430736100,19.672736083984375,1.2261624336242676,9.582942962646484,1.6834871768951416
1707164630449696000,19.691696044921876,1.3105968236923218,9.5951566696167,1.5445692539215088
1707164630468655400,19.7106552734375,1.3764088153839111,9.603386878967285,1.4320729970932007
1707164630487615200,19.729615234375,1.4322850704193115,9.608771324157715,1.3380801677703857
1707164630506574800,19.748574951171875,1.483128547668457,9.611922264099121,1.2576457262039185
1707164630525534500,19.767534423828124,1.533129334449768,9.612009048461914,1.1954843997955322
1707164630544494000,19.786494140625,1.5821048021316528,9.610633850097656,1.1415112018585205
1707164630563453700,19.80545361328125,1.6208913326263428,9.610800743103027,1.0842489004135132
1707164630582413300,19.824413330078126,1.63429594039917,9.614481925964355,1.030149221420288
1707164630601373000,19.843373046875,1.6122026443481445,9.619421005249023,1.0187925100326538
1707164630620332500,19.86233251953125,1.5699100494384766,9.62290096282959,1.0514488220214844
1707164630639292200,19.881292236328125,1.5035089254379272,9.63009262084961,1.082202434539795
1707164630658251800,19.900251708984374,1.4051566123962402,9.645001411437988,1.0816059112548828
1707164630677211400,19.91921142578125,1.2995593547821045,9.660956382751465,1.0712006092071533
1707164630696171000,19.9381708984375,1.205213189125061,9.669940948486328,1.1000396013259888
1707164630715130600,19.957130615234377,1.125910758972168,9.668960571289062,1.1890801191329956
1707164630734090200,19.97609033203125,1.0531820058822632,9.66042423248291,1.3181042671203613
1707164630753049900,19.9950498046875,0.9756482243537903,9.648492813110352,1.457767128944397
1707164630772009500,20.014009521484375,0.889381468296051,9.636454582214355,1.5868630409240723
1707164630790969000,20.032968994140624,0.803184449672699,9.625429153442383,1.6959943771362305
1707164630809928700,20.0519287109375,0.7250040769577026,9.614510536193848,1.7905112504959106
1707164630828888300,20.070888427734374,0.6588495969772339,9.601372718811035,1.8841311931610107
1707164630847848000,20.089847900390627,0.6097281575202942,9.582050323486328,1.995728850364685
1707164630866807600,20.1088076171875,0.5810683965682983,9.551986694335938,2.14296555519104
1707164630885767200,20.12776708984375,0.5737406611442566,9.50767993927002,2.333503484725952
1707164630904726800,20.146726806640626,0.582121729850769,9.447954177856445,2.5627479553222656
1707164630923686400,20.165686279296875,0.5959998965263367,9.374821662902832,2.8156516551971436
1707164630942646000,20.18464599609375,0.6071310043334961,9.292729377746582,3.0735867023468018
1707164630961605600,20.203605712890624,0.6077545285224915,9.20632553100586,3.323341131210327
1707164630980565200,20.222565185546873,0.5893070697784424,9.119056701660156,3.558917999267578
1707164630999524900,20.24152490234375,0.5489270687103271,9.038040161132812,3.766019105911255
1707164631018484500,20.260484375,0.485798180103302,8.968070983886719,3.9380314350128174
1707164631037444000,20.279444091796876,0.41435134410858154,8.906144142150879,4.0840277671813965
1707164631056403700,20.29840380859375,0.3537643551826477,8.856677055358887,4.195770740509033
1707164631075363300,20.31736328125,0.3119634687900543,8.82927131652832,4.256412506103516
1707164631094323000,20.336322998046874,0.2889820635318756,8.824901580810547,4.267080783843994
1707164631113282600,20.355282470703123,0.2807672917842865,8.833253860473633,4.250313758850098
1707164631132242200,20.3742421875,0.27545490860939026,8.843362808227539,4.229593276977539
1707164631151201800,20.393201904296873,0.2945195436477661,8.877480506896973,4.156198024749756
1707164631170161400,20.412161376953126,0.35198745131492615,8.95103931427002,3.9906623363494873
1707164631189121000,20.43112109375,0.43183764815330505,9.029597282409668,3.8013505935668945
1707164631208081000,20.450080810546876,0.5291745662689209,9.08426570892334,3.6560208797454834
1707164631227040300,20.469040283203125,0.652366578578949,9.117109298706055,3.552903890609741
1707164631245999900,20.487999755859374,0.7650097012519836,9.154120445251465,3.433253288269043
1707164631264959500,20.50695947265625,0.8190387487411499,9.209692001342773,3.268199920654297
1707164631283919000,20.525919189453123,0.8118987083435059,9.270926475524902,3.0921077728271484
1707164631302878700,20.544878662109376,0.7785559892654419,9.323575019836426,2.938567876815796
1707164631321838300,20.56383837890625,0.7488852739334106,9.367929458618164,2.8020427227020264
1707164631340798000,20.5827978515625,0.741206169128418,9.410511016845703,2.657681941986084
1707164631359757600,20.601757568359375,0.7631076574325562,9.455606460571289,2.4858715534210205
1707164631378717200,20.62071728515625,0.8162457346916199,9.501579284667969,2.285635232925415
1707164631397676800,20.6396767578125,0.8943910002708435,9.543349266052246,2.072422981262207
1707164631416636400,20.658636474609374,0.989111065864563,9.576482772827148,1.8662906885147095
1707164631435596000,20.677595947265626,1.0915882587432861,9.599940299987793,1.6792786121368408
1707164631454555600,20.6965556640625,1.1908296346664429,9.614598274230957,1.5204594135284424
1707164631473515300,20.715515380859376,1.2787754535675049,9.622514724731445,1.3936760425567627
1707164631492475000,20.734474853515625,1.348368525505066,9.62672233581543,1.2955690622329712
1707164631511434500,20.7534345703125,1.3999662399291992,9.630020141601562,1.2137540578842163
1707164631530394000,20.77239404296875,1.430551290512085,9.63394832611084,1.1449686288833618
1707164631549353700,20.791353759765624,1.4448304176330566,9.637328147888184,1.09761381149292
1707164631568313300,20.810313232421876,1.4548704624176025,9.639144897460938,1.0679975748062134
1707164631587273000,20.82927294921875,1.4667692184448242,9.640228271484375,1.0416157245635986
1707164631606232600,20.848232666015626,1.4777055978775024,9.641081809997559,1.0179870128631592
1707164631625192200,20.867192138671875,1.47496497631073,9.642531394958496,1.0081809759140015
1707164631644151800,20.88615185546875,1.4533559083938599,9.643867492675781,1.0266311168670654
1707164631663111400,20.905111328125,1.4183884859085083,9.644871711730957,1.0653679370880127
1707164631682071000,20.924071044921874,1.356333613395691,9.651979446411133,1.0816830396652222
1707164631701030700,20.94303076171875,1.2659825086593628,9.666041374206543,1.065507411956787
1707164631719990300,20.961990234375,1.1809011697769165,9.67800521850586,1.0545501708984375
1707164631738950000,20.980949951171876,1.1166754961013794,9.682110786437988,1.0863531827926636
1707164631757909500,20.999909423828125,1.071366310119629,9.676996231079102,1.174008846282959
1707164631776869000,21.018869140625,1.0323998928070068,9.664726257324219,1.302922010421753
1707164631795828500,21.037828369140627,0.9879359602928162,9.647417068481445,1.4566117525100708
1707164631814788400,21.056788330078124,0.9303401112556458,9.626648902893066,1.6224980354309082
1707164631833748000,21.075748046875,0.8648378252983093,9.605006217956543,1.7794121503829956
1707164631852707300,21.094707275390626,0.7983018755912781,9.585007667541504,1.9133036136627197
1707164631871667000,21.1136669921875,0.735196590423584,9.567047119140625,2.0252115726470947
1707164631890626800,21.132626708984375,0.6833327412605286,9.548566818237305,2.127985954284668
1707164631909586200,21.151586181640624,0.6499858498573303,9.52558708190918,2.2385494709014893
1707164631928545800,21.1705458984375,0.636372447013855,9.49395751953125,2.372804880142212
1707164631947505400,21.18950537109375,0.637015700340271,9.450867652893066,2.538839817047119
1707164631966465000,21.208465087890627,0.6450470685958862,9.395758628845215,2.73386287689209
1707164631985424600,21.227424560546876,0.6497981548309326,9.329309463500977,2.9516313076019287
1707164632004384300,21.24638427734375,0.6409555077552795,9.254765510559082,3.179446220397949
1707164632023343900,21.26534375,0.6101171374320984,9.176985740661621,3.4030961990356445
1707164632042303500,21.284303466796874,0.5520830154418945,9.101866722106934,3.6085450649261475
1707164632061263000,21.30326318359375,0.4674181640148163,9.032078742980957,3.7912352085113525
1707164632080223000,21.322222900390624,0.3652478754520416,8.963977813720703,3.9603137969970703
1707164632099182300,21.341182373046873,0.2640639841556549,8.899746894836426,4.1103739738464355
1707164632118142000,21.360141845703126,0.18677599728107452,8.855327606201172,4.209355354309082
1707164632137101800,21.379101806640627,0.15184105932712555,8.84239673614502,4.23784875869751
1707164632156061200,21.398061279296876,0.14798016846179962,8.857730865478516,4.205840110778809
1707164632175020800,21.417020751953125,0.16209962964057922,8.890378952026367,4.135852336883545
1707164632193980400,21.43598046875,0.20952868461608887,8.95241928100586,3.9975836277008057
1707164632212940000,21.45493994140625,0.29671287536621094,9.0416841506958,3.7855372428894043
1707164632231899600,21.473899658203123,0.39588719606399536,9.12697982788086,3.5653746128082275
1707164632250859500,21.492859619140624,0.5023080706596375,9.185295104980469,3.3982980251312256
1707164632269819000,21.51181884765625,0.6256164908409119,9.222607612609863,3.2745261192321777
1707164632288778500,21.530778564453126,0.7295981645584106,9.258399963378906,3.149620294570923
1707164632307738400,21.54973828125,0.7696956992149353,9.296010971069336,3.026902198791504
1707164632326697700,21.56869775390625,0.7476854920387268,9.329028129577637,2.92926025390625
1707164632345657300,21.5876572265625,0.6936330795288086,9.35831356048584,2.848022937774658
1707164632364617200,21.6066171875,0.6404799222946167,9.387762069702148,2.762263536453247
1707164632383576800,21.625576904296874,0.615952730178833,9.42161750793457,2.6503052711486816
1707164632402536400,21.644536376953123,0.6297606825828552,9.461111068725586,2.5022308826446533
1707164632421496000,21.66349609375,0.6881458163261414,9.503133773803711,2.321054220199585
1707164632440455700,21.68245556640625,0.7841039299964905,9.540936470031738,2.1274619102478027
1707164632459415300,21.701415283203126,0.9041836857795715,9.568290710449219,1.9495275020599365
1707164632478375000,21.720375,1.0369690656661987,9.583454132080078,1.8034659624099731
1707164632497334500,21.73933447265625,1.1679630279541016,9.588748931884766,1.6917827129364014
1707164632516294100,21.758294189453125,1.2839879989624023,9.588231086730957,1.6085999011993408
1707164632535253800,21.777253662109374,1.373979926109314,9.586536407470703,1.5430134534835815
1707164632554213400,21.79621337890625,1.4290763139724731,9.588789939880371,1.4775773286819458
1707164632573173000,21.815173095703123,1.4552263021469116,9.595724105834961,1.4052671194076538
1707164632592132600,21.834132568359376,1.4726496934890747,9.602604866027832,1.3385341167449951
1707164632611092200,21.85309228515625,1.497097134590149,9.60511302947998,1.2926251888275146
1707164632630051800,21.8720517578125,1.5272587537765503,9.604743957519531,1.2596690654754639
1707164632649011700,21.89101171875,1.5438978672027588,9.606850624084473,1.2227815389633179
1707164632667971000,21.90997119140625,1.5328296422958374,9.612634658813477,1.1908234357833862
1707164632686931000,21.928930908203125,1.4974150657653809,9.618478775024414,1.1887010335922241
1707164632705890600,21.947890625,1.4379022121429443,9.62564468383789,1.2040705680847168
1707164632724850200,21.96685009765625,1.3409147262573242,9.641447067260742,1.1894663572311401
1707164632743809800,21.985809814453123,1.2312343120574951,9.660075187683105,1.1564645767211914
1707164632762769400,22.004769287109376,1.1492327451705933,9.671343803405762,1.1466299295425415
1707164632781729000,22.02372900390625,1.0854589939117432,9.673871040344238,1.1867622137069702
1707164632800688600,22.042688720703126,1.0263187885284424,9.669219970703125,1.2740710973739624
1707164632819648300,22.061648193359375,0.9607277512550354,9.658602714538574,1.399564504623413
1707164632838608000,22.08060791015625,0.8795328140258789,9.643770217895508,1.5474225282669067
1707164632857567700,22.099567626953124,0.7987275123596191,9.627908706665039,1.6839796304702759
1707164632876527000,22.118527099609373,0.7269995212554932,9.612833976745605,1.798690676689148
1707164632895487000,22.137487060546874,0.6614933609962463,9.596261024475098,1.9090819358825684
1707164632914446600,22.156446533203123,0.604095458984375,9.57341194152832,2.0384366512298584
1707164632933406200,22.17540625,0.5606462359428406,9.539862632751465,2.2016096115112305
1707164632952365800,22.19436572265625,0.53297358751297,9.491854667663574,2.406456232070923
1707164632971325400,22.213325439453126,0.516105592250824,9.427632331848145,2.6502397060394287
1707164632990285000,22.23228515625,0.4983963370323181,9.348406791687012,2.9204962253570557
1707164633009244700,22.25124462890625,0.46535924077033997,9.2564058303833,3.2051188945770264
1707164633028204500,22.27020458984375,0.40660232305526733,9.153794288635254,3.4947245121002197
1707164633047164200,22.2891640625,0.3190183937549591,9.045394897460938,3.774844169616699
1707164633066123800,22.308123779296874,0.2079702764749527,8.938032150268555,4.02972936630249
1707164633085083400,22.32708349609375,0.08648920059204102,8.838284492492676,4.248250961303711
1707164633104043000,22.34604296875,-0.03130868822336197,8.748400688171387,4.431128025054932
1707164633123002600,22.365002685546877,-0.13097219169139862,8.671538352966309,4.577951908111572
1707164633141962200,22.383962158203126,-0.19884653389453888,8.616618156433105,4.678112030029297
1707164633160922000,22.402922119140626,-0.22020141780376434,8.59211254119873,4.722024917602539
1707164633179881700,22.4218818359375,-0.20171941816806793,8.59029769897461,4.726149082183838
1707164633198841300,22.44084130859375,-0.20673689246177673,8.602737426757812,4.703251361846924
1707164633217801000,22.459801025390625,-0.2284100204706192,8.669709205627441,4.577592372894287
1707164633236760600,22.478760498046874,-0.21042907238006592,8.809784889221191,4.3027663230896
1707164633255720200,22.49772021484375,-0.16811519861221313,8.937379837036133,4.033034324645996
1707164633274680000,22.51668017578125,-0.10824750363826752,9.00918960571289,3.872102975845337
1707164633293639400,22.535639404296877,-0.0034985332749783993,9.052062034606934,3.772338628768921
1707164633312599300,22.554599365234374,0.09963995963335037,9.105083465576172,3.641143321990967
1707164633331559000,22.573558837890626,0.14545823633670807,9.177719116210938,3.45234751701355
1707164633350518500,22.5925185546875,0.15157459676265717,9.251853942871094,3.2481706142425537
1707164633369478100,22.61147802734375,0.15424038469791412,9.312155723571777,3.070889949798584
1707164633388437800,22.630437744140625,0.1830597072839737,9.362895011901855,2.910856246948242
1707164633407397400,22.6493974609375,0.25523844361305237,9.411648750305176,2.743375301361084
1707164633426357200,22.668357177734375,0.37643399834632874,9.460916519165039,2.5533785820007324
1707164633445316900,22.68731689453125,0.5427964329719543,9.506388664245605,2.346130609512329
1707164633464276500,22.7062763671875,0.7372972369194031,9.54145622253418,2.141822576522827
1707164633483236000,22.725236083984374,0.9399229288101196,9.563933372497559,1.9539985656738281
1707164633502195700,22.74419580078125,1.1332309246063232,9.576059341430664,1.7847261428833008
1707164633521155600,22.763155517578124,1.3018001317977905,9.581501007080078,1.634182333946228
1707164633540115000,22.782114990234376,1.4335790872573853,9.583392143249512,1.5079282522201538
1707164633559074800,22.80107470703125,1.5275452136993408,9.58366870880127,1.4107742309570312
1707164633578034400,22.820034423828126,1.5888314247131348,9.584035873413086,1.3387480974197388
1707164633596994000,22.838994140625,1.6228089332580566,9.586088180541992,1.282107949256897
1707164633615953700,22.85795361328125,1.641944408416748,9.588624000549316,1.2380212545394897
1707164633634913300,22.876913330078125,1.66146981716156,9.590198516845703,1.1991699934005737
1707164633653873200,22.895873046875,1.686598539352417,9.592056274414062,1.148140549659729
1707164633672832800,22.914832763671875,1.7002869844436646,9.597424507141113,1.0811407566070557
1707164633691792400,22.93379248046875,1.688965082168579,9.605735778808594,1.0235393047332764
1707164633710752000,22.952751953125,1.6519832611083984,9.613395690917969,1.011911153793335
1707164633729711600,22.971711669921874,1.5799649953842163,9.62309455871582,1.0344856977462769
1707164633748671200,22.990671142578126,1.4593874216079712,9.642373085021973,1.032091498374939
1707164633767631000,23.009631103515623,1.336155652999878,9.66383171081543,0.9977190494537354
1707164633786590500,23.028590576171876,1.2517668008804321,9.677290916442871,0.9764750599861145
1707164633805550300,23.04755029296875,1.1932767629623413,9.682568550109863,0.9971694350242615
1707164633824510000,23.066510009765626,1.1478887796401978,9.682186126708984,1.052620530128479
1707164633843469600,23.085469482421875,1.1072067022323608,9.677084922790527,1.139515995979309
1707164633862429200,23.10442919921875,1.0599538087844849,9.668216705322266,1.2539831399917603
1707164633881388800,23.123388916015625,1.0047060251235962,9.65748405456543,1.3762129545211792
1707164633900348400,23.142348388671873,0.9471264481544495,9.647586822509766,1.482362151145935
1707164633919308300,23.161308349609374,0.889922559261322,9.63976001739502,1.5663503408432007
1707164633938268000,23.180267822265623,0.8375158905982971,9.631988525390625,1.6412681341171265
1707164633957227500,23.1992275390625,0.7984269261360168,9.61971378326416,1.7303155660629272
1707164633976187100,23.218187255859377,0.7787423729896545,9.597904205322266,1.8558539152145386
1707164633995146800,23.237146728515626,0.7791019082069397,9.562356948852539,2.0309441089630127
1707164634014106600,23.256106689453127,0.7911518216133118,9.512155532836914,2.250194549560547
1707164634033066000,23.27506591796875,0.8013760447502136,9.449864387512207,2.4956443309783936
1707164634052025900,23.29402587890625,0.7958832383155823,9.3794584274292,2.7500381469726562
1707164634070985500,23.3129853515625,0.7647678256034851,9.302908897399902,3.0068936347961426
1707164634089945000,23.331945068359374,0.7055668830871582,9.222015380859375,3.25990891456604
1707164634108904700,23.35090478515625,0.6234340667724609,9.140419006347656,3.4977807998657227
1707164634127864300,23.3698642578125,0.5261364579200745,9.060372352600098,3.7152693271636963
1707164634146824000,23.388823974609377,0.4159160852432251,8.986329078674316,3.904264450073242
1707164634165783800,23.40778369140625,0.30323702096939087,8.92733383178711,4.047361850738525
1707164634184743400,23.426743408203127,0.21531115472316742,8.896329879760742,4.120600700378418
1707164634203703000,23.445703125,0.15388023853302002,8.889608383178711,4.13782262802124
1707164634222662700,23.46466259765625,0.0942549929022789,8.893366813659668,4.131527423858643
1707164634241622300,23.483622314453125,0.06805294752120972,8.927672386169434,4.057393550872803
1707164634260582000,23.502581787109374,0.10280723124742508,9.004415512084961,3.8833398818969727
1707164634279541500,23.52154150390625,0.15313443541526794,9.077835083007812,3.706731081008911
1707164634298501400,23.54050146484375,0.22441133856773376,9.117679595947266,3.603879928588867
1707164634317461000,23.5594609375,0.3222150206565857,9.130876541137695,3.562816858291626
1707164634336420600,23.578420654296874,0.41071584820747375,9.151721954345703,3.499668598175049
1707164634355380200,23.597380126953126,0.45625877380371094,9.19831657409668,3.3694493770599365
1707164634374339800,23.61633984375,0.46168071031570435,9.257241249084473,3.203237533569336
1707164634393299500,23.635299560546876,0.4451007843017578,9.310227394104004,3.048269748687744
1707164634412259000,23.654259033203125,0.42789578437805176,9.356029510498047,2.907233238220215
1707164634431218700,23.67321875,0.4305614233016968,9.401511192321777,2.756194829940796
1707164634450178600,23.692178466796875,0.46740418672561646,9.45016860961914,2.5780303478240967
1707164634469138200,23.71113818359375,0.540559709072113,9.499052047729492,2.376171350479126
1707164634488097800,23.730097900390625,0.6452608704566956,9.54203987121582,2.1687586307525635
1707164634507057400,23.749057373046874,0.7706663012504578,9.575438499450684,1.9716613292694092
1707164634526017000,23.76801708984375,0.9045294523239136,9.599601745605469,1.7888118028640747
1707164634544976600,23.7869765625,1.0337028503417969,9.616703033447266,1.6189101934432983
1707164634563936300,23.805936279296876,1.1452137231826782,9.629117012023926,1.462528944015503
1707164634582895900,23.824895751953125,1.2336304187774658,9.637740135192871,1.3275980949401855
1707164634601855700,23.843855712890626,1.3013436794281006,9.642178535461426,1.2268964052200317
1707164634620815400,23.8628154296875,1.3506497144699097,9.64315128326416,1.164372205734253
1707164634639775000,23.88177490234375,1.376821756362915,9.643269538879395,1.132301688194275
1707164634658734600,23.900734619140625,1.3848296403884888,9.644047737121582,1.115790843963623
1707164634677694200,23.919694091796874,1.3850253820419312,9.64598560333252,1.0986546277999878
1707164634696653800,23.93865380859375,1.376098394393921,9.650399208068848,1.0707584619522095
1707164634715613400,23.957613525390624,1.361008644104004,9.655815124511719,1.0408083200454712
1707164634734573000,23.976572998046876,1.353114128112793,9.655999183654785,1.0493632555007935
1707164634753532700,23.99553271484375,1.3349108695983887,9.654093742370605,1.0894383192062378
1707164634772492500,24.014492431640626,1.2695260047912598,9.661568641662598,1.1012585163116455
1707164634791452200,24.0334521484375,1.1782082319259644,9.675310134887695,1.0819437503814697
1707164634810411800,24.052411865234376,1.082167148590088,9.686827659606934,1.0791925191879272
1707164634829371400,24.071371337890625,0.9960964322090149,9.689716339111328,1.1347155570983887
1707164634848331000,24.0903310546875,0.9225354790687561,9.683435440063477,1.2451496124267578
1707164634867290600,24.10929052734375,0.852103054523468,9.671717643737793,1.3791950941085815
1707164634886250200,24.128250244140624,0.7819815874099731,9.657349586486816,1.514755129814148
1707164634905209900,24.1472099609375,0.713042676448822,9.641688346862793,1.6431081295013428
1707164634924169500,24.16616943359375,0.6493698358535767,9.624409675598145,1.7661983966827393
1707164634943129000,24.185129150390626,0.5926505327224731,9.605358123779297,1.885800838470459
1707164634962089000,24.2040888671875,0.546911358833313,9.584163665771484,2.003765106201172
1707164634981048600,24.223048583984376,0.5181633234024048,9.557576179504395,2.1341588497161865
1707164635000008200,24.24200830078125,0.5105051398277283,9.520508766174316,2.295581579208374
1707164635018967800,24.2609677734375,0.5244782567024231,9.468608856201172,2.49815034866333
1707164635037927400,24.279927490234375,0.5557202100753784,9.39963150024414,2.7401626110076904
1707164635056887000,24.298886962890624,0.5946840047836304,9.31548023223877,3.006418466567993
1707164635075846700,24.3178466796875,0.624868631362915,9.218608856201172,3.285904884338379
1707164635094806300,24.33680615234375,0.6309341192245483,9.1106538772583,3.573275089263916
1707164635113766000,24.355765869140626,0.6047868132591248,8.994443893432617,3.8606488704681396
1707164635132725800,24.374725830078123,0.5483821630477905,8.875683784484863,4.134235858917236
1707164635151685400,24.393685302734376,0.4732453525066376,8.760705947875977,4.381374835968018
1707164635170644700,24.412644775390625,0.38174867630004883,8.65876293182373,4.588079929351807
1707164635189604600,24.4316044921875,0.28163132071495056,8.580496788024902,4.739848613739014
1707164635208564200,24.450564208984375,0.2067636251449585,8.537127494812012,4.821314811706543
1707164635227523800,24.46952392578125,0.18761387467384338,8.529899597167969,4.834874629974365
