time,seconds_elapsed,z,y,x
1707165093381596000,0.039595947265625,0,0,0
1707165093400556000,0.05855615234375,-0.055341243743896484,-0.10479974746704102,-0.004249095916748047
1707165093419516400,0.077516357421875,-0.08048439025878906,-0.0708913803100586,-0.02548360824584961
1707165093438476500,0.0964765625,-0.06008625030517578,0.05515241622924805,-0.04348182678222656
1707165093457437000,0.11543701171875,0.05383491516113281,0.07851886749267578,0.03117990493774414
1707165093476397000,0.13439697265625,-0.007296562194824219,0.09005022048950195,0.03444528579711914
1707165093495357200,0.153357177734375,-0.15178203582763672,0.0005903244018554688,-0.13928842544555664
1707165093514317600,0.172317626953125,-0.4035048484802246,-0.08077383041381836,-0.3819866180419922
1707165093533277700,0.191277587890625,-0.5087833404541016,-0.13076305389404297,-0.486539363861084
1707165093552238000,0.210238037109375,-0.5264668464660645,0.07776737213134766,-0.39769697189331055
1707165093571198200,0.2291982421875,-0.5638484954833984,-0.08582401275634766,-0.5725646018981934
1707165093590158600,0.24815869140625,-0.7151474952697754,-0.26615476608276367,-1.0379672050476074
1707165093609118700,0.26711865234375,-0.8199892044067383,-0.5990676879882812,-1.362271785736084
1707165093628079000,0.2860791015625,-0.8103013038635254,-0.7186622619628906,-1.4107303619384766
1707165093647039500,0.30503955078125,-0.522188663482666,-0.5944361686706543,-1.1094882488250732
1707165093665999600,0.32399951171875,-0.040720462799072266,-0.44413232803344727,-0.5784206390380859
1707165093684959700,0.342959716796875,0.3251028060913086,-0.23041677474975586,0.3600735664367676
1707165093703920000,0.361920166015625,0.8440489768981934,0.6362829208374023,2.1511940956115723
1707165093722880300,0.38088037109375,1.457779884338379,0.7309770584106445,3.3051061630249023
1707165093741840400,0.39984033203125,1.4594287872314453,0.8579502105712891,3.5760669708251953
1707165093760800800,0.41880078125,1.3793673515319824,-0.5786948204040527,2.500211715698242
1707165093779761200,0.43776123046875,1.2749662399291992,-0.8412370681762695,1.3143911361694336
1707165093798721300,0.45672119140625,0.8869748115539551,-0.5606517791748047,0.5999574661254883
1707165093817681400,0.475681396484375,0.6890625953674316,-0.3347434997558594,0.12477493286132812
1707165093836641800,0.494641845703125,0.46119213104248047,0.07100868225097656,-0.4448690414428711
1707165093855602000,0.513601806640625,-0.13355159759521484,0.00942373275756836,-1.256784439086914
1707165093874562000,0.53256201171875,-0.5107560157775879,0.008500099182128906,-1.9717130661010742
1707165093893522400,0.5515224609375,-0.4208054542541504,-0.2170848846435547,-2.1561639308929443
1707165093912482800,0.57048291015625,0.013496875762939453,0.10309028625488281,-1.8188557624816895
1707165093931443000,0.58944287109375,-0.35164928436279297,0.1788930892944336,-1.8149089813232422
1707165093950403000,0.608403076171875,-0.7493953704833984,0.33640575408935547,-1.8608355522155762
1707165093969363500,0.627363525390625,-0.962975025177002,0.47075653076171875,-1.8064441680908203
1707165093988323600,0.646323486328125,-0.9914252758026123,0.43678903579711914,-1.46877121925354
1707165094007283700,0.66528369140625,-0.9568161964416504,0.4412226676940918,-1.0683798789978027
1707165094026244000,0.684244140625,-1.135669231414795,0.4644632339477539,-0.6540718078613281
1707165094045204500,0.70320458984375,-1.4323832988739014,0.6945066452026367,-0.27400875091552734
1707165094064164600,0.72216455078125,-1.6735941171646118,0.9804902076721191,0.2316741943359375
1707165094083124700,0.741124755859375,-1.6893718242645264,1.0082850456237793,0.6838860511779785
1707165094102084900,0.7600849609375,-1.642342209815979,0.947840690612793,1.0824179649353027
1707165094121045200,0.779045166015625,-1.5690841674804688,1.0231695175170898,1.3664259910583496
1707165094140005600,0.798005615234375,-1.4117059707641602,1.2160634994506836,2.062427043914795
1707165094158965800,0.8169658203125,-1.1988732814788818,1.3231134414672852,2.6620545387268066
1707165094177926000,0.83592578125,-0.6318197250366211,1.4938468933105469,3.230552911758423
1707165094196886300,0.85488623046875,-0.29528510570526123,1.4955511093139648,3.4310245513916016
1707165094215846400,0.873846435546875,-0.19261372089385986,1.3992300033569336,3.3871817588806152
1707165094234806500,0.892806640625,-0.25937676429748535,1.504190444946289,2.986999750137329
1707165094253767000,0.911766845703125,-0.21579504013061523,1.3246402740478516,2.5764777660369873
1707165094272727300,0.930727294921875,-0.18085157871246338,0.7665262222290039,1.722822904586792
1707165094291687400,0.9496875,-0.31967782974243164,0.4898529052734375,1.0773341655731201
1707165094310647600,0.9686474609375,-0.5275036096572876,0.1717081069946289,0.47979044914245605
1707165094329608000,0.98760791015625,-0.6304559707641602,0.07107162475585938,0.06949687004089355
1707165094348568000,1.006568115234375,-0.6441254615783691,0.0024423599243164062,-0.23961901664733887
1707165094367528200,1.025528076171875,-0.5612046718597412,0.10108184814453125,-0.5127658843994141
1707165094386488600,1.044488525390625,-0.6242200136184692,0.021484375,-0.8151977062225342
1707165094405449000,1.063448974609375,-0.7720017433166504,-0.06640052795410156,-1.0678044557571411
1707165094424409000,1.0824091796875,-0.7531299591064453,-0.09733104705810547,-1.0987038612365723
1707165094443369200,1.101369140625,-0.7571666240692139,-0.07642078399658203,-1.1179801225662231
1707165094462329600,1.12032958984375,-0.9524824619293213,0.03540515899658203,-1.2351551055908203
1707165094481289700,1.139289794921875,-0.840796947479248,0.3375816345214844,-1.1687726974487305
1707165094500250000,1.15825,-0.5711667537689209,0.35001277923583984,-0.8523309230804443
1707165094519210200,1.177210205078125,-0.3329775333404541,-0.1322021484375,-0.639778733253479
1707165094538170600,1.196170654296875,-0.14102959632873535,-0.42542362213134766,-0.4703671932220459
1707165094557130800,1.215130859375,-0.04943990707397461,-0.35773372650146484,-0.26944684982299805
1707165094576091100,1.234091064453125,-0.09906721115112305,-0.15398025512695312,-0.13593077659606934
1707165094595051300,1.25305126953125,-0.22767901420593262,-0.13408851623535156,-0.15326809883117676
1707165094614011400,1.272011474609375,-0.17595553398132324,-0.10303497314453125,-0.21440207958221436
1707165094632971800,1.2909716796875,-0.050228118896484375,0.03938579559326172,-0.2518850564956665
1707165094651932000,1.309931884765625,-0.0648963451385498,0.12948226928710938,-0.34311771392822266
1707165094670892300,1.328892333984375,-0.1557145118713379,0.1734628677368164,-0.5214616060256958
1707165094689852400,1.347852294921875,-0.14880108833312988,0.3362407684326172,-0.6742351055145264
1707165094708812800,1.366812744140625,-0.06275010108947754,0.3835163116455078,-0.8400903940200806
1707165094727773000,1.38577294921875,-0.0055696964263916016,0.5629568099975586,-1.0560462474822998
1707165094746733300,1.4047333984375,-0.03904390335083008,0.7247314453125,-1.2364888191223145
1707165094765693400,1.423693359375,0.00963449478149414,0.5535039901733398,-1.3956325054168701
1707165094784653800,1.44265380859375,0.0642848014831543,0.32430362701416016,-1.5467329025268555
1707165094803614000,1.461614013671875,0.009001970291137695,0.06952762603759766,-1.6747627258300781
1707165094822574300,1.48057421875,-0.04037880897521973,-0.1837329864501953,-1.8241026401519775
1707165094841534500,1.499534423828125,-0.04477882385253906,-0.43663692474365234,-2.0120835304260254
1707165094860494800,1.518494873046875,-0.0222320556640625,-0.6410789489746094,-2.1272122859954834
1707165094879455000,1.537455078125,0.0369420051574707,-0.5955476760864258,-2.2084741592407227
1707165094898415400,1.556415283203125,-0.05332374572753906,-0.30588817596435547,-2.070021152496338
1707165094917375500,1.57537548828125,-0.12495183944702148,0.13172435760498047,-1.748644471168518
1707165094936336000,1.5943359375,-0.0491030216217041,0.4227619171142578,-1.2982892990112305
1707165094955296000,1.6132958984375,-0.08612632751464844,0.5930109024047852,-0.8459265232086182
1707165094974256400,1.63225634765625,-0.12523150444030762,0.4541149139404297,-0.4235159158706665
1707165094993216500,1.651216552734375,0.0209653377532959,0.17175579071044922,-0.19097435474395752
1707165095012177000,1.670177001953125,0.09475493431091309,0.12153053283691406,0.17798197269439697
1707165095031137300,1.68913720703125,0.14726150035858154,0.15512371063232422,0.5606467723846436
1707165095050097400,1.708097412109375,0.24449121952056885,0.11952590942382812,0.739492654800415
1707165095069057800,1.727057861328125,0.3663562536239624,0.05260944366455078,0.8872278928756714
1707165095088018000,1.746017822265625,0.3854978084564209,-0.10372161865234375,0.8624016046524048
1707165095106978300,1.764978271484375,0.325095534324646,-0.2879753112792969,0.7193145751953125
1707165095125938400,1.7839384765625,0.18798935413360596,-0.4091663360595703,0.45395851135253906
1707165095144898800,1.80289892578125,0.013700008392333984,-0.42600536346435547,0.08373332023620605
1707165095163859000,1.82185888671875,-0.10594844818115234,-0.4019613265991211,-0.17375469207763672
1707165095182819300,1.8408193359375,-0.07643258571624756,-0.18630027770996094,-0.3352956771850586
1707165095201779500,1.859779541015625,-0.04578661918640137,0.1091909408569336,-0.41362714767456055
1707165095220739800,1.87873974609375,0.09382081031799316,0.3684120178222656,-0.39865243434906006
1707165095239700000,1.897699951171875,0.3221285343170166,0.420989990234375,-0.34439122676849365
1707165095258660400,1.916660400390625,0.4394739866256714,0.23129653930664062,-0.3544858694076538
1707165095277620700,1.935620849609375,0.4489814043045044,0.11753559112548828,-0.3669382333755493
1707165095296580900,1.954580810546875,0.4547027349472046,0.02655315399169922,-0.2451174259185791
1707165095315541200,1.973541259765625,0.44438254833221436,-0.022752761840820312,-0.1452857255935669
1707165095334501400,1.99250146484375,0.39560067653656006,-0.10680866241455078,-0.05130577087402344
1707165095353461800,2.011461669921875,0.3490307331085205,-0.2627124786376953,-0.05512285232543945
1707165095372422100,2.030422119140625,0.2604808807373047,-0.3539552688598633,-0.154302716255188
1707165095391382300,2.04938232421875,0.07042384147644043,-0.3033485412597656,-0.21904850006103516
1707165095410342700,2.0683427734375,-0.15425372123718262,-0.041290283203125,-0.1746668815612793
1707165095429302800,2.087302734375,-0.26946234703063965,0.05611133575439453,-0.24331247806549072
1707165095448263200,2.10626318359375,-0.2991209030151367,0.09469032287597656,-0.251934289932251
1707165095467223300,2.125223388671875,-0.21617209911346436,0.09313678741455078,-0.21683275699615479
1707165095486183700,2.14418359375,-0.13859200477600098,0.03719329833984375,-0.11515963077545166
1707165095505144000,2.16314404296875,0.010817289352416992,0.009645462036132812,-0.008781671524047852
1707165095524104200,2.182104248046875,0.1253730058670044,-0.038616180419921875,-0.016765475273132324
1707165095543064600,2.201064697265625,0.11500942707061768,-0.07983589172363281,0.004191994667053223
1707165095562025000,2.22002490234375,0.07614254951477051,-0.040668487548828125,0.02897191047668457
1707165095580985000,2.238985107421875,0.0018573999404907227,0.048183441162109375,0.034716129302978516
1707165095599945500,2.257945556640625,-0.09676980972290039,0.15494155883789062,0.08800911903381348
1707165095618905600,2.276905517578125,-0.09581851959228516,0.17560863494873047,0.21053314208984375
1707165095637866000,2.295865966796875,-0.014926314353942871,0.21876811981201172,0.4016979932785034
1707165095656826000,2.314826171875,0.050670504570007324,0.07909774780273438,0.45744240283966064
1707165095675786500,2.333786376953125,0.014852404594421387,-0.08183860778808594,0.37678098678588867
1707165095694747000,2.352746826171875,-0.0643773078918457,-0.17660999298095703,0.19745635986328125
1707165095713707300,2.371707275390625,-0.1030815839767456,-0.2159738540649414,0.14705228805541992
1707165095732667400,2.39066748046875,-0.07929813861846924,-0.19790172576904297,0.08178532123565674
1707165095751627800,2.409627685546875,-0.07095706462860107,-0.09081840515136719,-0.017923355102539062
1707165095770588000,2.428587890625,-0.12798655033111572,0.010888099670410156,-0.1353471279144287
1707165095789548300,2.44754833984375,-0.13946568965911865,0.13718605041503906,-0.12994790077209473
1707165095808508700,2.4665087890625,-0.017958641052246094,0.04207897186279297,-0.10962915420532227
1707165095827468800,2.48546875,-0.0091782808303833,-0.05681896209716797,-0.12588489055633545
1707165095846429200,2.50442919921875,-0.07056677341461182,0.011575698852539062,-0.030323386192321777
1707165095865389600,2.5233896484375,-0.049973368644714355,-0.033412933349609375,0.010365962982177734
1707165095884349700,2.542349609375,-0.047440171241760254,-0.023540496826171875,0.004321098327636719
1707165095903310000,2.56131005859375,-0.07286643981933594,-0.10225677490234375,-0.06041419506072998
1707165095922270200,2.580270263671875,-0.0838937759399414,-0.19277381896972656,-0.14106428623199463
1707165095941230600,2.599230712890625,-0.13286733627319336,-0.21123123168945312,-0.26024341583251953
1707165095960191000,2.61819091796875,-0.19795525074005127,-0.03609275817871094,-0.24300992488861084
1707165095979151400,2.6371513671875,-0.18432116508483887,0.11645317077636719,-0.1355292797088623
1707165095998111500,2.656111572265625,-0.09918904304504395,0.10575008392333984,-0.12073314189910889
1707165096017071900,2.67507177734375,-0.0002498626708984375,0.08451175689697266,-0.13656854629516602
1707165096036032300,2.6940322265625,0.08174514770507812,0.169647216796875,-0.031743645668029785
1707165096054992400,2.712992431640625,0.16259360313415527,0.2822256088256836,0.08372759819030762
1707165096073952800,2.731952880859375,0.21846365928649902,0.2798280715942383,0.12213706970214844
1707165096092913000,2.750912841796875,0.29371607303619385,0.23428821563720703,0.16115522384643555
1707165096111873300,2.769873291015625,0.2830268144607544,0.21225452423095703,0.22336745262145996
1707165096130833700,2.788833740234375,0.26364147663116455,0.09641361236572266,0.21013712882995605
1707165096149794000,2.8077939453125,0.1913081407546997,-0.06618976593017578,0.15833830833435059
1707165096168754200,2.826754150390625,0.10129499435424805,-0.17312240600585938,0.09250402450561523
1707165096187714600,2.845714599609375,0.019501090049743652,-0.22865009307861328,0.0689232349395752
1707165096206674700,2.8646748046875,-0.01374971866607666,-0.22205352783203125,-0.0036306381225585938
1707165096225635000,2.883635009765625,0.020966410636901855,-0.2598152160644531,-0.09208047389984131
1707165096244595500,2.902595458984375,0.0456085205078125,-0.22937297821044922,-0.148179292678833
1707165096263555800,2.921555908203125,0.06104755401611328,-0.17994403839111328,-0.1829240322113037
1707165096282516000,2.940515869140625,-0.013679027557373047,-0.0880746841430664,-0.2090855836868286
1707165096301476400,2.959476318359375,0.03760528564453125,-0.014395713806152344,-0.1372743844985962
1707165096320436700,2.978436767578125,0.026105642318725586,0.06961917877197266,-0.1405503749847412
1707165096339396900,2.99739697265625,-0.01639842987060547,0.16236114501953125,-0.1486499309539795
1707165096358357200,3.016357177734375,-0.04496490955352783,0.17840099334716797,-0.0781869888305664
1707165096377317600,3.035317626953125,0.005882620811462402,0.09583854675292969,-0.08001184463500977
1707165096396277800,3.05427783203125,0.017298221588134766,-0.016588211059570312,-0.07933998107910156
1707165096415238100,3.073238037109375,-0.01286935806274414,-0.07367324829101562,-0.03995156288146973
1707165096434198500,3.092198486328125,-0.05560314655303955,0.02193737030029297,0.15517687797546387
1707165096453158700,3.11115869140625,-0.02763831615447998,0.00485992431640625,0.29544782638549805
1707165096472119000,3.130119140625,0.07534229755401611,-0.11721515655517578,0.3486013412475586
1707165096491079400,3.149079345703125,0.17899560928344727,-0.2607431411743164,0.2323899269104004
1707165096510039600,3.16803955078125,0.13710153102874756,-0.1083993911743164,0.08302497863769531
1707165096529000000,3.187,0.1225501298904419,0.1304941177368164,0.19917917251586914
1707165096547960300,3.205960205078125,0.206817626953125,0.21410179138183594,0.32061123847961426
1707165096566920700,3.224920654296875,0.27059221267700195,0.1708049774169922,0.33594250679016113
1707165096585880800,3.243880859375,0.2711745500564575,0.034020423889160156,0.2761728763580322
1707165096604841200,3.26284130859375,0.18262314796447754,-0.07031536102294922,0.23846864700317383
1707165096623801300,3.28180126953125,0.1554877758026123,-0.1782817840576172,0.293367862701416
1707165096642761700,3.30076171875,0.13616514205932617,-0.23179149627685547,0.4191467761993408
1707165096661722000,3.31972216796875,0.10282313823699951,-0.27791786193847656,0.5241875648498535
1707165096680682500,3.3386826171875,-0.008849859237670898,-0.210052490234375,0.5432705879211426
1707165096699642600,3.357642578125,-0.15115845203399658,-0.1196126937866211,0.46854114532470703
1707165096718603000,3.37660302734375,-0.3029041290283203,-0.15486431121826172,0.26282811164855957
1707165096737563400,3.3955634765625,-0.44158077239990234,-0.1758441925048828,-0.07546234130859375
1707165096756523500,3.4145234375,-0.47731244564056396,-0.227569580078125,-0.3694021701812744
1707165096775484000,3.43348388671875,-0.5369908809661865,-0.20864105224609375,-0.6450915336608887
1707165096794444300,3.4524443359375,-0.452365517616272,-0.014117240905761719,-0.676490306854248
1707165096813404700,3.47140478515625,-0.33956801891326904,0.08890533447265625,-0.6696975231170654
1707165096832364800,3.49036474609375,-0.1722724437713623,0.14990901947021484,-0.6790174245834351
1707165096851325200,3.5093251953125,-0.06986355781555176,0.28079795837402344,-0.5750600099563599
1707165096870285600,3.52828564453125,0.09682846069335938,0.45577335357666016,-0.4297316074371338
1707165096889245700,3.54724560546875,0.2484121322631836,0.5114164352416992,-0.2534162998199463
1707165096908206000,3.5662060546875,0.39372313022613525,0.4899616241455078,-0.1828305721282959
1707165096927166500,3.58516650390625,0.45868027210235596,0.41016292572021484,-0.16977953910827637
1707165096946126800,3.604126953125,0.35537660121917725,0.32651329040527344,-0.22353768348693848
1707165096965087000,3.6230869140625,0.20383679866790771,0.16041946411132812,-0.32469725608825684
1707165096984047400,3.64204736328125,0.0368344783782959,0.14077377319335938,-0.35943150520324707
1707165097003007500,3.661007568359375,-0.08669662475585938,0.11945438385009766,-0.2982003688812256
1707165097021968000,3.6799677734375,-0.1277085542678833,0.06790924072265625,-0.21326494216918945
1707165097040928300,3.69892822265625,-0.14299333095550537,0.018762588500976562,-0.1639242172241211
1707165097059888600,3.717888671875,-0.17847347259521484,-0.13224220275878906,-0.20150470733642578
1707165097078848800,3.736848876953125,-0.214563250541687,-0.2118091583251953,-0.2678673267364502
1707165097097809200,3.75580908203125,-0.2625237703323364,-0.14662742614746094,-0.27974653244018555
1707165097116769500,3.77476953125,-0.321901798248291,-0.0758819580078125,-0.23438215255737305
1707165097135729700,3.793729736328125,-0.2778627872467041,-0.005972862243652344,-0.1719222068786621
1707165097154690000,3.81268994140625,-0.16804301738739014,0.08344841003417969,-0.037995100021362305
1707165097173650400,3.831650390625,-0.0880899429321289,0.05596637725830078,0.055490970611572266
1707165097192610800,3.85061083984375,0.004333376884460449,-0.025758743286132812,0.01820206642150879
1707165097211571000,3.869571044921875,0.0408322811126709,-0.06316375732421875,-0.023427486419677734
1707165097230531300,3.88853125,0.017855286598205566,-0.0781087875366211,-0.11449122428894043
1707165097249491700,3.90749169921875,-0.04019784927368164,0.0807962417602539,-0.10697531700134277
1707165097268451800,3.926451904296875,-0.13408589363098145,0.27115535736083984,-0.029242515563964844
1707165097287412200,3.945412109375,-0.17428255081176758,0.41294384002685547,0.04789423942565918
1707165097306372600,3.96437255859375,-0.16784238815307617,0.3839559555053711,0.12735819816589355
1707165097325332700,3.983332763671875,-0.1483997106552124,0.25083255767822266,0.11609268188476562
1707165097344293000,4.002293212890625,-0.13435328006744385,0.12944507598876953,0.14742565155029297
1707165097363253500,4.02125341796875,-0.09806704521179199,-0.035305023193359375,0.17968082427978516
1707165097382213600,4.040213623046875,-0.0694664716720581,-0.16053485870361328,0.16977429389953613
1707165097401174000,4.059174072265625,-0.07438838481903076,-0.2933778762817383,0.0585482120513916
1707165097420134400,4.078134521484375,-0.08819377422332764,-0.3307065963745117,-0.10617947578430176
1707165097439094800,4.0970947265625,-0.14625394344329834,-0.2372732162475586,-0.10204482078552246
1707165097458055000,4.116054931640625,-0.12666618824005127,-0.17662429809570312,-0.07626461982727051
1707165097477015300,4.135015380859375,-0.088753342628479,-0.17649459838867188,-0.08232903480529785
1707165097495975700,4.1539755859375,-0.14352929592132568,-0.055464744567871094,-0.019509077072143555
1707165097514935800,4.172935791015625,-0.14914095401763916,-0.06013679504394531,0.08695197105407715
1707165097533896200,4.191896240234375,-0.03242671489715576,-0.21867656707763672,0.08008241653442383
1707165097552856300,4.210856201171875,-0.015356063842773438,-0.4027824401855469,0.05011892318725586
1707165097571816700,4.229816650390625,-0.05431711673736572,-0.5329751968383789,0.08942079544067383
1707165097590777000,4.248777099609375,-0.10877585411071777,-0.5294599533081055,0.15550518035888672
1707165097609737500,4.267737548828125,-0.0920255184173584,-0.339630126953125,0.2733769416809082
1707165097628697600,4.286697509765625,-0.054558753967285156,-0.17780303955078125,0.34195566177368164
1707165097647658000,4.305657958984375,-0.02102804183959961,-0.12360668182373047,0.27164340019226074
1707165097666618400,4.324618408203125,0.0045392513275146484,-0.10343456268310547,0.16544532775878906
1707165097685578800,4.343578857421875,0.023462772369384766,-0.014758110046386719,0.047383785247802734
1707165097704539000,4.362538818359375,0.039270997047424316,0.2038402557373047,-0.07870244979858398
1707165097723499300,4.381499267578125,0.049161314964294434,0.49137020111083984,-0.2599276304244995
1707165097742459400,4.40045947265625,0.11749887466430664,0.6788568496704102,-0.4530189037322998
1707165097761419800,4.419419677734375,0.17778217792510986,0.9312257766723633,-0.5327184200286865
1707165097780380200,4.438380126953125,0.1502091884613037,1.1137733459472656,-0.44382500648498535
1707165097799340300,4.45734033203125,0.11414504051208496,0.9686155319213867,-0.09138059616088867
1707165097818300700,4.47630078125,0.16591453552246094,0.6123809814453125,0.23121428489685059
1707165097837261000,4.495260986328125,0.2531852722167969,0.03715801239013672,0.46313250064849854
1707165097856221400,4.514221435546875,0.2281200885772705,-0.4482889175415039,0.5590329170227051
1707165097875181600,4.533181640625,0.16700851917266846,-0.3875865936279297,0.5538977384567261
1707165097894142000,4.552141845703125,0.032552123069763184,-0.33361339569091797,0.475685715675354
1707165097913102000,4.57110205078125,-0.1617978811264038,-0.3335123062133789,0.14596378803253174
1707165097932062500,4.5900625,-0.3602406978607178,-0.1214437484741211,-0.1630169153213501
1707165097951022800,4.60902294921875,-0.49800074100494385,0.010455131530761719,-0.33827877044677734
1707165097969983200,4.627983154296875,-0.47546911239624023,0.014388084411621094,-0.4248007535934448
1707165097988943400,4.646943359375,-0.27740025520324707,-0.0016384124755859375,-0.3778982162475586
1707165098007903700,4.66590380859375,-0.050434231758117676,-0.13338088989257812,-0.20962369441986084
1707165098026863900,4.68486376953125,0.17813706398010254,-0.36970043182373047,-0.18165838718414307
1707165098045824300,4.70382421875,0.25924742221832275,-0.3441019058227539,-0.253351092338562
1707165098064784600,4.72278466796875,0.23804545402526855,-0.28586769104003906,-0.3469761610031128
1707165098083744800,4.741744873046875,0.21298611164093018,-0.27202606201171875,-0.3981989622116089
1707165098102705200,4.760705078125,0.19785988330841064,-0.2379741668701172,-0.24930870532989502
1707165098121665300,4.779665283203125,0.22480559349060059,-0.24938488006591797,-0.10481119155883789
1707165098140625700,4.798625732421875,0.21102690696716309,-0.16512393951416016,0.005224823951721191
1707165098159586000,4.8175859375,0.15899574756622314,-0.026912689208984375,0.025351285934448242
1707165098178546400,4.83654638671875,0.11656153202056885,-0.05523490905761719,0.10227000713348389
1707165098197506600,4.855506591796875,0.14274096488952637,-0.0994272232055664,0.17876243591308594
1707165098216467000,4.874467041015625,0.20981872081756592,-0.11191272735595703,0.24295616149902344
1707165098235427000,4.893427001953125,0.2232987880706787,-0.12781810760498047,0.25144803524017334
1707165098254387500,4.912387451171875,0.1557098627090454,-0.11225223541259766,0.18838798999786377
1707165098273347800,4.931347900390625,0.07482433319091797,-0.11609458923339844,0.018787384033203125
1707165098292308200,4.95030810546875,-0.007561445236206055,-0.08698654174804688,-0.08715605735778809
1707165098311268400,4.969268310546875,-0.0612255334854126,-0.029376983642578125,-0.02203989028930664
1707165098330228700,4.988228759765625,-0.0559539794921875,0.07933330535888672,0.15582799911499023
1707165098349188900,5.00718896484375,-0.05022227764129639,0.0812835693359375,0.2202547788619995
1707165098368149200,5.026149169921875,-0.06395483016967773,0.07863330841064453,0.26370668411254883
1707165098387109600,5.045109619140625,-0.0765380859375,0.16340351104736328,0.39241302013397217
1707165098406069800,5.06406982421875,-0.07855665683746338,0.2542276382446289,0.6255345344543457
1707165098425030100,5.083030029296875,-0.061237454414367676,0.2797412872314453,0.8128536939620972
1707165098443990500,5.101990478515625,-0.07914853096008301,0.29099082946777344,0.9730470180511475
1707165098462950700,5.12095068359375,-0.14014959335327148,0.24388599395751953,1.0667144060134888
1707165098481911000,5.1399111328125,-0.11568629741668701,0.0039463043212890625,0.9837911128997803
1707165098500871200,5.15887109375,-0.12741875648498535,-0.08898353576660156,0.8141051530838013
1707165098519831600,5.17783154296875,-0.3029804229736328,-0.12263107299804688,0.6250152587890625
1707165098538792000,5.1967919921875,-0.43649399280548096,-0.09691905975341797,0.49195194244384766
1707165098557752000,5.215751953125,-0.47715628147125244,-0.053974151611328125,0.4801819324493408
1707165098576712400,5.23471240234375,-0.39797520637512207,-0.12103080749511719,0.44873857498168945
1707165098595672600,5.253672607421875,-0.3624148368835449,-0.10838031768798828,0.44658493995666504
1707165098614633000,5.272633056640625,-0.3027735948562622,-0.0011377334594726562,0.4526939392089844
1707165098633593000,5.291593017578125,-0.3126157522201538,-0.08868217468261719,0.47776246070861816
1707165098652553500,5.310553466796875,-0.1831284761428833,-0.23582172393798828,0.47939634323120117
1707165098671513900,5.329513916015625,-0.20580542087554932,-0.22174358367919922,0.4521981477737427
1707165098690474200,5.34847412109375,-0.27306556701660156,-0.19816112518310547,0.4835168123245239
1707165098709434400,5.367434326171875,-0.27953028678894043,-0.18444538116455078,0.5332820415496826
1707165098728394800,5.386394775390625,-0.23624682426452637,-0.18669605255126953,0.6443918943405151
1707165098747355000,5.40535498046875,-0.23175084590911865,-0.20645618438720703,0.7270551919937134
1707165098766315300,5.424315185546875,-0.28945887088775635,-0.2335519790649414,0.7841038703918457
1707165098785275400,5.443275390625,-0.33486032485961914,-0.2558145523071289,0.8985060453414917
1707165098804235800,5.46223583984375,-0.41568684577941895,-0.36255550384521484,0.8862981796264648
1707165098823196000,5.48119580078125,-0.4392712116241455,-0.46768665313720703,0.8275943994522095
1707165098842156300,5.50015625,-0.4436357021331787,-0.5464286804199219,0.8367538452148438
1707165098861116700,5.51911669921875,-0.5841519832611084,-0.5819292068481445,0.8333917856216431
1707165098880076800,5.538076904296875,-0.596695065498352,-0.5130949020385742,0.7531793117523193
1707165098899037200,5.557037109375,-0.6732485294342041,-0.4380655288696289,0.7366520166397095
1707165098917997600,5.57599755859375,-0.8371424674987793,-0.03236961364746094,0.754711389541626
1707165098936957700,5.594957763671875,-1.04337739944458,0.6466026306152344,0.7862752079963684
1707165098955918000,5.61391796875,-1.1273877620697021,1.4092836380004883,0.9327208995819092
1707165098974878200,5.632878173828125,-1.3773632049560547,2.049067497253418,1.354504942893982
1707165098993838600,5.651838623046875,-1.681172490119934,1.7253189086914062,2.0367624759674072
1707165099012798700,5.670798828125,-1.224876046180725,1.30865478515625,2.4565296173095703
1707165099031759000,5.689759033203125,-1.1950386762619019,1.821817398071289,3.903690814971924
1707165099050719500,5.708719482421875,-1.0130503177642822,1.3322162628173828,4.408498764038086
1707165099069679600,5.7276796875,-1.0644383430480957,0.6110725402832031,3.6889734268188477
1707165099088640000,5.746639892578125,-2.515346050262451,1.6640052795410156,3.1010897159576416
1707165099107600100,5.76560009765625,-3.9809322357177734,2.6720314025878906,2.5457563400268555
1707165099126560500,5.784560546875,-4.049799919128418,1.099278450012207,1.9726645946502686
1707165099145520600,5.803520751953125,-3.126934051513672,-2.308478355407715,1.6867496967315674
1707165099164481000,5.82248095703125,-2.722612142562866,-4.999753952026367,1.6471545696258545
1707165099183441400,5.84144140625,-3.0059685707092285,-6.606111526489258,1.7620338201522827
1707165099202401500,5.860401611328125,-3.1121912002563477,-7.335616588592529,2.39083194732666
1707165099221362000,5.87936181640625,-2.727569580078125,-7.747984409332275,2.1468355655670166
1707165099240322000,5.898322021484375,-2.6521573066711426,-6.435059547424316,1.312229871749878
1707165099259282400,5.917282470703125,-3.2871179580688477,-3.20413875579834,0.9446218013763428
1707165099278242800,5.936242919921875,-3.886404514312744,0.23892879486083984,0.8761394023895264
1707165099297203000,5.955202880859375,-3.834860324859619,2.310710906982422,0.8346025943756104
1707165099316163300,5.974163330078125,-3.1032748222351074,3.723416328430176,0.8288393020629883
1707165099335123500,5.99312353515625,-2.033663749694824,5.171808242797852,1.9496850967407227
1707165099354083800,6.012083740234375,-0.7105865478515625,5.575037956237793,3.042510986328125
1707165099373044000,6.0310439453125,0.5792086124420166,6.1128997802734375,4.300759792327881
1707165099392004400,6.05000439453125,1.2862186431884766,7.240353584289551,5.105267524719238
1707165099410964500,6.068964599609375,2.155484199523926,8.503087997436523,4.0672607421875
1707165099429924900,6.0879248046875,0.11964058876037598,8.877840042114258,0.5429110527038574
1707165099448885000,6.106885009765625,0.5626733303070068,6.313222885131836,-3.3470444679260254
1707165099467845400,6.125845458984375,5.076059818267822,4.600266456604004,-8.38560676574707
1707165099486805800,6.1448056640625,4.94276237487793,3.6624813079833984,-12.981239318847656
1707165099505766000,6.163765869140625,2.6610846519470215,3.783095359802246,-10.381872177124023
1707165099524726300,6.182726318359375,3.35666561126709,3.7281904220581055,-4.914205551147461
1707165099543686700,6.201686767578125,3.293302536010742,3.156106948852539,-3.6710405349731445
1707165099562646800,6.220646728515625,2.4357104301452637,3.3985700607299805,-2.338899850845337
1707165099581607200,6.239607177734375,4.456727504730225,6.2339630126953125,-1.4372087717056274
1707165099600567300,6.2585673828125,4.693106651306152,6.723933219909668,-0.003307342529296875
1707165099619527700,6.277527587890625,3.790529251098633,6.764476776123047,1.3311139345169067
1707165099638487800,6.29648779296875,1.4526958465576172,9.098116874694824,4.313336372375488
1707165099657448200,6.3154482421875,-0.6930270195007324,9.332376480102539,5.868930816650391
1707165099676408300,6.334408203125,-2.722008228302002,5.538861274719238,4.434367656707764
1707165099695368700,6.35336865234375,-4.580116271972656,1.4457011222839355,2.8686604499816895
1707165099714328800,6.372328857421875,-6.374927043914795,-1.1230082511901855,2.69457745552063
1707165099733289200,6.391289306640625,-7.822231769561768,-3.1542229652404785,3.2396998405456543
1707165099752249600,6.41024951171875,-8.173097610473633,-5.461302280426025,3.6735453605651855
1707165099771209700,6.429209716796875,-8.15843677520752,-7.764948844909668,3.823188304901123
1707165099790170000,6.448170166015625,-8.355093002319336,-9.447340965270996,3.455280065536499
1707165099809130500,6.467130615234375,-9.173225402832031,-10.548629760742188,3.3218023777008057
1707165099828090600,6.486090576171875,-9.622169494628906,-10.158028602600098,3.0415313243865967
1707165099847051000,6.505051025390625,-9.603263854980469,-9.162931442260742,2.5566585063934326
1707165099866011100,6.52401123046875,-9.506179809570312,-9.877076148986816,2.11557674407959
1707165099884971500,6.542971435546875,-8.251068115234375,-10.812053680419922,1.8987417221069336
1707165099903931600,6.561931640625,-7.507150650024414,-10.486587524414062,2.2220280170440674
1707165099922892000,6.58089208984375,-7.2138519287109375,-8.841301918029785,3.058720111846924
1707165099941852400,6.599852294921875,-4.610086917877197,-4.400171756744385,2.6197566986083984
1707165099960812800,6.618812744140625,-0.7679088115692139,7.159156799316406,0.6901282072067261
1707165099979773000,6.63777294921875,-1.5124666690826416,19.401546478271484,2.0431904792785645
1707165099998733300,6.6567333984375,2.745048999786377,20.80451202392578,1.5557568073272705
1707165100017693400,6.675693359375,7.456721305847168,21.328414916992188,2.106703042984009
1707165100036653800,6.69465380859375,7.174305438995361,17.611356735229492,3.676137924194336
1707165100055614000,6.713614013671875,5.245944976806641,13.177241325378418,5.567068099975586
1707165100074574300,6.73257421875,3.9930291175842285,11.674654960632324,5.668391227722168
1707165100093534700,6.75153466796875,2.197969436645508,9.011140823364258,4.812450408935547
1707165100112495000,6.7704951171875,1.649962306022644,4.269491195678711,1.813516616821289
1707165100131455200,6.789455322265625,0.606433093547821,0.3682975769042969,-1.891716480255127
1707165100150415600,6.80841552734375,-1.6429355144500732,-1.6605253219604492,-6.238626003265381
1707165100169375700,6.827375732421875,-2.478592872619629,-3.811380386352539,-10.73328971862793
1707165100188336000,6.846336181640625,-2.36409330368042,-7.115412712097168,-14.297504425048828
1707165100207296500,6.865296630859375,-1.7495765686035156,-9.591748237609863,-14.494274139404297
1707165100226256600,6.884256591796875,-1.7767797708511353,-9.058174133300781,-12.761940002441406
1707165100245217000,6.903217041015625,-0.2049025297164917,-6.922167778015137,-10.57658863067627
1707165100264177200,6.92217724609375,1.609199047088623,-6.349879264831543,-8.032621383666992
1707165100283137500,6.941137451171875,2.154966115951538,-7.164609909057617,-5.611326694488525
1707165100302098000,6.960097900390625,2.017056703567505,-7.519384384155273,-3.8296360969543457
1707165100321058300,6.979058349609375,1.9225784540176392,-3.016247272491455,-2.9500725269317627
1707165100340018400,6.998018310546875,2.039642333984375,10.695024490356445,0.455350399017334
1707165100358978800,7.016978759765625,6.315950393676758,14.61676025390625,4.605593204498291
1707165100377939000,7.03593896484375,11.735913276672363,11.701552391052246,-1.2531986236572266
1707165100396899300,7.0548994140625,7.894257068634033,14.763276100158691,0.06382417678833008
1707165100415859700,7.073859619140625,4.701629638671875,13.230398178100586,-0.11168777942657471
1707165100434820000,7.092820068359375,0.8031678199768066,9.189298629760742,-0.5388234853744507
1707165100453780200,7.1117802734375,-1.5334501266479492,6.639191627502441,0.874671220779419
1707165100472740600,7.13074072265625,-2.575087070465088,3.8749141693115234,2.7887675762176514
1707165100491701000,7.149700927734375,-4.080330848693848,0.4181938171386719,2.7778525352478027
1707165100510661000,7.1686611328125,-5.874149799346924,-2.226019859313965,1.8214017152786255
1707165100529621500,7.18762158203125,-7.3933424949646,-4.810889720916748,0.959600567817688
1707165100548581600,7.20658154296875,-8.023612976074219,-7.3576340675354,1.4539899826049805
1707165100567542000,7.2255419921875,-8.017595291137695,-9.89468002319336,2.244093418121338
1707165100586502400,7.24450244140625,-8.495935440063477,-12.54056167602539,2.1831395626068115
1707165100605462800,7.263462890625,-8.605700492858887,-12.925856590270996,2.500767707824707
1707165100624423000,7.2824228515625,-8.661298751831055,-11.566222190856934,3.6689324378967285
1707165100643383300,7.30138330078125,-8.52842903137207,-11.211565017700195,4.781552314758301
1707165100662343700,7.32034375,-7.823365688323975,-11.891373634338379,5.01210355758667
1707165100681304000,7.339303955078125,-6.610923767089844,-11.44858169555664,4.825704097747803
1707165100700264200,7.35826416015625,-3.3896706104278564,-6.4781060218811035,3.9571638107299805
1707165100719224600,7.377224609375,1.5424189567565918,7.7352190017700195,1.5593492984771729
1707165100738185000,7.39618505859375,-2.81943678855896,22.660863876342773,2.4336769580841064
1707165100757145000,7.41514501953125,2.186814308166504,25.795249938964844,1.3453826904296875
1707165100776105500,7.43410546875,8.80063533782959,23.067092895507812,0.2043302059173584
1707165100795065900,7.45306591796875,8.895437240600586,18.658336639404297,0.9103195667266846
1707165100814026000,7.47202587890625,6.508895397186279,12.52750015258789,1.7299671173095703
1707165100832986400,7.490986328125,4.563581943511963,10.132427215576172,1.267280101776123
1707165100851946800,7.50994677734375,2.00636887550354,8.663469314575195,1.217489242553711
1707165100870907000,7.528906982421875,2.0848851203918457,4.0067596435546875,0.32153964042663574
1707165100889867300,7.5478671875,1.2690316438674927,-0.5748624801635742,-1.6226708889007568
1707165100908827600,7.56682763671875,-1.5691914558410645,-3.400722026824951,-4.500847816467285
1707165100927787800,7.585787841796875,-2.099696159362793,-6.536645889282227,-7.8201518058776855
1707165100946748200,7.604748046875,-2.790369987487793,-10.212610244750977,-10.247871398925781
1707165100965708500,7.62370849609375,-3.269948959350586,-11.679609298706055,-11.431079864501953
1707165100984669000,7.6426689453125,-3.8084287643432617,-10.624590873718262,-12.070673942565918
1707165101003629000,7.661629150390625,-2.21466326713562,-9.432158470153809,-10.973587036132812
1707165101022589400,7.68058935546875,-0.08973348140716553,-8.84060287475586,-8.915058135986328
1707165101041549800,7.6995498046875,0.45801854133605957,-8.02341079711914,-7.476163864135742
1707165101060510200,7.71851025390625,0.729705810546875,-5.9037017822265625,-5.31210994720459
1707165101079470300,7.73747021484375,2.655446767807007,2.6458377838134766,-4.270707130432129
1707165101098430700,7.7564306640625,3.666926622390747,16.53619384765625,1.1703752279281616
1707165101117391000,7.77539111328125,9.346063613891602,12.058229446411133,1.1495288610458374
1707165101136351200,7.794351318359375,11.815351486206055,13.715865135192871,-1.9468822479248047
1707165101155311600,7.8133115234375,7.525026798248291,15.455707550048828,0.22594785690307617
1707165101174271700,7.832271728515625,4.0018205642700195,11.881645202636719,0.09828221797943115
1707165101193232100,7.851232177734375,0.007359027862548828,9.49518871307373,1.8086445331573486
1707165101212192500,7.870192626953125,-2.3168256282806396,5.688769340515137,3.304086208343506
1707165101231153000,7.88915283203125,-4.580957889556885,0.9609346389770508,2.985126495361328
1707165101250113000,7.908113037109375,-6.866000175476074,-1.3571033477783203,2.1426732540130615
1707165101269073400,7.927073486328125,-8.38142204284668,-3.805758476257324,1.4926913976669312
1707165101288033800,7.94603369140625,-8.394058227539062,-7.6332244873046875,1.6289050579071045
1707165101306994200,7.964994140625,-8.39905071258545,-10.644224166870117,2.168084144592285
1707165101325954300,7.983954345703125,-9.358266830444336,-12.703566551208496,2.1353888511657715
1707165101344914700,8.002914794921875,-9.879195213317871,-12.962726593017578,2.7433433532714844
1707165101363875000,8.021875,-10.231071472167969,-11.757362365722656,4.167257308959961
1707165101382835200,8.040835205078125,-9.59644603729248,-11.0174560546875,5.887392997741699
1707165101401795600,8.059795654296876,-7.793994903564453,-11.477746963500977,6.123882293701172
1707165101420756000,8.078755859375,-6.322988510131836,-11.200508117675781,5.562302589416504
1707165101439716000,8.097716064453126,-2.4379515647888184,-5.652126789093018,4.245253086090088
1707165101458676500,8.116676513671875,1.4869544506072998,9.987196922302246,1.0944430828094482
1707165101477636900,8.135636962890626,-3.873185634613037,25.138626098632812,0.97773277759552
1707165101496597000,8.154596923828125,2.8770341873168945,27.0611572265625,-2.3262240886688232
1707165101515557400,8.173557373046876,8.738664627075195,25.78510093688965,-3.7664952278137207
1707165101534517800,8.192517822265625,7.926497936248779,19.78236961364746,-1.1670981645584106
1707165101553478000,8.211477783203126,6.778569221496582,13.051292419433594,1.12349534034729
1707165101572438300,8.230438232421875,5.400105953216553,9.810822486877441,2.768510580062866
1707165101591398700,8.249398681640624,4.331535339355469,6.341701507568359,3.1777257919311523
1707165101610358800,8.26835888671875,3.5475096702575684,0.7040033340454102,1.2808136940002441
1707165101629319200,8.287319091796874,1.1122716665267944,-2.7585067749023438,-1.6632788181304932
1707165101648279600,8.306279541015625,-1.5415974855422974,-4.599406719207764,-4.994367599487305
1707165101667239700,8.32523974609375,-3.1196188926696777,-7.333711624145508,-8.778909683227539
1707165101686200000,8.344199951171875,-2.6113884449005127,-10.95324993133545,-10.86956787109375
1707165101705160400,8.363160400390624,-2.690678596496582,-11.86555290222168,-10.823946952819824
1707165101724120600,8.38212060546875,-2.5357556343078613,-10.004693031311035,-10.457392692565918
1707165101743081000,8.4010810546875,-0.49920403957366943,-8.629056930541992,-9.04981803894043
1707165101762041300,8.420041259765625,0.5009856224060059,-8.40682315826416,-7.382717132568359
1707165101781001500,8.43900146484375,0.22059416770935059,-8.306434631347656,-6.685507774353027
1707165101799961900,8.4579619140625,-0.2752305269241333,-8.067353248596191,-6.119965553283691
1707165101818922000,8.476921875,1.5214183330535889,-4.8223958015441895,-6.310703277587891
1707165101837882400,8.49588232421875,2.2175467014312744,10.095788955688477,-5.327759742736816
1707165101856842800,8.5148427734375,4.184423446655273,17.327682495117188,4.370644569396973
1707165101875803000,8.533802978515626,11.55812931060791,11.861815452575684,0.46803295612335205
1707165101894763300,8.55276318359375,9.526302337646484,15.297199249267578,0.7189494371414185
1707165101913723600,8.5717236328125,6.1337785720825195,15.537043571472168,2.499774217605591
1707165101932683800,8.590683837890625,2.0131216049194336,11.980019569396973,2.310162305831909
1707165101951644200,8.60964404296875,-1.5694236755371094,8.338501930236816,2.3858866691589355
1707165101970604500,8.6286044921875,-3.759620428085327,2.883042335510254,2.4618067741394043
1707165101989564700,8.647564697265626,-6.185000896453857,-0.7942676544189453,1.8408938646316528
1707165102008525000,8.666525146484375,-8.081978797912598,-2.993657112121582,1.50868558883667
1707165102027485200,8.685485107421876,-8.406625747680664,-6.315571308135986,2.329352855682373
1707165102046445600,8.704445556640625,-7.951082706451416,-8.762971878051758,3.3979787826538086
1707165102065406000,8.723406005859376,-8.714997291564941,-10.232080459594727,3.8401546478271484
1707165102084366000,8.742365966796875,-9.920490264892578,-11.427979469299316,3.8129968643188477
1707165102103326500,8.761326416015624,-10.519737243652344,-11.009572982788086,4.715136528015137
1707165102122286800,8.780286865234375,-9.928354263305664,-11.319683074951172,6.377199649810791
1707165102141247000,8.7992470703125,-8.40461540222168,-13.12539291381836,6.886739253997803
1707165102160207400,8.818207275390625,-7.884637832641602,-13.018595695495605,7.299210071563721
1707165102179167500,8.83716748046875,-5.585641860961914,-8.532968521118164,7.453975677490234
1707165102198127900,8.8561279296875,1.7698287963867188,7.003835678100586,4.280910491943359
1707165102217088000,8.875087890625,-3.4529879093170166,24.94845962524414,4.0832343101501465
1707165102236048400,8.89404833984375,2.210036277770996,28.12649917602539,0.688097357749939
1707165102255008800,8.9130087890625,8.43364143371582,24.34014892578125,-3.307051181793213
1707165102273969000,8.931968994140625,3.298691749572754,19.586856842041016,-3.4323976039886475
1707165102292929300,8.95092919921875,2.639953136444092,15.697072982788086,-2.642179012298584
1707165102311889400,8.969889404296875,2.7789320945739746,10.36646556854248,-0.997184157371521
1707165102330849800,8.988849853515624,2.7388741970062256,7.245933532714844,0.25039172172546387
1707165102349810200,9.00781005859375,4.112408638000488,1.0246191024780273,0.20165038108825684
1707165102368770300,9.026770263671875,2.1729788780212402,-2.6934471130371094,-1.7888544797897339
1707165102387730700,9.045730712890625,-0.6270034313201904,-3.6638622283935547,-5.187640190124512
1707165102406690800,9.06469091796875,-1.4857854843139648,-6.382192134857178,-8.018743515014648
1707165102425651200,9.083651123046875,-1.688377857208252,-9.677865028381348,-9.924861907958984
1707165102444611300,9.102611328125,-2.031586170196533,-10.978767395019531,-11.773179054260254
1707165102463571700,9.12157177734375,-1.6207081079483032,-10.392769813537598,-13.349302291870117
1707165102482531800,9.14053173828125,-0.4128148555755615,-9.022245407104492,-11.811704635620117
1707165102501492200,9.1594921875,0.208282470703125,-8.469581604003906,-9.190906524658203
1707165102520452600,9.17845263671875,0.2242119312286377,-8.505373001098633,-7.975873947143555
1707165102539412700,9.197412841796876,0.929243803024292,-7.308313369750977,-8.033291816711426
1707165102558373000,9.216373046875,3.2376761436462402,0.9868459701538086,-8.493032455444336
1707165102577333200,9.235333251953126,2.737990379333496,22.988014221191406,-0.2833244800567627
1707165102596293600,9.254293701171875,8.86240291595459,18.7511043548584,5.198690891265869
1707165102615253800,9.273253662109376,11.935391426086426,9.90971565246582,-2.7425246238708496
1707165102634214100,9.292214111328125,6.1656084060668945,14.041295051574707,-0.10018432140350342
1707165102653174300,9.31117431640625,0.3565511703491211,14.784977912902832,0.1876382827758789
1707165102672134700,9.330134765625,-2.8861937522888184,10.964091300964355,0.8696814179420471
1707165102691094800,9.3490947265625,-5.081960678100586,6.33897590637207,3.2443463802337646
1707165102710055200,9.36805517578125,-7.051643371582031,2.3243961334228516,3.862548828125
1707165102729015300,9.387015380859374,-8.054441452026367,-1.3934931755065918,3.2871265411376953
1707165102747975700,9.4059755859375,-7.913433074951172,-5.5630903244018555,4.060336112976074
1707165102766935800,9.424935791015624,-8.382795333862305,-8.537694931030273,5.023777008056641
1707165102785896200,9.443896240234375,-10.076860427856445,-10.601943969726562,4.444817066192627
1707165102804856300,9.462856201171874,-11.911645889282227,-12.141695976257324,3.7891690731048584
1707165102823816700,9.481816650390625,-11.649977684020996,-12.31179428100586,4.782952308654785
1707165102842777000,9.500777099609374,-10.16604995727539,-12.032011032104492,7.146370887756348
1707165102861737200,9.5197373046875,-8.848601341247559,-12.761594772338867,8.030559539794922
1707165102880697600,9.538697509765624,-9.140426635742188,-13.031786918640137,7.708600997924805
1707165102899657700,9.55765771484375,-9.166284561157227,-10.32542610168457,6.470033645629883
1707165102918618000,9.5766181640625,-2.2938175201416016,0.43644142150878906,3.5436620712280273
1707165102937578200,9.595578125,-1.0749027729034424,18.67388153076172,0.48896706104278564
1707165102956538400,9.614538330078124,-4.237240791320801,30.132930755615234,-1.8202887773513794
1707165102975498800,9.633498779296875,4.654029846191406,31.818553924560547,-5.422189712524414
1707165102994459000,9.652458984375,8.191155433654785,22.43623924255371,-4.519837379455566
1707165103013419300,9.671419189453125,6.4388275146484375,18.038288116455078,0.0030057430267333984
1707165103032379400,9.69037939453125,4.093252182006836,13.998339653015137,2.5787830352783203
1707165103051339800,9.70933984375,5.483395099639893,8.731058120727539,2.2782647609710693
1707165103070300000,9.7282998046875,3.8392629623413086,1.7096014022827148,0.4467637538909912
1707165103089260300,9.74726025390625,-0.2897251844406128,-0.7215137481689453,-3.2734599113464355
1707165103108220400,9.766220458984375,-1.6415929794311523,-2.4581298828125,-7.469268321990967
1707165103127180800,9.785180908203126,-0.50670325756073,-6.157293796539307,-10.235633850097656
1707165103146141000,9.804140869140625,0.01706242561340332,-10.113086700439453,-10.160162925720215
1707165103165101000,9.82310107421875,-1.0643848180770874,-11.14467716217041,-9.693056106567383
1707165103184061400,9.8420615234375,-1.2148922681808472,-9.469266891479492,-10.77397346496582
1707165103203021600,9.861021484375,-0.42552685737609863,-7.65540075302124,-11.120814323425293
1707165103221982000,9.87998193359375,-0.1884441375732422,-7.484468460083008,-9.674181938171387
1707165103240942000,9.898942138671876,-0.22131586074829102,-8.298869132995605,-7.892392158508301
1707165103259902500,9.91790234375,-0.1849985122680664,-8.659330368041992,-6.997737407684326
1707165103278862600,9.936862548828126,0.5962409973144531,-6.270455360412598,-7.466277122497559
1707165103297822700,9.95582275390625,3.0953171253204346,8.059745788574219,-8.668874740600586
1707165103316783000,9.974783203125,1.9067554473876953,25.543426513671875,7.225044250488281
1707165103335743200,9.9937431640625,13.411547660827637,12.556623458862305,4.672741889953613
1707165103354703600,10.01270361328125,9.772565841674805,11.869927406311035,1.3358482122421265
1707165103373663700,10.031663818359375,6.714334487915039,11.135025024414062,1.2686418294906616
1707165103392624000,10.0506240234375,1.3909611701965332,11.20615291595459,3.1616857051849365
1707165103411584300,10.069584228515625,-2.905480146408081,8.03645133972168,3.589184284210205
1707165103430544400,10.08854443359375,-5.477260112762451,3.0950489044189453,3.1988532543182373
1707165103449504800,10.1075048828125,-7.196708679199219,-0.466097354888916,2.8765430450439453
1707165103468465000,10.12646484375,-7.873862266540527,-4.074141502380371,2.5314104557037354
1707165103487425300,10.14542529296875,-8.348094940185547,-7.815937519073486,2.6274943351745605
1707165103506385400,10.164385498046874,-9.937413215637207,-10.15040111541748,2.659069061279297
1707165103525345500,10.183345458984375,-11.420653343200684,-10.984537124633789,2.8409554958343506
1707165103544306000,10.202305908203124,-11.405891418457031,-11.651948928833008,3.4532322883605957
1707165103563266000,10.22126611328125,-10.297811508178711,-11.623550415039062,5.496692180633545
1707165103582226400,10.240226318359374,-9.338611602783203,-12.401723861694336,7.332515716552734
1707165103601186600,10.2591865234375,-8.418743133544922,-13.1092529296875,7.6378350257873535
1707165103620146700,10.278146728515624,-8.750983238220215,-12.012057304382324,6.829998016357422
1707165103639107000,10.297107177734375,-5.98962926864624,-6.142428398132324,5.39376163482666
1707165103658067200,10.316067138671874,0.505709171295166,12.319143295288086,1.3002406358718872
1707165103677027300,10.33502734375,-7.020000457763672,27.3619384765625,0.7717952728271484
1707165103695987700,10.35398779296875,-0.8346301317214966,28.134296417236328,-1.572041630744934
1707165103714947800,10.37294775390625,7.385150909423828,24.57491683959961,-2.787672996520996
1707165103733908200,10.391908203125,9.098190307617188,18.718364715576172,-1.113783359527588
1707165103752868400,10.410868408203125,7.477607250213623,14.287178993225098,1.320770263671875
1707165103771828500,10.429828369140624,6.217974662780762,10.617293357849121,1.7092132568359375
1707165103790788600,10.44878857421875,2.129023790359497,8.670807838439941,0.356701135635376
1707165103809749000,10.4677490234375,2.343691349029541,2.0869388580322266,-2.1295361518859863
1707165103828709000,10.486709228515625,0.9485136270523071,-3.096059799194336,-4.495085716247559
1707165103847669200,10.505669189453124,-0.18074655532836914,-5.339348793029785,-6.6934733390808105
1707165103866629600,10.524629638671875,-0.7400005459785461,-8.432530403137207,-8.3533935546875
1707165103885589800,10.54358984375,-0.21666759252548218,-10.901163101196289,-9.34880256652832
1707165103904550000,10.5625498046875,-0.37317633628845215,-11.218106269836426,-10.5649995803833
1707165103923510300,10.58151025390625,-0.045908451080322266,-9.519661903381348,-10.844928741455078
1707165103942470400,10.600470458984375,1.026517391204834,-8.035314559936523,-10.424115180969238
1707165103961430500,10.619430419921875,2.10446834564209,-7.580848693847656,-9.604195594787598
1707165103980391000,10.638390869140625,1.738595724105835,-7.314469337463379,-8.262205123901367
1707165103999351000,10.65735107421875,1.0786573886871338,-4.965785503387451,-6.872023582458496
1707165104018311200,10.676311279296876,2.726745128631592,8.166526794433594,-6.875799179077148
1707165104037271600,10.695271484375,1.5984406471252441,25.919416427612305,5.9814677238464355
1707165104056231700,10.714231689453126,12.453422546386719,9.907135963439941,1.358130693435669
1707165104075191800,10.73319189453125,10.246187210083008,12.092507362365723,-0.9829393029212952
1707165104094152200,10.752152099609376,4.525678634643555,16.945087432861328,2.6273303031921387
1707165104113112300,10.7711123046875,0.879997730255127,12.628501892089844,1.35109281539917
1707165104132072400,10.790072509765626,-2.883052110671997,8.479656219482422,2.126433849334717
1707165104151032600,10.809032470703125,-5.764606475830078,4.933845520019531,4.1425018310546875
1707165104169993000,10.827992919921876,-7.891994476318359,1.5914192199707031,4.323658466339111
1707165104188953000,10.846953125,-8.180502891540527,-3.544890880584717,2.9057247638702393
1707165104207913200,10.865913330078126,-7.869991302490234,-7.4639177322387695,2.194155693054199
1707165104226873600,10.88487353515625,-9.267585754394531,-9.294013977050781,2.2635533809661865
1707165104245833700,10.903833740234376,-10.181894302368164,-9.755556106567383,2.218991756439209
1707165104264793900,10.9227939453125,-11.494863510131836,-9.847721099853516,2.2815332412719727
1707165104283754200,10.941754150390626,-11.755876541137695,-10.282395362854004,3.0229978561401367
1707165104302714400,10.96071435546875,-10.233087539672852,-11.968938827514648,5.255417346954346
1707165104321674500,10.979674560546876,-7.666855812072754,-14.269469261169434,7.123819828033447
1707165104340635000,10.998634765625,-6.8684515953063965,-14.720479965209961,7.648744583129883
1707165104359595000,11.017594970703126,-7.850636005401611,-11.847967147827148,7.852435111999512
1707165104378555100,11.03655517578125,-3.4316964149475098,-2.309718132019043,5.856302261352539
1707165104397515500,11.055515625,1.8657598495483398,19.890165328979492,2.2569799423217773
1707165104416475400,11.074475341796875,-6.441920280456543,32.175384521484375,-1.8268015384674072
1707165104435435800,11.093435791015626,6.4962239265441895,34.08905792236328,-1.5668096542358398
1707165104454396000,11.11239599609375,9.878332138061523,22.88620948791504,-5.651261806488037
1707165104473356000,11.13135595703125,6.7375969886779785,14.074620246887207,-2.495586633682251
1707165104492316400,11.15031640625,3.758269786834717,9.437335968017578,1.2073767185211182
1707165104511276500,11.169276611328126,4.147887229919434,8.07313060760498,3.861966371536255
1707165104530236700,11.188236572265625,5.431649684906006,2.737691879272461,4.147514343261719
1707165104549197000,11.207197021484374,1.1041208505630493,-1.801274299621582,0.3776094913482666
1707165104568157200,11.2261572265625,-1.1605298519134521,-3.823399543762207,-5.350765705108643
1707165104587117300,11.245117431640624,-1.4227819442749023,-7.357170581817627,-9.184649467468262
1707165104606077700,11.26407763671875,-1.7700543403625488,-10.184503555297852,-10.217059135437012
1707165104625037800,11.283037841796874,-2.6631646156311035,-10.579763412475586,-11.067712783813477
1707165104643998000,11.301998046875,-2.3393640518188477,-9.862907409667969,-12.585548400878906
1707165104662958300,11.320958251953124,-1.6101315021514893,-9.142257690429688,-12.230669021606445
1707165104681918500,11.33991845703125,-0.7517967224121094,-7.773125648498535,-9.271183013916016
1707165104700878600,11.358878662109374,-0.7956171035766602,-6.291502952575684,-7.103127479553223
1707165104719838700,11.377838623046875,0.09990048408508301,-5.987702369689941,-5.793941497802734
1707165104738799000,11.396799072265624,2.951465129852295,-3.3549561500549316,-6.198895454406738
1707165104757759200,11.41575927734375,4.417395114898682,14.546913146972656,-3.7418246269226074
1707165104776719400,11.43471923828125,4.9635162353515625,22.689556121826172,8.794855117797852
1707165104795679700,11.4536796875,14.762029647827148,6.886673927307129,2.6083431243896484
1707165104814639900,11.472639892578124,10.170312881469727,11.368240356445312,-0.597440779209137
1707165104833600000,11.49160009765625,6.7528533935546875,11.924461364746094,0.7109044194221497
1707165104852560100,11.51056005859375,1.0915851593017578,12.357078552246094,1.0980411767959595
1707165104871520500,11.5295205078125,-3.453033447265625,9.77877140045166,2.336857318878174
1707165104890480600,11.548480712890624,-5.3749308586120605,3.338235855102539,3.2758493423461914
1707165104909440800,11.567440673828125,-6.694252014160156,-1.7465834617614746,2.4785637855529785
1707165104928401200,11.586401123046874,-7.787968635559082,-5.038638114929199,1.910172939300537
1707165104947361300,11.605361328125,-8.12874984741211,-8.376701354980469,2.400590181350708
1707165104966321400,11.6243212890625,-9.266596794128418,-10.070798873901367,2.8718667030334473
1707165104985281500,11.643281494140625,-10.253094673156738,-10.66092300415039,2.8868319988250732
1707165105004242000,11.662241943359374,-10.260751724243164,-10.39777946472168,3.5480690002441406
1707165105023202000,11.6812021484375,-9.967126846313477,-10.145158767700195,5.1443376541137695
1707165105042162400,11.700162353515625,-9.014750480651855,-11.47746753692627,6.159936904907227
1707165105061122600,11.71912255859375,-8.28239631652832,-12.64924430847168,6.288335800170898
1707165105080082700,11.738082763671875,-8.715755462646484,-12.43330192565918,6.346817493438721
1707165105099043000,11.75704296875,-9.437727928161621,-9.561910629272461,6.434441566467285
1707165105118003200,11.776003173828125,-6.6269025802612305,-2.503904342651367,5.249903202056885
1707165105136963300,11.79496337890625,2.3267111778259277,15.319880485534668,0.05083996057510376
1707165105155923700,11.813923828125,-5.990270137786865,27.66063690185547,-0.846583902835846
1707165105174883800,11.8328837890625,4.1351470947265625,30.95492935180664,-1.3400238752365112
1707165105193844000,11.851843994140625,6.752516746520996,21.67324447631836,-7.307282447814941
1707165105212804400,11.870804443359376,5.960541725158691,18.55307388305664,-4.232715606689453
1707165105231764500,11.889764404296875,3.528330087661743,13.137527465820312,-0.833898663520813
1707165105250724600,11.908724609375,3.2376763820648193,9.450455665588379,1.7736799716949463
1707165105269685000,11.92768505859375,4.85719633102417,5.2976274490356445,3.1511359214782715
1707165105288645000,11.94664501953125,4.525472640991211,-0.8647861480712891,1.7644517421722412
1707165105307605200,11.965605224609375,1.5578540563583374,-3.751063823699951,-2.4277470111846924
1707165105326565600,11.984565673828126,-1.554842233657837,-4.421119213104248,-7.7110490798950195
1707165105345525800,12.00352587890625,0.35891619324684143,-7.970400810241699,-11.332269668579102
1707165105364486000,12.02248583984375,1.5898027420043945,-11.095475196838379,-11.576688766479492
1707165105383446000,12.041446044921875,1.2725743055343628,-10.229467391967773,-11.108555793762207
1707165105402406400,12.060406494140626,1.7773447036743164,-7.304388999938965,-10.493720054626465
1707165105421366500,12.079366455078125,2.2534737586975098,-6.422050476074219,-9.227622985839844
1707165105440327000,12.098326904296876,2.2324583530426025,-7.150946140289307,-8.481132507324219
1707165105459287000,12.117287109375,0.38959527015686035,-6.3366570472717285,-7.833456516265869
1707165105478247200,12.1362470703125,1.2285337448120117,0.8454008102416992,-6.745462417602539
1707165105497207600,12.15520751953125,1.7355854511260986,17.707548141479492,0.8668146133422852
1707165105516167700,12.174167724609376,7.5293426513671875,17.496707916259766,7.711235046386719
1707165105535127800,12.1931279296875,10.415495872497559,14.290398597717285,3.4809699058532715
1707165105554088200,12.212088134765626,8.298648834228516,13.346939086914062,4.063321590423584
1707165105573048300,12.23104833984375,3.6396493911743164,12.190938949584961,3.0466878414154053
1707165105592008700,12.2500087890625,-1.2365789413452148,8.71826457977295,1.9937937259674072
1707165105610968800,12.26896875,-5.7558207511901855,4.010645866394043,0.9199171662330627
1707165105629929000,12.287928955078126,-7.502313613891602,-0.3538079261779785,0.08085685968399048
1707165105648889300,12.306889404296875,-8.667947769165039,-2.994062900543213,0.03716135025024414
1707165105667849500,12.325849365234374,-8.55274772644043,-5.406388759613037,0.7432340383529663
1707165105686809600,12.3448095703125,-8.585758209228516,-8.447014808654785,1.870173454284668
1707165105705770000,12.36377001953125,-9.367815017700195,-10.159093856811523,2.382493495941162
1707165105724730000,12.382730224609375,-9.782829284667969,-10.283153533935547,3.1042327880859375
1707165105743690500,12.4016904296875,-9.917872428894043,-9.977788925170898,4.590908527374268
1707165105762650600,12.420650634765625,-9.099678039550781,-10.58470344543457,6.536318778991699
1707165105781610800,12.43961083984375,-8.243043899536133,-11.979660034179688,8.183585166931152
1707165105800571100,12.458571044921875,-7.9591450691223145,-12.95499038696289,8.598124504089355
1707165105819531300,12.47753125,-8.13753890991211,-11.859277725219727,7.892577171325684
1707165105838491600,12.49649169921875,-7.245167255401611,-6.68085241317749,6.924042701721191
1707165105857451800,12.51545166015625,0.2714252471923828,10.386417388916016,2.9840664863586426
1707165105876412200,12.534412109375,-4.531955242156982,25.832664489746094,0.5723910331726074
1707165105895372300,12.553372314453124,-1.039483904838562,27.60089111328125,-1.446667194366455
1707165105914332400,12.57233251953125,4.6358489990234375,25.611316680908203,-4.254314422607422
1707165105933292800,12.591292724609374,4.781705856323242,21.942089080810547,-1.768059253692627
1707165105952253000,12.6102529296875,2.976539373397827,17.810283660888672,0.74753737449646
1707165105971213300,12.62921337890625,4.250946998596191,10.933825492858887,1.6611952781677246
1707165105990173400,12.64817333984375,4.405535697937012,4.267328262329102,1.5189216136932373
1707165106009133800,12.6671337890625,3.8621106147766113,-1.6254396438598633,0.5085604190826416
1707165106028094000,12.686093994140625,1.8309755325317383,-5.488704681396484,-2.6377506256103516
1707165106047054000,12.70505419921875,1.4005252122879028,-6.566743850708008,-7.592732906341553
1707165106066014500,12.724014404296875,2.405738353729248,-8.338452339172363,-10.448734283447266
1707165106084974600,12.742974609375,2.0324065685272217,-9.215932846069336,-10.261549949645996
1707165106103935000,12.76193505859375,1.541318416595459,-8.0135498046875,-11.240896224975586
1707165106122895000,12.78089501953125,2.1085314750671387,-7.3624372482299805,-11.644855499267578
1707165106141855500,12.79985546875,2.86002254486084,-7.920951843261719,-10.644615173339844
1707165106160815600,12.818815673828125,1.7386423349380493,-7.995258331298828,-8.315896987915039
1707165106179775700,12.837775634765626,0.4200235605239868,-7.15460205078125,-6.45070743560791
1707165106198736100,12.856736083984375,0.10564208030700684,-4.391900539398193,-5.076379776000977
1707165106217696300,12.8756962890625,4.088042259216309,8.690720558166504,-1.7720839977264404
1707165106236656600,12.89465673828125,2.4156153202056885,23.753276824951172,7.922637462615967
1707165106255616800,12.91361669921875,11.050825119018555,14.509995460510254,3.468494415283203
1707165106274577200,12.9325771484375,8.850435256958008,11.606749534606934,-0.022255420684814453
1707165106293537300,12.951537353515626,4.2980875968933105,12.516792297363281,0.41905832290649414
1707165106312497700,12.97049755859375,-0.6989126205444336,11.050063133239746,0.1790594458580017
1707165106331457800,12.989457763671876,-4.379636764526367,7.4943437576293945,0.6320841908454895
1707165106350418200,13.008418212890625,-5.59652853012085,2.635512351989746,1.7226835489273071
1707165106369378300,13.02737841796875,-7.011061668395996,-0.7036490440368652,3.0914969444274902
1707165106388338700,13.046338623046875,-8.044565200805664,-3.1810379028320312,3.5681655406951904
1707165106407298800,13.065298828125,-7.8690361976623535,-6.432351589202881,4.320587158203125
1707165106426259200,13.08425927734375,-8.74386978149414,-8.806142807006836,4.408270359039307
1707165106445219300,13.10321923828125,-10.444684982299805,-10.697193145751953,4.036120891571045
1707165106464179700,13.1221796875,-11.917202949523926,-12.331912994384766,4.367037296295166
1707165106483139800,13.141139892578124,-11.669164657592773,-12.675949096679688,5.263161659240723
1707165106502100200,13.160100341796875,-10.736001968383789,-13.065979957580566,6.7498087882995605
1707165106521060400,13.179060302734374,-9.756473541259766,-13.848939895629883,7.3909592628479
1707165106540020700,13.198020751953125,-9.765954971313477,-13.215221405029297,7.35715389251709
1707165106558980900,13.21698095703125,-9.066970825195312,-9.175853729248047,6.835119247436523
1707165106577941200,13.235941162109375,-0.1404433250427246,5.27098274230957,3.2780675888061523
1707165106596901400,13.2549013671875,-5.237470626831055,28.04175567626953,-0.6343263387680054
1707165106615861800,13.27386181640625,-0.7462193965911865,36.07056427001953,-1.9364147186279297
1707165106634822000,13.29282177734375,11.39265251159668,30.205533981323242,-3.7147159576416016
1707165106653782300,13.3117822265625,9.637462615966797,21.34247589111328,-4.318492412567139
1707165106672742700,13.33074267578125,8.052751541137695,12.606830596923828,-0.184295654296875
1707165106691702800,13.349702880859375,6.292122840881348,9.378358840942383,4.128809452056885
1707165106710663200,13.3686630859375,6.927943706512451,6.264641761779785,6.328089714050293
1707165106729623300,13.387623291015625,5.610412120819092,-1.6625404357910156,3.442694902420044
1707165106748583700,13.406583740234375,0.7483212947845459,-3.53912353515625,-1.6152422428131104
1707165106767543800,13.425543701171875,-1.3933669328689575,-4.301090240478516,-6.953421592712402
1707165106786504200,13.444504150390625,-0.2683817148208618,-8.11038875579834,-9.47918701171875
1707165106805464600,13.463464599609376,-1.1534905433654785,-10.346481323242188,-9.345135688781738
1707165106824424700,13.4824248046875,-1.9379175901412964,-10.369964599609375,-9.875650405883789
1707165106843385000,13.501385009765626,-1.2279396057128906,-9.659014701843262,-10.137880325317383
1707165106862345200,13.52034521484375,-0.6362742185592651,-8.486128807067871,-10.308513641357422
1707165106881305600,13.5393056640625,-0.5894412994384766,-7.4720587730407715,-9.7639799118042
1707165106900265700,13.558265625,-0.7650241851806641,-6.589415550231934,-8.228508949279785
1707165106919226000,13.57722607421875,0.2545442581176758,-4.708343029022217,-6.542043209075928
1707165106938186200,13.596186279296875,3.7688400745391846,9.671189308166504,-4.3589982986450195
1707165106957146600,13.615146728515626,0.8621256351470947,24.552549362182617,9.869606971740723
1707165106976106800,13.634106689453125,13.938979148864746,7.229545593261719,6.987185478210449
1707165106995067100,13.653067138671876,12.44098949432373,7.544076919555664,1.4380738735198975
1707165107014027500,13.672027587890625,9.455999374389648,9.876899719238281,1.14444899559021
1707165107032987600,13.690987548828126,2.097402572631836,13.388874053955078,0.7072829604148865
1707165107051948000,13.709947998046875,-4.330321311950684,10.8875093460083,0.03424626588821411
1707165107070908400,13.728908447265624,-6.438119888305664,4.707539081573486,1.3947700262069702
1707165107089868500,13.74786865234375,-6.899174213409424,-1.3134784698486328,2.4095616340637207
1707165107108829000,13.766828857421874,-7.443692207336426,-5.147709369659424,2.989070415496826
1707165107127789000,13.7857890625,-7.786913871765137,-7.726975917816162,3.812023639678955
1707165107146749400,13.80474951171875,-8.681443214416504,-9.257351875305176,4.035731315612793
1707165107165709600,13.82370947265625,-10.44166374206543,-10.280941009521484,3.45623779296875
1707165107184670000,13.842669921875,-11.377248764038086,-10.455162048339844,3.6084845066070557
1707165107203630300,13.86163037109375,-11.108222961425781,-10.153383255004883,4.979809284210205
1707165107222590700,13.8805908203125,-9.956153869628906,-10.3994140625,6.5723466873168945
1707165107241550800,13.89955078125,-8.216758728027344,-11.330740928649902,7.192374229431152
1707165107260511200,13.91851123046875,-7.547085762023926,-11.711793899536133,6.816941738128662
1707165107279471400,13.937471435546875,-7.136720657348633,-9.74118423461914,6.056788921356201
1707165107298431700,13.956431640625,-1.060396671295166,-0.5413045883178711,3.2714715003967285
1707165107317392000,13.975391845703125,-0.11678814888000488,18.34963607788086,0.8747941255569458
1707165107336352300,13.994352294921875,-4.478184700012207,30.67435646057129,-1.0922870635986328
1707165107355312600,14.013312744140626,7.756616592407227,28.501636505126953,-2.21803879737854
1707165107374273000,14.03227294921875,9.136167526245117,23.178447723388672,-5.437414646148682
1707165107393233200,14.051233154296876,3.1155459880828857,19.64697265625,-0.4013352394104004
1707165107412193500,14.070193603515625,3.6507673263549805,11.30601692199707,0.6596930027008057
1707165107431153700,14.089153564453126,5.716348648071289,6.0157060623168945,3.2861623764038086
1707165107450114000,14.108114013671875,6.252161979675293,1.7781133651733398,5.181397438049316
1707165107469074400,14.127074462890626,3.5281758308410645,-5.099755764007568,1.5836610794067383
1707165107488034600,14.14603466796875,1.9392645359039307,-8.32297134399414,-3.3759682178497314
1707165107506995000,14.164994873046876,0.8888189792633057,-8.241287231445312,-6.987827301025391
1707165107525955000,14.183955078125,-0.41386282444000244,-8.136624336242676,-9.599143981933594
1707165107544915500,14.20291552734375,-0.3760950565338135,-7.703370094299316,-11.340227127075195
1707165107563875800,14.221875732421875,-0.2614952325820923,-6.80067777633667,-13.053022384643555
1707165107582836000,14.2408359375,0.4187202453613281,-6.493590831756592,-11.724115371704102
1707165107601796400,14.25979638671875,0.19449734687805176,-7.19938850402832,-9.218963623046875
1707165107620756700,14.2787568359375,-0.5106489658355713,-7.611434459686279,-7.43536901473999
1707165107639716900,14.297716796875,-0.726905345916748,-6.498254299163818,-6.166363716125488
1707165107658677200,14.31667724609375,1.617466926574707,2.119381904602051,-5.920231819152832
1707165107677637400,14.335637451171875,-0.17635059356689453,22.37912940979004,1.7373296022415161
1707165107696597800,14.35459765625,8.040616989135742,18.949935913085938,8.761215209960938
1707165107715558100,14.37355810546875,11.36979866027832,11.632952690124512,2.955320358276367
1707165107734518500,14.3925185546875,7.101570129394531,10.768586158752441,2.9376015663146973
1707165107753478700,14.411478759765625,4.346414089202881,8.807829856872559,3.992039680480957
1707165107772439000,14.43043896484375,-0.5472526550292969,7.975190162658691,5.6416802406311035
1707165107791399200,14.449399169921875,-4.817520618438721,4.21444034576416,4.586498260498047
1707165107810359600,14.468359619140625,-6.885074615478516,-0.2856612205505371,1.9156725406646729
1707165107829319700,14.487319580078125,-7.471401214599609,-4.415249347686768,0.1335294246673584
1707165107848280000,14.506280029296875,-7.743656158447266,-7.018650531768799,0.1518428921699524
1707165107867240400,14.525240478515625,-9.029343605041504,-8.684879302978516,0.2606627941131592
1707165107886200800,14.544200927734375,-11.189774513244629,-10.706375122070312,0.151983380317688
1707165107905161000,14.563160888671876,-12.400659561157227,-11.985734939575195,0.32458704710006714
1707165107924121300,14.582121337890625,-11.69583797454834,-12.251394271850586,3.379493236541748
1707165107943081500,14.60108154296875,-9.729185104370117,-11.797079086303711,7.6440582275390625
1707165107962041900,14.620041748046875,-7.984630107879639,-11.30504322052002,9.731913566589355
1707165107981002000,14.639001953125,-8.187202453613281,-11.30545425415039,8.744020462036133
1707165107999962400,14.65796240234375,-8.94584846496582,-9.466998100280762,7.649685859680176
1707165108018922800,14.6769228515625,-3.5188519954681396,0.3527994155883789,4.484938621520996
1707165108037883000,14.6958828125,-1.426903486251831,22.430402755737305,1.232568621635437
1707165108056843300,14.71484326171875,-4.6862406730651855,30.882583618164062,-0.060835838317871094
1707165108075803600,14.7338037109375,5.527376174926758,28.626888275146484,-5.518764495849609
1707165108094763800,14.752763671875,5.061287879943848,24.737178802490234,-6.778730392456055
1707165108113724200,14.77172412109375,3.4934263229370117,19.850473403930664,-2.37856388092041
1707165108132684300,14.790684326171874,5.144227027893066,11.218480110168457,1.854416847229004
1707165108151644700,14.809644775390625,8.385527610778809,5.448866844177246,6.091448783874512
1707165108170605000,14.82860498046875,9.23061466217041,0.8279638290405273,7.600381851196289
1707165108189565200,14.847565185546875,4.228147029876709,-4.02519416809082,2.6063954830169678
1707165108208525600,14.866525634765624,0.5779540538787842,-4.307554721832275,-3.91153621673584
1707165108227485700,14.885485595703125,-2.168391227722168,-5.673114776611328,-9.193099975585938
1707165108246446000,14.904446044921874,-0.9589976072311401,-8.545305252075195,-10.815240859985352
1707165108265406500,14.923406494140625,-1.044355034828186,-9.884223937988281,-10.43397045135498
1707165108284366600,14.94236669921875,-0.287497878074646,-8.849786758422852,-10.740005493164062
1707165108303327000,14.961326904296875,0.35091423988342285,-8.45798397064209,-10.817622184753418
1707165108322287000,14.980287109375,-0.037625789642333984,-8.659957885742188,-10.047887802124023
1707165108341247500,14.99924755859375,-0.3688638210296631,-8.306870460510254,-9.031269073486328
1707165108360207600,15.01820751953125,-0.7848279476165771,-7.504196643829346,-8.193233489990234
1707165108379168000,15.03716796875,0.7357239723205566,-2.295663833618164,-6.423177719116211
1707165108398128400,15.05612841796875,1.658198356628418,20.131244659423828,2.1891379356384277
1707165108417088500,15.075088623046875,4.135749816894531,20.530670166015625,9.797130584716797
1707165108436049000,15.094048828125,12.48965835571289,6.629640579223633,5.358778953552246
1707165108455009000,15.113009033203125,9.876476287841797,13.587635040283203,1.7479665279388428
1707165108473969400,15.131969482421875,7.113796234130859,10.929539680480957,1.0309476852416992
1707165108492929800,15.1509296875,2.7732911109924316,9.884261131286621,2.4924097061157227
1707165108511890000,15.169889892578125,-2.4180850982666016,7.634169578552246,4.5142011642456055
1707165108530850300,15.188850341796876,-5.730030059814453,2.7629261016845703,4.827871799468994
1707165108549810400,15.207810546875,-7.760406494140625,-1.6434326171875,2.9101152420043945
1707165108568770800,15.226770751953126,-8.819275856018066,-5.85548210144043,1.6041170358657837
1707165108587731000,15.24573095703125,-9.332497596740723,-8.180756568908691,2.083951711654663
1707165108606691300,15.26469140625,-10.957418441772461,-9.318746566772461,2.5795140266418457
1707165108625651500,15.2836513671875,-12.958263397216797,-10.891275405883789,2.0784718990325928
1707165108644611800,15.30261181640625,-13.676361083984375,-12.178825378417969,2.3375892639160156
1707165108663572000,15.321572021484375,-12.230757713317871,-12.348371505737305,4.343150615692139
1707165108682532400,15.340532470703126,-10.489666938781738,-12.624643325805664,6.227049827575684
1707165108701492500,15.359492431640625,-9.86382007598877,-12.748051643371582,6.69698429107666
1707165108720452900,15.378452880859374,-10.459077835083008,-11.67685604095459,6.457746982574463
1707165108739413000,15.3974130859375,-8.702152252197266,-7.267149448394775,5.692638397216797
1707165108758373400,15.416373291015624,1.3450322151184082,8.850592613220215,2.0936665534973145
1707165108777333500,15.43533349609375,-6.969449996948242,32.62211608886719,-0.17146480083465576
1707165108796294000,15.4542939453125,0.8613815307617188,35.27692413330078,-2.221108913421631
1707165108815254300,15.473254150390625,10.70141315460205,25.330684661865234,-5.655194282531738
1707165108834214400,15.49221435546875,6.581131935119629,21.830219268798828,-2.0245258808135986
1707165108853174800,15.5111748046875,3.1283745765686035,18.791378021240234,3.912003993988037
1707165108872135000,15.530135009765624,6.896174430847168,10.205677032470703,7.340877532958984
1707165108891095000,15.549094970703125,7.527999401092529,5.042914390563965,7.8634138107299805
1707165108910055400,15.568055419921874,3.4433751106262207,-0.11157417297363281,4.740107536315918
1707165108929015600,15.587015625,0.4847560524940491,-4.021966934204102,-1.812891960144043
1707165108947976000,15.605975830078124,-3.4628701210021973,-5.340235233306885,-9.196414947509766
1707165108966936000,15.62493603515625,-0.729058027267456,-7.889775276184082,-14.063847541809082
1707165108985896400,15.643896484375,1.0191731452941895,-11.00284481048584,-12.904923439025879
1707165109004856600,15.662856689453125,0.5671456456184387,-10.661084175109863,-12.556558609008789
1707165109023817000,15.68181689453125,1.8833674192428589,-8.083619117736816,-12.415230751037598
1707165109042777000,15.700777099609375,3.0149953365325928,-6.154841423034668,-10.292328834533691
1707165109061737500,15.719737548828125,3.3290305137634277,-6.215515613555908,-8.600541114807129
1707165109080697600,15.738697509765625,2.4797048568725586,-7.199791431427002,-8.131291389465332
1707165109099658000,15.757657958984375,0.871886134147644,-6.965032577514648,-7.466290473937988
1707165109118618000,15.7766181640625,2.5408573150634766,2.827503204345703,-5.886293888092041
1707165109137578200,15.795578125,-0.5664398670196533,23.192142486572266,3.692641258239746
1707165109156538600,15.81453857421875,7.816149711608887,18.44064712524414,5.538509845733643
1707165109175498800,15.833498779296875,8.135011672973633,13.35064697265625,1.750127911567688
1707165109194459100,15.852459228515626,4.601961135864258,12.10695743560791,1.366689682006836
1707165109213419300,15.871419189453125,0.5498218536376953,13.203611373901367,0.4342745542526245
1707165109232379600,15.890379638671876,-3.634838104248047,11.732342720031738,1.3295326232910156
1707165109251339800,15.90933984375,-5.333104133605957,6.367613792419434,2.499455451965332
1707165109270300000,15.9282998046875,-6.26049280166626,1.5007781982421875,4.006772994995117
1707165109289260300,15.94726025390625,-7.603064060211182,-1.5084047317504883,3.7300455570220947
1707165109308220400,15.966220458984376,-8.676980972290039,-4.041479587554932,3.424776792526245
1707165109327180800,15.985180908203125,-9.17344856262207,-7.295315742492676,4.039024829864502
1707165109346141000,16.004140869140624,-10.13797378540039,-10.610969543457031,4.317469120025635
1707165109365101000,16.02310107421875,-11.461138725280762,-12.81588363647461,4.730198383331299
1707165109384061400,16.0420615234375,-11.059709548950195,-12.866888046264648,6.095590591430664
1707165109403021600,16.061021484375,-10.264596939086914,-12.24945068359375,8.63855266571045
1707165109421982000,16.07998193359375,-9.285994529724121,-12.920136451721191,8.994399070739746
1707165109440942000,16.098942138671877,-9.264928817749023,-13.649347305297852,7.45470666885376
1707165109459902500,16.11790234375,-10.370283126831055,-11.845327377319336,6.281033992767334
1707165109478862600,16.136862548828127,-8.167291641235352,-5.4084153175354,4.897761344909668
1707165109497822700,16.15582275390625,0.07465624809265137,12.020726203918457,-0.042720675468444824
1707165109516783000,16.174783203125,-6.654450416564941,28.617328643798828,-1.7077735662460327
1707165109535743200,16.1937431640625,2.4601597785949707,35.717342376708984,-3.8946404457092285
1707165109554703400,16.212703369140623,9.070734024047852,29.00384521484375,-6.356778144836426
1707165109573663700,16.231663818359376,7.075291156768799,20.850818634033203,-6.6714887619018555
1707165109592623900,16.250623779296873,5.89311408996582,13.339107513427734,-0.6696977615356445
1707165109611584300,16.269584228515626,6.243217468261719,7.622794151306152,4.002341270446777
1707165109630544400,16.28854443359375,7.4625701904296875,2.7564773559570312,6.0900983810424805
1707165109649504500,16.30750439453125,4.295926570892334,-2.6042280197143555,3.5000076293945312
1707165109668465000,16.32646484375,0.46637141704559326,-3.235623836517334,-1.7345192432403564
1707165109687425000,16.345425048828126,-0.8348096609115601,-5.02808952331543,-7.207033157348633
1707165109706385200,16.36438525390625,-0.5403404235839844,-8.537875175476074,-9.184629440307617
1707165109725345300,16.38334521484375,-1.641055703163147,-10.13182544708252,-9.248649597167969
1707165109744305700,16.4023056640625,-2.0939457416534424,-10.239727020263672,-10.650020599365234
1707165109763265800,16.421265869140626,-0.08051466941833496,-10.921605110168457,-11.404446601867676
1707165109782226000,16.440225830078123,0.22609758377075195,-10.469536781311035,-9.982088088989258
1707165109801186300,16.459186279296876,-0.9562256336212158,-8.253562927246094,-8.421760559082031
1707165109820146400,16.478146484375,-1.454067349433899,-7.047194480895996,-7.479318618774414
1707165109839106800,16.49710693359375,-0.8620128631591797,-5.536096572875977,-6.871396064758301
1707165109858067000,16.51606689453125,2.3603696823120117,6.895029067993164,-5.170615196228027
1707165109877027000,16.535027099609376,-0.2857999801635742,28.531234741210938,9.074692726135254
1707165109895987500,16.553987548828125,13.182544708251953,11.033464431762695,6.083866119384766
1707165109914947600,16.572947509765626,8.396828651428223,10.384984016418457,2.547915458679199
1707165109933907700,16.59190771484375,8.946187973022461,9.638209342956543,0.8959556818008423
1707165109952868000,16.6108681640625,4.972179889678955,10.554082870483398,0.21338152885437012
1707165109971828200,16.629828125,-0.5627045631408691,12.074346542358398,3.1535425186157227
1707165109990788400,16.648788330078126,-5.623597145080566,9.080376625061035,4.665783882141113
1707165110009748500,16.66774853515625,-6.575213432312012,2.55361270904541,3.84322190284729
1707165110028708900,16.686708984375,-8.393301963806152,-2.0164966583251953,1.970155954360962
1707165110047669000,16.7056689453125,-9.314752578735352,-5.466429233551025,1.2578065395355225
1707165110066629000,16.724629150390626,-10.230599403381348,-9.059248924255371,1.710834264755249
1707165110085589200,16.74358935546875,-12.266984939575195,-11.356075286865234,1.5385866165161133
1707165110104549600,16.762549560546876,-13.352590560913086,-11.688843727111816,1.885080099105835
1707165110123509800,16.781509765625,-12.521240234375,-10.795778274536133,3.1004669666290283
1707165110142470000,16.800469970703126,-11.831854820251465,-11.311548233032227,5.700429439544678
1707165110161430300,16.81943017578125,-10.807628631591797,-13.038795471191406,8.050732612609863
1707165110180390400,16.838390380859376,-9.87840461730957,-13.842401504516602,8.355003356933594
1707165110199350500,16.8573505859375,-10.808067321777344,-12.140701293945312,7.7107062339782715
1707165110218311000,16.876310791015626,-7.63818883895874,-4.244351863861084,5.417444229125977
1707165110237271000,16.89527099609375,-1.3789854049682617,21.6492919921875,1.6234880685806274
1707165110256231200,16.914231201171877,-9.099148750305176,34.337196350097656,1.6116567850112915
1707165110275191300,16.93319140625,6.766741752624512,30.952438354492188,-1.7318377494812012
1707165110294151400,16.9521513671875,10.403972625732422,23.2091007232666,-4.809064865112305
1707165110313111800,16.97111181640625,4.977197647094727,20.69104766845703,-1.0732989311218262
1707165110332072000,16.990072021484377,4.457127094268799,15.234274864196777,3.197145938873291
1707165110351032000,17.009031982421874,5.755021572113037,7.974525451660156,3.764230251312256
1707165110369992200,17.0279921875,5.557484149932861,3.5587244033813477,3.7973368167877197
1707165110388952600,17.04695263671875,2.19419264793396,-1.5189762115478516,0.42868804931640625
1707165110407912700,17.06591259765625,-0.3861355185508728,-2.9546279907226562,-5.533984184265137
1707165110426872800,17.084872802734374,-0.06437140703201294,-5.558647155761719,-11.027584075927734
1707165110445833200,17.103833251953127,2.333556652069092,-9.425578117370605,-11.004913330078125
1707165110464793000,17.12279296875,1.6580610275268555,-10.712117195129395,-10.142072677612305
1707165110483753500,17.14175341796875,1.6091294288635254,-9.740882873535156,-10.853071212768555
1707165110502713600,17.160713623046874,1.8162388801574707,-8.29152774810791,-11.593168258666992
1707165110521673700,17.179673828125,1.5792279243469238,-6.496015548706055,-10.477986335754395
1707165110540634000,17.198634033203124,0.6737860441207886,-5.545393943786621,-8.410212516784668
1707165110559594200,17.21759423828125,-0.5742356777191162,-5.700039863586426,-6.549971580505371
1707165110578554400,17.236554443359374,-0.551194429397583,-4.329026222229004,-4.729269981384277
1707165110597514500,17.255514404296875,2.0010454654693604,9.690985679626465,-2.377645492553711
1707165110616475000,17.274474853515624,0.08406996726989746,23.1964111328125,9.288778305053711
1707165110635435000,17.29343505859375,11.664955139160156,11.08754825592041,6.2302470207214355
1707165110654395100,17.31239501953125,9.151227951049805,10.194450378417969,2.447460651397705
1707165110673355300,17.331355224609375,7.816723346710205,9.807421684265137,-0.2997252345085144
1707165110692315400,17.3503154296875,3.7826151847839355,11.052010536193848,1.4078338146209717
1707165110711275500,17.369275634765625,-2.040788173675537,11.058725357055664,3.6548290252685547
1707165110730236000,17.38823583984375,-5.530991077423096,6.198747634887695,3.3808674812316895
1707165110749196000,17.407196044921875,-6.942330360412598,0.49134349822998047,1.964866280555725
1707165110768156200,17.42615625,-8.194005966186523,-3.102503776550293,1.1325254440307617
1707165110787116300,17.4451162109375,-8.957895278930664,-5.754243850708008,1.9202430248260498
1707165110806076700,17.46407666015625,-9.054695129394531,-8.331981658935547,3.431473731994629
1707165110825036500,17.48303662109375,-9.616897583007812,-10.681123733520508,4.17018985748291
1707165110843997000,17.501996826171876,-10.591419219970703,-12.336523056030273,4.476696491241455
1707165110862957000,17.52095703125,-11.213541030883789,-13.09684944152832,4.9197869300842285
1707165110881917200,17.539917236328126,-11.461027145385742,-13.043911933898926,5.197068214416504
1707165110900877300,17.558877197265623,-11.136507987976074,-12.64084529876709,5.4852824211120605
1707165110919837700,17.577837646484376,-10.277000427246094,-12.205953598022461,5.190068244934082
1707165110938797600,17.596797607421873,-10.095187187194824,-10.316211700439453,4.827550888061523
1707165110957758000,17.615758056640626,-6.675575256347656,-4.4695210456848145,4.07045841217041
1707165110976718000,17.634718017578123,1.1486930847167969,14.330510139465332,0.565399169921875
1707165110995678200,17.65367822265625,-11.337356567382812,34.13690185546875,-1.270011305809021
1707165111014638300,17.672638427734373,4.119610786437988,32.37982177734375,-1.9391754865646362
1707165111033598500,17.691598388671874,11.95900821685791,19.39602279663086,-6.761569499969482
1707165111052558800,17.710558837890623,3.5679290294647217,20.128971099853516,-5.793733596801758
1707165111071518700,17.729518798828124,4.219917297363281,17.000146865844727,2.9746155738830566
1707165111090479000,17.74847900390625,9.150355339050293,10.0033597946167,8.584247589111328
1707165111109439200,17.767439208984374,8.273725509643555,4.69024658203125,10.865614891052246
1707165111128399400,17.7863994140625,6.712289333343506,-3.2763748168945312,6.0248308181762695
1707165111147359500,17.805359375,3.149435043334961,-5.490674018859863,-0.34002137184143066
1707165111166319600,17.824319580078125,-1.6151349544525146,-5.134880542755127,-6.363353729248047
1707165111185280000,17.843280029296874,-1.5771117210388184,-7.620267391204834,-11.408977508544922
1707165111204240000,17.862239990234375,-0.99506676197052,-10.077339172363281,-14.146657943725586
1707165111223200300,17.8812001953125,-0.290960431098938,-10.134326934814453,-14.724254608154297
1707165111242160400,17.900160400390625,0.4562397003173828,-7.136000633239746,-13.114792823791504
1707165111261120500,17.91912060546875,1.3193069696426392,-5.034688472747803,-9.456477165222168
1707165111280080600,17.93808056640625,1.357240080833435,-5.499704837799072,-6.269316673278809
1707165111299040800,17.957040771484376,0.929755687713623,-6.576173782348633,-4.271954536437988
1707165111318001000,17.9760009765625,0.39612579345703125,-4.699307441711426,-2.9962821006774902
1707165111336961000,17.9949609375,2.0894157886505127,9.010285377502441,-1.720601201057434
1707165111355921200,18.013921142578123,0.5360102653503418,17.513904571533203,5.587484359741211
1707165111374881500,18.032881591796876,10.162551879882812,12.917369842529297,3.3067474365234375
1707165111393841700,18.051841552734373,8.602331161499023,12.112385749816895,2.346832275390625
1707165111412801800,18.0708017578125,9.578352928161621,10.996673583984375,2.508683443069458
1707165111431762000,18.089761962890623,4.272934436798096,10.834864616394043,2.3312270641326904
1707165111450722000,18.10872216796875,-1.7595810890197754,7.857287406921387,2.40755558013916
1707165111469682200,18.12768212890625,-5.243766784667969,4.324986457824707,2.4916610717773438
1707165111488642300,18.146642333984374,-7.053529262542725,0.5524148941040039,2.0480871200561523
1707165111507602400,18.1656025390625,-8.684423446655273,-2.528663158416748,1.321480631828308
1707165111526562800,18.184562744140624,-9.369254112243652,-6.082829475402832,1.823124885559082
1707165111545522700,18.203522705078125,-9.764520645141602,-9.632854461669922,3.3440542221069336
1707165111564483000,18.222483154296874,-10.686694145202637,-11.255266189575195,4.182023048400879
1707165111583443200,18.241443115234375,-11.812479019165039,-10.958059310913086,4.4766526222229
1707165111602403300,18.2604033203125,-11.534358978271484,-11.051679611206055,5.21872091293335
1707165111621363500,18.279363525390625,-10.152393341064453,-12.646002769470215,5.761008262634277
1707165111640323600,18.298323486328126,-9.270599365234375,-13.449723243713379,5.994365692138672
1707165111659283700,18.31728369140625,-9.263898849487305,-12.399375915527344,6.110302448272705
1707165111678243800,18.336243896484376,-10.136682510375977,-9.13951301574707,6.030817031860352
1707165111697204000,18.355203857421873,-4.708675384521484,-0.7224955558776855,4.109445095062256
1707165111716164000,18.3741640625,0.9710516929626465,18.57069969177246,-1.2856061458587646
1707165111735124200,18.393124267578123,-8.069005966186523,30.232831954956055,-0.13301944732666016
1707165111754084400,18.41208447265625,3.078786611557007,27.883026123046875,-0.3323323726654053
1707165111773044500,18.43104443359375,4.810267448425293,23.325820922851562,-3.46272611618042
1707165111792004600,18.450004638671874,2.0322422981262207,22.51523208618164,-0.2917516231536865
1707165111810965000,18.468965087890624,4.602803707122803,14.139169692993164,-0.40652942657470703
1707165111829924900,18.4879248046875,7.013620376586914,9.014747619628906,0.8253569602966309
1707165111848885000,18.506885009765625,6.766245365142822,4.62484073638916,2.534226179122925
1707165111867845400,18.525845458984374,6.158353805541992,-2.152627944946289,1.0975704193115234
1707165111886805500,18.544805419921875,3.409764051437378,-5.806779384613037,-3.735670328140259
1707165111905765600,18.563765625,1.608340859413147,-5.730493545532227,-6.7543535232543945
1707165111924725500,18.5827255859375,1.1949037313461304,-7.541867733001709,-7.80708122253418
1707165111943686000,18.601685791015626,1.514218807220459,-9.553180694580078,-7.81863260269165
1707165111962646000,18.62064599609375,1.439443826675415,-9.005061149597168,-8.79330825805664
1707165111981606100,18.639606201171876,1.9736384153366089,-8.609959602355957,-9.639991760253906
1707165112000566300,18.658566162109373,1.8176076412200928,-8.078051567077637,-9.334392547607422
1707165112019526400,18.6775263671875,-0.33454835414886475,-6.657170295715332,-9.911111831665039
1707165112038486500,18.696486572265623,-1.4323112964630127,-5.916445732116699,-10.123909950256348
1707165112057446700,18.71544677734375,-0.7944231033325195,-3.106538772583008,-8.965266227722168
1707165112076406800,18.73440673828125,1.9195122718811035,10.150096893310547,-5.625961780548096
1707165112095367000,18.753366943359374,1.433173656463623,22.169092178344727,6.324647903442383
1707165112114327000,18.7723271484375,9.908738136291504,17.68539810180664,5.587804794311523
1707165112133287200,18.791287109375,8.36978530883789,13.729689598083496,3.603571891784668
1707165112152247300,18.810247314453125,6.8841753005981445,12.275732040405273,4.214328765869141
1707165112171207400,18.82920751953125,2.19063663482666,11.893194198608398,3.7282984256744385
1707165112190167600,18.84816748046875,-2.0100011825561523,8.984375953674316,3.9204254150390625
1707165112209127700,18.867127685546876,-6.214009761810303,3.390993595123291,2.9384658336639404
1707165112228087800,18.886087890625,-7.835513591766357,-1.4006538391113281,1.6878323554992676
1707165112247048000,18.9050478515625,-9.053674697875977,-4.061067581176758,1.1582893133163452
1707165112266008000,18.924008056640623,-9.349757194519043,-7.250798225402832,1.6317275762557983
1707165112284968200,18.94296826171875,-9.871235847473145,-9.898597717285156,2.8689005374908447
1707165112303928300,18.96192822265625,-10.897916793823242,-11.199419975280762,3.3500239849090576
1707165112322888400,18.980888427734374,-11.611885070800781,-11.617334365844727,3.7402455806732178
1707165112341848600,18.9998486328125,-11.101127624511719,-11.349546432495117,5.179610252380371
1707165112360808700,19.01880859375,-10.983935356140137,-11.300186157226562,7.185745716094971
1707165112379768800,19.037768798828125,-10.942361831665039,-12.326374053955078,8.249886512756348
1707165112398729000,19.05672900390625,-10.882288932800293,-12.261808395385742,8.944348335266113
1707165112417688800,19.075688720703123,-11.160266876220703,-9.485074043273926,8.64193058013916
1707165112436649200,19.094649169921876,-2.8397130966186523,2.7867307662963867,5.6506428718566895
1707165112455609300,19.113609375,-2.140204906463623,25.023967742919922,1.6420817375183105
1707165112474569500,19.132569580078126,-3.40911865234375,27.980138778686523,0.005419015884399414
1707165112493529300,19.151529296875,1.896000862121582,24.218528747558594,-7.081533908843994
1707165112512489500,19.170489501953124,0.8242831230163574,21.05851173400879,-6.435357570648193
1707165112531449600,19.18944970703125,-2.532304048538208,22.707679748535156,-3.1165919303894043
1707165112550409700,19.20840966796875,4.718184471130371,18.351482391357422,6.118476867675781
1707165112569370000,19.2273701171875,9.678503036499023,9.038414001464844,9.318939208984375
1707165112588330000,19.246330078125,8.686872482299805,1.2018260955810547,8.447423934936523
1707165112607290000,19.2652900390625,5.134032726287842,-2.773254871368408,2.4573941230773926
1707165112626250200,19.284250244140626,1.6307634115219116,-3.6128673553466797,-5.5245561599731445
1707165112645210400,19.30321044921875,0.849075198173523,-5.380379676818848,-10.68150806427002
1707165112664170500,19.32217041015625,1.7588953971862793,-7.3439741134643555,-11.242615699768066
1707165112683130600,19.341130615234373,1.1340091228485107,-8.665792465209961,-11.707447052001953
1707165112702090800,19.3600908203125,1.6383081674575806,-8.24685287475586,-11.276707649230957
1707165112721051000,19.37905078125,1.3969208002090454,-8.081979751586914,-11.078968048095703
1707165112740011000,19.398010986328124,0.4072991609573364,-8.749126434326172,-10.40913200378418
1707165112758971100,19.41697119140625,-0.695310115814209,-9.200945854187012,-8.571386337280273
1707165112777931000,19.435930908203126,-0.8014122247695923,-8.38247013092041,-6.71470832824707
1707165112796891100,19.45489111328125,1.7277579307556152,-3.2508187294006348,-5.958529472351074
1707165112815851300,19.473851318359376,2.0291144847869873,12.741960525512695,-1.3950139284133911
1707165112834811400,19.492811279296873,6.77993106842041,23.53245735168457,6.881258964538574
1707165112853771500,19.511771484375,9.502968788146973,18.440181732177734,2.4698071479797363
1707165112872731600,19.530731689453123,8.535789489746094,11.592206001281738,1.1495081186294556
1707165112891691800,19.54969189453125,2.898792266845703,11.505971908569336,1.0720829963684082
1707165112910652000,19.56865185546875,-1.1061697006225586,10.967665672302246,1.3894531726837158
1707165112929612000,19.587612060546874,-3.527717113494873,8.287495613098145,2.136279344558716
1707165112948572200,19.606572265625,-4.903684139251709,4.165393829345703,2.515763521194458
1707165112967532300,19.6255322265625,-5.72426700592041,-0.682887077331543,2.9682037830352783
1707165112986492200,19.6444921875,-6.847568988800049,-3.405458450317383,3.339463949203491
1707165113005452300,19.663452392578126,-8.159424781799316,-5.024120330810547,3.8615939617156982
1707165113024412400,19.682412353515623,-8.311795234680176,-7.931205749511719,4.597316265106201
1707165113043372500,19.70137255859375,-8.154744148254395,-11.158282279968262,5.4575724601745605
1707165113062332700,19.720332763671873,-8.65534496307373,-13.83601188659668,6.320662498474121
1707165113081292800,19.739292724609374,-9.77601146697998,-15.112276077270508,6.4420576095581055
1707165113100253000,19.7582529296875,-10.510324478149414,-13.977828979492188,6.7033491134643555
1707165113119213000,19.777213134765624,-10.310651779174805,-13.052239418029785,7.30339241027832
1707165113138173200,19.796173095703125,-9.415223121643066,-11.898286819458008,7.540915489196777
1707165113157133300,19.81513330078125,-6.807847023010254,-7.100657939910889,6.229851245880127
1707165113176093400,19.834093505859375,-0.7847409248352051,6.468942642211914,3.1501028537750244
1707165113195053300,19.85305322265625,-7.731546401977539,22.034866333007812,1.1711211204528809
1707165113214013400,19.872013427734377,-5.645358085632324,28.925155639648438,0.8101341724395752
1707165113232973600,19.8909736328125,4.298226833343506,27.809505462646484,-4.730020523071289
1707165113251933700,19.90993359375,5.352505683898926,26.50333023071289,-2.627600908279419
1707165113270893800,19.928893798828124,3.263294219970703,19.952804565429688,0.407024621963501
1707165113289854000,19.94785400390625,6.664511680603027,10.165483474731445,1.0079212188720703
1707165113308813800,19.966813720703126,7.695398807525635,4.3361711502075195,2.976583242416382
1707165113327774000,19.98577392578125,6.432072639465332,2.2855052947998047,5.951498031616211
1707165113346734000,20.004734130859376,4.681604862213135,-2.916132926940918,2.4300761222839355
1707165113365694200,20.023694091796877,3.9344964027404785,-6.48600959777832,-2.3303380012512207
1707165113384654300,20.042654296875,0.2300492525100708,-8.276667594909668,-7.358974933624268
1707165113403614500,20.061614501953127,-0.1497126817703247,-9.660079956054688,-12.110029220581055
1707165113422574600,20.08057470703125,-0.20486199855804443,-9.97651195526123,-13.510103225708008
1707165113441534500,20.099534423828125,-0.19713926315307617,-8.999197959899902,-14.204573631286621
1707165113460494600,20.11849462890625,0.32025980949401855,-7.420299530029297,-12.652844429016113
1707165113479454700,20.137454833984375,-0.4517068862915039,-6.815958499908447,-10.261630058288574
1707165113498414800,20.156414794921876,-1.3848989009857178,-6.804116249084473,-8.064443588256836
1707165113517375000,20.175375,-1.5288585424423218,-5.417983055114746,-5.820311546325684
1707165113536335000,20.194335205078126,1.0179228782653809,3.2426834106445312,-4.227858543395996
1707165113555295000,20.213294921875,-1.3438410758972168,20.41997718811035,4.243650436401367
1707165113574255000,20.232255126953124,7.262307167053223,15.979497909545898,6.375433444976807
1707165113593215200,20.25121533203125,8.955890655517578,11.308958053588867,4.7408013343811035
1707165113612175400,20.27017529296875,7.829751968383789,10.811985969543457,2.700906991958618
1707165113631135500,20.289135498046875,6.098724842071533,8.993820190429688,3.5085885524749756
1707165113650095600,20.308095703125,1.4650506973266602,7.142171382904053,4.626753807067871
1707165113669055500,20.327055419921876,-1.6841802597045898,4.941933631896973,4.319546222686768
1707165113688015600,20.346015625,-4.613833427429199,2.4604082107543945,3.409813165664673
1707165113706975700,20.364975830078127,-7.927048683166504,0.04257011413574219,1.02347993850708
1707165113725935900,20.383935791015624,-9.904743194580078,-3.152435779571533,-1.6468746662139893
1707165113744895700,20.402895751953125,-9.868170738220215,-7.531454086303711,-1.6136380434036255
1707165113763856000,20.42185595703125,-10.830568313598633,-9.656489372253418,-0.5161168575286865
1707165113782816000,20.44081591796875,-12.680301666259766,-10.370193481445312,1.4924061298370361
1707165113801776000,20.459776123046876,-10.73798656463623,-12.405632019042969,4.217538356781006
1707165113820736300,20.478736328125,-8.383026123046875,-13.970025062561035,6.443495273590088
1707165113839696100,20.497696044921874,-7.87270450592041,-14.701869010925293,7.1181721687316895
1707165113858656300,20.51665625,-8.338603973388672,-13.340106010437012,6.649186611175537
1707165113877616400,20.535616455078124,-9.982492446899414,-11.40856647491455,5.9813313484191895
1707165113896576500,20.554576416015625,-10.237850189208984,-7.279843330383301,5.215892314910889
1707165113915536600,20.57353662109375,-1.7078232765197754,5.888358116149902,1.6634583473205566
1707165113934496800,20.592496826171875,-3.003063201904297,26.294044494628906,-1.8702707290649414
1707165113953456600,20.61145654296875,-3.9846415519714355,30.592002868652344,0.33503270149230957
1707165113972416800,20.630416748046876,4.937350273132324,25.57699966430664,-0.13320064544677734
1707165113991377000,20.649376953125,7.525913238525391,21.282777786254883,1.76060152053833
1707165114010336800,20.668336669921874,6.256786823272705,20.368667602539062,5.8700151443481445
1707165114029297000,20.687296875,6.34970235824585,13.394640922546387,6.47887659072876
1707165114048257000,20.706257080078124,4.618174076080322,8.724255561828613,3.2335691452026367
1707165114067217200,20.725217041015625,3.9436402320861816,4.119440078735352,1.1220769882202148
1707165114086177300,20.74417724609375,2.264518976211548,-1.7044601440429688,-1.7433998584747314
1707165114105137200,20.76313720703125,-2.002786159515381,-4.136964797973633,-7.749186992645264
1707165114124097300,20.78209716796875,-0.40842896699905396,-6.952966690063477,-12.79111099243164
1707165114143057400,20.801057373046874,0.8982894420623779,-10.839475631713867,-10.688968658447266
1707165114162017300,20.820017333984374,0.9844979047775269,-11.738510131835938,-8.85299301147461
1707165114180977400,20.838977294921875,0.7616093158721924,-9.62992000579834,-9.647262573242188
1707165114199937500,20.8579375,0.199914813041687,-7.119793891906738,-10.034476280212402
1707165114218897700,20.876897705078125,-0.8031784296035767,-6.242905139923096,-9.475739479064941
1707165114237857800,20.89585791015625,-1.5715868473052979,-6.682168960571289,-7.759902000427246
1707165114256817700,20.914817626953123,-1.8889461755752563,-7.593167304992676,-5.903157711029053
1707165114275777800,20.93377783203125,-0.8637073040008545,-4.431365966796875,-4.880908966064453
1707165114294738000,20.952738037109373,1.2918031215667725,10.69683837890625,-2.0567383766174316
1707165114313697800,20.97169775390625,1.3685593605041504,17.31296730041504,7.433791160583496
1707165114332658000,20.990657958984375,10.997577667236328,12.006800651550293,4.89887809753418
1707165114351618000,21.0096181640625,9.486438751220703,11.990288734436035,3.2463152408599854
1707165114370578200,21.028578125,7.172169208526611,12.910933494567871,3.015981674194336
1707165114389538300,21.047538330078126,2.9847664833068848,12.308256149291992,3.6535773277282715
1707165114408498400,21.06649853515625,-0.9513554573059082,8.679384231567383,4.1201372146606445
1707165114427458300,21.085458251953124,-3.0457708835601807,3.219829559326172,3.195302963256836
1707165114446418400,21.10441845703125,-5.849355697631836,-0.7840452194213867,1.7378766536712646
1707165114465378600,21.123378662109374,-8.237361907958984,-2.5765814781188965,0.30986344814300537
1707165114484338400,21.14233837890625,-9.035629272460938,-5.041189193725586,-0.16153091192245483
1707165114503298600,21.161298583984376,-8.816293716430664,-8.356437683105469,1.3274304866790771
1707165114522258700,21.1802587890625,-9.510904312133789,-10.444116592407227,3.0251755714416504
1707165114541218800,21.19921875,-11.202507019042969,-11.646256446838379,5.360480785369873
1707165114560179000,21.218178955078123,-11.41141128540039,-12.951700210571289,6.735574722290039
1707165114579138800,21.237138916015624,-10.379735946655273,-13.89310073852539,7.338162422180176
1707165114598099000,21.256098876953125,-9.681922912597656,-13.863143920898438,7.212357044219971
1707165114617059000,21.27505908203125,-10.392477035522461,-12.577187538146973,6.596345901489258
1707165114636019000,21.29401904296875,-11.352359771728516,-8.827178955078125,6.361950397491455
1707165114654979000,21.31297900390625,-5.605433464050293,3.2410078048706055,4.821440696716309
1707165114673939200,21.331939208984377,-1.4165236949920654,24.82111930847168,-0.6212104558944702
1707165114692899300,21.3508994140625,-2.9000277519226074,26.945335388183594,-1.6796318292617798
1707165114711859500,21.369859375,7.217458724975586,22.54874038696289,-6.844424247741699
1707165114730819600,21.388819580078124,3.029996395111084,18.038837432861328,-10.26121997833252
1707165114749779500,21.407779541015625,0.5155471563339233,20.734111785888672,-6.911245346069336
1707165114768739600,21.426739501953126,2.124551773071289,18.970430374145508,-0.8615279197692871
1707165114787699700,21.44569970703125,7.5611748695373535,13.456889152526855,4.448904991149902
1707165114806659600,21.46465966796875,11.887503623962402,5.513376235961914,9.51689338684082
1707165114825619700,21.48361962890625,6.288163185119629,-2.7616381645202637,5.988227844238281
1707165114844579800,21.502579833984374,2.0264830589294434,-5.731774806976318,-0.9392455816268921
1707165114863540000,21.5215400390625,0.5430271625518799,-6.78136682510376,-6.242625713348389
1707165114882500000,21.5405,1.190449595451355,-8.463899612426758,-8.027116775512695
1707165114901460000,21.5594599609375,0.43263471126556396,-10.283405303955078,-8.634295463562012
1707165114920420000,21.578420166015626,-0.5526213049888611,-10.226225852966309,-10.159746170043945
1707165114939380200,21.597380126953126,0.33768248558044434,-8.682355880737305,-10.450363159179688
1707165114958340400,21.61634033203125,0.40741562843322754,-7.451617240905762,-9.220922470092773
1707165114977300500,21.635300537109377,-0.3941326141357422,-7.438648223876953,-7.827342510223389
1707165114996260600,21.654260498046874,-1.5996735095977783,-7.7284016609191895,-7.00167179107666
1707165115015220500,21.673220458984375,-1.6606154441833496,-5.891933441162109,-5.586226463317871
1707165115034180600,21.6921806640625,1.4715650081634521,3.4431610107421875,-4.336753845214844
1707165115053140700,21.711140625,-0.37752604484558105,18.855510711669922,2.0782618522644043
1707165115072100900,21.730100830078126,7.545166015625,15.4884672164917,6.230504035949707
1707165115091060700,21.749060791015626,9.2843656539917,12.009411811828613,0.8314182758331299
1707165115110020900,21.768020751953124,7.882632255554199,11.178568840026855,0.6587242484092712
1707165115128981000,21.78698095703125,4.451918601989746,12.108969688415527,1.0676559209823608
1707165115147941000,21.805941162109374,-0.019484519958496094,11.897147178649902,3.121375560760498
1707165115166901200,21.8249013671875,-2.6731672286987305,6.426658630371094,3.5727181434631348
1707165115185861000,21.843861083984375,-3.5358991622924805,0.043578147888183594,2.8600964546203613
1707165115204821200,21.8628212890625,-5.476962089538574,-3.722959518432617,2.0584774017333984
1707165115223781400,21.881781494140625,-7.292381763458252,-5.245001792907715,2.442807674407959
1707165115242741500,21.900741455078126,-8.555807113647461,-6.9438347816467285,3.349797487258911
1707165115261701600,21.91970166015625,-9.824222564697266,-9.782111167907715,3.6807217597961426
1707165115280661800,21.938661865234376,-12.238811492919922,-12.706674575805664,4.002093315124512
1707165115299622000,21.957621826171874,-13.006063461303711,-15.296201705932617,4.3587646484375
1707165115318581800,21.976581787109374,-10.525901794433594,-14.882078170776367,5.314083099365234
1707165115337542000,21.9955419921875,-9.075516700744629,-12.257009506225586,6.479212284088135
1707165115356502000,22.014501953125,-9.170631408691406,-10.382442474365234,7.5160980224609375
1707165115375462100,22.033462158203125,-9.747081756591797,-9.443342208862305,6.772268772125244
1707165115394422300,22.05242236328125,-8.400997161865234,-5.758546829223633,4.972218036651611
1707165115413382400,22.07138232421875,-0.543006420135498,8.135540008544922,0.7600271701812744
1707165115432342500,22.090342529296876,-5.3444366455078125,28.798542022705078,-0.6732544898986816
1707165115451302700,22.109302734375,0.4225890636444092,24.579708099365234,1.0949854850769043
1707165115470262500,22.128262451171874,9.500968933105469,17.476770401000977,-1.1123342514038086
1707165115489222700,22.14722265625,6.992183208465576,20.665939331054688,-0.2768070697784424
1707165115508182800,22.166182861328124,2.905230760574341,24.767620086669922,6.582397937774658
1707165115527143000,22.185142822265625,4.1204609870910645,15.356039047241211,4.399316787719727
1707165115546103000,22.20410302734375,6.630378246307373,5.953291893005371,2.2903308868408203
1707165115565063200,22.223063232421875,4.875572681427002,0.6886930465698242,1.749509334564209
1707165115584023300,22.242023193359376,1.8569095134735107,-2.289046287536621,-0.12476801872253418
1707165115602983400,22.2609833984375,0.8790798187255859,-5.137635231018066,-4.00040340423584
1707165115621943300,22.279943359375,-0.17787837982177734,-7.6548051834106445,-7.881386756896973
1707165115640903400,22.2989033203125,0.6511101722717285,-10.107099533081055,-10.707337379455566
1707165115659863600,22.317863525390624,1.756913423538208,-11.832565307617188,-10.964095115661621
1707165115678823700,22.33682373046875,2.2338922023773193,-11.293448448181152,-11.389802932739258
1707165115697783800,22.35578369140625,2.5191774368286133,-8.383781433105469,-10.905229568481445
1707165115716744000,22.374743896484375,1.8919872045516968,-5.830826759338379,-8.542730331420898
1707165115735704000,22.3937041015625,1.119268536567688,-5.210783958435059,-6.014775276184082
1707165115754664000,22.412663818359373,0.5376417636871338,-5.92660665512085,-4.895921230316162
1707165115773624000,22.4316240234375,0.2687568664550781,-4.061009407043457,-4.618696212768555
1707165115792584200,22.450584228515623,1.1868696212768555,7.333112716674805,-3.5225393772125244
1707165115811544300,22.46954443359375,0.17782258987426758,18.062549591064453,4.035991668701172
1707165115830504400,22.48850439453125,8.01365852355957,16.1561336517334,4.0941691398620605
1707165115849464600,22.507464599609374,8.437671661376953,15.105700492858887,1.8694801330566406
1707165115868424700,22.5264248046875,7.539900779724121,11.539101600646973,1.1041160821914673
1707165115887384800,22.545384765625,3.921626091003418,11.466392517089844,2.4325788021087646
1707165115906345000,22.564344970703125,-0.28969907760620117,11.06234073638916,4.689922332763672
1707165115925305000,22.58330517578125,-2.9554941654205322,6.905339241027832,4.8619065284729
1707165115944265200,22.60226513671875,-5.027019500732422,1.3767809867858887,2.9460949897766113
1707165115963225000,22.62122509765625,-7.5975470542907715,-1.9610958099365234,1.2952978610992432
1707165115982185200,22.640185302734373,-9.3241548538208,-4.210006237030029,1.2692580223083496
1707165116001145300,22.659145263671874,-9.566091537475586,-7.106578826904297,2.2939162254333496
1707165116020105500,22.67810546875,-9.261688232421875,-9.868425369262695,3.2090041637420654
1707165116039065600,22.697065673828124,-9.912430763244629,-11.811039924621582,4.068373680114746
1707165116058025700,22.716025634765625,-10.593122482299805,-12.451667785644531,4.96043062210083
1707165116076985900,22.73498583984375,-10.503100395202637,-11.938331604003906,6.331442356109619
1707165116095946000,22.753946044921875,-9.697941780090332,-11.984992027282715,7.001501083374023
1707165116114906000,22.772906005859376,-9.143097877502441,-12.402533531188965,6.72305965423584
1707165116133866200,22.7918662109375,-9.800376892089844,-11.95589828491211,6.240641117095947
1707165116152826000,22.810826171875,-8.642108917236328,-8.586085319519043,5.274285316467285
1707165116171786200,22.8297861328125,-1.9095649719238281,3.189413070678711,1.937076449394226
1707165116190746400,22.848746337890624,-4.072627544403076,23.521053314208984,0.20518040657043457
1707165116209706500,22.86770654296875,-4.7710723876953125,29.20037078857422,-1.3558003902435303
1707165116228666600,22.88666650390625,8.626690864562988,25.549148559570312,-1.3763550519943237
1707165116247626800,22.905626708984375,7.909364700317383,22.609325408935547,-2.0862786769866943
1707165116266587000,22.9245869140625,3.791776657104492,19.42860984802246,1.293266773223877
1707165116285547000,22.943547119140625,5.22731876373291,10.485231399536133,0.8155500888824463
1707165116304507000,22.9625068359375,5.561887741088867,6.006023406982422,2.14536714553833
1707165116323467000,22.981467041015627,4.5007123947143555,3.3717689514160156,4.021373748779297
1707165116342427100,23.00042724609375,4.102878093719482,-1.335099220275879,2.3152260780334473
1707165116361387300,23.01938720703125,0.6541457772254944,-4.0764689445495605,-1.9679574966430664
1707165116380347400,23.038347412109374,-1.567333698272705,-5.857594013214111,-6.719915390014648
1707165116399307500,23.0573076171875,0.33772122859954834,-9.75968074798584,-9.915204048156738
1707165116418267600,23.076267578125,1.4839494228363037,-13.245361328125,-9.349541664123535
1707165116437227800,23.095227783203125,1.1184806823730469,-11.899054527282715,-9.146738052368164
1707165116456188000,23.11418798828125,1.5445531606674194,-7.252920150756836,-8.989553451538086
1707165116475147800,23.133147705078127,2.2151074409484863,-5.289750576019287,-7.641722202301025
1707165116494108000,23.15210791015625,1.2981481552124023,-5.7396626472473145,-6.621201515197754
1707165116513068000,23.171068115234377,0.3905651569366455,-6.456669330596924,-6.53192138671875
1707165116532028200,23.190028076171874,0.643141508102417,-2.2038893699645996,-5.476501941680908
1707165116550988300,23.20898828125,1.5519416332244873,15.321001052856445,0.5952202081680298
1707165116569948400,23.227948486328124,3.364607810974121,15.521079063415527,10.838701248168945
1707165116588908500,23.246908447265625,11.699823379516602,10.047849655151367,6.34230899810791
1707165116607868400,23.265868408203126,11.351310729980469,9.312729835510254,3.149933338165283
1707165116626828500,23.28482861328125,9.299776077270508,10.306686401367188,2.871037006378174
1707165116645788700,23.30378857421875,2.9787702560424805,11.766226768493652,1.8063451051712036
1707165116664748800,23.322748779296877,-2.210261344909668,9.271001815795898,1.051823377609253
1707165116683709000,23.341708984375,-5.639824390411377,4.720007419586182,0.26656627655029297
1707165116702669000,23.3606689453125,-7.7124223709106445,0.2166752815246582,-0.40385037660598755
1707165116721629200,23.379629150390624,-8.966629981994629,-3.021718978881836,-0.3046097755432129
1707165116740589300,23.39858935546875,-9.88059139251709,-5.337916374206543,0.6859046220779419
1707165116759549200,23.417549072265626,-10.25925350189209,-7.675110816955566,2.300830841064453
1707165116778509300,23.43650927734375,-10.720008850097656,-10.208730697631836,3.4901208877563477
1707165116797469400,23.455469482421876,-11.419046401977539,-11.885236740112305,3.753213882446289
1707165116816429600,23.4744296875,-11.893637657165527,-12.37649154663086,4.15936279296875
1707165116835389700,23.4933896484375,-11.939275741577148,-11.328182220458984,4.806811809539795
1707165116854349800,23.512349853515627,-12.1214599609375,-10.39794921875,5.1368913650512695
1707165116873310000,23.53131005859375,-11.512584686279297,-10.758401870727539,4.733752250671387
1707165116892269800,23.550269775390625,-10.31102180480957,-10.577210426330566,3.7065930366516113
1707165116911230000,23.56922998046875,-4.300167083740234,-3.6033220291137695,1.7777421474456787
1707165116930190000,23.588190185546875,0.07124948501586914,16.485565185546875,-0.9796702861785889
1707165116949150200,23.607150146484376,-8.12199592590332,30.08031463623047,1.0127367973327637
1707165116968110300,23.6261103515625,7.551716327667236,27.431228637695312,1.543269157409668
1707165116987070500,23.645070556640626,8.332064628601074,24.878625869750977,-2.670698642730713
1707165117006030300,23.6640302734375,5.021690845489502,24.78660774230957,3.690279245376587
1707165117024990500,23.682990478515624,7.0917510986328125,16.62010955810547,6.432681083679199
1707165117043950600,23.70195068359375,10.19732666015625,7.7801055908203125,6.6898274421691895
1707165117062910700,23.72091064453125,7.890141010284424,3.173224449157715,6.135332107543945
1707165117081870800,23.739870849609375,4.457947731018066,-1.253596305847168,2.4620933532714844
1707165117100831000,23.7588310546875,3.2146975994110107,-5.364437103271484,-2.977388858795166
1707165117119790800,23.777790771484376,0.607613742351532,-7.187188148498535,-6.405623912811279
1707165117138751000,23.7967509765625,-0.16086435317993164,-8.467121124267578,-9.355255126953125
1707165117157711000,23.815711181640626,0.3555757999420166,-9.575607299804688,-11.223504066467285
1707165117176671200,23.834671142578124,0.4884446859359741,-8.822129249572754,-11.798924446105957
1707165117195631400,23.85363134765625,0.4199059009552002,-7.132484436035156,-11.823504447937012
1707165117214591200,23.87259130859375,0.2655754089355469,-7.164698600769043,-9.879449844360352
1707165117233551400,23.89155126953125,-0.7675681114196777,-8.216545104980469,-7.092254638671875
1707165117252511500,23.910511474609375,-1.4394336938858032,-8.71709156036377,-4.809035778045654
1707165117271471600,23.9294716796875,-1.6536939144134521,-8.196002960205078,-3.7618494033813477
