time,seconds_elapsed,z,y,x
1711552124584861000,0.04186083984375,0,0,0
1711552124603820800,0.06082080078125,0.35646963119506836,-1.37945556640625,0.4012413024902344
1711552124622781000,0.079781005859375,-0.6613931655883789,1.3027615547180176,-0.8943548202514648
1711552124641740800,0.09874072265625,-1.241133213043213,0.7844839096069336,-1.1657767295837402
1711552124660700700,0.11770068359375,-1.2133204936981201,0.09322929382324219,-1.3847670555114746
1711552124679660500,0.13666064453125,-0.606698751449585,-0.17533302307128906,0.03954124450683594
1711552124698620400,0.155620361328125,0.5812349319458008,0.01734018325805664,0.495574951171875
1711552124717580300,0.174580322265625,0.5222373008728027,0.11850452423095703,0.4218578338623047
1711552124736540200,0.1935400390625,-0.07542872428894043,-0.026441097259521484,-0.48941707611083984
1711552124755500000,0.2125,-0.5162403583526611,-0.039566993713378906,-0.919609546661377
1711552124774460000,0.2314599609375,-0.5842785835266113,0.03904247283935547,-0.9009256362915039
1711552124793419800,0.250419677734375,-0.5538709163665771,0.6648745536804199,-0.5550017356872559
1711552124812380000,0.2693798828125,-0.4213588237762451,0.6200132369995117,-0.8588733673095703
1711552124831339800,0.28833984375,-0.38452959060668945,0.10684967041015625,-1.0310420989990234
1711552124850299600,0.307299560546875,-0.2094554901123047,-0.8647875785827637,-0.8777904510498047
1711552124869259500,0.326259521484375,0.09785127639770508,-0.9956955909729004,0.2612018585205078
1711552124888219400,0.345219482421875,0.2528500556945801,0.5279984474182129,0.7413043975830078
1711552124907179300,0.36417919921875,0.24712061882019043,0.03916788101196289,0.9774899482727051
1711552124926139100,0.38313916015625,0.0760490894317627,-0.4221377372741699,0.09364128112792969
1711552124945099000,0.40209912109375,-0.7820950746536255,-0.3192939758300781,-1.077908992767334
1711552124964059000,0.421058837890625,-1.3858413696289062,-0.570378303527832,-1.5358777046203613
1711552124983018800,0.440018798828125,-1.5614186525344849,-0.7794895172119141,-0.4942493438720703
1711552125001978600,0.458978515625,-0.7113988995552063,-0.44559431076049805,1.512068271636963
1711552125020938800,0.477938720703125,0.04028475284576416,0.32456350326538086,2.326024055480957
1711552125039898600,0.496898681640625,1.1997222900390625,0.4696989059448242,0.6365475654602051
1711552125058858500,0.5158583984375,1.3117586374282837,-0.3664536476135254,2.5436649322509766
1711552125077818400,0.534818359375,1.0833314657211304,0.8910431861877441,2.020237922668457
1711552125096778200,0.5537783203125,-0.7267529964447021,-0.3165168762207031,-1.263138771057129
1711552125115738000,0.572738037109375,-0.48403143882751465,0.5351648330688477,-3.003148078918457
1711552125134698000,0.591697998046875,0.37014836072921753,0.5957021713256836,0.9517660140991211
1711552125153657900,0.610657958984375,1.3590185642242432,0.0748448371887207,2.2843194007873535
1711552125172617700,0.62961767578125,1.1888225078582764,0.8839125633239746,-0.11399650573730469
1711552125191577600,0.64857763671875,0.14753861725330353,0.4648113250732422,1.532691478729248
1711552125210537500,0.667537353515625,0.9937722682952881,-0.7160868644714355,1.9513678550720215
1711552125229497600,0.68649755859375,0.27646538615226746,0.12066650390625,-0.4846634864807129
1711552125248457500,0.70545751953125,-1.5716513395309448,0.7181639671325684,0.4029116630554199
1711552125267417300,0.724417236328125,-1.4672588109970093,0.23561620712280273,0.1662592887878418
1711552125286377200,0.743377197265625,0.1793171912431717,-0.879638671875,0.5594048500061035
1711552125305337000,0.762337158203125,1.3073184490203857,-0.06722068786621094,0.5877327919006348
1711552125324297000,0.781296875,1.2537779808044434,-0.3298029899597168,-0.3510017395019531
1711552125343256800,0.8002568359375,0.5674536228179932,-0.4355735778808594,0.07732248306274414
1711552125362216700,0.819216796875,-0.9386869668960571,0.5207653045654297,-0.7142057418823242
1711552125381176600,0.838176513671875,-1.6455167531967163,1.0586419105529785,-1.6445555686950684
1711552125400136400,0.857136474609375,-0.5890400409698486,0.07947015762329102,0.33896350860595703
1711552125419096300,0.876096435546875,1.581620216369629,-1.0891566276550293,0.9037609100341797
1711552125438056400,0.895056396484375,0.3457619845867157,-0.6321296691894531,-1.5536575317382812
1711552125457016300,0.914016357421875,-0.7849070429801941,0.9834942817687988,-2.177372694015503
1711552125475976200,0.93297607421875,-0.683150589466095,0.5566573143005371,0.2640838623046875
1711552125494936000,0.95193603515625,0.7488461136817932,0.2345294952392578,-0.7853584289550781
1711552125513896000,0.97089599609375,0.403827428817749,-0.044492244720458984,0.14746856689453125
1711552125532855800,0.989855712890625,0.905319333076477,-0.17679834365844727,0.8889813423156738
1711552125551815700,1.008815673828125,2.0522594451904297,-1.1372528076171875,1.2725043296813965
1711552125570775600,1.027775634765625,0.8638991713523865,0.03348255157470703,-0.5498762130737305
1711552125589735400,1.0467353515625,-0.740954577922821,-0.3438267707824707,-0.389009952545166
1711552125608695300,1.0656953125,-0.5629048943519592,-0.26030778884887695,-0.32199621200561523
1711552125627655400,1.084655517578125,0.38831061124801636,-0.45872068405151367,-0.46027326583862305
1711552125646615300,1.103615234375,1.0559715032577515,-0.016312122344970703,1.08949613571167
1711552125665575200,1.1225751953125,1.2022234201431274,0.4670600891113281,2.190584659576416
1711552125684535000,1.14153515625,0.9964648485183716,0.30730533599853516,1.968052864074707
1711552125703495000,1.160494873046875,0.08489353209733963,0.40956878662109375,1.5315980911254883
1711552125722454800,1.179454833984375,-1.248314619064331,0.7482309341430664,0.18834781646728516
1711552125741414700,1.19841455078125,-2.183805227279663,0.4274454116821289,-0.42289066314697266
1711552125760374800,1.217374755859375,-1.6348322629928589,0.5115222930908203,-0.8923964500427246
1711552125779334700,1.236334716796875,-1.4989482164382935,2.2030224800109863,-2.1959280967712402
1711552125798294500,1.25529443359375,-0.42769160866737366,0.10809946060180664,0.2486896514892578
1711552125817254400,1.27425439453125,0.508453369140625,1.1734848022460938,-0.5469017028808594
1711552125836214300,1.29321435546875,0.058426737785339355,1.2472643852233887,-0.8876838684082031
1711552125855174100,1.312174072265625,-0.6220970749855042,0.22916269302368164,-1.1960816383361816
1711552125874134300,1.33113427734375,-1.104966163635254,0.027452468872070312,-1.0809917449951172
1711552125893094100,1.35009423828125,-0.35416102409362793,-0.23893356323242188,-0.615452766418457
1711552125912054000,1.369053955078125,-0.2787294387817383,-0.5861639976501465,-0.3758687973022461
1711552125931014000,1.388013916015625,-0.22764107584953308,-0.28227949142456055,0.01525115966796875
1711552125949973800,1.406973876953125,-0.9645724296569824,0.4694199562072754,-0.2742624282836914
1711552125968933600,1.42593359375,-0.7844558954238892,0.16391754150390625,-0.39304304122924805
1711552125987893800,1.444893798828125,-0.044661760330200195,-0.5385675430297852,0.14092779159545898
1711552126006853600,1.463853515625,-0.08702912926673889,-0.007720947265625,0.3123302459716797
1711552126025813500,1.4828134765625,0.2936294376850128,0.2388596534729004,-0.29558372497558594
1711552126044773400,1.5017734375,0.4385564625263214,-0.47882556915283203,-0.27048444747924805
1711552126063733200,1.520733154296875,0.44297903776168823,-1.6340641975402832,-0.8249301910400391
1711552126082693000,1.539693115234375,0.28875932097435,-0.6150445938110352,-0.8222784996032715
1711552126101653000,1.558653076171875,-0.39726653695106506,0.5882806777954102,0.5126752853393555
1711552126120613000,1.577613037109375,0.07998664677143097,0.973386287689209,0.5188121795654297
1711552126139573000,1.596572998046875,-0.4078364670276642,0.22180700302124023,-0.04989147186279297
1711552126158532900,1.615532958984375,-0.7624180316925049,0.3783879280090332,-0.8621139526367188
1711552126177492700,1.63449267578125,-0.39361998438835144,0.02719879150390625,-1.3760709762573242
1711552126196452900,1.653452880859375,0.6223506927490234,-0.14206314086914062,0.09065055847167969
1711552126215412700,1.672412841796875,0.5449625253677368,-0.8384060859680176,1.3948783874511719
1711552126234372600,1.69137255859375,-0.397131085395813,0.9986667633056641,1.011103630065918
1711552126253332500,1.71033251953125,-0.1679154634475708,1.067495346069336,-0.5475025177001953
1711552126272292600,1.729292724609375,0.35995209217071533,-0.17052650451660156,-0.15759944915771484
1711552126291252500,1.74825244140625,-0.471738338470459,-0.5140843391418457,-0.10811281204223633
1711552126310212400,1.76721240234375,-0.6587014198303223,0.10377264022827148,-0.6204924583435059
1711552126329172200,1.786172119140625,0.35584592819213867,0.3549795150756836,-0.7025661468505859
1711552126348132000,1.805132080078125,0.485834002494812,-0.7541556358337402,0.06748628616333008
1711552126367092000,1.824092041015625,-0.10898232460021973,-0.631263256072998,-0.37408924102783203
1711552126386051800,1.8430517578125,-0.06935465335845947,-0.21889591217041016,-0.14246320724487305
1711552126405012000,1.862011962890625,0.8661808967590332,-0.9002466201782227,1.3597235679626465
1711552126423971800,1.880971923828125,1.6246709823608398,-2.270923614501953,1.7922563552856445
1711552126442931700,1.899931640625,0.9062033891677856,-1.5442438125610352,0.7976565361022949
1711552126461891800,1.918891845703125,-0.06049823760986328,-0.15037107467651367,-0.05257987976074219
1711552126480851700,1.937851806640625,-0.429030179977417,-0.19456005096435547,-0.20637130737304688
1711552126499811600,1.9568115234375,-0.19618463516235352,-0.6820306777954102,0.3114147186279297
1711552126518771500,1.975771484375,1.0711123943328857,-0.8902950286865234,0.7371978759765625
1711552126537731300,1.9947314453125,1.2007629871368408,-0.5072665214538574,1.3185515403747559
1711552126556691500,2.01369140625,0.9842151403427124,-0.43585872650146484,1.4659228324890137
1711552126575651300,2.0326513671875,0.8640177249908447,-0.49686431884765625,1.3788890838623047
1711552126594611200,2.051611083984375,0.5438418388366699,0.12451171875,0.7781801223754883
1711552126613571300,2.0705712890625,0.15309858322143555,0.5785098075866699,0.26526451110839844
1711552126632531200,2.08953125,-0.3083305358886719,1.1648530960083008,0.030766010284423828
1711552126651491000,2.108490966796875,-1.1517283916473389,2.7235283851623535,-0.2631716728210449
1711552126670451000,2.127450927734375,-1.1440784931182861,2.333845615386963,-1.5608234405517578
1711552126689410800,2.146410888671875,0.008583486080169678,0.4259166717529297,-2.1362810134887695
1711552126708371000,2.165370849609375,-0.04631957411766052,0.899686336517334,-2.28225040435791
1711552126727330800,2.184330810546875,-0.6516580581665039,1.116220474243164,0.06146717071533203
1711552126746291000,2.203291015625,-0.3927949368953705,1.0871214866638184,0.9202742576599121
1711552126765250800,2.222250732421875,0.1899288296699524,0.7613768577575684,0.3435220718383789
1711552126784210700,2.241210693359375,-0.12709665298461914,0.08308029174804688,-0.024448871612548828
1711552126803170600,2.260170654296875,-0.6482747197151184,-0.20763731002807617,-0.11444282531738281
1711552126822130400,2.27913037109375,-1.1173182725906372,-0.12332534790039062,-0.22044658660888672
1711552126841090600,2.298090576171875,-1.0048582553863525,-0.11798620223999023,-0.22691679000854492
1711552126860050400,2.317050537109375,-0.8491511344909668,-0.40860939025878906,0.05895805358886719
1711552126879010300,2.33601025390625,-0.8649270534515381,-0.4528679847717285,0.18729305267333984
1711552126897970200,2.35497021484375,-0.9571048021316528,-0.1269230842590332,-0.2818918228149414
1711552126916930300,2.373930419921875,-1.2205740213394165,-0.0186767578125,-0.707801342010498
1711552126935890200,2.39289013671875,-1.334527611732483,-0.352968692779541,-0.7202215194702148
1711552126954850300,2.411850341796875,-0.9054871201515198,-0.686011791229248,-0.6172566413879395
1711552126973810200,2.43081005859375,-0.3866710066795349,-0.5469131469726562,-0.8810567855834961
1711552126992770000,2.44977001953125,-0.2544739842414856,0.30126380920410156,-0.9251327514648438
1711552127011730000,2.46872998046875,0.03222644329071045,0.9736466407775879,-0.4025545120239258
1711552127030690000,2.48768994140625,0.21211129426956177,0.6071591377258301,-0.6370787620544434
1711552127049650000,2.50664990234375,1.504688024520874,-0.04143524169921875,-1.317373275756836
1711552127068609800,2.52560986328125,1.3273128271102905,0.3142828941345215,-1.3275413513183594
1711552127087569700,2.544569580078125,-0.652153491973877,1.1336040496826172,-0.318270206451416
1711552127106529800,2.56352978515625,-1.2766797542572021,1.5158648490905762,-0.31834936141967773
1711552127125489700,2.58248974609375,-0.40142393112182617,0.5133700370788574,-0.5095000267028809
1711552127144449800,2.60144970703125,1.5052554607391357,-1.1791143417358398,1.9977045059204102
1711552127163409700,2.62040966796875,2.1397557258605957,-1.4447731971740723,3.360029697418213
1711552127182369500,2.63936962890625,0.5879133939743042,-0.6833539009094238,1.404648780822754
1711552127201329400,2.658329345703125,-1.111627221107483,-0.31227874755859375,-2.075267791748047
1711552127220289500,2.67728955078125,-1.0708894729614258,0.36368894577026367,-2.7009191513061523
1711552127239249400,2.69624951171875,-1.2706058025360107,0.39846038818359375,-2.900592803955078
1711552127258209300,2.715209228515625,-1.2375104427337646,-0.14084196090698242,-0.9234719276428223
1711552127277169200,2.734169189453125,0.3301873207092285,-0.009454727172851562,1.9105744361877441
1711552127296129300,2.75312939453125,1.6811805963516235,0.6398463249206543,2.5924854278564453
1711552127315089200,2.772089111328125,1.8925554752349854,0.6264095306396484,2.170097827911377
1711552127334049300,2.79104931640625,0.9605057239532471,0.18355607986450195,1.2515778541564941
1711552127353009200,2.810009033203125,0.491668701171875,0.23569488525390625,0.5221829414367676
1711552127371969000,2.828968994140625,-0.6242833137512207,-0.03675651550292969,-0.6706180572509766
1711552127390929000,2.847928955078125,-0.4416027069091797,0.035536766052246094,-1.0245862007141113
1711552127409889000,2.866888916015625,0.20596623420715332,0.04274749755859375,0.04712247848510742
1711552127428849000,2.885848876953125,0.5363128185272217,-0.06883525848388672,0.9533448219299316
1711552127447808800,2.904808837890625,0.43820738792419434,0.14703607559204102,0.6184334754943848
1711552127466769000,2.923768798828125,0.9934399127960205,0.09233617782592773,0.6429553031921387
1711552127485728800,2.942728759765625,0.36287903785705566,-0.04698657989501953,0.03666496276855469
1711552127504688600,2.961688720703125,0.34396839141845703,-0.03575325012207031,0.23464012145996094
1711552127523648500,2.9806484375,0.37474966049194336,-0.40063047409057617,0.5872254371643066
1711552127542608600,2.999608642578125,0.34510135650634766,-0.3666534423828125,0.3974127769470215
1711552127561568500,3.018568603515625,-0.09610366821289062,-0.025988101959228516,-0.12047958374023438
1711552127580528600,3.037528564453125,-0.20920538902282715,0.30578136444091797,-0.1727910041809082
1711552127599488500,3.056488525390625,-1.0564587116241455,0.05395936965942383,-0.6594748497009277
1711552127618448400,3.075448486328125,-0.3817451000213623,-0.020363330841064453,-0.8467049598693848
1711552127637408500,3.094408447265625,-0.5540372133255005,-0.23880338668823242,-0.22513246536254883
1711552127656368400,3.113368408203125,-0.2712799310684204,0.08151674270629883,0.08604812622070312
1711552127675328300,3.132328369140625,-0.2540677785873413,0.11486148834228516,0.27042436599731445
1711552127694288100,3.1512880859375,0.22993898391723633,-0.48979806900024414,0.659447193145752
1711552127713248300,3.170248291015625,0.9957362413406372,-0.482388973236084,0.6114997863769531
1711552127732208000,3.1892080078125,0.3503652811050415,0.2396240234375,0.17208337783813477
1711552127751168000,3.20816796875,-0.5171939134597778,0.735323429107666,-0.28949546813964844
1711552127770128100,3.227128173828125,-0.9217944145202637,0.5891265869140625,-0.9508323669433594
1711552127789088000,3.246087890625,-0.6706540584564209,0.04806804656982422,-0.45467090606689453
1711552127808048000,3.265048095703125,-0.0683518648147583,-0.12329578399658203,-0.616694450378418
1711552127827008000,3.284008056640625,-0.12751448154449463,0.32318782806396484,-0.9328861236572266
1711552127845968000,3.3029677734375,-0.231941819190979,0.30457162857055664,-0.36677980422973633
1711552127864927700,3.321927734375,-0.33305513858795166,0.15727519989013672,-0.47558164596557617
1711552127883887900,3.340887939453125,-0.21084725856781006,0.4102630615234375,-0.35755014419555664
1711552127902847700,3.35984765625,-0.12136375904083252,0.1616959571838379,-0.36086082458496094
1711552127921807600,3.3788076171875,0.52308189868927,0.14219427108764648,-0.32596588134765625
1711552127940767500,3.397767578125,0.36851632595062256,0.2321786880493164,0.6926755905151367
1711552127959727600,3.4167275390625,2.546454429626465,0.28594017028808594,1.969367504119873
1711552127978687500,3.4356875,1.1229486465454102,0.11868524551391602,1.2249011993408203
1711552127997647400,3.4546474609375,0.28597724437713623,-0.25705862045288086,-0.48020076751708984
1711552128016607500,3.473607421875,-0.8610354661941528,-0.15456438064575195,-1.196840763092041
1711552128035567400,3.4925673828125,-0.5090343952178955,-0.032514095306396484,-0.9168906211853027
1711552128054527500,3.511527587890625,0.339402437210083,-0.06844329833984375,0.3324089050292969
1711552128073487400,3.5304873046875,0.5582298040390015,0.011101245880126953,0.8762784004211426
1711552128092447200,3.549447265625,0.35459595918655396,-0.2375621795654297,0.5141439437866211
1711552128111407400,3.568407470703125,-0.3120441436767578,-0.1979389190673828,-1.0218534469604492
1711552128130367200,3.5873671875,-1.5170979499816895,0.3715810775756836,-1.272474765777588
1711552128149327000,3.6063271484375,-1.2005071640014648,-0.06677389144897461,-0.5478315353393555
1711552128168287000,3.625286865234375,-0.8915261626243591,-0.37379932403564453,-0.7671914100646973
1711552128187247000,3.6442470703125,-0.33321744203567505,0.26117420196533203,-0.4618501663208008
1711552128206207000,3.66320703125,-0.021215319633483887,0.246124267578125,-0.049089908599853516
1711552128225166800,3.682166748046875,-0.1853046417236328,-0.1010446548461914,-0.08849954605102539
1711552128244127000,3.701126953125,-0.19177699089050293,-0.05813884735107422,-0.1815171241760254
1711552128263086800,3.7200869140625,-0.1300276517868042,-0.0909566879272461,0.06182575225830078
1711552128282047000,3.739046875,0.08898425102233887,-0.16356468200683594,0.18300533294677734
1711552128301006800,3.7580068359375,0.43719398975372314,0.007984161376953125,0.47632884979248047
1711552128319966700,3.776966796875,0.6330974102020264,0.3761916160583496,0.5290951728820801
1711552128338926600,3.795926513671875,0.3904094696044922,0.4514894485473633,0.3644866943359375
1711552128357886700,3.81488671875,-0.011266469955444336,0.27493953704833984,-0.25321102142333984
1711552128376846600,3.8338466796875,-0.09814786911010742,0.20633172988891602,-0.8412270545959473
1711552128395806500,3.852806396484375,0.14870810508728027,0.3501315116882324,-0.3815298080444336
1711552128414766300,3.871766357421875,0.495988130569458,0.3090481758117676,0.5910606384277344
1711552128433726500,3.8907265625,0.1916050910949707,-0.4050889015197754,1.2451658248901367
1711552128452686300,3.909686279296875,0.21771693229675293,-0.4763679504394531,0.7631583213806152
1711552128471646500,3.928646484375,0.06533479690551758,0.10275840759277344,0.23649263381958008
1711552128490606300,3.9476064453125,-0.47156286239624023,0.24983882904052734,-0.19445037841796875
1711552128509566200,3.966566162109375,-0.730034589767456,0.276702880859375,-0.38445568084716797
1711552128528526300,3.9855263671875,-0.6514177322387695,0.4517831802368164,-0.5055375099182129
1711552128547486200,4.004486328125,-0.4268927574157715,0.3414497375488281,-0.6486825942993164
1711552128566446000,4.023446044921875,-1.0126960277557373,-0.47481250762939453,-0.6077184677124023
1711552128585406000,4.042406005859375,-0.1964576244354248,-0.5546574592590332,-0.870999813079834
1711552128604366000,4.061365966796875,0.8018894195556641,0.06523513793945312,-0.13151073455810547
1711552128623326000,4.080325927734375,0.873347282409668,0.4977741241455078,0.4953489303588867
1711552128642285800,4.099285888671875,1.3395020961761475,0.7815518379211426,1.0111980438232422
1711552128661245700,4.11824560546875,0.8387811183929443,0.7012014389038086,1.132978916168213
1711552128680205800,4.137205810546875,0.27086949348449707,0.13853979110717773,0.4167060852050781
1711552128699165700,4.156165771484375,0.14245200157165527,-0.5276823043823242,0.15319585800170898
1711552128718125800,4.175125732421875,1.0206177234649658,-1.0116500854492188,0.8385677337646484
1711552128737085700,4.194085693359375,-0.3316650390625,-1.2623119354248047,-0.5407047271728516
1711552128756045600,4.213045654296875,0.5068063735961914,0.14806747436523438,0.3889913558959961
1711552128775005700,4.232005615234375,0.8482108116149902,1.0351953506469727,1.1946969032287598
1711552128793965600,4.250965576171875,1.6118760108947754,0.13965177536010742,2.2646055221557617
1711552128812925400,4.269925537109375,1.7754738330841064,-0.09675168991088867,2.157040596008301
1711552128831885300,4.28888525390625,0.3440135717391968,1.4717426300048828,2.254323959350586
1711552128850845400,4.307845458984375,-1.6430227756500244,0.8614726066589355,1.004201889038086
1711552128869805300,4.326805419921875,-2.2044625282287598,-0.5472040176391602,-0.8474216461181641
1711552128888765200,4.34576513671875,-1.7397621870040894,-0.8248081207275391,-2.0974502563476562
1711552128907725300,4.364725341796875,-3.414245367050171,-0.41335535049438477,-3.2499403953552246
1711552128926685200,4.383685302734375,-3.037557363510132,-0.43946313858032227,1.1030693054199219
1711552128945645000,4.40264501953125,0.33320993185043335,0.19371318817138672,0.8509368896484375
1711552128964605200,4.421605224609375,6.687843322753906,-0.7955036163330078,2.5774388313293457
1711552128983565000,4.44056494140625,1.8931483030319214,0.5286769866943359,-0.015468597412109375
1711552129002525000,4.45952490234375,-1.5834828615188599,0.5480413436889648,0.42797327041625977
1711552129021484800,4.47848486328125,-3.0001630783081055,-0.08997297286987305,-3.7736926078796387
1711552129040445000,4.49744482421875,-1.694547414779663,-0.28774309158325195,-2.020171642303467
1711552129059404800,4.51640478515625,-0.5887141227722168,-0.06986570358276367,-0.16626787185668945
1711552129078364700,4.53536474609375,-0.6289611458778381,-0.43390464782714844,-0.3389301300048828
1711552129097324800,4.55432470703125,-0.7958534955978394,-0.527069091796875,-0.6664328575134277
1711552129116284700,4.57328466796875,-0.7538821697235107,-0.4877781867980957,-0.8361067771911621
1711552129135244500,4.59224462890625,-0.062307775020599365,0.21570587158203125,0.2706470489501953
1711552129154204700,4.61120458984375,0.5173476934432983,0.5893707275390625,0.6321144104003906
1711552129173164500,4.63016455078125,0.5935359597206116,0.17695188522338867,-0.1820230484008789
1711552129192124400,4.64912451171875,0.39028698205947876,0.5592861175537109,0.5073471069335938
1711552129211084300,4.668084228515625,1.1235193014144897,0.1444101333618164,1.0276579856872559
1711552129230044400,4.68704443359375,0.9479971528053284,0.13914728164672852,0.6878623962402344
1711552129249004300,4.70600439453125,0.051413774490356445,-0.33308935165405273,1.356748104095459
1711552129267964200,4.724964111328125,-0.3089715838432312,-0.05537080764770508,-0.43121957778930664
1711552129286924000,4.743924072265625,-0.7836458683013916,-0.23567819595336914,-0.16539573669433594
1711552129305884200,4.76288427734375,-0.508043646812439,-0.16527700424194336,-1.305443286895752
1711552129324844000,4.781843994140625,-1.1267634630203247,-0.5552473068237305,-0.8160810470581055
1711552129343804000,4.800803955078125,-1.1103589534759521,-0.26508378982543945,-1.1232328414916992
1711552129362764000,4.819763916015625,-0.9405650496482849,-0.3989443778991699,-1.183143138885498
1711552129381724000,4.838723876953125,-0.29128706455230713,-0.1420307159423828,-0.16222763061523438
1711552129400683800,4.857683837890625,0.7854332327842712,0.2484593391418457,1.0211257934570312
1711552129419643600,4.8766435546875,0.7124615907669067,0.3076314926147461,0.8458995819091797
1711552129438603800,4.895603759765625,-0.10017967224121094,0.11921215057373047,-0.021595001220703125
1711552129457563600,4.914563720703125,-0.19993406534194946,0.03517436981201172,-0.26361989974975586
1711552129476523500,4.9335234375,0.26499491930007935,0.062317848205566406,-0.0495753288269043
1711552129495483600,4.952483642578125,0.1458749771118164,0.25618505477905273,-0.10993623733520508
1711552129514443500,4.971443603515625,-0.41352707147598267,0.14804410934448242,-0.19138145446777344
1711552129533403400,4.9904033203125,-0.7648260593414307,0.17582225799560547,-0.4297657012939453
1711552129552363300,5.00936328125,-0.8968900442123413,0.08076667785644531,-0.45001220703125
1711552129571323400,5.028323486328125,-0.04270577430725098,0.45616674423217773,-0.22275447845458984
1711552129590283300,5.047283203125,1.2336640357971191,0.7540493011474609,0.6178922653198242
1711552129609243100,5.0662431640625,0.5152969360351562,-0.0729212760925293,0.971778392791748
1711552129628203000,5.085203125,0.22949886322021484,0.11088991165161133,0.7766456604003906
1711552129647163000,5.104162841796875,0.7023830413818359,0.2853727340698242,1.5797457695007324
1711552129666123000,5.123123046875,-0.484780490398407,-0.05190706253051758,0.6655755043029785
1711552129685083000,5.142082763671875,-0.5304189324378967,-0.12662935256958008,-1.1023669242858887
1711552129704042800,5.161042724609375,-0.6619884371757507,-0.13571929931640625,-1.6518573760986328
1711552129723003000,5.1800029296875,-0.08790594339370728,-0.2234959602355957,-1.111173152923584
1711552129741962800,5.198962646484375,0.40497124195098877,-0.4927845001220703,0.4664192199707031
1711552129760922600,5.217922607421875,0.6232192516326904,-0.6666774749755859,1.3371572494506836
1711552129779882500,5.236882568359375,0.5342104434967041,0.005990505218505859,1.0854716300964355
1711552129798842400,5.25584228515625,0.15025854110717773,0.16058874130249023,0.9287524223327637
1711552129817802500,5.274802490234375,-0.08879494667053223,-0.6725306510925293,0.735130786895752
1711552129836762400,5.293762451171875,0.3931032419204712,-0.7042279243469238,1.6576218605041504
1711552129855722200,5.31272216796875,0.6093555688858032,0.438992977142334,1.353734016418457
1711552129874682400,5.331682373046875,0.29141128063201904,0.5046463012695312,0.9310054779052734
1711552129893642200,5.350642333984375,-0.42635470628738403,-0.6019611358642578,1.1243009567260742
1711552129912602000,5.36960205078125,-1.0913755893707275,-0.38439226150512695,0.7317981719970703
1711552129931562000,5.38856201171875,-0.8255453109741211,0.5246357917785645,-0.28626155853271484
1711552129950521900,5.40752197265625,-2.2702431678771973,-0.04875612258911133,-1.291818618774414
1711552129969482000,5.42648193359375,-1.8454524278640747,-0.8594584465026855,-1.8377652168273926
1711552129988441900,5.44544189453125,-1.5013394355773926,-0.3637509346008301,-2.0632553100585938
1711552130007401700,5.464401611328125,-0.1815999150276184,2.1373777389526367,-3.6746959686279297
1711552130026361900,5.48336181640625,0.5261670351028442,0.9180998802185059,0.7201156616210938
1711552130045321700,5.50232177734375,0.0541357696056366,-0.9035677909851074,2.3119163513183594
1711552130064281600,5.521281494140625,-0.026724383234977722,-0.668729305267334,0.3050251007080078
1711552130083241500,5.540241455078125,-0.28238335251808167,1.1586976051330566,-1.322378158569336
1711552130102201300,5.559201416015625,-0.4403119683265686,1.0756831169128418,-1.3759546279907227
1711552130121161200,5.5781611328125,-0.6570843458175659,-0.0778193473815918,-0.3033294677734375
1711552130140121300,5.597121337890625,0.050149500370025635,-0.04852008819580078,0.8112850189208984
1711552130159081200,5.616081298828125,0.7079445123672485,0.0882863998413086,0.5035028457641602
1711552130178041000,5.635041015625,0.04445141553878784,0.2143416404724121,-1.562769889831543
1711552130197001200,5.654001220703125,-0.49000000953674316,-0.39310216903686523,-2.264707565307617
1711552130215961000,5.672961181640625,-0.355945885181427,-1.318068504333496,-0.49709510803222656
1711552130234921000,5.6919208984375,0.3286631107330322,-0.3934211730957031,-0.33666133880615234
1711552130253880800,5.710880859375,-0.3780193328857422,1.1961650848388672,-1.412801742553711
1711552130272840700,5.7298408203125,-1.4044804573059082,1.145113468170166,-1.5123286247253418
1711552130291800800,5.74880078125,-1.0911017656326294,0.8608574867248535,-0.16475868225097656
1711552130310760700,5.7677607421875,-0.3147869110107422,0.8572177886962891,0.005032539367675781
1711552130329720600,5.786720458984375,-0.523334264755249,0.1689291000366211,0.297060489654541
1711552130348680400,5.805680419921875,0.026872634887695312,0.16549921035766602,-0.8099288940429688
1711552130367640300,5.824640380859375,-0.19904828071594238,1.194474220275879,1.201909065246582
1711552130386600400,5.843600341796875,0.729229211807251,-0.025686264038085938,0.125244140625
1711552130405560300,5.862560302734375,0.7412693500518799,-0.8825187683105469,1.3342552185058594
1711552130424520200,5.881520263671875,0.7789363861083984,-0.024731159210205078,2.878411293029785
1711552130443480300,5.900480224609375,1.7695708274841309,0.12199687957763672,1.6990504264831543
1711552130462440200,5.919440185546875,2.381289005279541,-1.10968017578125,0.7464027404785156
1711552130481400000,5.938400146484375,2.506493091583252,-1.5262579917907715,1.9437732696533203
1711552130500360000,5.95735986328125,1.6443097591400146,-0.8048219680786133,1.0284233093261719
1711552130519319800,5.97631982421875,0.43187546730041504,-0.2518653869628906,1.0062990188598633
1711552130538279700,5.99527978515625,0.36904287338256836,0.4182453155517578,0.9674568176269531
1711552130557239800,6.01423974609375,0.7087225914001465,-0.6240291595458984,0.8087286949157715
1711552130576199700,6.03319970703125,0.3764166831970215,-0.5141901969909668,0.8134760856628418
1711552130595159600,6.05215966796875,0.26663780212402344,-0.05498790740966797,1.2701916694641113
1711552130614119700,6.07111962890625,0.19271230697631836,0.23858642578125,1.8466591835021973
1711552130633079600,6.09007958984375,0.7281326055526733,0.12633657455444336,2.400846004486084
1711552130652039400,6.109039306640625,0.9253662824630737,-0.006816387176513672,2.272399425506592
1711552130670999300,6.127999267578125,0.7902302145957947,0.47912025451660156,1.7909092903137207
1711552130689959200,6.146959228515625,-0.17624713480472565,1.7436552047729492,0.16662836074829102
1711552130708919300,6.165919189453125,-2.618678569793701,1.572667121887207,-3.691866397857666
1711552130727879200,6.184879150390625,-4.00800895690918,0.48475074768066406,-7.665307521820068
1711552130746839000,6.203839111328125,-3.155276298522949,0.1632523536682129,-6.013436317443848
1711552130765799200,6.222799072265625,-2.9654037952423096,0.1287097930908203,-4.1068878173828125
1711552130784759000,6.241759033203125,-2.0511832237243652,-0.19317913055419922,-2.0598788261413574
1711552130803719000,6.260718994140625,-0.4930279552936554,-0.04239654541015625,0.48726940155029297
1711552130822678800,6.2796787109375,-0.07864183187484741,0.260772705078125,2.4049525260925293
1711552130841639000,6.298638916015625,1.00697660446167,0.5213356018066406,3.6483092308044434
1711552130860598800,6.317598876953125,1.0668240785598755,0.24211978912353516,2.945446014404297
1711552130879558700,6.33655859375,0.6872762441635132,-0.2264728546142578,2.0331473350524902
1711552130898518500,6.3555185546875,-0.05206406116485596,-0.5312271118164062,1.2036075592041016
1711552130917478400,6.374478515625,-0.43882492184638977,-0.31859874725341797,0.19692134857177734
1711552130936438500,6.3934384765625,-0.7930862903594971,0.12285137176513672,-0.17149972915649414
1711552130955398400,6.4123984375,-1.0933036804199219,0.3270692825317383,0.013323783874511719
1711552130974358500,6.431358642578125,-1.2742434740066528,0.25850486755371094,0.3611412048339844
1711552130993318400,6.450318359375,-1.0863597393035889,0.2052927017211914,0.8067307472229004
1711552131012278300,6.4692783203125,-0.6989887952804565,0.006171226501464844,1.1057713031768799
1711552131031238100,6.488238037109375,-0.48792511224746704,-0.5083456039428711,1.3370695114135742
1711552131050198300,6.5071982421875,-0.440976619720459,-1.0652341842651367,1.3769474029541016
1711552131069158100,6.526158203125,-0.506669282913208,-1.274470329284668,1.3191053867340088
1711552131088118000,6.545117919921875,-0.929355263710022,-1.3111076354980469,1.0264644622802734
1711552131107078000,6.564077880859375,-1.0195122957229614,-1.0990991592407227,0.7690331935882568
1711552131126038000,6.5830380859375,-1.2926608324050903,-0.9949483871459961,0.3107762336730957
1711552131144998000,6.601997802734375,-1.6528211832046509,-0.836888313293457,-0.10622870922088623
1711552131163958000,6.6209580078125,-1.2845350503921509,-0.6378898620605469,-0.6916534900665283
1711552131182918000,6.63991796875,-1.4375324249267578,-0.240570068359375,-0.8083957433700562
1711552131201877800,6.658877685546875,-1.2523266077041626,0.36168861389160156,-0.2618429660797119
1711552131220838000,6.677837890625,-0.8585942983627319,0.46172428131103516,0.0441211462020874
1711552131239797800,6.6967978515625,-0.7613831758499146,0.34720325469970703,0.1945263147354126
1711552131258757600,6.715757568359375,-0.9090835452079773,0.2139434814453125,0.3401895761489868
1711552131277717500,6.734717529296875,-0.7966114282608032,0.09545040130615234,0.2735722064971924
1711552131296677600,6.753677734375,-0.8802846670150757,0.14316940307617188,-0.09156715869903564
1711552131315637500,6.772637451171875,-0.9914840459823608,0.11745834350585938,-0.2631458044052124
1711552131334597400,6.791597412109375,-0.7636972069740295,0.1485433578491211,-0.26827263832092285
1711552131353557500,6.8105576171875,-0.5639569163322449,0.355560302734375,-0.22491300106048584
1711552131372517400,6.829517333984375,-0.2656119465827942,0.5182304382324219,-0.35316216945648193
1711552131391477500,6.8484775390625,-0.05377626419067383,0.8756227493286133,-0.6629294157028198
1711552131410437400,6.867437255859375,-0.02579021453857422,1.2196979522705078,-1.0152361392974854
1711552131429397200,6.886397216796875,-0.21121102571487427,1.654806137084961,-1.238230586051941
1711552131448357400,6.905357421875,-0.6466922760009766,1.590047836303711,-1.4616961479187012
1711552131467317200,6.924317138671875,-0.7805383205413818,1.3634624481201172,-1.4338812828063965
1711552131486277000,6.943277099609375,-0.684455394744873,0.9149093627929688,-1.1053284406661987
1711552131505237200,6.9622373046875,-0.49447712302207947,0.21131515502929688,-0.8831324577331543
1711552131524197000,6.981197021484375,-0.5795971155166626,-0.13893508911132812,-0.8915205001831055
1711552131543157000,7.000156982421875,-1.0791780948638916,-0.07429218292236328,-0.801539421081543
1711552131562117000,7.0191171875,-1.1992067098617554,-0.1887645721435547,-0.7693562507629395
1711552131581077000,7.038076904296875,-0.9501734972000122,-0.49486446380615234,-1.0143749713897705
1711552131600036900,7.057036865234375,-1.1573288440704346,-0.4870481491088867,-1.2966564893722534
1711552131618997000,7.0759970703125,-1.4732391834259033,0.08996105194091797,-0.9696433544158936
1711552131637956900,7.094956787109375,-1.2942051887512207,0.6070127487182617,-0.07438445091247559
1711552131656916700,7.113916748046875,-0.8636236190795898,0.6059036254882812,0.6944022178649902
1711552131675876900,7.132876953125,-0.3452283442020416,0.3678016662597656,0.8150782585144043
1711552131694836700,7.151836669921875,-0.04746223986148834,0.07384204864501953,0.4817051887512207
1711552131713796900,7.170796875,0.08855722099542618,-0.14227962493896484,0.48944568634033203
1711552131732756700,7.1897568359375,0.17545565962791443,-0.019037246704101562,0.22840642929077148
1711552131751716900,7.208716796875,0.3698285222053528,0.13126420974731445,0.16716814041137695
1711552131770676700,7.2276767578125,0.5371316075325012,0.09802103042602539,0.2580280303955078
1711552131789636600,7.24663671875,0.7162373661994934,0.20290613174438477,0.06253433227539062
1711552131808596700,7.2655966796875,1.2204002141952515,0.6135358810424805,0.019376754760742188
1711552131827556600,7.284556640625,1.527409315109253,1.3194293975830078,0.4475851058959961
1711552131846516700,7.303516845703125,1.7064720392227173,1.3213701248168945,0.917426586151123
1711552131865476600,7.3224765625,1.6869585514068604,0.8322315216064453,1.004443645477295
1711552131884436500,7.3414365234375,1.618509292602539,0.7723064422607422,0.6889033317565918
1711552131903396600,7.360396728515625,1.2770295143127441,1.1991395950317383,0.6247677803039551
1711552131922356500,7.3793564453125,0.7533113956451416,1.0014066696166992,0.5815377235412598
1711552131941316600,7.398316650390625,0.733964204788208,0.13094282150268555,-0.032715797424316406
1711552131960276500,7.4172763671875,0.7529230117797852,-0.5862264633178711,-0.21047019958496094
1711552131979236400,7.436236328125,0.7486382722854614,-0.6094694137573242,0.4294586181640625
1711552131998196500,7.455196533203125,0.9141085147857666,-0.5306921005249023,0.7362470626831055
1711552132017156400,7.47415625,1.0268516540527344,-0.7568774223327637,0.4432086944580078
1711552132036116500,7.493116455078125,0.94849693775177,-0.9943327903747559,0.023065567016601562
1711552132055076400,7.512076416015625,0.88227379322052,-1.0822889804840088,-0.5976166725158691
1711552132074036500,7.531036376953125,0.6385773420333862,-0.837151288986206,-0.9102907180786133
1711552132092996400,7.549996337890625,0.4287620782852173,0.0351557731628418,-0.9262323379516602
1711552132111956200,7.568956298828125,0.5482908487319946,-0.205780029296875,-0.9054865837097168
1711552132130916400,7.587916259765625,0.49535131454467773,-0.7484078407287598,-0.7000331878662109
1711552132149876200,7.606876220703125,0.10774850845336914,-0.8332858085632324,-0.46475696563720703
1711552132168836400,7.62583642578125,0.12648820877075195,-0.7758240699768066,-0.0874776840209961
1711552132187796200,7.644796142578125,0.16160225868225098,-0.9694862365722656,-0.09311676025390625
1711552132206756400,7.66375634765625,-0.1433861255645752,-0.5469245910644531,-0.25670623779296875
1711552132225716200,7.68271630859375,-0.33679747581481934,-0.34838199615478516,-0.2947683334350586
1711552132244676400,7.70167626953125,-0.4229705333709717,-0.6836042404174805,-0.1767101287841797
1711552132263636200,7.72063623046875,-0.2176518440246582,-0.8471879959106445,0.1994161605834961
1711552132282596400,7.739596435546875,0.06636691093444824,-0.8343288898468018,0.8479375839233398
1711552132301556200,7.75855615234375,0.4096090793609619,-0.8362188339233398,1.4386005401611328
1711552132320516400,7.777516357421875,0.5269789695739746,-1.0979077816009521,1.5396623611450195
1711552132339476200,7.796476318359375,0.5580425262451172,-1.5740885734558105,1.2827701568603516
1711552132358436400,7.815436279296875,0.5468695163726807,-1.541553258895874,0.6633720397949219
1711552132377396200,7.834396240234375,0.3336906433105469,-1.5991542339324951,-0.09493255615234375
1711552132396356400,7.8533564453125,0.3028886318206787,-1.9483959674835205,-0.37760162353515625
1711552132415316200,7.872316162109375,0.2077159881591797,-2.1964309215545654,-0.7003135681152344
1711552132434276400,7.8912763671875,0.18311476707458496,-1.883601427078247,-0.8709783554077148
1711552132453236200,7.910236328125,0.13704395294189453,-1.5069348812103271,-1.0899991989135742
1711552132472196400,7.9291962890625,0.28626275062561035,-1.636277198791504,-1.5745429992675781
1711552132491156200,7.94815625,1.6399227380752563,-1.7044281959533691,-2.317674160003662
1711552132510116400,7.967116455078125,2.3610613346099854,-1.8432947397232056,-2.994277000427246
1711552132529076200,7.986076171875,1.4649659395217896,-0.8829972743988037,-3.2977657318115234
1711552132548036400,8.005036376953125,-0.17867612838745117,1.657207727432251,-2.543576240539551
1711552132566996200,8.023996337890624,-1.4256391525268555,3.675556182861328,-1.5618705749511719
1711552132585956400,8.042956298828125,-1.6413278579711914,3.5900402069091797,-0.7084560394287109
1711552132604916200,8.061916259765624,-0.796229362487793,2.470292568206787,0.8705930709838867
1711552132623876400,8.08087646484375,1.3371586799621582,1.2184057235717773,2.5098485946655273
1711552132642836200,8.099836181640624,0.585951566696167,1.4190387725830078,6.920925617218018
1711552132661796400,8.11879638671875,-2.6212666034698486,2.8441076278686523,8.1123628616333
1711552132680756200,8.137756103515626,-6.832106113433838,6.089579105377197,9.066910743713379
1711552132699716400,8.15671630859375,-4.579377174377441,9.02859115600586,11.014864921569824
1711552132718676200,8.17567626953125,-1.2459547519683838,6.874590873718262,10.265999794006348
1711552132737636400,8.19463623046875,-0.16031384468078613,4.8439788818359375,10.342769622802734
1711552132756596200,8.21359619140625,0.27440619468688965,3.9714736938476562,7.282741546630859
1711552132775556400,8.232556396484375,-0.317734956741333,1.4620447158813477,3.9863452911376953
1711552132794516200,8.25151611328125,-0.7793814539909363,-1.1459083557128906,1.2476286888122559
1711552132813476400,8.270476318359375,-1.532824993133545,-3.4001665115356445,-1.6804556846618652
1711552132832436500,8.2894365234375,-2.0081892013549805,-4.106645584106445,-3.386842727661133
1711552132851396400,8.308396240234375,-2.6573104858398438,-3.664351463317871,-3.484109401702881
1711552132870356500,8.3273564453125,-2.7508509159088135,-3.0467052459716797,-2.935304641723633
1711552132889316400,8.34631640625,-2.685243844985962,-2.6452770233154297,-2.676053762435913
1711552132908276500,8.3652763671875,-2.7459843158721924,-2.5365500450134277,-2.4549355506896973
1711552132927236400,8.384236328125,-2.3051373958587646,-2.802231788635254,-2.7155277729034424
1711552132946196500,8.403196533203126,-2.2651500701904297,-2.3914756774902344,-2.88805890083313
1711552132965156400,8.42215625,-2.2776145935058594,-1.6644058227539062,-2.4131972789764404
1711552132984116500,8.441116455078125,-1.9175519943237305,-1.1791744232177734,-2.0767416954040527
1711552133003076400,8.460076416015625,-1.0669867992401123,-1.1170177459716797,-1.7677310705184937
1711552133022036500,8.479036376953125,-0.987917423248291,-0.23689651489257812,-1.213412880897522
1711552133040996600,8.49799658203125,-0.8289661407470703,-0.3630084991455078,-0.29991382360458374
1711552133059956500,8.51695654296875,-0.5035281181335449,-1.2779545783996582,-0.10979463160037994
1711552133078916600,8.53591650390625,-0.45386457443237305,-0.38505077362060547,0.19473297894001007
1711552133097876500,8.55487646484375,-0.7082643508911133,0.13613510131835938,0.23666799068450928
1711552133116836600,8.573836669921874,-0.521848201751709,-0.3983001708984375,0.1891496777534485
1711552133135796500,8.59279638671875,-0.6664586067199707,-0.3053460121154785,0.12198811769485474
1711552133154756600,8.611756591796874,-0.9787516593933105,-0.9329023361206055,0.026501178741455078
1711552133173716500,8.630716552734375,-1.0832910537719727,-1.6029987335205078,-0.17960643768310547
1711552133192676600,8.649676513671874,-0.7689194679260254,-1.5959548950195312,-0.30593204498291016
1711552133211636700,8.66863671875,-0.9596190452575684,-1.221933364868164,-0.3123735189437866
1711552133230596600,8.6875966796875,-0.9330224990844727,-1.8220148086547852,-0.3924003839492798
1711552133249556700,8.706556640625,-1.0903739929199219,-1.9996399879455566,-0.6702425479888916
1711552133268516600,8.7255166015625,-0.4380040168762207,-1.8299083709716797,-0.40827715396881104
1711552133287476700,8.744476806640625,-0.21276473999023438,-0.8110904693603516,0.02705824375152588
1711552133306436600,8.7634365234375,-0.14942550659179688,-0.7135591506958008,-0.3768213987350464
1711552133325396700,8.782396728515625,-0.021524906158447266,-1.222090721130371,-1.0980902910232544
1711552133344356600,8.801356689453126,-0.14034414291381836,-1.4065194129943848,-1.4901084899902344
1711552133363316700,8.820316650390625,-0.16966915130615234,-1.3491086959838867,-1.6388721466064453
1711552133382276600,8.839276611328126,0.02774810791015625,-1.567204475402832,-1.8578791618347168
1711552133401236700,8.85823681640625,-0.1046609878540039,-1.7143688201904297,-2.078272819519043
1711552133420196600,8.877196533203126,-0.3383636474609375,-1.4465832710266113,-2.018745183944702
1711552133439156700,8.89615673828125,-0.43045711517333984,-1.250178337097168,-1.67753005027771
1711552133458116600,8.91511669921875,-0.41830015182495117,-0.6720371246337891,-1.1473910808563232
1711552133477076700,8.93407666015625,-0.49518585205078125,-0.09288692474365234,-0.536144495010376
1711552133496036900,8.953036865234376,-0.1480422019958496,0.4539337158203125,0.10614514350891113
1711552133514996700,8.971996826171875,0.00498199462890625,0.8197183609008789,0.8487226963043213
1711552133533956900,8.990956787109376,0.1625051498413086,0.8481483459472656,1.389433741569519
1711552133552916700,9.009916748046875,-0.1741037368774414,0.8302602767944336,1.2115402221679688
1711552133571876900,9.028876953125,-0.0996394157409668,0.39958620071411133,0.11608076095581055
1711552133590836700,9.047836669921875,0.10056543350219727,-0.0636754035949707,-0.5492339134216309
1711552133609796900,9.066796875,0.23565101623535156,0.0540308952331543,-0.2679932117462158
1711552133628756700,9.0857568359375,0.6128239631652832,0.04366636276245117,0.32088708877563477
1711552133647716900,9.104716796875,0.6796164512634277,0.06097745895385742,-0.07125687599182129
1711552133666676700,9.1236767578125,0.36148500442504883,0.1789999008178711,-0.039987802505493164
1711552133685636900,9.142636962890625,0.43441343307495117,0.06471490859985352,0.16478180885314941
1711552133704596700,9.1615966796875,0.386415958404541,-0.10391044616699219,0.3651547431945801
1711552133723556900,9.180556884765625,-0.02010059356689453,-0.20502567291259766,0.6460962295532227
1711552133742516700,9.199516845703124,-0.395418643951416,-0.14710664749145508,0.7972428798675537
1711552133761476900,9.218476806640625,-0.25557518005371094,-0.11858081817626953,0.588578462600708
1711552133780436700,9.237436767578124,-0.2243661880493164,-0.0766143798828125,0.4313323497772217
1711552133799396900,9.25639697265625,-0.1907200813293457,-0.09066486358642578,0.13771367073059082
1711552133818356700,9.275356689453124,-0.11443281173706055,-0.23878908157348633,0.14827799797058105
1711552133837316900,9.29431689453125,-0.007422447204589844,0.12165117263793945,0.05485081672668457
1711552133856276700,9.31327685546875,0.08634471893310547,-0.36903858184814453,-0.021809101104736328
1711552133875236900,9.33223681640625,0.26181697845458984,-0.8046307563781738,0.06335735321044922
1711552133894196700,9.35119677734375,0.2812161445617676,-0.873176097869873,-0.2157137393951416
1711552133913156600,9.370156494140625,0.12070512771606445,-0.7031855583190918,-0.7628891468048096
1711552133932116700,9.38911669921875,0.3328685760498047,-0.5462455749511719,-0.5500884056091309
1711552133951076600,9.40807666015625,0.5426244735717773,-0.8173718452453613,0.055226802825927734
1711552133970036700,9.42703662109375,0.13193941116333008,-0.36397266387939453,0.2823822498321533
1711552133988996600,9.44599658203125,-0.2387399673461914,-0.3048691749572754,0.07704567909240723
1711552134007956700,9.464956787109376,-0.4313969612121582,-0.1886310577392578,0.0023183822631835938
1711552134026916600,9.48391650390625,-0.09856224060058594,-0.2621917724609375,0.19595098495483398
1711552134045876700,9.502876708984376,0.11296319961547852,-0.04809856414794922,0.5114550590515137
1711552134064836600,9.521836669921875,-0.26206016540527344,0.09981918334960938,0.6214406490325928
1711552134083796700,9.540796630859376,-0.8163466453552246,0.18945598602294922,0.46947264671325684
1711552134102756600,9.559756591796875,-0.9550919532775879,0.12143945693969727,0.36515188217163086
1711552134121716500,9.578716552734376,-1.3252930641174316,0.1305379867553711,0.02148270606994629
1711552134140676600,9.597676513671875,-1.3098444938659668,-0.015204906463623047,0.1697378158569336
1711552134159636500,9.616636474609376,-0.4257392883300781,0.04454660415649414,0.5584278106689453
1711552134178596600,9.6355966796875,0.22368288040161133,0.1767406463623047,0.29323697090148926
1711552134197556500,9.654556396484375,0.5706591606140137,-0.1291818618774414,-0.39705681800842285
1711552134216516600,9.6735166015625,0.30913829803466797,0.23876333236694336,-0.716602087020874
1711552134235476500,9.6924765625,0.19310712814331055,0.6316056251525879,-0.4320049285888672
1711552134254436400,9.711436279296874,0.31926774978637695,0.6326189041137695,0.6770470142364502
1711552134273396500,9.730396484375,0.5162005424499512,0.6279487609863281,1.8730347156524658
1711552134292356400,9.7493564453125,0.5146689414978027,1.1998891830444336,0.20598840713500977
1711552134311316500,9.76831640625,0.1886606216430664,0.9324240684509277,-0.2238306999206543
1711552134330276400,9.7872763671875,0.49947643280029297,0.8195924758911133,-0.10145998001098633
1711552134349236500,9.806236572265625,0.19673919677734375,0.6708025932312012,-0.5986547470092773
1711552134368196400,9.8251962890625,-0.4093151092529297,0.42415761947631836,-0.9928641319274902
1711552134387156200,9.84415625,-0.7762212753295898,0.3252091407775879,-0.5711193084716797
1711552134406116400,9.863116455078124,-0.49658679962158203,0.4057774543762207,-0.2319192886352539
1711552134425076200,9.882076171875,-0.21233081817626953,-0.2794337272644043,-0.27532148361206055
1711552134444036400,9.901036376953124,-0.3541860580444336,-0.9996621608734131,-0.3492393493652344
1711552134462996200,9.919996337890625,-0.5027685165405273,-0.8828048706054688,-0.37766170501708984
1711552134481956400,9.938956298828124,-0.43721675872802734,-0.6851661205291748,-0.34384679794311523
1711552134500916200,9.957916259765625,-0.32787132263183594,-0.5524485111236572,-0.2822999954223633
1711552134519876400,9.97687646484375,-0.13728904724121094,-0.5758159160614014,0.010128974914550781
1711552134538836200,9.995836181640625,-0.1183462142944336,-0.30124950408935547,0.23560810089111328
1711552134557796000,10.014796142578126,-0.06523704528808594,-0.1423816680908203,0.7118611335754395
1711552134576756200,10.033756103515625,0.06716537475585938,-0.08713483810424805,0.7631640434265137
1711552134595716000,10.052716064453126,0.4411764144897461,-0.4539766311645508,0.12592077255249023
1711552134614676000,10.071676025390625,0.5574140548706055,-1.1825885772705078,-0.4481172561645508
1711552134633636000,10.090635986328126,0.5404233932495117,-1.028223991394043,-1.610694408416748
1711552134652596000,10.109595947265625,0.35947179794311523,-0.7514634132385254,-0.8569216728210449
1711552134671555800,10.128555908203126,0.3846006393432617,-0.061095476150512695,-0.11507415771484375
1711552134690516000,10.147515869140625,0.16466188430786133,0.2039794921875,-0.0928339958190918
1711552134709475800,10.166475830078125,0.04125547409057617,0.25212931632995605,0.06722545623779297
1711552134728436000,10.18543603515625,0.3627433776855469,0.15457987785339355,0.5052914619445801
1711552134747395800,10.204395751953125,0.4475584030151367,0.08823704719543457,0.17346525192260742
1711552134766355700,10.223355712890625,0.38548803329467773,-0.1752161979675293,-0.4691286087036133
1711552134785315800,10.24231591796875,0.4698796272277832,-0.15317964553833008,-0.31539154052734375
1711552134804275700,10.261275634765624,0.5444192886352539,-0.2871887683868408,0.5142250061035156
1711552134823235800,10.28023583984375,0.42162418365478516,-0.2550694942474365,-0.10414314270019531
1711552134842195700,10.29919580078125,0.07526779174804688,-0.4350154399871826,-0.45688486099243164
1711552134861155600,10.318155517578125,-0.2653961181640625,-0.4186544418334961,-0.3454780578613281
1711552134880115700,10.33711572265625,-0.5076489448547363,-0.3153843879699707,-0.034221649169921875
1711552134899075600,10.35607568359375,-0.4345989227294922,-0.3013286590576172,0.3653106689453125
1711552134918035500,10.375035400390624,-0.4227561950683594,0.3243386745452881,0.34699249267578125
1711552134936995600,10.39399560546875,-0.46141481399536133,0.901069164276123,0.27895593643188477
1711552134955955500,10.41295556640625,-0.06120920181274414,1.015756607055664,0.5508255958557129
1711552134974915300,10.431915283203125,0.31394195556640625,0.30636096000671387,0.11955833435058594
1711552134993875500,10.45087548828125,0.3544182777404785,-0.6424970626831055,-0.5788483619689941
1711552135012835300,10.46983544921875,0.03884553909301758,-0.6958887577056885,-0.48563575744628906
1711552135031795200,10.488795166015626,-0.11576509475708008,-0.6226534843444824,-0.38607263565063477
1711552135050755000,10.507755126953125,-0.20504331588745117,-0.5497069358825684,-0.10573816299438477
1711552135069715200,10.526715087890626,-0.1775975227355957,-0.23276853561401367,0.03091287612915039
1711552135088675000,10.545675048828125,-0.32234907150268555,-0.12381982803344727,-0.31418943405151367
1711552135107635200,10.56463525390625,-0.3154873847961426,0.08211517333984375,-0.3876218795776367
1711552135126595000,10.583594970703125,-0.1756424903869629,0.41432619094848633,-0.37814903259277344
1711552135145555000,10.602554931640626,0.15825939178466797,0.4825873374938965,-0.4247288703918457
1711552135164515000,10.62151513671875,0.39438819885253906,0.48073673248291016,-0.12846660614013672
1711552135183475000,10.640474853515625,0.1969156265258789,0.6926760673522949,0.02673196792602539
1711552135202434800,10.659434814453125,0.030925273895263672,0.6566624641418457,-0.5502338409423828
1711552135221394700,10.678394775390625,0.40990304946899414,0.2947249412536621,-0.5582914352416992
1711552135240354800,10.697354736328125,0.04747486114501953,0.17187738418579102,-0.4522252082824707
1711552135259314700,10.716314697265625,-0.4242119789123535,0.06460285186767578,-0.4831657409667969
1711552135278274600,10.735274658203124,-0.557065486907959,0.22853946685791016,-0.18181514739990234
1711552135297234700,10.754234619140625,-0.35460376739501953,0.15915393829345703,0.1254410743713379
1711552135316194600,10.773194580078124,-0.30295419692993164,-0.03187417984008789,0.2258467674255371
1711552135335154400,10.792154541015625,-0.15503358840942383,-0.17650938034057617,-0.2977299690246582
1711552135354114600,10.811114501953124,-0.2343006134033203,0.056982994079589844,-0.48807287216186523
1711552135373074400,10.830074462890625,-0.1579608917236328,0.3391838073730469,-0.4688143730163574
1711552135392034300,10.849034423828124,0.034371376037597656,0.20426368713378906,0.11769580841064453
1711552135410994400,10.867994384765625,-0.022851943969726562,0.24741649627685547,0.2552356719970703
1711552135429954300,10.886954345703124,0.07643699645996094,0.2953152656555176,-0.0923166275024414
1711552135448914200,10.9059140625,0.09694814682006836,0.4095768928527832,-0.11292791366577148
1711552135467874000,10.9248740234375,0.21575355529785156,0.2657337188720703,-0.3467249870300293
1711552135486834200,10.943834228515625,0.18016672134399414,0.034987449645996094,-0.5260457992553711
1711552135505794000,10.9627939453125,-0.0714254379272461,-0.10724020004272461,-0.3994731903076172
1711552135524754200,10.981754150390625,-0.10413551330566406,-0.17990922927856445,-0.14060258865356445
1711552135543714000,11.000714111328126,-0.04480552673339844,-0.32758378982543945,0.08247089385986328
1711552135562674000,11.019673828125,-0.027646541595458984,-0.27193784713745117,-0.11419534683227539
1711552135581633800,11.0386337890625,-0.2333545684814453,-0.06461811065673828,-0.40831756591796875
1711552135600594000,11.057593994140625,-0.17616844177246094,-0.23393774032592773,-0.2937612533569336
1711552135619553800,11.0765537109375,-0.07338857650756836,-0.27977561950683594,0.07240819931030273
1711552135638513700,11.095513671875,-0.07386493682861328,-0.24925899505615234,0.16407155990600586
1711552135657473500,11.1144736328125,-0.23966646194458008,-0.2154998779296875,-0.15473175048828125
1711552135676433700,11.13343359375,-0.16275644302368164,-0.03361797332763672,-0.04117727279663086
1711552135695393500,11.1523935546875,-0.1049656867980957,0.12870216369628906,0.028359413146972656
1711552135714353400,11.171353515625,0.07740211486816406,0.10628223419189453,0.13539743423461914
1711552135733313500,11.1903134765625,0.18862581253051758,0.23767566680908203,0.10271072387695312
1711552135752273400,11.2092734375,0.1023106575012207,0.4266047477722168,-0.2449626922607422
1711552135771233300,11.2282333984375,0.14538002014160156,0.30892229080200195,-0.21987581253051758
1711552135790193400,11.247193359375,-0.03534984588623047,0.1642131805419922,0.1460261344909668
1711552135809153300,11.2661533203125,-0.12441635131835938,-0.06446170806884766,0.151031494140625
1711552135828113200,11.285113037109374,-0.16137123107910156,0.11006927490234375,0.16678905487060547
1711552135847073300,11.3040732421875,-0.014713287353515625,0.23454952239990234,0.036141395568847656
1711552135866033200,11.323033203125,-0.023135662078857422,0.295102596282959,0.1596236228942871
1711552135884993000,11.341992919921875,-0.0411372184753418,0.23040199279785156,0.13265132904052734
1711552135903953000,11.360952880859376,-0.07502222061157227,0.13764095306396484,-0.05340290069580078
1711552135922913000,11.3799130859375,0.010123252868652344,-0.03353595733642578,0.013186454772949219
1711552135941873000,11.398872802734376,-0.03150224685668945,0.03365468978881836,0.18461227416992188
1711552135960833000,11.4178330078125,0.06728744506835938,0.11095380783081055,0.09044265747070312
1711552135979793000,11.43679296875,0.14281702041625977,0.07518243789672852,-0.05679750442504883
1711552135998752800,11.455752685546875,0.1434321403503418,0.05607128143310547,-0.006966114044189453
1711552136017713000,11.474712890625,0.07229328155517578,0.05625438690185547,0.030322551727294922
1711552136036672800,11.4936728515625,0.07164287567138672,0.15697956085205078,-0.310269832611084
1711552136055632600,11.512632568359376,0.2492356300354004,-0.18829917907714844,-0.5042290687561035
1711552136074592800,11.5315927734375,0.31947851181030273,-0.32565832138061523,-0.43718814849853516
1711552136093552600,11.550552734375,0.08838558197021484,-0.34370946884155273,-0.35145998001098633
1711552136112512500,11.569512451171875,-0.07689714431762695,-0.20288681983947754,-0.2909369468688965
1711552136131472400,11.588472412109375,-0.1607809066772461,-0.02374124526977539,0.03002643585205078
1711552136150432500,11.6074326171875,-0.09171867370605469,-0.04823756217956543,0.16164541244506836
1711552136169392400,11.626392333984375,-0.12600040435791016,-0.16764283180236816,0.3705887794494629
1711552136188352300,11.645352294921874,-0.14087677001953125,-0.017524003982543945,0.29226016998291016
1711552136207312400,11.6643125,-0.08195638656616211,0.15866947174072266,0.24160051345825195
1711552136226272300,11.683272216796874,-0.01835155487060547,0.12352275848388672,0.10533714294433594
1711552136245232400,11.702232421875,0.04686594009399414,0.13216900825500488,0.0413212776184082
1711552136264192300,11.721192138671874,0.08170080184936523,0.04428672790527344,-0.08977270126342773
1711552136283152100,11.740152099609375,0.055661678314208984,-0.06459903717041016,-0.22607898712158203
1711552136302112300,11.7591123046875,0.03657341003417969,-0.12912368774414062,-0.14399242401123047
1711552136321072000,11.778072021484375,-0.03205537796020508,-0.1544170379638672,-0.024782180786132812
1711552136340032000,11.797031982421874,-0.024535179138183594,-0.12272381782531738,-0.24219608306884766
1711552136358992100,11.8159921875,0.018181324005126953,-0.06387925148010254,-0.09858894348144531
1711552136377952000,11.834951904296876,-0.1319565773010254,-0.01894354820251465,0.097015380859375
1711552136396912000,11.853912109375,-0.1430373191833496,-0.017568111419677734,0.13371038436889648
1711552136415872000,11.8728720703125,-0.0797572135925293,0.0072095394134521484,0.2010946273803711
1711552136434832000,11.891831787109375,-0.017060279846191406,0.0483708381652832,0.11947202682495117
1711552136453792000,11.9107919921875,0.042223453521728516,0.08209061622619629,0.059572696685791016
1711552136472751900,11.929751953125,-0.042069435119628906,0.13477563858032227,0.21376895904541016
1711552136491711700,11.948711669921876,-0.04070329666137695,0.11553287506103516,0.14706945419311523
1711552136510672000,11.967671875,0.13244199752807617,0.09113097190856934,-0.2033228874206543
1711552136529631700,11.9866318359375,0.09916877746582031,0.05770063400268555,-0.08621597290039062
1711552136548591900,12.005591796875,0.05511474609375,0.10564994812011719,-0.12119054794311523
1711552136567551700,12.0245517578125,0.08901453018188477,0.08824515342712402,-0.2614936828613281
1711552136586512000,12.043511962890625,0.08135700225830078,0.030292510986328125,-0.34538841247558594
1711552136605471700,12.0624716796875,0.10331583023071289,-0.038774728775024414,-0.3110060691833496
1711552136624431600,12.081431640625,-0.04674053192138672,-0.08071136474609375,-0.22235965728759766
1711552136643391700,12.100391845703125,-0.1163492202758789,-0.10348176956176758,-0.23657798767089844
1711552136662351600,12.1193515625,-0.052464962005615234,-0.0956888198852539,-0.1612544059753418
1711552136681311700,12.138311767578125,-0.043202877044677734,-0.1244502067565918,-0.13667535781860352
1711552136700271600,12.157271728515624,-0.09006786346435547,-0.0427556037902832,-0.1491227149963379
1711552136719231500,12.1762314453125,-0.03560352325439453,-0.03256416320800781,-0.01760721206665039
1711552136738191600,12.195191650390624,-0.1299152374267578,0.10161733627319336,0.19302797317504883
1711552136757151500,12.2141513671875,-0.107086181640625,0.16611742973327637,0.12842512130737305
1711552136776111600,12.233111572265624,-0.09102487564086914,0.04568624496459961,0.09788084030151367
1711552136795071500,12.252071533203125,-0.1020817756652832,0.06251406669616699,-0.17266321182250977
1711552136814031400,12.27103125,-0.21361255645751953,0.38880038261413574,-0.01094675064086914
1711552136832991500,12.289991455078125,-0.11644363403320312,1.0087833404541016,0.41025590896606445
1711552136851951400,12.308951416015624,0.48154401779174805,-0.001474618911743164,-0.371737003326416
1711552136870911500,12.327911376953125,0.4207444190979004,-0.845496416091919,-0.9970254898071289
1711552136889871400,12.346871337890626,0.041656494140625,-0.9763867855072021,-1.060988426208496
1711552136908831200,12.365831298828125,-0.5957307815551758,-0.5347681045532227,-0.741034984588623
1711552136927791400,12.384791259765626,-0.3868074417114258,-0.3768613338470459,-0.40006351470947266
1711552136946751200,12.403751220703125,-0.1985640525817871,-0.6098542213439941,0.16629457473754883
1711552136965711400,12.42271142578125,-0.08502340316772461,-1.0317318439483643,0.6509332656860352
1711552136984671200,12.441671142578125,-0.09988260269165039,-0.9377701282501221,0.7968592643737793
1711552137003631400,12.46063134765625,0.15681219100952148,-0.5516352653503418,0.8865871429443359
1711552137022591200,12.47959130859375,0.32021045684814453,0.16462492942810059,1.0105152130126953
1711552137041551400,12.49855126953125,0.12094545364379883,0.4705376625061035,0.27023744583129883
1711552137060511200,12.51751123046875,-0.1667470932006836,0.3925037384033203,0.17667913436889648
1711552137079471400,12.536471435546876,-0.18211984634399414,0.7013072967529297,0.2002577781677246
1711552137098431200,12.55543115234375,0.7029619216918945,0.13894987106323242,-0.1538844108581543
1711552137117391400,12.574391357421876,0.9439210891723633,-0.813478946685791,-0.8589730262756348
1711552137136351200,12.593351318359375,0.42113351821899414,-0.8791413307189941,-1.3648247718811035
1711552137155311400,12.612311279296875,0.2614593505859375,-0.6530349254608154,-0.6868133544921875
1711552137174271200,12.631271240234375,0.23017597198486328,-0.7642393112182617,-0.13009262084960938
1711552137193231400,12.6502314453125,0.04332733154296875,-0.7569656372070312,0.19498634338378906
1711552137212191200,12.669191162109374,-0.15913820266723633,-0.7690677642822266,-0.11445045471191406
1711552137231151400,12.6881513671875,-0.07877397537231445,-0.3858976364135742,0.21032142639160156
1711552137250111200,12.707111328125,0.14527130126953125,-0.07805585861206055,0.15648603439331055
1711552137269071400,12.7260712890625,-0.13783597946166992,-0.11501312255859375,0.023696422576904297
1711552137288031200,12.74503125,0.06552934646606445,-0.19223260879516602,0.19185590744018555
1711552137306991000,12.7639912109375,0.34960508346557617,-0.02370929718017578,0.2537684440612793
1711552137325951200,12.782951171875,0.08142232894897461,0.043843746185302734,0.2529897689819336
1711552137344911000,12.8019111328125,0.11693477630615234,-0.05322837829589844,-0.2944197654724121
1711552137363871200,12.820871337890624,0.0018310546875,-0.20808076858520508,-0.4907412528991699
1711552137382831000,12.8398310546875,0.14771127700805664,-0.412386417388916,0.0421757698059082
1711552137401791200,12.858791259765624,0.4029812812805176,-0.5236978530883789,0.2140345573425293
1711552137420751000,12.877751220703125,0.06413793563842773,-0.3657054901123047,0.14630937576293945
1711552137439711200,12.896711181640624,0.03985881805419922,-0.3144822120666504,-0.1833820343017578
1711552137458671000,12.915671142578125,0.12250089645385742,-0.11844158172607422,-0.14263105392456055
1711552137477631200,12.93463134765625,-0.14068365097045898,0.7653822898864746,0.09813785552978516
1711552137496591400,12.95359130859375,0.28647613525390625,0.40308570861816406,0.42094850540161133
1711552137515551200,12.97255126953125,-0.5888247489929199,0.21030282974243164,-0.3391892910003662
1711552137534511400,12.991511474609375,-0.1950836181640625,-0.4940757751464844,-0.05231118202209473
1711552137553471200,13.01047119140625,0.058424949645996094,-0.4994072914123535,-0.4281024932861328
1711552137572431400,13.029431396484375,-0.03963279724121094,-0.48021650314331055,-0.585310697555542
1711552137591391200,13.04839111328125,0.0590519905090332,0.047176361083984375,-0.5795590877532959
1711552137610351400,13.067351318359375,0.35377025604248047,0.2510685920715332,-0.4973328113555908
1711552137629311200,13.086311279296876,0.12451314926147461,0.419281005859375,-0.408261775970459
1711552137648271400,13.105271240234375,0.3449993133544922,0.5092697143554688,0.1367039680480957
1711552137667231200,13.124231201171876,0.724482536315918,0.3663315773010254,0.2870790958404541
1711552137686191400,13.14319140625,0.23386335372924805,0.7962279319763184,0.5729210376739502
1711552137705151200,13.162151123046876,0.012712478637695312,0.49596405029296875,1.0836119651794434
1711552137724111400,13.181111328125,-0.36670351028442383,-0.016384601593017578,1.1603076457977295
1711552137743071200,13.2000712890625,-0.2466731071472168,0.11681842803955078,1.1182444095611572
1711552137762031400,13.21903125,-0.10786819458007812,0.3601384162902832,1.3263424634933472
1711552137780991200,13.2379912109375,0.2578091621398926,0.4209566116333008,0.9764175415039062
1711552137799951400,13.256951416015625,0.23194599151611328,-0.01997852325439453,0.10602402687072754
1711552137818911200,13.2759111328125,0.42912721633911133,-0.09501838684082031,-0.5402936935424805
1711552137837871400,13.294871337890624,0.29741811752319336,0.05501270294189453,-0.800694465637207
1711552137856831200,13.313831298828125,-0.15785980224609375,0.2923545837402344,-0.6976072788238525
1711552137875791400,13.332791259765624,0.17265701293945312,0.05456066131591797,-0.18729162216186523
1711552137894751200,13.351751220703125,0.6929082870483398,-0.15854549407958984,0.2826423645019531
1711552137913711400,13.37071142578125,0.1010127067565918,0.05847930908203125,0.33831286430358887
1711552137932671200,13.389671142578125,-0.0486454963684082,0.22526073455810547,0.04543876647949219
1711552137951631400,13.40863134765625,0.0817723274230957,0.4233570098876953,0.1411268711090088
1711552137970591200,13.42759130859375,0.6395015716552734,0.7033109664916992,0.26740169525146484
1711552137989551400,13.44655126953125,0.00009822845458984375,0.28382015228271484,0.2922179698944092
1711552138008511500,13.465511474609375,-0.2581486701965332,-0.18294429779052734,0.0731351375579834
1711552138027471400,13.484471435546874,-0.10728025436401367,-0.5277500152587891,0.18358957767486572
1711552138046431500,13.503431396484375,-0.12522125244140625,-0.7612009048461914,-0.20091688632965088
1711552138065391400,13.522391357421874,0.012635231018066406,-0.7877826690673828,-0.2972034215927124
1711552138084351500,13.5413515625,-0.09935379028320312,-0.3022623062133789,-0.2763943672180176
1711552138103311400,13.560311279296876,-0.003592967987060547,-0.2699012756347656,-0.3629435896873474
1711552138122271500,13.579271484375,0.32666850090026855,-0.5351972579956055,-0.41424548625946045
1711552138141231400,13.5982314453125,0.2361011505126953,-0.28833866119384766,-0.2169264554977417
1711552138160191500,13.61719140625,0.15404272079467773,0.1535329818725586,0.14882969856262207
1711552138179151400,13.6361513671875,0.3923609256744385,-0.18557071685791016,0.25989171862602234
1711552138198111500,13.655111572265625,0.36284875869750977,-0.512394905090332,0.6124817728996277
1711552138217071600,13.674071533203126,0.6143367290496826,-0.7338829040527344,1.0416933298110962
1711552138236031500,13.693031494140625,0.5774002075195312,-1.0781869888305664,0.7894463539123535
1711552138254991600,13.71199169921875,0.15417265892028809,-1.3870301246643066,0.5069406032562256
1711552138273951500,13.730951416015625,-0.4481656551361084,-1.297741413116455,0.690596342086792
1711552138292911600,13.74991162109375,-0.49552202224731445,-1.07989501953125,1.1338889598846436
1711552138311871500,13.76887158203125,-0.23676037788391113,-0.30960559844970703,1.1933009624481201
1711552138330831600,13.78783154296875,-0.04561161994934082,-0.06332778930664062,1.315272569656372
1711552138349791500,13.80679150390625,-0.11718559265136719,-0.10572147369384766,1.141911506652832
1711552138368751600,13.825751708984376,-0.5745699405670166,0.2732105255126953,0.80503249168396
1711552138387711500,13.84471142578125,-0.5240211486816406,0.7909765243530273,0.42367708683013916
1711552138406671600,13.863671630859375,0.13918566703796387,1.0723590850830078,0.7192310094833374
1711552138425631500,13.882631591796875,0.2674252986907959,0.9862852096557617,0.7851390838623047
1711552138444591600,13.901591552734375,-0.12965750694274902,0.8299903869628906,0.18044424057006836
1711552138463551500,13.920551513671874,-0.7101926803588867,1.2904167175292969,0.18726468086242676
1711552138482511600,13.93951171875,-0.5092623233795166,1.7154664993286133,0.328696608543396
1711552138501471700,13.9584716796875,-0.5383083820343018,1.4171533584594727,0.09742879867553711
1711552138520431600,13.977431640625,-0.29952192306518555,1.0081605911254883,0.5788606405258179
1711552138539391700,13.996391845703124,-0.08600854873657227,0.7242498397827148,0.7787553071975708
1711552138558351600,14.0153515625,-0.35998570919036865,0.7054967880249023,0.20508432388305664
1711552138577311700,14.034311767578124,-0.5996217727661133,0.9729928970336914,-0.607985258102417
1711552138596271600,14.053271728515625,-0.5578923225402832,1.073801040649414,-0.9835355281829834
1711552138615231700,14.072231689453124,-0.3703131675720215,0.9292488098144531,-0.7357958555221558
1711552138634191600,14.091191650390625,0.03981518745422363,0.8668651580810547,-0.09574580192565918
1711552138653151700,14.11015185546875,0.0414121150970459,0.7257938385009766,-0.3006688356399536
1711552138672111600,14.129111572265625,-0.3949934244155884,0.9919166564941406,-0.6339868307113647
1711552138691071700,14.14807177734375,-0.6137521266937256,1.22100830078125,-0.5518360137939453
1711552138710031600,14.167031494140625,-0.3834724426269531,0.9438104629516602,0.0007543563842773438
1711552138728991700,14.18599169921875,0.22786378860473633,0.5003271102905273,0.06693315505981445
1711552138747951600,14.20495166015625,-0.11512184143066406,0.45352745056152344,-0.1809237003326416
1711552138766911700,14.223911865234374,-0.5948843955993652,0.4696483612060547,-0.6193876266479492
1711552138785871600,14.24287158203125,-0.7924761772155762,-0.07546138763427734,-0.9111783504486084
1711552138804831700,14.261831787109376,-0.21042847633361816,-0.6077079772949219,-0.7014060020446777
1711552138823791600,14.28079150390625,-0.7653464078903198,-0.4517354965209961,-0.29322242736816406
1711552138842751700,14.299751708984376,-0.8350093364715576,-0.3815193176269531,-0.52750563621521
1711552138861711600,14.318711669921875,-0.9048703908920288,-0.539973258972168,-1.000377893447876
1711552138880671700,14.337671630859376,-0.9452908039093018,-0.5849084854125977,-0.8200464248657227
1711552138899631600,14.356631591796875,-0.6978144645690918,-0.9290866851806641,0.16257309913635254
1711552138918591700,14.375591796875,-0.4645102024078369,-1.3636517524719238,0.4065282344818115
1711552138937551600,14.394551513671875,-0.5894145965576172,-1.4685640335083008,0.04829287528991699
1711552138956511700,14.41351171875,-0.10689163208007812,-0.9761333465576172,0.22051143646240234
1711552138975471600,14.4324716796875,0.1580054759979248,-0.3137979507446289,-0.24979877471923828
1711552138994431500,14.451431396484375,0.9978386163711548,0.026563644409179688,-1.3456175327301025
1711552139013391600,14.4703916015625,0.6444797515869141,-0.4819068908691406,-2.0143423080444336
1711552139032351500,14.4893515625,0.1125485897064209,-0.5701804161071777,-1.6565890312194824
1711552139051311600,14.5083115234375,-0.08323276042938232,0.970611572265625,-1.075523853302002
1711552139070271500,14.527271484375,-0.3926849365234375,0.7989921569824219,-0.9172072410583496
1711552139089231600,14.546231689453125,-0.20491242408752441,-0.10663747787475586,-0.7603683471679688
1711552139108191500,14.56519140625,-0.37193381786346436,-0.9667420387268066,-0.0374293327331543
1711552139127151600,14.584151611328124,-0.33039402961730957,-1.3940019607543945,1.371373176574707
1711552139146111500,14.603111572265625,-0.40398985147476196,-1.330798625946045,2.8840689659118652
1711552139165071600,14.622071533203124,-0.3207066059112549,-1.3107481002807617,3.642383098602295
1711552139184031500,14.641031494140625,0.28419163823127747,-1.5584263801574707,3.3141021728515625
1711552139202991400,14.659991455078124,0.3615054786205292,-2.1311254501342773,2.21347713470459
1711552139221951500,14.678951416015625,-0.28352466225624084,-2.289344310760498,1.3839130401611328
1711552139240911400,14.697911376953124,-1.226999044418335,-1.447312355041504,0.8427553176879883
1711552139259871500,14.71687158203125,-1.5325961112976074,-0.5406386852264404,-0.029801368713378906
1711552139278831400,14.735831298828124,-1.2899205684661865,-0.5343108177185059,-0.6355800628662109
1711552139297791500,14.75479150390625,-0.8956940174102783,-0.5541591644287109,-0.7678699493408203
1711552139316751400,14.77375146484375,-0.8500213623046875,0.4603140354156494,0.0025072097778320312
1711552139335711200,14.792711181640625,-0.9629793167114258,2.417705535888672,1.3814764022827148
1711552139354671400,14.81167138671875,-0.8030552864074707,2.562703847885132,1.8802099227905273
1711552139373631200,14.83063134765625,0.5938701629638672,1.9447128772735596,1.8633995056152344
1711552139392591400,14.84959130859375,1.1161234378814697,1.7208975553512573,2.156325340270996
1711552139411551200,14.86855126953125,0.8691470623016357,1.3212838172912598,1.6362190246582031
1711552139430511400,14.887511474609376,0.05996870994567871,0.9131766557693481,0.10775947570800781
1711552139449471200,14.90647119140625,-0.09377384185791016,0.9999932050704956,-0.6139993667602539
1711552139468431400,14.925431396484376,-0.10928082466125488,1.4028897285461426,-1.2380504608154297
1711552139487391200,14.94439111328125,0.23038363456726074,1.451316475868225,-1.4706697463989258
1711552139506351400,14.963351318359376,0.8540470600128174,1.2804265022277832,-0.8891029357910156
1711552139525311200,14.982311279296875,1.38801908493042,0.818206787109375,-0.14957809448242188
1711552139544271000,15.00127099609375,1.2967000007629395,0.791619062423706,-0.24310302734375
1711552139563231200,15.020231201171875,1.0413281917572021,1.0462597608566284,-0.5235214233398438
1711552139582191000,15.039191162109375,0.9575660228729248,0.7837622165679932,-0.7270021438598633
1711552139601151000,15.05815087890625,0.8379554748535156,0.8521208763122559,-0.9573078155517578
1711552139620111000,15.077111083984375,1.1612355709075928,1.646012544631958,-1.0574913024902344
1711552139639071000,15.096071044921874,1.3572415113449097,1.3179165124893188,-2.515789031982422
1711552139658031000,15.115031005859375,-0.23668670654296875,0.2503950595855713,-4.2121992111206055
1711552139676991000,15.133990966796874,-0.6100459098815918,-0.05234503746032715,-2.1745901107788086
1711552139695950800,15.152950927734375,-1.0598700046539307,-1.2950260639190674,0.12123680114746094
1711552139714911000,15.171910888671874,-0.8618416786193848,-1.7962579727172852,2.091982841491699
1711552139733870800,15.190870849609375,-0.029417037963867188,-0.676189661026001,2.706753730773926
1711552139752830700,15.209830810546874,1.0241506099700928,-0.035264015197753906,1.7846717834472656
1711552139771790800,15.228790771484375,1.2811315059661865,-0.79502272605896,0.6068096160888672
1711552139790750700,15.247750732421874,0.6766377687454224,-1.4521336555480957,-0.8578710556030273
1711552139809710600,15.266710693359375,-0.10614204406738281,-1.2017700672149658,-1.780653953552246
1711552139828670700,15.285670654296876,-0.973536491394043,-0.8685338497161865,-1.8091282844543457
1711552139847630600,15.304630615234375,-0.9438827037811279,-0.859158992767334,-1.343637466430664
1711552139866590700,15.3235908203125,-0.06886076927185059,-0.47574877738952637,-0.2773017883300781
1711552139885550600,15.342550537109375,0.3591909408569336,-0.041237831115722656,0.41310596466064453
1711552139904510700,15.3615107421875,0.4554629325866699,0.13867974281311035,0.9546880722045898
1711552139923470600,15.380470703125,0.445401668548584,0.16475129127502441,0.8622884750366211
1711552139942430500,15.399430419921876,0.08754134178161621,-0.14044904708862305,0.5736598968505859
1711552139961390300,15.418390380859375,-0.4634244441986084,-0.31162238121032715,0.1607217788696289
1711552139980350500,15.4373505859375,-0.6531167030334473,-0.11676669120788574,-0.14988040924072266
1711552139999310300,15.456310302734375,-0.3110311031341553,-0.1451413631439209,-0.21324634552001953
1711552140018270200,15.475270263671876,0.012736320495605469,-0.0680234432220459,0.041853904724121094
1711552140037230300,15.494230224609375,0.20647072792053223,0.19948077201843262,0.6325082778930664
1711552140056190200,15.513190185546875,0.277848482131958,0.40528297424316406,0.9428691864013672
1711552140075150000,15.532150146484375,0.20151519775390625,0.39043235778808594,0.720733642578125
1711552140094110200,15.551110107421875,0.15855193138122559,0.0349578857421875,0.5600614547729492
1711552140113070000,15.570070068359374,0.13965892791748047,-0.23076844215393066,0.1703205108642578
1711552140132030200,15.5890302734375,-0.19071388244628906,-0.15181565284729004,-0.1736469268798828
1711552140150990000,15.607989990234374,-0.2896692752838135,-0.07738733291625977,-0.1239776611328125
1711552140169950000,15.626949951171875,0.025774240493774414,-0.41927337646484375,-0.10857677459716797
1711552140188910000,15.64591015625,-0.014390230178833008,-0.34784674644470215,0.09383869171142578
1711552140207870000,15.664869873046875,-0.10967159271240234,-0.12987422943115234,0.39311695098876953
1711552140226829800,15.683829833984374,-0.11916899681091309,-0.25309085845947266,0.5619735717773438
1711552140245789700,15.702789794921875,-0.1156308650970459,-0.3678247928619385,0.3516693115234375
1711552140264749800,15.721749755859374,-0.3327653408050537,-0.2424933910369873,0.0098419189453125
1711552140283709700,15.740709716796875,-0.38415002822875977,-0.26663851737976074,-0.11255931854248047
1711552140302669600,15.759669677734376,-0.26829099655151367,-0.22204089164733887,-0.4330406188964844
1711552140321629700,15.778629638671875,-0.1911940574645996,-0.030284643173217773,-0.29761314392089844
1711552140340589600,15.797589599609376,-0.018407344818115234,0.15833258628845215,0.09444999694824219
1711552140359549400,15.816549560546875,0.3596954345703125,0.217360258102417,0.7005424499511719
1711552140378509600,15.835509521484376,0.36037206649780273,0.27053189277648926,0.7323055267333984
1711552140397469400,15.854469482421875,0.39750564098358154,0.6469333171844482,0.31273937225341797
1711552140416429300,15.87342919921875,0.10752606391906738,1.157421588897705,0.07661819458007812
1711552140435389200,15.89238916015625,-0.1788475513458252,1.5846624374389648,0.2997932434082031
1711552140454349300,15.911349365234376,0.4049398899078369,1.376084804534912,0.14614009857177734
1711552140473309200,15.93030908203125,0.5323513746261597,1.0131468772888184,-1.2513885498046875
1711552140492269000,15.94926904296875,0.8095448017120361,-0.07565569877624512,-4.5492048263549805
1711552140511229000,15.96822900390625,0.9219982624053955,2.0471153259277344,-4.604319095611572
1711552140530189000,15.98718896484375,1.5788201093673706,-0.5442359447479248,2.549187660217285
1711552140549149000,16.00614892578125,-2.3007941246032715,-0.6355242729187012,3.8165998458862305
1711552140568109000,16.025109130859374,-0.44954490661621094,0.24974346160888672,2.6008834838867188
1711552140587069000,16.04406884765625,0.6481876373291016,-0.019405603408813477,3.4384231567382812
1711552140606028800,16.06302880859375,0.22495460510253906,-0.6422913074493408,1.69207763671875
1711552140624988700,16.08198876953125,-0.3116307258605957,-0.6940879821777344,-0.09288883209228516
1711552140643948500,16.100948486328125,-0.17580151557922363,-0.6897132396697998,-0.6045846939086914
1711552140662908700,16.11990869140625,0.12549066543579102,-0.22744083404541016,-0.9398975372314453
1711552140681868500,16.13886865234375,0.30709004402160645,0.24430084228515625,-1.2504010200500488
1711552140700828400,16.157828369140624,-0.012096047401428223,0.4784097671508789,-1.5251455307006836
1711552140719788500,16.17678857421875,-0.47327160835266113,-0.19647908210754395,-1.71002197265625
1711552140738748400,16.19574853515625,-0.487582802772522,-0.5270383358001709,-1.6604499816894531
1711552140757708300,16.214708251953127,-0.36849451065063477,-1.055323600769043,-0.9583148956298828
1711552140776668400,16.23366845703125,-0.6758248805999756,-1.1423184871673584,0.198974609375
1711552140795628300,16.252628173828125,-0.575850248336792,-0.7094671726226807,0.6833000183105469
1711552140814588200,16.271588134765626,-0.033074140548706055,-0.36689090728759766,0.9890918731689453
1711552140833548000,16.290548095703127,0.38376617431640625,0.018439054489135742,0.9386072158813477
1711552140852508200,16.309508056640624,0.6271013021469116,0.4099583625793457,0.42044734954833984
1711552140871468000,16.328468017578125,0.6428039073944092,-0.10363316535949707,-0.04140472412109375
1711552140890428000,16.347427978515626,0.37881898880004883,-0.6912510395050049,-0.03457832336425781
1711552140909387800,16.3663876953125,0.04532909393310547,-0.3673715591430664,0.26706504821777344
1711552140928348000,16.385347900390624,0.06844568252563477,0.06597352027893066,0.4426240921020508
1711552140947307800,16.404307861328125,0.23287606239318848,0.04157066345214844,0.2846050262451172
1711552140966268000,16.423267822265625,0.1662147045135498,-0.40338587760925293,0.12938594818115234
1711552140985227800,16.442227783203126,-0.25974130630493164,-0.5353381633758545,-0.1269550323486328
1711552141004187600,16.461187744140624,-0.4725313186645508,-0.5153043270111084,-0.38152313232421875
1711552141023147500,16.4801474609375,-0.3226795196533203,-0.5003762245178223,-0.2551126480102539
1711552141042107600,16.499107666015625,0.09993577003479004,-0.4892261028289795,-0.10097789764404297
1711552141061067500,16.518067626953126,0.21188926696777344,-0.326357364654541,0.09406471252441406
1711552141080027400,16.53702734375,0.10187983512878418,-0.10797667503356934,0.2518787384033203
1711552141098987300,16.5559873046875,0.2065110206604004,-0.25017642974853516,0.26986217498779297
1711552141117947400,16.574947509765625,0.13532781600952148,-0.5041322708129883,0.20583820343017578
1711552141136907300,16.5939072265625,0.08277034759521484,-0.4044206142425537,0.03806114196777344
1711552141155867400,16.612867431640623,-0.03742694854736328,-0.04475998878479004,-0.2041778564453125
1711552141174827300,16.6318271484375,-0.01899576187133789,-0.14628219604492188,-0.25272083282470703
1711552141193787100,16.650787109375,-0.11525845527648926,-0.4142000675201416,-0.20994281768798828
1711552141212747000,16.6697470703125,-0.25130152702331543,-0.3489668369293213,-0.20865345001220703
1711552141231707100,16.68870703125,-0.14115071296691895,-0.28780436515808105,-0.18347454071044922
1711552141250667000,16.7076669921875,0.19145166873931885,-0.24669170379638672,-0.0977487564086914
1711552141269627000,16.726626953125,0.0713968276977539,-0.1345367431640625,0.03590583801269531
1711552141288587000,16.7455869140625,0.08279657363891602,-0.16501092910766602,0.14368152618408203
1711552141307547000,16.764546875,0.23917865753173828,-0.349501371383667,0.17467880249023438
1711552141326506800,16.7835068359375,0.1434769630432129,-0.2787296772003174,0.026416778564453125
1711552141345467000,16.802466796875,-0.028857707977294922,0.03667593002319336,-0.057819366455078125
1711552141364426800,16.8214267578125,0.2374889850616455,-0.011079788208007812,0.06110858917236328
1711552141383387000,16.840386962890626,0.3344663381576538,-0.1925642490386963,0.1906442642211914
1711552141402346800,16.8593466796875,0.14422094821929932,-0.19201207160949707,0.05143928527832031
1711552141421306600,16.878306640625,-0.10470128059387207,-0.16173243522644043,-0.07152748107910156
1711552141440266500,16.8972666015625,-0.13119935989379883,-0.2023608684539795,-0.13904762268066406
1711552141459226600,16.9162265625,-0.038680315017700195,-0.12396907806396484,-0.20642757415771484
1711552141478186500,16.9351865234375,-0.05841183662414551,-0.002643585205078125,-0.0988149642944336
1711552141497146400,16.954146484375,-0.08329272270202637,-0.03452181816101074,-0.03366565704345703
1711552141516106500,16.9731064453125,0.009852886199951172,-0.18487858772277832,0.07181358337402344
1711552141535066400,16.99206640625,0.05941653251647949,-0.22606110572814941,0.08184146881103516
1711552141554026200,17.011026123046875,-0.09291553497314453,-0.08902335166931152,0.05365276336669922
1711552141572986400,17.029986328125,-0.11883139610290527,-0.01100778579711914,0.0037107467651367188
1711552141591946200,17.0489462890625,-0.04170083999633789,-0.007681608200073242,0.10109519958496094
1711552141610906000,17.067906005859374,0.09341239929199219,0.10374951362609863,0.1581430435180664
1711552141629866200,17.0868662109375,0.1087796688079834,0.015102386474609375,0.08306884765625
1711552141648826000,17.105826171875,-0.022723913192749023,0.029140472412109375,0.11916446685791016
1711552141667786200,17.1247861328125,-0.032012939453125,0.04548907279968262,0.13685894012451172
1711552141686746000,17.14374609375,0.03602170944213867,0.031380414962768555,0.19634628295898438
1711552141705706200,17.162706298828127,0.06371641159057617,0.0015878677368164062,0.1895580291748047
1711552141724666000,17.181666015625,0.04816174507141113,-0.05817866325378418,0.11026763916015625
1711552141743626000,17.2006259765625,0.03599119186401367,-0.054570674896240234,0.0668182373046875
1711552141762586000,17.219586181640626,0.03753829002380371,-0.023029565811157227,0.10613822937011719
1711552141781546000,17.2385458984375,0.10280299186706543,0.04865717887878418,0.08339500427246094
1711552141800505900,17.257505859375,0.023889541625976562,0.1234140396118164,0.19178485870361328
1711552141819466000,17.276466064453125,0.039270877838134766,0.10452818870544434,0.17650699615478516
1711552141838425900,17.29542578125,0.07366776466369629,-0.017607927322387695,0.09529399871826172
1711552141857386000,17.314385986328126,0.09971976280212402,-0.09993624687194824,0.019010543823242188
1711552141876345900,17.333345947265624,-0.1153571605682373,-0.014668941497802734,-0.025760650634765625
1711552141895305700,17.3523056640625,0.01630115509033203,-0.02773308753967285,-0.043483734130859375
1711552141914265900,17.371265869140625,0.2024073600769043,-0.07437801361083984,-0.04443836212158203
1711552141933225700,17.390225830078126,0.036420583724975586,0.06886553764343262,-0.07588768005371094
1711552141952185900,17.409185791015624,0.07030344009399414,-0.0698554515838623,-0.10099411010742188
1711552141971145700,17.428145751953124,0.062415122985839844,-0.14542675018310547,-0.004897117614746094
1711552141990105600,17.447105712890625,-0.01504373550415039,-0.15998339653015137,0.02187061309814453
1711552142009065700,17.466065673828126,-0.01713395118713379,-0.05375027656555176,0.032378196716308594
1711552142028025600,17.485025634765623,0.05747175216674805,-0.04946780204772949,-0.03513526916503906
1711552142046985700,17.50398583984375,0.1306624412536621,-0.1527082920074463,-0.08324050903320312
1711552142065945600,17.522945556640625,0.014507293701171875,-0.08195614814758301,-0.10671329498291016
1711552142084905700,17.54190576171875,-0.09613275527954102,-0.08269762992858887,-0.10479164123535156
1711552142103865600,17.560865478515623,-0.02742290496826172,-0.16032028198242188,-0.09505653381347656
1711552142122825700,17.57982568359375,0.026355266571044922,-0.1687774658203125,-0.12012767791748047
1711552142141785600,17.59878564453125,-0.0608365535736084,-0.08400249481201172,-0.18100929260253906
1711552142160745700,17.617745849609374,-0.11347699165344238,-0.06753158569335938,-0.14992332458496094
1711552142179705600,17.63670556640625,-0.14357519149780273,-0.1606307029724121,-0.12894821166992188
1711552142198665500,17.65566552734375,-0.022110462188720703,-0.13623332977294922,-0.007984161376953125
1711552142217625600,17.67462548828125,-0.02734661102294922,-0.046124935150146484,0.055739402770996094
1711552142236585500,17.69358544921875,0.1299910545349121,-0.06217813491821289,0.06911468505859375
1711552142255545600,17.712545654296875,0.42695116996765137,-0.19968032836914062,0.07464408874511719
1711552142274505500,17.73150537109375,0.47005152702331543,-0.11401939392089844,-0.11174201965332031
1711552142293465600,17.750465576171877,0.20830416679382324,-0.08458614349365234,-0.19559860229492188
1711552142312425500,17.769425537109374,0.07570409774780273,-0.0980997085571289,-0.28795528411865234
1711552142331385600,17.788385498046875,0.33324456214904785,-0.36261653900146484,-0.4946880340576172
1711552142350345500,17.807345458984376,0.14489126205444336,-0.38025784492492676,-0.7596712112426758
1711552142369305600,17.8263056640625,0.03254437446594238,-0.5858602523803711,-0.9485197067260742
1711552142388265500,17.845265380859374,0.0828787088394165,-0.9478621482849121,-0.8398017883300781
1711552142407225600,17.8642255859375,-0.16579997539520264,-0.8849794864654541,-0.7441883087158203
1711552142426185500,17.883185546875,-0.6414681673049927,-0.7615017890930176,-0.7125587463378906
1711552142445145600,17.9021455078125,-0.553593635559082,-0.4144318103790283,-0.578826904296875
1711552142464105500,17.92110546875,-0.3958871364593506,-0.12044000625610352,-0.3223857879638672
1711552142483065600,17.940065673828126,-0.18692803382873535,0.2228085994720459,-0.08692455291748047
1711552142502025500,17.959025390625,0.008905410766601562,0.20918679237365723,0.05246925354003906
1711552142520985600,17.977985595703124,0.0843966007232666,0.13756132125854492,0.30739879608154297
1711552142539945500,17.996945556640625,0.17375445365905762,0.0901026725769043,0.4972238540649414
1711552142558905600,18.015905517578126,0.2790968418121338,0.0696413516998291,0.6258659362792969
1711552142577865500,18.034865478515623,0.2665224075317383,0.14139652252197266,0.7135791778564453
1711552142596825600,18.05382568359375,0.24875688552856445,0.06392383575439453,0.6343622207641602
1711552142615785500,18.072785400390625,0.08434200286865234,0.14156603813171387,0.5143022537231445
1711552142634745600,18.09174560546875,-0.03318214416503906,0.19031500816345215,0.3138847351074219
1711552142653705500,18.11070556640625,0.05265641212463379,-0.04322934150695801,0.05086708068847656
1711552142672665600,18.12966552734375,-0.12087178230285645,0.0179443359375,-0.1796121597290039
1711552142691625500,18.14862548828125,-0.2540581226348877,0.05526852607727051,-0.2866067886352539
1711552142710585600,18.167585693359374,-0.24370098114013672,0.04055595397949219,-0.2068004608154297
1711552142729545700,18.186545654296875,0.04843926429748535,-0.09262633323669434,-0.0020608901977539062
1711552142748505600,18.205505615234376,-0.02485942840576172,0.08391523361206055,0.1492166519165039
1711552142767465700,18.2244658203125,-0.18393468856811523,0.19510841369628906,0.2976961135864258
1711552142786425600,18.243425537109374,-0.08339309692382812,0.26308774948120117,0.3909616470336914
1711552142805385700,18.2623857421875,0.18302392959594727,0.3137507438659668,0.3646278381347656
1711552142824345600,18.281345703125,0.1876521110534668,0.35889387130737305,0.40256214141845703
1711552142843305700,18.3003056640625,0.11287641525268555,0.467968225479126,0.4472064971923828
1711552142862265600,18.319265625,0.025254249572753906,0.434614896774292,0.4457426071166992
1711552142881225700,18.338225830078127,0.01632213592529297,0.475430965423584,0.4339866638183594
1711552142900185600,18.357185546875,-0.11508369445800781,0.4110119342803955,0.4198169708251953
1711552142919145700,18.376145751953125,-0.053304195404052734,0.43497514724731445,0.3584632873535156
1711552142938105600,18.395105712890626,-0.05187559127807617,0.43875622749328613,0.20569896697998047
1711552142957065700,18.414065673828127,-0.10340356826782227,0.36480069160461426,0.2354440689086914
1711552142976025900,18.43302587890625,-0.1546313762664795,0.2269594669342041,0.28831958770751953
1711552142994985700,18.45198583984375,-0.10448884963989258,0.24354124069213867,0.2698383331298828
1711552143013945900,18.47094580078125,-0.04748201370239258,0.09941816329956055,0.15661048889160156
1711552143032906000,18.489906005859375,-0.0668325424194336,0.05347275733947754,0.06300735473632812
1711552143051865900,18.508865966796876,-0.09653306007385254,0.08658623695373535,-0.027587890625
1711552143070826000,18.527825927734376,-0.15411996841430664,0.11925601959228516,-0.010896682739257812
1711552143089785900,18.546785888671874,-0.12015843391418457,0.06692051887512207,0.049559593200683594
1711552143108746000,18.56574609375,-0.10031247138977051,0.04562854766845703,0.0104827880859375
1711552143127706000,18.5847060546875,-0.17662835121154785,0.12831926345825195,-0.061631202697753906
1711552143146666000,18.603666015625,-0.1472456455230713,0.0817558765411377,-0.10159492492675781
1711552143165626000,18.622626220703125,-0.06977629661560059,-0.04967665672302246,-0.07855606079101562
1711552143184586200,18.641586181640626,-0.17110133171081543,0.06044507026672363,-0.018812179565429688
1711552143203546000,18.660546142578124,-0.08559441566467285,0.07455182075500488,0.007691383361816406
1711552143222506200,18.67950634765625,0.10609555244445801,-0.04635024070739746,-0.02127552032470703
1711552143241466000,18.698466064453125,0.0068318843841552734,-0.06532955169677734,-0.047779083251953125
1711552143260426200,18.71742626953125,-0.06501126289367676,-0.014341592788696289,-0.0630788803100586
1711552143279386000,18.73638623046875,-0.05285286903381348,0.11210083961486816,-0.09639167785644531
1711552143298346200,18.75534619140625,0.07787895202636719,-0.05498981475830078,-0.028123855590820312
1711552143317306400,18.774306396484373,0.011759281158447266,-0.07278800010681152,0.08850574493408203
1711552143336266200,18.793266357421874,-0.0009679794311523438,0.04585123062133789,0.02589702606201172
1711552143355226400,18.812226318359375,0.07606983184814453,0.013675928115844727,0.004473686218261719
1711552143374186500,18.8311865234375,0.059046030044555664,0.027297258377075195,-0.0284271240234375
1711552143393146600,18.850146728515625,0.028439998626708984,0.036849260330200195,0.008953094482421875
1711552143412106500,18.8691064453125,0.02950429916381836,0.06905198097229004,0.031818389892578125
1711552143431066600,18.888066650390623,0.02200603485107422,0.050177574157714844,0.08219242095947266
1711552143450026800,18.90702685546875,0.029248476028442383,0.06891202926635742,0.13480663299560547
1711552143468986600,18.925986572265625,0.06520652770996094,0.008413314819335938,0.1087656021118164
1711552143487946800,18.94494677734375,0.06021833419799805,0.06179356575012207,0.028801918029785156
1711552143506907000,18.963906982421875,0.0637507438659668,0.045899152755737305,0.010432243347167969
1711552143525866800,18.98286669921875,0.04638838768005371,-0.05324506759643555,0.03687572479248047
1711552143544827000,19.001826904296873,-0.06908035278320312,-0.025043010711669922,0.06830310821533203
1711552143563786800,19.020786865234374,0.04647994041442871,-0.040856122970581055,0.03540802001953125
1711552143582747000,19.039746826171875,0.10423588752746582,-0.016478776931762695,-0.02962779998779297
1711552143601707000,19.05870703125,-0.017465829849243164,0.006649017333984375,-0.02254772186279297
1711552143620667000,19.0776669921875,-0.036864519119262695,-0.06891965866088867,-0.00033473968505859375
1711552143639627000,19.096626953125,-0.006359100341796875,-0.1566171646118164,-0.027654647827148438
1711552143658587100,19.115587158203127,-0.025028467178344727,-0.030942678451538086,-0.016576766967773438
1711552143677547300,19.13454736328125,0.022323131561279297,-0.024434804916381836,-0.08467769622802734
1711552143696507100,19.153507080078125,-0.011145591735839844,-0.0012967586517333984,-0.02837085723876953
1711552143715467300,19.17246728515625,0.01764678955078125,-0.01046442985534668,-0.0055751800537109375
1711552143734427400,19.191427490234375,0.04538869857788086,-0.004097700119018555,0.0031452178955078125
1711552143753387300,19.21038720703125,0.156813383102417,0.11742901802062988,0.006358146667480469
1711552143772347400,19.229347412109377,0.22698259353637695,0.015078306198120117,0.33277416229248047
1711552143791307500,19.2483076171875,-0.15142464637756348,0.14103341102600098,0.4360523223876953
1711552143810267400,19.267267333984375,-0.11187958717346191,0.13499045372009277,0.22939014434814453
1711552143829227500,19.2862275390625,0.022875547409057617,0.20152878761291504,0.08774375915527344
1711552143848187600,19.305187744140625,0.05406355857849121,0.10650014877319336,0.037776947021484375
1711552143867147500,19.3241474609375,-0.003862142562866211,0.13361787796020508,0.053737640380859375
1711552143886107600,19.343107666015626,0.020172834396362305,0.15839362144470215,0.018912315368652344
1711552143905067800,19.36206787109375,0.10865569114685059,0.13474726676940918,-0.05968189239501953
1711552143924028000,19.38102783203125,-0.02532505989074707,0.07874059677124023,-0.12658309936523438
1711552143942987800,19.39998779296875,-0.22714924812316895,-0.03621339797973633,-0.1240396499633789
1711552143961948000,19.418947998046875,-0.10180091857910156,-0.13923954963684082,-0.07107353210449219
1711552143980907800,19.43790771484375,0.06336140632629395,-0.16783618927001953,-0.08858776092529297
1711552143999868000,19.456867919921876,-0.07108616828918457,-0.05480051040649414,-0.13645458221435547
1711552144018828000,19.475828125,-0.11262321472167969,-0.0704658031463623,-0.12430286407470703
1711552144037788200,19.4947880859375,-0.054299116134643555,-0.11921310424804688,-0.10761451721191406
1711552144056748000,19.513748046875,0.0671529769897461,-0.1927633285522461,-0.12967872619628906
1711552144075708200,19.532708251953125,0.0238189697265625,-0.09221792221069336,-0.13681888580322266
1711552144094668300,19.551668212890625,0.0045893192291259766,-0.0657801628112793,-0.1162557601928711
1711552144113628400,19.57062841796875,0.010203838348388672,-0.08992791175842285,-0.0029048919677734375
1711552144132588300,19.58958837890625,-0.04588174819946289,-0.01734781265258789,-0.016959190368652344
1711552144151548400,19.60854833984375,-0.08748006820678711,-0.02043318748474121,-0.057537078857421875
1711552144170508500,19.627508544921874,-0.02239823341369629,-0.043151140213012695,-0.06742095947265625
1711552144189468400,19.646468505859374,-0.053467750549316406,0.045319318771362305,-0.06384849548339844
1711552144208428500,19.665428466796875,-0.11957311630249023,0.09995746612548828,-0.000438690185546875
1711552144227388700,19.684388671875,-0.06597685813903809,0.1287548542022705,0.0012493133544921875
1711552144246348800,19.703348876953125,0.015552759170532227,0.04701948165893555,0.01224517822265625
1711552144265308700,19.72230859375,0.02178215980529785,0.08840370178222656,0.010837554931640625
1711552144284268800,19.741268798828123,0.026819705963134766,0.018292903900146484,0.1066751480102539
1711552144303229000,19.76022900390625,0.041951656341552734,0.0048007965087890625,0.23810768127441406
1711552144322189000,19.77918896484375,0.16888856887817383,0.031885385513305664,0.22217464447021484
1711552144341149000,19.79814892578125,0.08792686462402344,0.07120490074157715,0.09929370880126953
1711552144360109000,19.817109130859375,0.009042024612426758,-0.018335580825805664,0.1875286102294922
1711552144379069000,19.83606884765625,-0.12619638442993164,0.07641053199768066,0.27622509002685547
1711552144398029000,19.855029052734373,-0.17874670028686523,0.09736299514770508,0.38521480560302734
1711552144416989200,19.8739892578125,0.09159445762634277,-0.10855937004089355,0.5015201568603516
1711552144435949300,19.89294921875,0.010398387908935547,-0.24766945838928223,0.3363151550292969
1711552144454909400,19.911909423828124,-0.5305991172790527,0.02767467498779297,0.09964847564697266
1711552144473869300,19.930869384765625,-0.5962176322937012,0.21759605407714844,0.26996326446533203
1711552144492829400,19.949829345703126,-0.3110158443450928,0.04497218132019043,0.4648733139038086
1711552144511789600,19.96878955078125,-0.14715313911437988,0.016318559646606445,0.9449176788330078
1711552144530749700,19.987749755859376,0.22779059410095215,-0.27844810485839844,0.38053035736083984
1711552144549709600,20.00670947265625,0.2144322395324707,-0.35944175720214844,-0.532963752746582
1711552144568669700,20.025669677734374,-0.2426466941833496,-0.09836912155151367,-1.0921440124511719
1711552144587629800,20.0446298828125,-0.6447834968566895,0.24281096458435059,-0.49221324920654297
1711552144606589700,20.063589599609376,-0.023198604583740234,-0.18960881233215332,-0.15895938873291016
1711552144625549800,20.0825498046875,0.8128764629364014,-0.5377888679504395,0.18873310089111328
1711552144644510000,20.101510009765626,0.2514340877532959,-0.21799206733703613,0.8894357681274414
1711552144663470000,20.120469970703127,-0.28171682357788086,0.22683215141296387,1.3595552444458008
1711552144682430000,20.139429931640624,-0.1348872184753418,-0.19002532958984375,0.5552234649658203
1711552144701390000,20.15839013671875,-0.35524439811706543,-0.4065721035003662,-0.8362879753112793
1711552144720350200,20.17735009765625,-0.9981799125671387,-0.5148320198059082,-1.332564353942871
1711552144739310000,20.19631005859375,-1.1016297340393066,-0.7815976142883301,-0.9764094352722168
1711552144758270200,20.215270263671876,-0.538379430770874,-0.4955134391784668,-0.5609416961669922
1711552144777230300,20.234230224609377,0.029592037200927734,0.12257814407348633,-0.7828903198242188
1711552144796190500,20.2531904296875,-0.03352856636047363,0.48357582092285156,-0.9454355239868164
1711552144815150300,20.272150390625,-0.22613739967346191,0.07729005813598633,-0.24428653717041016
1711552144834110500,20.2911103515625,-0.40735697746276855,-0.04747438430786133,-0.1905078887939453
1711552144853070600,20.310070556640625,-0.34276366233825684,0.1636519432067871,-0.49442291259765625
1711552144872030700,20.32903076171875,-0.2841482162475586,-0.263033390045166,-1.0755691528320312
1711552144890990600,20.347990478515626,-0.29615020751953125,-0.3049798011779785,-1.2543935775756836
1711552144909950700,20.36695068359375,-0.0277557373046875,0.18250370025634766,-2.1502089500427246
1711552144928910600,20.38591064453125,-0.11501359939575195,0.5455379486083984,-3.467831611633301
1711552144947870700,20.40487060546875,-0.36388444900512695,0.08767843246459961,-3.084170341491699
1711552144966830800,20.423830810546875,1.1628775596618652,1.372849702835083,-0.30328369140625
1711552144985791000,20.442791015625,3.302745819091797,2.2431740760803223,3.184041976928711
1711552145004751000,20.461751220703125,4.312870025634766,1.8794105052947998,5.215985298156738
1711552145023711000,20.4807109375,3.027810573577881,1.1718578338623047,3.8976669311523438
1711552145042671000,20.499671142578126,0.13794922828674316,0.14072561264038086,0.2826194763183594
1711552145061631200,20.51863134765625,-2.4263041019439697,-0.30009984970092773,-2.591724395751953
1711552145080591400,20.53759130859375,-1.9128975868225098,-0.37694835662841797,-2.088128089904785
1711552145099551200,20.55655126953125,0.3284118175506592,-0.32768774032592773,0.8371257781982422
1711552145118511400,20.575511474609375,0.603355884552002,0.1859145164489746,2.6202468872070312
1711552145137471500,20.594471435546875,0.06483936309814453,0.5677499771118164,1.1775407791137695
1711552145156431400,20.613431396484376,0.0781557559967041,-0.09897565841674805,-0.7659082412719727
1711552145175391500,20.6323916015625,-0.4372067451477051,-0.5950226783752441,-1.1507272720336914
1711552145194351600,20.6513515625,-0.49835896492004395,0.10720014572143555,-1.2550954818725586
1711552145213311700,20.670311767578124,0.4890713691711426,0.7989397048950195,-0.7995128631591797
1711552145232271600,20.689271728515624,0.45586180686950684,0.5569067001342773,-0.22648239135742188
1711552145251231700,20.708231689453125,-0.0844871997833252,0.8013882637023926,-0.7609720230102539
1711552145270191900,20.72719189453125,0.17474591732025146,0.643470287322998,-1.209991455078125
1711552145289151700,20.74615185546875,0.10547637939453125,-0.25900697708129883,-0.933863639831543
1711552145308112000,20.76511181640625,-0.2671680450439453,-0.5597867965698242,-0.010966300964355469
1711552145327072000,20.784072021484373,-0.5797327756881714,-0.8037652969360352,1.0669517517089844
1711552145346032000,20.8030322265625,-1.3823367357254028,-1.2907347679138184,1.1667909622192383
1711552145364992000,20.821991943359375,-1.6672388315200806,-0.45714282989501953,0.4147510528564453
1711552145383952100,20.8409521484375,-0.4616450071334839,-0.35130739212036133,-0.4131450653076172
1711552145402912300,20.859912353515625,0.3043375015258789,-0.4318051338195801,-0.6917562484741211
1711552145421872400,20.878872314453126,0.37127673625946045,-0.1584320068359375,-0.030396461486816406
1711552145440832300,20.897832275390623,0.15732276439666748,-0.05996847152709961,0.9231672286987305
1711552145459792400,20.91679248046875,0.520277738571167,-0.10930824279785156,1.2671737670898438
1711552145478752500,20.93575244140625,0.4305438995361328,-0.07703685760498047,1.1524848937988281
1711552145497712400,20.95471240234375,-0.1391429901123047,0.4329657554626465,0.9137248992919922
1711552145516672500,20.973672607421875,0.03374779224395752,0.5607974529266357,0.1693592071533203
1711552145535632600,20.992632568359376,-0.020093202590942383,0.5202326774597168,-0.17684078216552734
1711552145554592800,21.0115927734375,0.025869131088256836,0.40714311599731445,-0.5363130569458008
1711552145573553000,21.030552978515626,-0.6749217510223389,0.7251577377319336,-0.5698471069335938
1711552145592512800,21.0495126953125,-0.4676884412765503,0.482912540435791,-1.112809658050537
1711552145611473000,21.068472900390624,-0.9229534864425659,0.40217065811157227,-1.7374897003173828
1711552145630433000,21.08743310546875,-1.1021157503128052,0.5529015064239502,-1.8220291137695312
1711552145649393000,21.106392822265626,-1.1944524049758911,-0.20606255531311035,-1.1941347122192383
1711552145668353000,21.12535302734375,-0.9154314994812012,-0.983950138092041,-0.49491405487060547
1711552145687313200,21.144313232421876,-0.9195352792739868,-0.7466838359832764,0.011938095092773438
1711552145706273300,21.163273193359377,-0.7773652076721191,0.23509836196899414,0.24937725067138672
1711552145725233400,21.1822333984375,0.30506432056427,0.578744649887085,0.5447406768798828
1711552145744193500,21.201193603515627,1.1000434160232544,0.4506556987762451,1.1203126907348633
1711552145763153400,21.2201533203125,1.143419861793518,0.22939634323120117,1.5769214630126953
1711552145782113500,21.239113525390625,0.7230387926101685,0.46710729598999023,1.0693883895874023
1711552145801073700,21.25807373046875,0.1819247007369995,0.655848503112793,0.1685352325439453
1711552145820033500,21.277033447265627,-0.5893913507461548,0.9009819030761719,-0.027385711669921875
1711552145838993700,21.29599365234375,-0.5266450643539429,0.4832463264465332,0.6895332336425781
1711552145857953800,21.314953857421877,0.0030946731567382812,-0.4114110469818115,1.296921730041504
1711552145876914000,21.333913818359374,0.6405842304229736,-0.9880204200744629,1.1999626159667969
1711552145895874000,21.3528740234375,0.34903573989868164,-0.3125905990600586,0.23347091674804688
1711552145914834200,21.371834228515624,0.35682427883148193,0.09845781326293945,-0.3981208801269531
1711552145933794000,21.3907939453125,0.7421303391456604,-0.3368687629699707,-0.2935943603515625
1711552145952754200,21.409754150390626,1.0745809078216553,-0.43297314643859863,0.24569225311279297
1711552145971714300,21.42871435546875,0.9843829870223999,-0.4000563621520996,0.2312164306640625
1711552145990674400,21.44767431640625,0.9370930194854736,-0.4324169158935547,0.010114669799804688
1711552146009634600,21.466634521484377,1.1697205305099487,-0.6277675628662109,-0.3609027862548828
1711552146028594700,21.4855947265625,0.6077037453651428,-0.7274413108825684,-0.8895606994628906
1711552146047554600,21.504554443359375,0.0824260413646698,-0.896306037902832,-0.9575891494750977
1711552146066514700,21.5235146484375,-0.17339062690734863,-0.941129207611084,-1.0369067192077637
1711552146085474800,21.542474853515625,-0.7138286232948303,-1.2014694213867188,-1.632798194885254
1711552146104435000,21.56143505859375,-1.2197095155715942,-1.6775169372558594,-1.4646797180175781
1711552146123395000,21.58039501953125,-1.6706048250198364,-1.4423999786376953,-1.0453739166259766
1711552146142355000,21.59935498046875,-1.1659297943115234,-1.0887742042541504,-0.8631134033203125
1711552146161315000,21.618315185546876,-0.863543689250946,-0.6920275688171387,-1.4145002365112305
1711552146180275200,21.637275146484374,-0.36457502841949463,-1.8921456336975098,-1.0939340591430664
1711552146199235300,21.6562353515625,0.4046383798122406,-0.2778334617614746,-0.42297840118408203
1711552146218195500,21.675195556640624,0.9534423351287842,1.0317864418029785,-0.3924226760864258
1711552146237155600,21.694155517578125,1.0568429231643677,0.6602950096130371,-0.07739925384521484
1711552146256115500,21.713115478515626,0.9963977336883545,1.790797472000122,0.3121366500854492
1711552146275075600,21.73207568359375,1.5356061458587646,1.0150279998779297,-0.17685699462890625
1711552146294035700,21.75103564453125,-1.688080072402954,1.0947456359863281,0.27080249786376953
1711552146312995800,21.769995849609376,-0.3847804069519043,0.19206905364990234,0.6384849548339844
1711552146331956000,21.7889560546875,0.29177045822143555,0.06650829315185547,1.1673574447631836
1711552146350916000,21.807916015625,0.676169216632843,0.45081329345703125,1.4354944229125977
1711552146369876200,21.826876220703124,0.19197914004325867,0.5421342849731445,0.9764413833618164
1711552146388836400,21.84583642578125,0.09883205592632294,1.0317895412445068,0.5843162536621094
1711552146407796200,21.864796142578125,0.5058266520500183,0.7580657005310059,-0.8423118591308594
1711552146426756400,21.88375634765625,0.5905968546867371,0.38567113876342773,-1.1387643814086914
1711552146445716500,21.902716552734375,0.7763876914978027,0.8073029518127441,-0.06689739227294922
1711552146464676600,21.921676513671876,0.9940943717956543,1.034172534942627,0.5060186386108398
1711552146483636700,21.94063671875,0.6975974440574646,1.2531347274780273,0.40769100189208984
1711552146502596900,21.959596923828126,1.6658023595809937,1.1989445686340332,-0.30991172790527344
1711552146521556700,21.978556640625,1.7024708986282349,0.7979710102081299,-0.6813650131225586
1711552146540516900,21.997516845703124,0.9029936790466309,1.086662769317627,-0.5520000457763672
1711552146559477000,22.01647705078125,0.5814782381057739,1.4055161476135254,-0.182342529296875
1711552146578437000,22.03543701171875,-1.2744319438934326,-0.8063960075378418,-0.04746437072753906
1711552146597397200,22.054397216796875,-3.750455379486084,-3.5800600051879883,-0.3957357406616211
1711552146616357400,22.073357421875,-2.9334795475006104,-2.2963528633117676,-0.14913368225097656
1711552146635317500,22.0923173828125,-1.8929283618927002,0.7968997955322266,-0.35317325592041016
1711552146654277600,22.111277587890626,-0.6614642143249512,0.5368423461914062,-1.616851806640625
1711552146673237800,22.13023779296875,0.07696801424026489,-0.23955059051513672,-1.9033451080322266
1711552146692198000,22.149197998046876,-0.2691418528556824,0.5071189403533936,-0.4852485656738281
1711552146711158000,22.168157958984374,0.1570279449224472,0.37849855422973633,0.3632345199584961
1711552146730118100,22.1871181640625,0.47577765583992004,0.06952190399169922,0.147186279296875
1711552146749078300,22.206078369140624,0.037947624921798706,0.6421897411346436,0.6556320190429688
1711552146768038400,22.225038330078124,0.36216995120048523,0.9275176525115967,1.164388656616211
1711552146786998500,22.24399853515625,0.5564363598823547,0.6881918907165527,1.2689599990844727
1711552146805958700,22.262958740234374,0.10584765672683716,-0.003912448883056641,0.9632835388183594
1711552146824918500,22.28191845703125,-0.46754682064056396,-0.6793942451477051,0.6243095397949219
1711552146843878700,22.300878662109376,-0.7059268951416016,-0.06325197219848633,0.4762306213378906
1711552146862838800,22.3198388671875,-0.25381165742874146,0.6266553401947021,0.26848506927490234
1711552146881799200,22.338799072265626,0.5155238509178162,0.45029115676879883,-0.1032705307006836
1711552146900759000,22.357759033203124,0.1841135025024414,0.09471797943115234,0.11541557312011719
1711552146919719200,22.37671923828125,0.5007827877998352,-0.08112525939941406,0.6711769104003906
1711552146938679300,22.39567919921875,0.5209637880325317,-0.5529870986938477,0.8073577880859375
1711552146957639400,22.414639404296874,0.15774619579315186,-0.9068942070007324,0.5598421096801758
1711552146976599600,22.433599609375,-0.2982144355773926,-0.6323146820068359,-0.2206401824951172
1711552146995559700,22.4525595703125,-0.4772716760635376,-0.28117895126342773,-1.1030101776123047
1711552147014519800,22.471519775390625,-0.19633245468139648,-0.7033491134643555,-1.334184169769287
1711552147033480000,22.49047998046875,0.3002125024795532,-0.818026065826416,-1.1540679931640625
1711552147052440000,22.509440185546875,0.40788376331329346,-0.29821157455444336,-0.3336219787597656
1711552147071400200,22.528400146484376,0.45943570137023926,0.34923839569091797,0.7431793212890625
1711552147090360300,22.5473603515625,0.9722790718078613,0.6605515480041504,1.3845787048339844
1711552147109320400,22.566320556640626,0.5975515246391296,0.319180965423584,1.135396957397461
1711552147128280600,22.585280517578123,-0.16897094249725342,0.16309642791748047,0.4814109802246094
1711552147147240700,22.60424072265625,-0.5579638481140137,0.3670516014099121,-0.2625408172607422
1711552147166200800,22.623200927734374,-0.5553275346755981,0.3974485397338867,-1.1889185905456543
1711552147185161000,22.642160888671874,-0.25305306911468506,0.600614070892334,-1.3707389831542969
1711552147204121000,22.66112109375,-0.18285727500915527,0.5985755920410156,-1.080404281616211
1711552147223081200,22.680081298828124,-0.6802555322647095,0.0781412124633789,-0.8282804489135742
1711552147242041300,22.699041259765625,-1.026551604270935,-0.5031313896179199,-0.8736648559570312
1711552147261001500,22.71800146484375,-1.6575145721435547,-1.299145221710205,-1.0118951797485352
1711552147279961600,22.736961669921875,-1.684526801109314,-1.7110347747802734,-1.4183950424194336
1711552147298922000,22.755921875,-0.9642493724822998,-0.46678590774536133,-1.2693476676940918
1711552147317881900,22.7748818359375,0.03478360176086426,1.1261224746704102,0.1172952651977539
1711552147336842000,22.793842041015626,0.9607601165771484,1.4804925918579102,1.346090316772461
1711552147355802000,22.812802001953123,1.5047459602355957,0.9999446868896484,2.185044288635254
1711552147374762500,22.831762451171876,1.629595160484314,0.6367430686950684,2.705449104309082
1711552147393722400,22.850722412109373,1.5786701440811157,0.7983865737915039,2.6733293533325195
1711552147412682500,22.8696826171875,1.1455721855163574,1.0677931308746338,2.130436897277832
1711552147431643000,22.888642822265624,0.5093734264373779,0.8901252746582031,1.4549083709716797
1711552147450603000,22.90760302734375,-0.053600311279296875,0.34318017959594727,0.8640871047973633
1711552147469563100,22.926563232421874,-0.2509925365447998,-0.2987828254699707,-0.13132190704345703
1711552147488523300,22.945523193359374,-0.8552713394165039,-0.6637020111083984,-0.7662544250488281
1711552147507483400,22.9644833984375,-1.2958929538726807,-0.4771232604980469,-1.3558802604675293
1711552147526443500,22.983443603515624,-1.0812084674835205,-0.35596275329589844,-1.5259814262390137
1711552147545403600,23.002403564453125,-0.5475602149963379,-0.46814918518066406,-1.2652573585510254
1711552147564363800,23.02136376953125,-0.2214815616607666,-0.37583017349243164,-1.0082106590270996
1711552147583324000,23.040323974609375,0.05967402458190918,-0.21107769012451172,-0.7394399642944336
1711552147602284000,23.059283935546876,0.2654099464416504,-0.2203984260559082,-0.5092287063598633
1711552147621244200,23.078244140625,0.3822333812713623,-0.1654033660888672,-0.2676382064819336
1711552147640204300,23.097204345703126,0.25491762161254883,-0.0471038818359375,0.09044075012207031
1711552147659164700,23.11616455078125,0.3833181858062744,0.061789512634277344,0.196136474609375
1711552147678124800,23.135124755859376,0.46822667121887207,0.21944570541381836,0.28873729705810547
1711552147697084700,23.154084716796874,0.19243168830871582,0.2810549736022949,0.6050567626953125
1711552147716045000,23.173045166015626,0.12542247772216797,0.32888007164001465,0.40044212341308594
1711552147735005200,23.192005126953124,0.13186144828796387,0.07268142700195312,0.19580936431884766
1711552147753965300,23.21096533203125,0.2240917682647705,-0.095703125,0.05693626403808594
1711552147772925400,23.229925537109374,0.08527612686157227,0.03248405456542969,-0.09915637969970703
1711552147791885600,23.248885498046874,-0.12335920333862305,0.20521759986877441,-0.21889686584472656
1711552147810845700,23.267845703125,-0.1620960235595703,0.08085775375366211,-0.21506214141845703
1711552147829805800,23.286805908203124,-0.129180908203125,-0.19022035598754883,-0.12509536743164062
1711552147848766000,23.305765869140625,0.04754996299743652,-0.251375675201416,-0.023941993713378906
1711552147867726300,23.324726318359374,0.23920679092407227,0.04798412322998047,-0.2213001251220703
1711552147886686500,23.3436865234375,0.2572929859161377,0.04764699935913086,-0.3642997741699219
1711552147905646600,23.362646484375,0.02131175994873047,-0.007867813110351562,-0.24830150604248047
1711552147924606700,23.381606689453125,0.01259469985961914,0.1661539077758789,-0.03378009796142578
1711552147943566800,23.40056689453125,0.07715487480163574,0.23728036880493164,0.19546222686767578
1711552147962527000,23.41952685546875,0.06018829345703125,0.13531112670898438,0.2701711654663086
