time,seconds_elapsed,z,y,x
1711552124671287600,0.12828759765625,3.16331148147583,5.997610092163086,6.721438884735107
1711552124690247400,0.147247314453125,4.390829563140869,6.212964057922363,7.246663570404053
1711552124709207300,0.166207275390625,4.402793884277344,6.358926296234131,7.223931789398193
1711552124728167200,0.185167236328125,3.820141315460205,6.246463298797607,6.258427619934082
1711552124747127300,0.204127197265625,3.3092737197875977,6.248856544494629,5.72123908996582
1711552124766087200,0.223087158203125,3.1381869316101074,6.340980052947998,5.6554365158081055
1711552124785047000,0.242047119140625,3.060420274734497,7.032505512237549,5.960521221160889
1711552124804007000,0.2610068359375,3.084348440170288,7.060023307800293,5.608776092529297
1711552124822966800,0.279966796875,2.998206853866577,6.598208427429199,5.37906551361084
1711552124841926700,0.2989267578125,3.0245277881622314,5.608776092529297,5.508277893066406
1711552124860886500,0.317886474609375,3.1920254230499268,5.391029357910156,6.719046115875244
1711552124879846400,0.336846435546875,3.2446675300598145,6.927221775054932,7.299305438995361
1711552124898806300,0.35580615234375,3.135794162750244,6.486942291259766,7.612765312194824
1711552124917766100,0.37476611328125,2.8498518466949463,6.063412666320801,6.744170665740967
1711552124936726000,0.39372607421875,1.7886348962783813,6.226124286651611,5.527420520782471
1711552124955686100,0.41268603515625,0.8889335989952087,6.0263237953186035,5.004588603973389
1711552124974646000,0.43164599609375,0.3756731450557709,5.839683532714844,6.022734642028809
1711552124993606000,0.45060595703125,0.9104689955711365,6.199803352355957,8.085348129272461
1711552125012565800,0.469565673828125,1.4117653369903564,7.050451755523682,8.963513374328613
1711552125031525600,0.488525634765625,2.3808584213256836,7.299305438995361,7.278966426849365
1711552125050485500,0.507485595703125,2.372483730316162,6.52044153213501,9.223134994506836
1711552125069445400,0.5264453125,2.0518453121185303,7.885547161102295,8.733802795410156
1711552125088405200,0.5454052734375,0.11126625537872314,6.751348972320557,5.364708423614502
1711552125107365000,0.564365234375,0.15672987699508667,7.629515171051025,3.5198421478271484
1711552125126325000,0.583324951171875,0.8171489238739014,7.710870742797852,7.491927623748779
1711552125145284900,0.602284912109375,1.7048860788345337,7.234699249267578,8.868997573852539
1711552125164245000,0.621244873046875,1.4739787578582764,8.09970474243164,6.4594244956970215
1711552125183204900,0.640204833984375,0.3397808074951172,7.7180495262146,8.12123966217041
1711552125202164700,0.659164794921875,1.1545369625091553,6.5527448654174805,8.57468032836914
1711552125221124600,0.67812451171875,0.4366901218891144,7.408178806304932,6.1088762283325195
1711552125240084500,0.69708447265625,-1.511067509651184,8.054241180419922,6.959524631500244
1711552125259044400,0.71604443359375,-1.5493526458740234,7.6498541831970215,6.658029079437256
1711552125278004200,0.735004150390625,-0.05144568532705307,6.558726787567139,7.010970115661621
1711552125296964000,0.753964111328125,1.0121639966964722,7.395018577575684,7.0169525146484375
1711552125315924000,0.772924072265625,0.9415757060050964,7.152146816253662,6.040680885314941
1711552125334883800,0.7918837890625,0.2476571500301361,7.052844524383545,6.447460651397705
1711552125353843700,0.81084375,-1.3148560523986816,8.033902168273926,5.623133182525635
1711552125372803800,0.829803955078125,-2.1296122074127197,8.617751121520996,4.6301116943359375
1711552125391763500,0.848763427734375,-1.1377872228622437,7.674978733062744,6.557530403137207
1711552125410723600,0.8677236328125,1.0157532691955566,6.510870456695557,7.11146879196167
1711552125429683500,0.886683349609375,-0.22612173855304718,6.970292568206787,4.603790760040283
1711552125448643300,0.905643310546875,-1.4021940231323242,8.621339797973633,3.9050865173339844
1711552125467603200,0.924603271484375,-1.3698909282684326,8.244470596313477,6.291927337646484
1711552125486563000,0.94356298828125,0.017946170642971992,7.982456207275391,5.1565327644348145
1711552125505523000,0.96252294921875,-0.3684946894645691,7.76470947265625,6.0023956298828125
1711552125524482800,0.98148291015625,0.13160525262355804,7.6869425773620605,6.679564476013184
1711552125543442700,1.000442626953125,1.3507484197616577,6.744170665740967,7.039684295654297
1711552125562402800,1.01940283203125,0.2512463629245758,7.934599876403809,5.186442852020264
1711552125581362700,1.03836279296875,-1.3363914489746094,7.569694519042969,5.31685209274292
1711552125600322600,1.057322509765625,-1.1784651279449463,7.667799949645996,5.350351333618164
1711552125619282400,1.076282470703125,-0.20937198400497437,7.466803073883057,5.197210788726807
1711552125638242300,1.0952421875,0.5539384484291077,7.88913631439209,6.7896342277526855
1711552125657202200,1.1142021484375,0.8482556343078613,8.34736156463623,7.977670669555664
1711552125676162000,1.133162109375,0.8350951075553894,8.159524917602539,7.848458290100098
1711552125695122000,1.152121826171875,0.1339980661869049,8.23011302947998,7.490731239318848
1711552125714081800,1.171081787109375,-1.038485050201416,8.550751686096191,6.192625045776367
1711552125733041700,1.190041748046875,-1.8939191102981567,8.204988479614258,5.617151260375977
1711552125752001800,1.209001708984375,-1.301695466041565,8.244470596313477,5.198407173156738
1711552125770961700,1.227961669921875,-1.1210373640060425,9.883553504943848,3.9637107849121094
1711552125789921500,1.246921630859375,0.02153540402650833,7.684549808502197,6.5288166999816895
1711552125808881400,1.26588134765625,1.0552347898483276,8.676374435424805,5.824130535125732
1711552125827841300,1.28484130859375,0.6903293132781982,8.714659690856934,5.529813289642334
1711552125846801200,1.30380126953125,0.06939185410737991,7.667799949645996,5.2390851974487305
1711552125865761000,1.322760986328125,-0.4019941985607147,7.438089370727539,5.368297576904297
1711552125884721200,1.34172119140625,0.3924229145050049,7.129415035247803,5.86002254486084
1711552125903681000,1.360680908203125,0.4773681163787842,6.748956203460693,6.123233318328857
1711552125922641000,1.379640869140625,0.4941178858280182,7.031309127807617,6.533602237701416
1711552125941600800,1.398600830078125,-0.31106695532798767,7.791030406951904,6.244070529937744
1711552125960560600,1.417560546875,-0.17946170270442963,7.489534854888916,6.122036933898926
1711552125979520500,1.4365205078125,0.5180460810661316,6.774080753326416,6.668796539306641
1711552125998480600,1.455480712890625,0.4175475537776947,7.2921271324157715,6.860222339630127
1711552126017440500,1.4744404296875,0.7645068168640137,7.542177200317383,6.254838466644287
1711552126036400400,1.493400390625,0.8542376756668091,6.832705020904541,6.2668023109436035
1711552126055360300,1.5123603515625,0.7657032608985901,5.661418437957764,5.7032928466796875
1711552126074320100,1.531320068359375,0.5024927258491516,6.6484575271606445,5.723631858825684
1711552126093280300,1.5502802734375,-0.2667997181415558,7.836493968963623,7.083951473236084
1711552126112240000,1.569240234375,0.11246266216039658,8.227720260620117,7.109076023101807
1711552126131200000,1.588199951171875,-0.5096712112426758,7.489534854888916,6.532405853271484
1711552126150160000,1.607159912109375,-1.0360921621322632,7.6737823486328125,5.68175745010376
1711552126169120000,1.6261201171875,-0.8470591902732849,7.347161769866943,5.114658355712891
1711552126188079900,1.645079833984375,0.02632104977965355,7.202396392822266,6.537191390991211
1711552126207039700,1.664039794921875,-0.17946170270442963,6.52044153213501,7.814958572387695
1711552126225999600,1.68299951171875,-1.2658032178878784,8.400003433227539,7.384250640869141
1711552126244959500,1.70195947265625,-1.1856436729431152,8.532805442810059,5.741578102111816
1711552126263919400,1.72091943359375,-0.7812566161155701,7.33759069442749,6.056233882904053
1711552126282879500,1.73987939453125,-1.7419748306274414,7.020541667938232,6.03948450088501
1711552126301839400,1.75883935546875,-2.0793628692626953,7.671389579772949,5.449653625488281
1711552126320799200,1.77779931640625,-1.2143574953079224,7.953742504119873,5.289334297180176
1711552126339759000,1.796759033203125,-1.207179069519043,6.8554368019104,6.001199245452881
1711552126358719000,1.815718994140625,-1.939382791519165,6.991827964782715,5.490331649780273
1711552126377679000,1.83467919921875,-2.049452543258667,7.4261250495910645,5.638686656951904
1711552126396639000,1.853638916015625,-1.2406785488128662,6.766902446746826,7.066005229949951
1711552126415598800,1.872598876953125,-0.5635097622871399,5.394618511199951,7.456035137176514
1711552126434558700,1.891558837890625,-1.3423734903335571,6.104090690612793,6.4426751136779785
1711552126453518800,1.910518798828125,-2.379662036895752,7.491927623748779,5.565705299377441
1711552126472478700,1.929478759765625,-2.809173822402954,7.442874908447266,5.391029357910156
1711552126491438600,1.9484384765625,-2.586641311645508,6.9344000816345215,5.928217887878418
1711552126510398500,1.9673984375,-1.2538390159606934,6.685546398162842,6.428318023681641
1711552126529358300,1.9863583984375,-0.9966106414794922,7.010970115661621,7.134200572967529
1711552126548318500,2.005318359375,-1.0432707071304321,7.0061845779418945,7.444071292877197
1711552126567278300,2.0242783203125,-0.9547362327575684,6.8518476486206055,7.542177200317383
1711552126586238200,2.04323828125,-1.031306505203247,7.383054256439209,7.11984395980835
1711552126605198300,2.0621982421875,-1.155733346939087,7.76470947265625,6.759724140167236
1711552126624158200,2.081158203125,-1.3411771059036255,8.282755851745605,6.660421848297119
1711552126643118000,2.1001181640625,-1.954936146736145,9.829715728759766,6.4354963302612305
1711552126662078000,2.119077880859375,-1.7982062101364136,9.474381446838379,5.133800983428955
1711552126681038000,2.1380380859375,-0.5527420043945312,7.57806921005249,4.543970108032227
1711552126699998000,2.156998046875,-0.5300102233886719,8.01236629486084,4.43031120300293
1711552126718957800,2.175957763671875,-1.0671988725662231,8.171489715576172,6.844669342041016
1711552126737917700,2.194917724609375,-0.7621139883995056,8.084151268005371,7.7838521003723145
1711552126756877600,2.213877685546875,-0.12083754688501358,7.706085205078125,7.27537727355957
1711552126775837700,2.232837646484375,-0.38644084334373474,6.963113784790039,6.976274490356445
1711552126794797600,2.251797607421875,-0.8781659007072449,6.593422889709473,6.961917400360107
1711552126813757700,2.2707578125,-1.3519448041915894,6.592226505279541,6.9344000816345215
1711552126832717600,2.289717529296875,-1.2658032178878784,6.510870456695557,7.004988193511963
1711552126851677400,2.308677490234375,-1.1413763761520386,6.131608009338379,7.3675007820129395
1711552126870637300,2.32763720703125,-1.1928220987319946,6.005984783172607,7.564908981323242
1711552126889597400,2.346597412109375,-1.3304094076156616,6.26440954208374,7.149754047393799
1711552126908557300,2.365557373046875,-1.6522440910339355,6.315855503082275,6.764509677886963
1711552126927517200,2.38451708984375,-1.8340985774993896,5.9306111335754395,6.783652305603027
1711552126946477000,2.40347705078125,-1.4883357286453247,5.55733060836792,6.905686378479004
1711552126965437200,2.422437255859375,-1.0648061037063599,5.663811206817627,6.650850772857666
1711552126984397000,2.44139697265625,-1.0277173519134521,6.486942291259766,6.6113691329956055
1711552127003357000,2.46035693359375,-0.833898663520813,7.15812873840332,7.125825881958008
1711552127022317000,2.479317138671875,-0.7417750358581543,6.812366008758545,6.86381196975708
1711552127041277000,2.49827685546875,0.4498506486415863,6.185446739196777,6.1435723304748535
1711552127060236800,2.51723681640625,0.12921242415905,6.550352096557617,6.09332275390625
1711552127079196700,2.53619677734375,-2.1056840419769287,7.392625331878662,7.039684295654297
1711552127098156800,2.55515673828125,-3.0556344985961914,7.818548202514648,6.94038200378418
1711552127117116700,2.57411669921875,-2.4598217010498047,6.8482584953308105,6.649653911590576
1711552127136076500,2.59307666015625,-0.6161518096923828,5.1565327644348145,9.139386177062988
1711552127155036700,2.61203662109375,0.11605189740657806,4.89691162109375,10.534401893615723
1711552127173996500,2.63099658203125,-1.3256237506866455,5.685346603393555,8.592626571655273
1711552127192956400,2.649956298828125,-3.0556344985961914,6.095715522766113,5.059623718261719
1711552127211916500,2.66891650390625,-3.1932218074798584,6.794419765472412,4.346562385559082
1711552127230876400,2.68787646484375,-3.64546537399292,6.823133945465088,4.05703067779541
1711552127249836300,2.706836181640625,-3.8727834224700928,6.2428741455078125,5.970092296600342
1711552127268796200,2.725796142578125,-2.513660192489624,6.333801746368408,8.767302513122559
1711552127287756300,2.74475634765625,-1.2897313833236694,6.97268533706665,9.42173957824707
1711552127306716200,2.763716064453125,-1.1425727605819702,6.971488952636719,8.974281311035156
1711552127325676000,2.782676025390625,-2.1200408935546875,6.547959327697754,8.025527000427246
1711552127344636200,2.80163623046875,-2.609373092651367,6.619743824005127,7.271788120269775
1711552127363596000,2.820595947265625,-3.775874137878418,6.361319065093994,6.040680885314941
1711552127382556000,2.839555908203125,-3.6646077632904053,6.4319071769714355,5.649454116821289
1711552127401516000,2.85851611328125,-3.049652576446533,6.424728870391846,6.716653347015381
1711552127420476000,2.877475830078125,-2.7254250049591064,6.306283950805664,7.629515171051025
1711552127439435800,2.896435791015625,-2.819941520690918,6.52044153213501,7.301698207855225
1711552127458396000,2.91539599609375,-2.228914260864258,6.4701924324035645,7.341179847717285
1711552127477355800,2.934355712890625,-2.796013355255127,6.333801746368408,6.7621169090271
1711552127496315600,2.953315673828125,-2.720639228820801,6.34217643737793,7.0061845779418945
1711552127515275500,2.972275634765625,-2.5387847423553467,5.966503143310547,7.435696601867676
1711552127534235600,2.991235595703125,-2.372483730316162,5.982056617736816,7.342376232147217
1711552127553195500,3.010195556640625,-2.623729944229126,6.309873104095459,6.9068827629089355
1711552127572155400,3.0291552734375,-2.562713146209717,6.636493682861328,6.918846607208252
1711552127591115500,3.048115478515625,-3.2614171504974365,6.38165807723999,6.482156753540039
1711552127610075400,3.067075439453125,-2.4598217010498047,6.300302028656006,6.33499813079834
1711552127629035500,3.086035400390625,-2.5076780319213867,6.069394588470459,7.000202655792236
1711552127647995400,3.104995361328125,-2.1236300468444824,6.375676155090332,7.350750923156738
1711552127666955300,3.123955322265625,-2.0099709033966064,6.406782627105713,7.5637125968933105
1711552127685915100,3.1429150390625,-1.4105689525604248,5.8061842918396,7.977670669555664
1711552127704875300,3.161875244140625,-0.4893322288990021,5.79780912399292,7.975277900695801
1711552127723835100,3.180835205078125,-0.9750752449035645,6.4905314445495605,7.59362268447876
1711552127742795000,3.199794921875,-1.7359927892684937,6.970292568206787,7.16650390625
1711552127761755100,3.218755126953125,-2.0829520225524902,6.818347930908203,6.5180487632751465
1711552127780715000,3.237715087890625,-1.7922241687774658,6.267998695373535,7.026523590087891
1711552127799675000,3.2566748046875,-1.1748759746551514,6.076572895050049,6.879364967346191
1711552127818635000,3.275635009765625,-1.2454642057418823,6.501298904418945,6.5766730308532715
1711552127837595000,3.294594970703125,-1.3794622421264648,6.468996047973633,7.148557662963867
1711552127856554800,3.3135546875,-1.5385849475860596,6.3122663497924805,7.037291526794434
1711552127875515000,3.332514892578125,-1.4859428405761719,6.55992317199707,7.1473612785339355
1711552127894474800,3.351474853515625,-1.4811571836471558,6.303891181945801,7.134200572967529
1711552127913434600,3.3704345703125,-0.916451096534729,6.271588325500488,7.162914752960205
1711552127932394800,3.389394775390625,-1.1162517070770264,6.350551128387451,8.184649467468262
1711552127951354600,3.408354736328125,1.100698471069336,6.406782627105713,9.474381446838379
1711552127970314500,3.427314453125,-0.2356930375099182,6.2500529289245605,8.74337387084961
1711552127989274400,3.4462744140625,-0.9762716293334961,5.887540340423584,7.044469833374023
1711552128008234500,3.465234375,-2.0757737159729004,5.9916276931762695,6.329015731811523
1711552128027194400,3.4841943359375,-1.6929219961166382,6.110072612762451,6.6113691329956055
1711552128046154200,3.503154296875,-0.7920243144035339,6.070590972900391,7.871190071105957
1711552128065114400,3.5221142578125,-0.4833501875400543,6.15553617477417,8.427521705627441
1711552128084074200,3.54107421875,-0.5706881880760193,5.917450428009033,8.074580192565918
1711552128103034400,3.560034423828125,-1.1365907192230225,5.958128452301025,6.546762943267822
1711552128121994200,3.578994140625,-2.2911276817321777,6.537191390991211,6.288337707519531
1711552128140954000,3.5979541015625,-1.978864312171936,6.120840549468994,6.991827964782715
1711552128159914000,3.6169140625,-1.734796404838562,5.827719688415527,6.747759819030762
1711552128178874000,3.6358740234375,-1.2717852592468262,6.471388816833496,7.032505512237549
1711552128197834000,3.654833984375,-1.074377417564392,6.454638957977295,7.432106971740723
1711552128216793900,3.6737939453125,-1.3878371715545654,6.094519138336182,7.380661487579346
1711552128235754000,3.69275390625,-1.576870083808899,6.118447303771973,7.270591735839844
1711552128254713900,3.7117138671875,-1.719243049621582,6.067001819610596,7.488338470458984
1711552128273673700,3.730673828125,-1.7132610082626343,5.980860233306885,7.572087287902832
1711552128292633900,3.7496337890625,-1.5481562614440918,6.142375946044922,7.828119277954102
1711552128311593700,3.76859375,-1.4919248819351196,6.50608491897583,7.848458290100098
1711552128330553600,3.7875537109375,-1.856830358505249,6.592226505279541,7.641479015350342
1711552128349513700,3.806513671875,-2.389233350753784,6.439085960388184,6.963113784790039
1711552128368473600,3.8254736328125,-2.6225335597991943,6.393621921539307,6.302694797515869
1711552128387433500,3.84443359375,-2.5184457302093506,6.5527448654174805,6.695117950439453
1711552128406393600,3.8633935546875,-2.2612173557281494,6.5252275466918945,7.623532772064209
1711552128425353500,3.882353515625,-2.586641311645508,5.832505226135254,8.25523853302002
1711552128444313300,3.901313232421875,-2.5471596717834473,5.779862880706787,7.763513088226318
1711552128463273200,3.920273193359375,-2.664407968521118,6.375676155090332,7.237092018127441
1711552128482233300,3.9392333984375,-3.1645078659057617,6.538387775421143,6.807580471038818
1711552128501193200,3.958193115234375,-3.421736478805542,6.580262184143066,6.605386734008789
1711552128520153000,3.977153076171875,-3.390629768371582,6.774080753326416,6.449853420257568
1711552128539113200,3.99611328125,-3.2554352283477783,6.680760860443115,6.254838466644287
1711552128558073000,4.015072998046875,-3.9912281036376953,5.881557941436768,6.214160442352295
1711552128577033200,4.034033203125,-3.3894333839416504,5.812166213989258,5.8372907638549805
1711552128595993000,4.0529931640625,-2.5842485427856445,6.428318023681641,6.480959892272949
1711552128614953000,4.071952880859375,-2.6608188152313232,6.849454879760742,7.04207706451416
1711552128633912800,4.090912841796875,-2.310270309448242,7.1270222663879395,7.5050883293151855
1711552128652873000,4.109873046875,-2.9012975692749023,7.04925537109375,7.579265594482422
1711552128671832800,4.128832763671875,-3.5341989994049072,6.49770975112915,6.8171515464782715
1711552128690792700,4.147792724609375,-3.656233072280884,5.84446907043457,6.543173313140869
1711552128709752600,4.166752685546875,-2.6775684356689453,5.364708423614502,7.278966426849365
1711552128728712700,4.185712646484375,-3.9194436073303223,5.112265586853027,5.959324836730957
1711552128747672600,4.204672607421875,-2.939582586288452,6.521637916564941,6.964310169219971
1711552128766632700,4.2236328125,-2.3473589420318604,7.429714202880859,7.8819580078125
1711552128785592600,4.242592529296875,-1.210768222808838,6.563512325286865,9.10229778289795
1711552128804552400,4.261552490234375,-0.6125625967979431,6.317051887512207,9.174081802368164
1711552128823512300,4.28051220703125,-1.561316728591919,7.885547161102295,9.432506561279297
1711552128842472400,4.299472412109375,-3.056830883026123,7.306483745574951,8.281558990478516
1711552128861432300,4.318432373046875,-3.190829038619995,5.925825119018555,6.472585201263428
1711552128880392200,4.33739208984375,-2.400001049041748,5.6554365158081055,5.2390851974487305
1711552128899352000,4.35635205078125,-3.90987229347229,6.067001819610596,4.0833516120910645
1711552128918312200,4.375312255859375,-3.377469062805176,6.049055576324463,8.439485549926758
1711552128937272000,4.39427197265625,0.16271193325519562,6.685546398162842,8.185846328735352
1711552128956232200,4.413232177734375,6.787241458892822,5.680561065673828,9.936196327209473
1711552128975192000,4.432192138671875,2.321038007736206,7.018148899078369,7.3304123878479
1711552128994152000,4.45115185546875,-0.8913264274597168,7.063612461090088,7.734799385070801
1711552129013111800,4.47011181640625,-2.1583259105682373,6.440282344818115,3.487539052963257
1711552129032072000,4.489072021484375,-0.7992027401924133,6.2189459800720215,5.2390851974487305
1711552129051031800,4.50803173828125,0.3158525824546814,6.422336101531982,7.101897716522217
1711552129069991700,4.52699169921875,0.2763710021972656,6.0502519607543945,6.93320369720459
1711552129088951800,4.545951904296875,0.09571290761232376,5.9545392990112305,6.604190349578857
1711552129107911700,4.56491162109375,0.09930214285850525,5.995217323303223,6.430710792541504
1711552129126871600,4.58387158203125,0.7537391185760498,6.7070817947387695,7.533802032470703
1711552129145831400,4.60283154296875,1.31365966796875,7.0995049476623535,7.886743545532227
1711552129164791600,4.62179150390625,1.368694543838501,6.690331935882568,7.0755767822265625
1711552129183751400,4.64075146484375,1.1676974296569824,7.074379920959473,7.767102241516113
1711552129202711300,4.659711181640625,1.9298114776611328,6.650850772857666,8.298309326171875
1711552129221671400,4.67867138671875,1.8269200325012207,6.6352972984313965,7.964509963989258
1711552129240631300,4.69763134765625,1.0241280794143677,6.151947021484375,8.636893272399902
1711552129259591200,4.716591064453125,0.7716853022575378,6.421139717102051,6.838686943054199
1711552129278551000,4.735551025390625,0.3720839321613312,6.226124286651611,7.103094100952148
1711552129297511200,4.75451123046875,0.6939185857772827,6.284748554229736,5.960521221160889
1711552129316471000,4.773470947265625,0.07417750358581543,5.881557941436768,6.454638957977295
1711552129335431000,4.792430908203125,0.04307080805301666,6.153143405914307,6.16391134262085
1711552129354391000,4.81139111328125,0.11844471842050552,5.990431308746338,6.135197162628174
1711552129373351000,4.830350830078125,0.6580262184143066,6.216553211212158,7.194021224975586
1711552129392310800,4.849310791015625,1.657029628753662,6.592226505279541,8.404789924621582
1711552129411271000,4.86827099609375,1.5445669889450073,6.655636310577393,8.237292289733887
1711552129430230800,4.887230712890625,0.7022934556007385,6.479763507843018,7.3639116287231445
1711552129449190700,4.906190673828125,0.5706881880760193,6.409175395965576,7.112665176391602
1711552129468150500,4.925150634765625,1.0061819553375244,6.448657035827637,7.318448066711426
1711552129487110400,4.9441103515625,0.8590233325958252,6.647261142730713,7.2574310302734375
1711552129506070500,4.963070556640625,0.2548356056213379,6.539584159851074,7.179664134979248
1711552129525030400,4.982030517578125,-0.1746760457754135,6.563512325286865,6.949953556060791
1711552129543990500,5.000990478515625,-0.4259224236011505,6.460621356964111,6.942774772644043
1711552129562950400,5.019950439453125,0.27397820353507996,6.8243303298950195,7.188039302825928
1711552129581910300,5.03891015625,1.3938192129135132,7.105486869812012,8.053044319152832
1711552129600870100,5.0578701171875,0.5300102233886719,6.254838466644287,8.434700012207031
1711552129619830000,5.076830078125,0.10648060590028763,6.401997089385986,8.273183822631836
1711552129638790100,5.0957900390625,0.49172505736351013,6.538387775421143,9.114261627197266
1711552129657750000,5.11475,-0.7980063557624817,6.15553617477417,8.23968505859375
1711552129676710000,5.1337099609375,-1.0061819553375244,6.032305717468262,6.498906135559082
1711552129695669800,5.152669677734375,-1.3363914489746094,5.96889591217041,5.970092296600342
1711552129714630000,5.1716298828125,-0.9798609018325806,5.808577060699463,6.538387775421143
1711552129733589800,5.19058984375,-0.7010970115661621,5.453242778778076,8.153543472290039
1711552129752549600,5.209549560546875,-0.6532405614852905,5.193621635437012,9.066405296325684
1711552129771509500,5.228509521484375,-0.8697910308837891,5.782256126403809,8.86062240600586
1711552129790469600,5.2474697265625,-1.3459627628326416,5.858826160430908,8.749356269836426
1711552129809429500,5.266429443359375,-1.6378871202468872,4.948357105255127,8.6033935546875
1711552129828389400,5.285389404296875,-1.1222338676452637,4.8466620445251465,9.585647583007812
1711552129847349200,5.304349365234375,-0.763310432434082,5.9306111335754395,9.355937004089355
1711552129866309400,5.323309326171875,-0.8745766878128052,5.934200286865234,9.014959335327148
1711552129885269200,5.342269287109375,-1.3519448041915894,4.76530647277832,9.284152030944824
1711552129904229000,5.36122900390625,-1.7312071323394775,4.945964336395264,8.94556713104248
1711552129923189000,5.38018896484375,-1.1784651279449463,5.8372907638549805,7.957331657409668
1711552129942149000,5.399149169921875,-2.4155545234680176,5.24626350402832,6.965506553649902
1711552129961109000,5.41810888671875,-1.8831514120101929,4.401597023010254,6.4319071769714355
1711552129980068900,5.43706884765625,-1.5481562614440918,4.8574299812316895,6.220142364501953
1711552129999028700,5.45602880859375,-0.3900300860404968,7.313662528991699,4.621737003326416
1711552130017988900,5.47498876953125,0.27038896083831787,6.106483459472656,9.010173797607422
1711552130036948700,5.49394873046875,-0.2189432680606842,4.287938117980957,10.608579635620117
1711552130055908600,5.51290869140625,-0.2727817893028259,4.5236310958862305,8.6033935546875
1711552130074868500,5.531868408203125,-0.5431707501411438,6.355337142944336,6.970292568206787
1711552130093828400,5.550828369140625,-0.7489534616470337,6.296712875366211,6.896114826202393
1711552130112788500,5.56978857421875,-1.0396814346313477,5.188836097717285,7.934599876403809
1711552130131748400,5.588748291015625,-0.4091726839542389,5.271388053894043,9.013762474060059
1711552130150708200,5.607708251953125,0.19980068504810333,5.468796253204346,8.666803359985352
1711552130169668000,5.626668212890625,-0.5587241053581238,5.672185897827148,6.538387775421143
1711552130188628200,5.645628173828125,-1.2430713176727295,5.150550842285156,5.753541946411133
1711552130207588000,5.664588134765625,-1.2335001230239868,4.2987060546875,7.448856830596924
1711552130226548000,5.6835478515625,-0.6508477330207825,5.30129861831665,7.537391185760498
1711552130245507800,5.7025078125,-1.5074782371520996,7.013363361358643,6.348158359527588
1711552130264467700,5.7214677734375,-2.7553353309631348,7.112665176391602,6.095715522766113
1711552130283427600,5.740427490234375,-2.675175666809082,6.965506553649902,7.289734363555908
1711552130302387700,5.7593876953125,-2.1367905139923096,7.117451190948486,7.278966426849365
1711552130321347600,5.77834765625,-2.6117658615112305,6.588637351989746,7.357929706573486
1711552130340307500,5.797307373046875,-2.3437697887420654,6.727420806884766,6.027520179748535
1711552130359267600,5.816267578125,-2.840280532836914,7.908278942108154,7.8041911125183105
1711552130378227500,5.8352275390625,-2.1439690589904785,6.835097789764404,6.478567123413086
1711552130397187300,5.854187255859375,-2.335394859313965,6.081358909606934,7.472784996032715
1711552130416147200,5.873147216796875,-2.462214469909668,7.025327205657959,8.840283393859863
1711552130435107000,5.892107177734375,-1.5696916580200195,7.265805721282959,7.500302791595459
1711552130454067000,5.91106689453125,-0.9499505758285522,6.102894306182861,6.460621356964111
1711552130473027000,5.930027099609375,-0.7585247755050659,5.724828243255615,7.642675399780273
1711552130491987000,5.948987060546875,-1.5146567821502686,6.488138675689697,6.728617191314697
1711552130510946800,5.96794677734375,-2.6021945476531982,7.086344242095947,6.716653347015381
1711552130529907000,5.986906982421875,-2.5160529613494873,7.8041911125183105,6.69990348815918
1711552130548866800,6.00586669921875,-2.001596212387085,6.784848690032959,6.597012042999268
1711552130567826700,6.02482666015625,-2.155933141708374,6.888936519622803,6.687939167022705
1711552130586786600,6.04378662109375,-2.073380708694458,7.334001541137695,7.245467185974121
1711552130605746400,6.062746337890625,-1.8963119983673096,7.623532772064209,7.92861795425415
1711552130624706600,6.08170654296875,-1.0265209674835205,7.533802032470703,8.572287559509277
1711552130643666400,6.10066650390625,-0.4019941985607147,7.448856830596924,8.50289535522461
1711552130662626300,6.119626220703125,-0.003589233849197626,7.99800968170166,8.047062873840332
1711552130681586400,6.13858642578125,-0.37447673082351685,9.339186668395996,6.390032768249512
1711552130700546300,6.15754638671875,-2.366501569747925,9.250652313232422,2.42512583732605
1711552130719506200,6.176506103515625,-3.6047873497009277,8.221738815307617,-1.6630117893218994
1711552130738466000,6.195466064453125,-2.7768707275390625,7.934599876403809,-0.08853443711996078
1711552130757426000,6.214426025390625,-2.7086751461029053,7.929814338684082,1.7635103464126587
1711552130776386000,6.233385986328125,-2.0063817501068115,7.623532772064209,3.7806596755981445
1711552130795346000,6.252345947265625,-0.6664010882377625,7.7838521003723145,6.311069488525391
1711552130814306000,6.27130615234375,-0.42352959513664246,8.116454124450684,8.193024635314941
1711552130833266000,6.290265869140625,0.5886343717575073,8.447860717773438,9.354740142822266
1711552130852225800,6.309225830078125,0.6807580590248108,8.277970314025879,8.517251968383789
1711552130871185700,6.328185546875,0.40797626972198486,7.941778182983398,7.4261250495910645
1711552130890145500,6.3471455078125,-0.19262222945690155,7.779066562652588,6.3840508460998535
1711552130909105700,6.366105712890625,-0.43549370765686035,8.135597229003906,5.139782905578613
1711552130928065500,6.3850654296875,-0.6484549641609192,8.719446182250977,4.516452789306641
1711552130947025400,6.404025390625,-0.8147560954093933,9.06401252746582,4.43031120300293
1711552130965985300,6.4229853515625,-0.8685946464538574,9.129815101623535,4.494917392730713
1711552130984945400,6.4419453125,-0.5539384484291077,9.20279598236084,4.64805793762207
1711552131003905300,6.4609052734375,-0.035892341285943985,9.119047164916992,4.64805793762207
1711552131022865200,6.479865234375,0.31465616822242737,8.70508861541748,4.5786662101745605
1711552131041825300,6.4988251953125,0.5084748268127441,8.228917121887207,4.327419757843018
1711552131060785200,6.51778515625,0.592223584651947,8.081758499145508,3.9948174953460693
1711552131079745000,6.5367451171875,0.31824541091918945,8.088936805725098,3.451646566390991
1711552131098705200,6.555705078125,0.3720839321613312,8.328219413757324,2.9790642261505127
1711552131117665000,6.5746650390625,0.22971096634864807,8.446663856506348,2.341377019882202
1711552131136625000,6.593625,-0.013160524889826775,8.609375953674316,1.7790635824203491
1711552131155584800,6.612584716796875,0.45104706287384033,8.806783676147461,1.0863415002822876
1711552131174545000,6.631544921875,0.3696911036968231,9.199206352233887,0.9020941257476807
1711552131193504800,6.6505048828125,0.5970092415809631,9.7998046875,1.4093725681304932
1711552131212465000,6.66946484375,0.9966106414794922,9.905089378356934,1.6869399547576904
1711552131231424800,6.6884248046875,1.062413215637207,9.80219841003418,1.812563180923462
1711552131250384600,6.707384521484375,0.851844847202301,9.686145782470703,1.9310078620910645
1711552131269344500,6.726344482421875,0.8769695162773132,9.589237213134766,1.8305093050003052
1711552131288304600,6.7453046875,0.6915257573127747,9.659825325012207,1.430907964706421
1711552131307264500,6.764264404296875,0.4713860750198364,9.656235694885254,1.2275179624557495
1711552131326224400,6.783224365234375,0.5862415432929993,9.708877563476562,1.1892328262329102
1711552131345184500,6.8021845703125,0.6699903607368469,9.938589096069336,1.191625714302063
1711552131364144400,6.821144287109375,0.8554341197013855,10.124032974243164,1.0157532691955566
1711552131383104300,6.840104248046875,0.9655039310455322,10.50209903717041,0.6628118753433228
1711552131402064400,6.859064453125,0.9080761671066284,10.863414764404297,0.2847459018230438
1711552131421024300,6.878024169921875,0.6604190468788147,11.310873031616211,0.064606212079525
1711552131439984400,6.896984375,0.19142581522464752,11.251051902770996,-0.12203395366668701
1711552131458944300,6.9159443359375,0.059820566326379776,11.018948554992676,-0.016749758273363113
1711552131477904100,6.934904052734375,0.19262222945690155,10.552348136901855,0.4342973232269287
1711552131496864300,6.9538642578125,0.43908295035362244,9.81535816192627,0.8279166221618652
1711552131515824000,6.97282421875,0.4103690981864929,9.416953086853027,1.0348957777023315
1711552131534784000,6.991783935546875,-0.04426721855998039,9.42054271697998,1.3770694732666016
1711552131553744100,7.010744140625,-0.137587308883667,9.232706069946289,1.6869399547576904
1711552131572704000,7.0297041015625,0.1052841991186142,8.840283393859863,1.7407784461975098
1711552131591663900,7.048663818359375,-0.14835500717163086,8.746963500976562,1.7802600860595703
1711552131610624000,7.0676240234375,-0.5515456199645996,9.206384658813477,2.4562325477600098
1711552131629584000,7.086583984375,-0.5024927258491516,9.591629981994629,3.7160534858703613
1711552131648543700,7.105543701171875,-0.24406790733337402,9.449256896972656,4.84187650680542
1711552131667503900,7.12450390625,0.07178468257188797,9.06281566619873,5.296513080596924
1711552131686463700,7.143463623046875,0.15194423496723175,8.606983184814453,5.282155990600586
1711552131705424000,7.162423828125,0.064606212079525,8.207381248474121,5.607579708099365
1711552131724383700,7.1813837890625,-0.07537391036748886,8.12123966217041,5.6685967445373535
1711552131743343600,7.200343505859375,-0.10648060590028763,8.031509399414062,5.937789440155029
1711552131762303700,7.2193037109375,-0.1698904037475586,7.735995769500732,6.350551128387451
1711552131781263600,7.238263671875,-0.23330020904541016,7.572087287902832,6.447460651397705
1711552131800223700,7.2572236328125,0.014356935396790504,7.710870742797852,6.665207386016846
1711552131819183600,7.27618359375,0.062213387340307236,8.149953842163086,7.323233604431152
1711552131838143700,7.295143798828125,0.007178467698395252,7.901100158691406,7.989634990692139
1711552131857103600,7.314103515625,-0.20099709928035736,7.183253765106201,8.243273735046387
1711552131876063500,7.3330634765625,-0.4043870270252228,6.9104719161987305,8.078168869018555
1711552131895023600,7.352023681640625,-0.8267202377319336,7.141379356384277,8.155936241149902
1711552131913983500,7.3709833984375,-1.3986048698425293,6.7692952156066895,8.23968505859375
1711552131932943600,7.389943603515625,-1.4679967164993286,5.734399318695068,7.733603000640869
1711552131951903500,7.408903564453125,-1.5098711252212524,4.845465660095215,7.65583610534668
1711552131970863400,7.42786328125,-1.5649060010910034,4.6540398597717285,8.39282512664795
1711552131989823500,7.446823486328125,-1.420140266418457,4.581058979034424,8.792427062988281
1711552132008783400,7.465783447265625,-1.29810631275177,4.213760852813721,8.58903694152832
1711552132027743500,7.484743408203125,-1.353141188621521,3.8392839431762695,8.25404167175293
1711552132046703400,7.503703369140625,-1.404586911201477,3.6167514324188232,7.708477973937988
1711552132065663500,7.52266357421875,-1.6510475873947144,3.7292141914367676,7.460821151733398
1711552132084623400,7.541623291015625,-1.8711873292922974,4.488935470581055,7.496713161468506
1711552132103583500,7.56058349609375,-1.765903115272522,4.1623148918151855,7.552944660186768
1711552132122543400,7.57954345703125,-1.8340985774993896,3.5497524738311768,7.7838521003723145
1711552132141503200,7.598503173828125,-2.234896421432495,3.4061830043792725,8.039883613586426
1711552132160463400,7.61746337890625,-2.2325034141540527,3.4157543182373047,8.433503150939941
1711552132179423200,7.63642333984375,-2.2169501781463623,3.1788649559020996,8.440681457519531
1711552132198383400,7.65538330078125,-2.548356056213379,3.568894863128662,8.282755851745605
1711552132217343200,7.67434326171875,-2.785245656967163,3.7507495880126953,8.23848819732666
1711552132236303400,7.693303466796875,-2.944368362426758,3.401397466659546,8.34018325805664
1711552132255263200,7.71226318359375,-2.8462624549865723,3.2135608196258545,8.694320678710938
1711552132274223400,7.731223388671875,-2.6847469806671143,3.1956145763397217,9.32004451751709
1711552132293183200,7.750183349609375,-2.438286304473877,3.166900873184204,9.89551830291748
1711552132312143400,7.769143310546875,-2.3676979541778564,2.882154941558838,9.996016502380371
1711552132331103200,7.788103271484375,-2.335394859313965,2.379662036895752,9.754341125488281
1711552132350063400,7.8070634765625,-2.3090739250183105,2.3880369663238525,9.158528327941895
1711552132369023200,7.826023193359375,-2.4705893993377686,2.307877540588379,8.423932075500488
1711552132387983400,7.8449833984375,-2.445464849472046,1.939382791519165,8.161917686462402
1711552132406943200,7.863943115234375,-2.486142635345459,1.674975872039795,7.8556365966796875
1711552132425903000,7.882903076171875,-2.458625316619873,1.9728822708129883,7.698906898498535
1711552132444863200,7.90186328125,-2.4538395404815674,2.3401806354522705,7.490731239318848
1711552132463823400,7.9208232421875,-2.2779672145843506,2.201396942138672,7.007380962371826
1711552132482783200,7.939783203125,-0.9152546525001526,2.132004976272583,6.251249313354492
1711552132501743400,7.958743408203125,-0.17587246000766754,1.9980069398880005,5.556134223937988
1711552132520703200,7.977703125,-1.0432707071304321,2.9563324451446533,5.240281581878662
1711552132539663400,7.996663330078125,-2.6668007373809814,5.515456199645996,5.979663848876953
1711552132558623200,8.015623291015626,-3.926621913909912,7.631907939910889,6.912864685058594
1711552132577583400,8.034583251953125,-4.195814609527588,7.741977691650391,7.6630144119262695
1711552132596543200,8.053543212890625,-3.4396824836730957,6.894918441772461,9.084351539611816
1711552132615503400,8.07250341796875,-1.404586911201477,5.962913990020752,10.52363395690918
1711552132634463200,8.091463134765625,-2.262413740158081,6.535995006561279,14.694323539733887
1711552132653423400,8.11042333984375,-5.535795211791992,8.376075744628906,15.62393569946289
1711552132672383200,8.12938330078125,-9.729216575622559,12.06221866607666,16.317853927612305
1711552132691343400,8.14834326171875,-7.3878397941589355,15.518651008605957,17.948562622070312
1711552132710303200,8.16730322265625,-3.864408493041992,13.913066864013672,16.82034683227539
1711552132729263400,8.186263427734374,-2.444268226623535,12.40558910369873,16.50808334350586
1711552132748223200,8.20522314453125,-1.4739787578582764,12.020344734191895,13.060026168823242
1711552132767183400,8.224183349609374,-1.4189438819885254,9.936196327209473,9.337990760803223
1711552132786143200,8.243143310546875,-1.2095718383789062,7.661818027496338,6.142375946044922
1711552132805103400,8.262103271484374,-1.3040883541107178,5.627918720245361,2.775674343109131
1711552132824063500,8.2810634765625,-1.1581261157989502,5.036891460418701,0.6843472719192505
1711552132843023400,8.3000234375,-1.2394821643829346,5.520241737365723,0.259621262550354
1711552132861983500,8.3189833984375,-0.8279166221618652,6.1399827003479,0.5048855543136597
1711552132880943400,8.337943359375,-0.30987054109573364,6.5252275466918945,0.45224347710609436
1711552132899903500,8.356903564453125,0.04426721855998039,6.601797580718994,0.34695929288864136
1711552132918863400,8.37586328125,0.8554341197013855,6.291927337646484,-0.25363919138908386
1711552132937823500,8.394823486328125,1.210768222808838,6.655636310577393,-0.7776673436164856
1711552132956783400,8.413783447265626,1.4679967164993286,7.334001541137695,-0.656829833984375
1711552132975743500,8.432743408203125,2.059023857116699,7.769495010375977,-0.6747759580612183
1711552132994703400,8.451703369140626,3.1094729900360107,7.779066562652588,-0.7190431952476501
1711552133013663500,8.47066357421875,3.3714871406555176,8.599804878234863,-0.5108676552772522
1711552133032623600,8.48962353515625,3.700500249862671,8.404789924621582,0.06580262631177902
1711552133051583500,8.50858349609375,4.18983268737793,7.403393268585205,-0.058624155819416046
1711552133070543600,8.527543701171876,4.401597023010254,8.199007034301758,-0.0323031060397625
1711552133089503500,8.54650341796875,4.302295207977295,8.617751121520996,-0.26081767678260803
1711552133108463600,8.565463623046876,4.6372904777526855,7.970492362976074,-0.5730810165405273
1711552133127423500,8.584423583984375,4.6372904777526855,7.94297456741333,-0.882951557636261
1711552133146383600,8.603383544921876,4.466203689575195,7.1856465339660645,-1.2011969089508057
1711552133165343500,8.622343505859375,4.498506546020508,6.378068923950195,-1.604387640953064
1711552133184303600,8.6413037109375,4.9399824142456055,6.251249313354492,-1.8987047672271729
1711552133203263700,8.660263671875,4.863411903381348,6.502495765686035,-2.0410776138305664
1711552133222223600,8.6792236328125,4.986642360687256,5.795416355133057,-2.2133610248565674
1711552133241183700,8.698183837890625,4.9124650955200195,5.528616905212402,-2.53399920463562
1711552133260143600,8.7171435546875,5.635097503662109,5.629115104675293,-2.276770830154419
1711552133279103700,8.736103759765625,5.923432350158691,6.588637351989746,-1.8460626602172852
1711552133298063600,8.755063720703125,6.051448345184326,6.619743824005127,-2.282752752304077
1711552133317023700,8.774023681640625,6.245266914367676,6.035895347595215,-3.0592236518859863
1711552133335983600,8.792983642578125,6.193821430206299,5.771488189697266,-3.5090744495391846
1711552133354943700,8.81194384765625,6.234499454498291,5.745167255401611,-3.713660717010498
1711552133373903600,8.830903564453125,6.502495765686035,5.441278457641602,-3.9864425659179688
1711552133392863700,8.84986376953125,6.433103561401367,5.2151570320129395,-4.253242015838623
1711552133411823600,8.86882373046875,6.2500529289245605,5.419743061065674,-4.222135543823242
1711552133430783700,8.88778369140625,6.196214199066162,5.5728840827941895,-3.8835511207580566
1711552133449743600,8.90674365234375,6.233303070068359,6.126822471618652,-3.3403804302215576
1711552133468703700,8.925703857421874,6.165107727050781,6.697510719299316,-2.7218358516693115
1711552133487663600,8.94466357421875,6.509674072265625,7.245467185974121,-2.0853450298309326
1711552133506623700,8.963623779296874,6.650850772857666,7.617550849914551,-1.3663017749786377
1711552133525583600,8.98258349609375,6.790830612182617,7.6498541831970215,-0.8745766878128052
1711552133544543700,9.001543701171874,6.440282344818115,7.622336387634277,-1.1258230209350586
1711552133563503600,9.020503662109375,6.51326322555542,7.167700290679932,-2.297109842300415
1711552133582463700,9.039463623046874,6.725028038024902,6.67717170715332,-3.0101709365844727
1711552133601423600,9.058423583984375,6.880561351776123,6.770491600036621,-2.7457640171051025
1711552133620383700,9.0773837890625,7.288537979125977,6.732206344604492,-2.155933141708374
1711552133639343600,9.096343505859375,7.3878397941589355,6.723831653594971,-2.5399811267852783
1711552133658303700,9.1153037109375,7.10429048538208,6.814758777618408,-2.495713949203491
1711552133677263600,9.134263671875,7.21316385269165,6.671189308166504,-2.2779672145843506
1711552133696223700,9.1532236328125,7.196413993835449,6.474977970123291,-2.0673987865448
1711552133715183600,9.17218359375,6.812366008758545,6.350551128387451,-1.7826528549194336
1711552133734143700,9.191143798828126,6.45822811126709,6.380461692810059,-1.6366907358169556
1711552133753103600,9.210103515625,6.623332977294922,6.372086524963379,-1.8628123998641968
1711552133772063700,9.229063720703126,6.685546398162842,6.369693756103516,-2.043470621109009
1711552133791023600,9.248023681640625,6.754938125610352,6.306283950805664,-2.359323024749756
1711552133809983700,9.266983642578126,6.87099027633667,6.106483459472656,-2.3641088008880615
1711552133828943600,9.285943603515625,7.019345283508301,6.416353702545166,-2.469393014907837
1711552133847903700,9.30490380859375,7.149754047393799,5.876772403717041,-2.562713146209717
1711552133866863600,9.323863525390625,7.351947784423828,5.398207664489746,-2.50289249420166
1711552133885823700,9.34282373046875,7.3878397941589355,5.295316696166992,-2.8139593601226807
1711552133904783600,9.36178369140625,7.238288402557373,5.44008207321167,-3.387040376663208
1711552133923743700,9.38074365234375,7.456035137176514,5.582455158233643,-3.1932218074798584
1711552133942703600,9.39970361328125,7.660621643066406,5.307280540466309,-2.609373092651367
1711552133961663700,9.418663818359375,7.234699249267578,5.764309883117676,-2.410768747329712
1711552133980623600,9.43762353515625,6.8482584953308105,5.827719688415527,-2.641676187515259
1711552133999583700,9.456583740234375,6.64486837387085,5.9437713623046875,-2.737389087677002
1711552134018543600,9.475543701171874,6.971488952636719,5.866004943847656,-2.562713146209717
1711552134037503700,9.494503662109375,7.17368221282959,6.0777692794799805,-2.2743778228759766
1711552134056463600,9.513463623046874,6.782455921173096,6.222535133361816,-2.20737886428833
1711552134075423700,9.532423828125,6.2105712890625,6.299105644226074,-2.421536445617676
1711552134094383600,9.551383544921874,6.056233882904053,6.206982135772705,-2.6021945476531982
1711552134113343700,9.57034375,5.6685967445373535,6.180660724639893,-3.043670415878296
1711552134132303600,9.5893037109375,5.6685967445373535,5.98444938659668,-3.0113673210144043
1711552134151263500,9.608263427734375,6.534798622131348,5.983253002166748,-2.7637102603912354
1711552134170223600,9.6272236328125,7.161718368530273,6.045466423034668,-3.1968109607696533
1711552134189183500,9.64618359375,7.47637414932251,5.67338228225708,-4.063013076782227
1711552134208143600,9.6651435546875,7.183253765106201,5.983253002166748,-4.537988185882568
1711552134227103500,9.684103515625,7.050451755523682,6.320641040802002,-4.374079704284668
1711552134246063600,9.703063720703126,7.172485828399658,6.260820388793945,-3.363112211227417
1711552134265023500,9.7220234375,7.372286796569824,6.189035892486572,-2.255235433578491
1711552134283983400,9.7409833984375,7.377072334289551,6.681957244873047,-4.028316974639893
1711552134302943500,9.759943603515625,7.073183536529541,6.329015731811523,-4.5391845703125
1711552134321903400,9.7789033203125,7.418946743011475,6.128018856048584,-4.479363918304443
1711552134340863500,9.797863525390625,7.161718368530273,5.889933109283447,-5.020142078399658
1711552134359823400,9.8168232421875,6.616154670715332,5.551348686218262,-5.431707382202148
1711552134378783200,9.835783203125,6.317051887512207,5.356333255767822,-5.0117669105529785
1711552134397743400,9.854743408203126,6.662814617156982,5.3312087059021,-4.683950424194336
1711552134416703200,9.873703125,7.004988193511963,4.533202648162842,-4.755734920501709
1711552134435663400,9.892663330078125,6.9068827629089355,3.7016966342926025,-4.871787071228027
1711552134454623200,9.911623291015625,6.794419765472412,3.7124643325805664,-4.9435715675354
1711552134473583000,9.9305830078125,6.8997039794921875,3.8081772327423096,-4.942375183105469
1711552134492543200,9.949543212890624,7.054041385650635,3.8428730964660645,-4.899304389953613
1711552134511503000,9.968503173828125,7.287341594696045,3.7256247997283936,-4.622933387756348
1711552134530463200,9.987463134765624,7.34476900100708,3.906282901763916,-4.418346881866455
1711552134549423000,10.006423095703125,7.430910587310791,3.9696927070617676,-3.9696927070617676
1711552134568383200,10.02538330078125,7.58644437789917,3.9290146827697754,-3.9601213932037354
1711552134587343000,10.044343017578125,7.980063438415527,3.4672000408172607,-4.645665168762207
1711552134606303000,10.063302978515624,8.120043754577637,2.6608188152313232,-5.247459888458252
1711552134625263000,10.08226318359375,8.12123966217041,2.7601208686828613,-6.4354963302612305
1711552134644223000,10.101222900390624,7.954938888549805,3.0065815448760986,-5.686542987823486
1711552134663183000,10.12018310546875,7.9860453605651855,3.682554006576538,-4.95074987411499
1711552134682143000,10.13914306640625,7.7730841636657715,3.933800458908081,-4.930410861968994
1711552134701102800,10.158102783203125,7.659425258636475,3.9661035537719727,-4.768895626068115
1711552134720063000,10.17706298828125,7.987242221832275,3.8500516414642334,-4.335794448852539
1711552134739022800,10.19602294921875,8.067401885986328,3.7674992084503174,-4.689932346343994
1711552134757982700,10.214982666015626,7.995616912841797,3.4959139823913574,-5.357530117034912
1711552134776942800,10.23394287109375,8.078168869018555,3.5234313011169434,-5.207978248596191
1711552134795902700,10.25290283203125,8.148757934570312,3.401397466659546,-4.376472473144531
1711552134814862600,10.271862548828125,8.011170387268066,3.452843189239502,-5.00578498840332
1711552134833822700,10.29082275390625,7.642675399780273,3.2997024059295654,-5.374279499053955
1711552134852782600,10.309782470703125,7.27537727355957,3.3511481285095215,-5.276174068450928
1711552134871742500,10.328742431640626,7.003791809082031,3.4911282062530518,-4.977071285247803
1711552134890702600,10.34770263671875,7.044469833374023,3.5377883911132812,-4.595416069030762
1711552134909662500,10.366662353515625,7.024130821228027,4.18983268737793,-4.6372904777526855
1711552134928622600,10.38562255859375,6.959524631500244,4.780859470367432,-4.730610370635986
1711552134947582500,10.40458251953125,7.341179847717285,4.892126083374023,-4.488935470581055
1711552134966542300,10.423542236328124,7.700103282928467,4.1659040451049805,-4.95912504196167
1711552134985502500,10.44250244140625,7.7252278327941895,3.2063822746276855,-5.691328525543213
1711552135004462300,10.46146240234375,7.393822193145752,3.157329559326172,-5.618347644805908
1711552135023422200,10.480422119140625,7.2227349281311035,3.245863914489746,-5.529813289642334
1711552135042382300,10.49938232421875,7.117451190948486,3.3403804302215576,-5.253442287445068
1711552135061342200,10.51834228515625,7.125825881958008,3.6813576221466064,-5.123033046722412
1711552135080302000,10.537302001953124,6.964310169219971,3.814159393310547,-5.472385406494141
1711552135099262000,10.556261962890625,6.959524631500244,4.045066833496094,-5.542973518371582
1711552135118222000,10.57522216796875,7.0923261642456055,4.402793884277344,-5.525027275085449
1711552135137182000,10.594181884765625,7.420143127441406,4.497310161590576,-5.56450891494751
1711552135156142000,10.61314208984375,7.64865779876709,4.521238327026367,-5.264209747314453
1711552135175102000,10.63210205078125,7.441678524017334,4.758127689361572,-5.107480049133301
1711552135194061800,10.651061767578126,7.271788120269775,4.741377830505371,-5.6793646812438965
1711552135213022000,10.67002197265625,7.651050567626953,4.399204254150391,-5.678168296813965
1711552135231981800,10.68898193359375,7.280162811279297,4.2987060546875,-5.570491313934326
1711552135250941700,10.707941650390625,6.794419765472412,4.213760852813721,-5.60399055480957
1711552135269901600,10.726901611328126,6.647261142730713,4.394418716430664,-5.307280540466309
1711552135288861700,10.74586181640625,6.833901405334473,4.333401679992676,-5.01296329498291
1711552135307821600,10.764821533203126,6.867401123046875,4.143172264099121,-4.934000492095947
1711552135326781400,10.783781494140625,7.000202655792236,3.9972102642059326,-5.478367328643799
1711552135345741600,10.802741455078126,6.914061069488525,4.231706619262695,-5.678168296813965
1711552135364701400,10.821701416015625,6.990631580352783,4.516452789306641,-5.6590256690979
1711552135383661300,10.840661376953125,7.1820573806762695,4.387240409851074,-5.071587562561035
1711552135402621400,10.859621337890625,7.117451190948486,4.436293125152588,-4.9363932609558105
1711552135421581300,10.878581298828125,7.210771083831787,4.486542224884033,-5.300102233886719
1711552135440541200,10.897541259765624,7.231110095977783,4.603790760040283,-5.337191104888916
1711552135459501000,10.9165009765625,7.354340553283691,4.460221290588379,-5.592026710510254
1711552135478461200,10.935461181640624,7.325626373291016,4.2245283126831055,-5.795416355133057
1711552135497421000,10.954421142578125,7.079165935516357,4.074976921081543,-5.680561065673828
1711552135516381000,10.973380859375,7.050451755523682,3.9948174953460693,-5.419743061065674
1711552135535340800,10.9923408203125,7.113861560821533,3.838087558746338,-5.186442852020264
1711552135554301000,11.011301025390624,7.134200572967529,3.8871402740478516,-5.377869129180908
1711552135573260800,11.0302607421875,6.928418159484863,4.095315933227539,-5.670989513397217
1711552135592221000,11.049220947265624,6.988238334655762,3.926621913909912,-5.55015230178833
1711552135611180800,11.068180908203125,7.0923261642456055,3.8799619674682617,-5.170889854431152
1711552135630140700,11.087140625,7.087540626525879,3.9122650623321533,-5.06799840927124
1711552135649100500,11.1061005859375,6.911668300628662,3.950550079345703,-5.385047435760498
1711552135668060700,11.125060791015626,6.9822564125061035,4.140779495239258,-5.264209747314453
1711552135687020500,11.1440205078125,7.037291526794434,4.316651821136475,-5.185246467590332
1711552135705980400,11.16298046875,7.22034215927124,4.30588436126709,-5.069194793701172
1711552135724940500,11.1819404296875,7.334001541137695,4.451846599578857,-5.095515727996826
1711552135743900400,11.200900390625,7.252645492553711,4.660022258758545,-5.442475318908691
1711552135762860300,11.2198603515625,7.307680130004883,4.557130813598633,-5.413761138916016
1711552135781820400,11.2388203125,7.137789726257324,4.419543266296387,-5.030909538269043
1711552135800780300,11.2577802734375,7.055237770080566,4.18863582611084,-5.006981372833252
1711552135819740200,11.276740234375,7.022934436798096,4.363312244415283,-4.97348165512085
1711552135838700300,11.2957001953125,7.177271366119385,4.488935470581055,-5.093122959136963
1711552135857660200,11.31466015625,7.177271366119385,4.5475592613220215,-4.962714195251465
1711552135876620000,11.3336201171875,7.16650390625,4.474578380584717,-4.986642360687256
1711552135895580200,11.352580078125,7.141379356384277,4.366901397705078,-5.174479007720947
1711552135914540000,11.3715400390625,7.239484786987305,4.17427921295166,-5.107480049133301
1711552135933500000,11.3905,7.210771083831787,4.218546390533447,-4.930410861968994
1711552135952459800,11.409459716796874,7.324429988861084,4.273581027984619,-5.0225348472595215
1711552135971420000,11.428419921875,7.416553974151611,4.214957237243652,-5.173282623291016
1711552135990379800,11.4473798828125,7.434499740600586,4.1730828285217285,-5.127819061279297
1711552136009340000,11.46633984375,7.377072334289551,4.150351047515869,-5.0943193435668945
1711552136028299800,11.4852998046875,7.390232563018799,4.231706619262695,-5.444868087768555
1711552136047259600,11.504259765625,7.587640762329102,3.864408493041992,-5.651846885681152
1711552136066219800,11.5232197265625,7.679764270782471,3.7052857875823975,-5.594419479370117
1711552136085179600,11.5421796875,7.460821151733398,3.671786308288574,-5.513063430786133
1711552136104139500,11.561139404296876,7.29810905456543,3.8057844638824463,-5.458028316497803
1711552136123099600,11.580099609375,7.2095746994018555,3.9840497970581055,-5.136193752288818
1711552136142059500,11.5990595703125,7.271788120269775,3.957728624343872,-5.00578498840332
1711552136161019400,11.618019287109375,7.227520942687988,3.830909013748169,-4.796412944793701
1711552136179979300,11.636979248046876,7.201199531555176,3.9744784832000732,-4.876572608947754
1711552136198939400,11.655939453125,7.253841876983643,4.145565032958984,-4.9292144775390625
1711552136217899300,11.674899169921876,7.318448066711426,4.1036906242370605,-5.066802024841309
1711552136236859100,11.693859130859375,7.3914289474487305,4.101297855377197,-5.13021183013916
1711552136255819300,11.7128193359375,7.435696601867676,4.000799655914307,-5.264209747314453
1711552136274779100,11.731779052734375,7.417750358581543,3.87876558303833,-5.407779216766357
1711552136293739300,11.7507392578125,7.403393268585205,3.8009986877441406,-5.3347978591918945
1711552136312699100,11.76969921875,7.332805156707764,3.7639100551605225,-5.223531723022461
1711552136331659300,11.7886591796875,7.335197925567627,3.7878382205963135,-5.4556355476379395
1711552136350619100,11.807619140625,7.375875949859619,3.841676712036133,-5.322834014892578
1711552136369579000,11.8265791015625,7.221538543701172,3.8811583518981934,-5.13021183013916
1711552136388539100,11.8455390625,7.204789161682129,3.8763725757598877,-5.093122959136963
1711552136407499000,11.8644990234375,7.264609336853027,3.8943188190460205,-5.024927616119385
1711552136426459000,11.883458984375,7.326822757720947,3.9278182983398438,-5.107480049133301
1711552136445419000,11.9024189453125,7.3878397941589355,3.9529430866241455,-5.172086238861084
1711552136464379000,11.92137890625,7.302894592285156,3.9972102642059326,-5.02133846282959
1711552136483338800,11.9403388671875,7.301698207855225,3.9661035537719727,-5.0943193435668945
1711552136502299000,11.959298828125,7.477570533752441,3.9290146827697754,-5.461617469787598
1711552136521258800,11.9782587890625,7.448856830596924,3.882354736328125,-5.358726501464844
1711552136540218600,11.997218505859376,7.408178806304932,3.9182469844818115,-5.406582832336426
1711552136559178800,12.0161787109375,7.445267677307129,3.8907296657562256,-5.563312530517578
1711552136578138600,12.035138671875,7.442874908447266,3.82373046875,-5.662614822387695
1711552136597098800,12.0540986328125,7.472784996032715,3.7459638118743896,-5.638686656951904
1711552136616058600,12.07305859375,7.328019142150879,3.6957144737243652,-5.554937839508057
1711552136635018800,12.092018798828125,7.261020183563232,3.6646077632904053,-5.571687698364258
1711552136653978600,12.110978515625,7.328019142150879,3.6646077632904053,-5.497509956359863
1711552136672938800,12.129938720703125,7.3399834632873535,3.627519130706787,-5.474778175354004
1711552136691898600,12.148898681640626,7.294519901275635,3.704089403152466,-5.489135265350342
1711552136710858500,12.1678583984375,7.351947784423828,3.7112679481506348,-5.353940486907959
1711552136729818600,12.186818603515626,7.259823799133301,3.844069480895996,-5.133800983428955
1711552136748778500,12.205778564453125,7.283751964569092,3.9074792861938477,-5.190032482147217
1711552136767738600,12.224738525390626,7.3052873611450195,3.7842490673065186,-5.209175109863281
1711552136786698500,12.243698486328125,7.3052873611450195,3.796213150024414,-5.468796253204346
1711552136805658400,12.262658447265625,7.208378314971924,4.122833251953125,-5.2869415283203125
1711552136824618500,12.281618408203125,7.323233604431152,4.752145767211914,-4.83469820022583
1711552136843578400,12.300578369140625,7.950153350830078,3.7292141914367676,-5.614758491516113
1711552136862538500,12.31953857421875,7.919046401977539,2.853440999984741,-6.256034851074219
1711552136881498400,12.338498291015625,7.5637125968933105,2.706282377243042,-6.31944465637207
1711552136900458200,12.357458251953124,6.930810928344727,3.153740167617798,-5.976074695587158
1711552136919418400,12.37641845703125,7.144968509674072,3.324826955795288,-5.60399055480957
1711552136938378200,12.395378173828124,7.3304123878479,3.10109806060791,-5.010570526123047
1711552136957338400,12.41433837890625,7.424928665161133,2.6847469806671143,-4.503292083740234
1711552136976298200,12.43329833984375,7.379465103149414,2.7936203479766846,-4.334598064422607
1711552136995258400,12.45225830078125,7.603193759918213,3.2338998317718506,-4.247260093688965
1711552137014218200,12.47121826171875,7.730013370513916,4.0079779624938965,-4.130012035369873
1711552137033178400,12.490178466796875,7.496713161468506,4.366901397705078,-4.880161762237549
1711552137052138200,12.50913818359375,7.188039302825928,4.338187217712402,-4.96630334854126
1711552137071098000,12.52809814453125,7.156932353973389,4.694717884063721,-4.928018093109131
1711552137090058200,12.547058349609374,8.023134231567383,4.179064750671387,-5.277370452880859
1711552137109018000,12.56601806640625,8.23848819732666,3.2817561626434326,-5.983253002166748
1711552137127978200,12.584978271484376,7.6869425773620605,3.2925238609313965,-6.474977970123291
1711552137146938000,12.603938232421875,7.4979095458984375,3.6155550479888916,-5.7619171142578125
1711552137165898200,12.622898193359376,7.4261250495910645,3.6131622791290283,-5.169693470001221
1711552137184858000,12.641858154296875,7.186842918395996,3.733999729156494,-4.815555572509766
1711552137203818200,12.660818359375,6.9236321449279785,3.841676712036133,-5.0979084968566895
1711552137222778000,12.679778076171875,6.943971157073975,4.350151538848877,-4.7365922927856445
1711552137241738200,12.69873828125,7.109076023101807,4.785645484924316,-4.748556613922119
1711552137260698000,12.717697998046875,6.7692952156066895,4.875376224517822,-4.833501815795898
1711552137279658200,12.736658203125,6.915257453918457,4.923232555389404,-4.614558696746826
1711552137298618000,12.7556181640625,7.133004188537598,5.218746185302734,-4.509274482727051
1711552137317578200,12.774578125,6.794419765472412,5.410171985626221,-4.470989227294922
1711552137336538000,12.7935380859375,6.764509677886963,5.43290376663208,-4.974678039550781
1711552137355498000,12.812498046875,6.593422889709473,5.398207664489746,-5.108676433563232
1711552137374458000,12.8314580078125,6.685546398162842,5.318048477172852,-4.498506546020508
1711552137393418200,12.850418212890625,6.879364967346191,5.335994720458984,-4.247260093688965
1711552137412378000,12.869378173828125,6.473781585693359,5.625525951385498,-4.232903480529785
1711552137431338000,12.888337890625,6.3840508460998535,5.808577060699463,-4.473381996154785
1711552137450298000,12.907298095703124,6.401997089385986,6.137589931488037,-4.335794448852539
1711552137469258200,12.92625830078125,6.076572895050049,7.146164894104004,-4.001996040344238
1711552137488218000,12.945218017578124,6.437889099121094,6.896114826202393,-3.6059837341308594
1711552137507178200,12.96417822265625,5.498706340789795,6.803991317749023,-4.2987060546875
1711552137526138000,12.98313818359375,5.815755367279053,6.1950178146362305,-3.9672999382019043
1711552137545098200,13.00209814453125,5.989234924316406,6.285944938659668,-4.295116424560547
1711552137564058000,13.02105810546875,5.8097734451293945,6.405586242675781,-4.396811485290527
1711552137583018200,13.040018310546875,5.828916072845459,7.036095142364502,-4.326223373413086
1711552137601978000,13.05897802734375,6.040680885314941,7.347161769866943,-4.175475597381592
1711552137620938200,13.077938232421875,5.724828243255615,7.623532772064209,-4.015156269073486
1711552137639898000,13.096898193359374,5.86002254486084,7.817351341247559,-3.3990044593811035
1711552137658858200,13.115858154296875,6.150750637054443,7.775477409362793,-3.1824541091918945
1711552137677818000,13.134818115234374,5.574080467224121,8.303094863891602,-2.827120065689087
1711552137696778200,13.1537783203125,5.272584915161133,8.094919204711914,-2.2396819591522217
1711552137715738000,13.172738037109376,4.8227338790893555,7.6666035652160645,-2.0721843242645264
1711552137734698200,13.1916982421875,4.88853645324707,7.878368377685547,-2.0039889812469482
1711552137753658000,13.210658203125,4.9878387451171875,8.191828727722168,-1.679761528968811
1711552137772618200,13.2296181640625,5.3216376304626465,8.311469078063965,-1.9298114776611328
1711552137791578400,13.248578369140626,5.260620594024658,7.923832416534424,-2.717050075531006
1711552137810538200,13.267538330078125,5.413761138916016,7.907082557678223,-3.2793633937835693
1711552137829498400,13.286498291015626,5.224728107452393,8.126026153564453,-3.4468610286712646
1711552137848458200,13.305458251953125,4.7030930519104,8.438288688659668,-3.242274761199951
1711552137867418400,13.32441845703125,4.961517810821533,8.275577545166016,-2.6297121047973633
1711552137886378200,13.343378173828125,5.399404525756836,8.13798999786377,-2.0650060176849365
1711552137905338400,13.36233837890625,4.721039295196533,8.428717613220215,-1.919043779373169
1711552137924298200,13.38129833984375,4.488935470581055,8.665607452392578,-2.117648124694824
1711552137943258400,13.40025830078125,4.548755645751953,8.9312105178833,-1.9094724655151367
1711552137962218200,13.41921826171875,5.0464630126953125,9.275776863098145,-1.6582261323928833
1711552137981178400,13.438178466796876,4.36091947555542,8.910871505737305,-1.5002998113632202
1711552138000138500,13.457138427734375,4.068994998931885,8.48853874206543,-1.5744773149490356
1711552138019098400,13.476098388671875,4.18983268737793,8.183453559875488,-1.3124631643295288
1711552138038058500,13.49505859375,4.135993957519531,7.988438606262207,-1.545763373374939
1711552138057018400,13.514018310546875,4.225724697113037,8.002795219421387,-1.4919248819351196
1711552138075978500,13.532978515625,4.052245140075684,8.534002304077148,-1.3256237506866455
1711552138094938400,13.5519384765625,4.071387767791748,8.616554260253906,-1.2693923711776733
1711552138113898500,13.5708984375,4.309473514556885,8.404789924621582,-1.176072359085083
1711552138132858400,13.5898583984375,4.118047714233398,8.70628547668457,-0.8255237936973572
1711552138151818500,13.608818603515624,3.9314076900482178,9.20279598236084,-0.2967100143432617
1711552138170778400,13.6277783203125,4.0666022300720215,8.913264274597168,-0.01196411345154047
1711552138189738500,13.646738525390624,3.9421753883361816,8.62612533569336,0.5252245664596558
1711552138208698600,13.66569873046875,4.1036906242370605,8.437092781066895,1.129412293434143
1711552138227658500,13.684658447265624,3.975674867630005,8.120043754577637,1.042074203491211
1711552138246618600,13.70361865234375,3.451646566390991,7.836493968963623,0.916451096534729
1711552138265578500,13.72257861328125,2.740978240966797,7.9489569664001465,1.246660590171814
1711552138284538600,13.74153857421875,2.583052158355713,8.189435958862305,1.8161523342132568
1711552138303498500,13.76049853515625,2.7349963188171387,8.98385238647461,1.9764715433120728
1711552138322458600,13.779458740234375,2.8247270584106445,9.255437850952148,2.1750757694244385
1711552138341418500,13.79841845703125,2.6536402702331543,9.237491607666016,2.059023857116699
1711552138360378600,13.817378662109375,2.0997018814086914,9.640682220458984,1.7670994997024536
1711552138379338500,13.83633837890625,2.062613010406494,10.1814603805542,1.4273186922073364
1711552138398298600,13.855298583984375,2.6464617252349854,10.48534870147705,1.7635103464126587
1711552138417258500,13.874258544921876,2.702693223953247,10.419546127319336,1.8711873292922974
1711552138436218600,13.893218505859375,2.245664119720459,10.277173042297363,1.3148560523986816
1711552138455178500,13.912178466796876,1.6187444925308228,10.747363090515137,1.3770694732666016
1711552138474138600,13.931138671875,1.7838492393493652,11.181660652160645,1.5756736993789673
1711552138493098800,13.9500986328125,1.7359927892684937,10.886146545410156,1.4105689525604248
1711552138512058600,13.96905859375,1.97407865524292,10.472187995910645,1.9657038450241089
1711552138531018800,13.988018798828126,2.1990039348602295,10.179067611694336,2.2372891902923584
1711552138549978600,14.006978515625,1.9465612173080444,10.147960662841797,1.7312071323394775
1711552138568938800,14.025938720703126,1.7276179790496826,10.402796745300293,0.9846464991569519
1711552138587898600,14.044898681640625,1.7778671979904175,10.49252700805664,0.6831508874893188
1711552138606858800,14.063858642578126,1.9657038450241089,10.335797309875488,1.0169496536254883
1711552138625818600,14.082818603515625,2.365305185317993,10.262816429138184,1.7479569911956787
1711552138644778800,14.10177880859375,2.3473589420318604,10.112068176269531,1.633101463317871
1711552138663738600,14.120738525390625,1.8843477964401245,10.3681001663208,1.3950155973434448
1711552138682698800,14.13969873046875,1.633101463317871,10.587043762207031,1.5792629718780518
1711552138701658600,14.15865869140625,1.825723648071289,10.29870891571045,2.2372891902923584
1711552138720618800,14.17761865234375,2.3952155113220215,9.842875480651855,2.407179594039917
1711552138739578600,14.19657861328125,2.0003998279571533,9.783055305480957,2.2648067474365234
1711552138758538800,14.215538818359375,1.456032633781433,9.78544807434082,1.9357935190200806
1711552138777498600,14.23449853515625,1.1820544004440308,9.223134994506836,1.7587246894836426
1711552138796458800,14.253458740234375,1.6809579133987427,8.668000221252441,2.091326951980591
1711552138815418600,14.272418701171874,1.038485050201416,8.796015739440918,2.63449764251709
1711552138834378800,14.291378662109375,0.8865407705307007,8.834300994873047,2.5363919734954834
1711552138853338600,14.310338623046874,0.7393822073936462,8.636893272399902,2.204986095428467
1711552138872298800,14.329298828125,0.6293123364448547,8.541180610656738,2.5459632873535156
1711552138891258600,14.348258544921874,0.8219345808029175,8.133204460144043,3.70767879486084
1711552138910218800,14.36721875,1.0265209674835205,7.616354465484619,4.152743816375732
1711552138929178600,14.3861787109375,0.9212366938591003,7.393822193145752,4.040280818939209
1711552138948138800,14.405138671875,1.4727823734283447,7.731209754943848,4.504488468170166
1711552138967098600,14.4240986328125,1.836491346359253,8.197810173034668,4.371686935424805
1711552138986058500,14.44305859375,2.772084951400757,8.306683540344238,3.641875982284546
1711552139005018600,14.4620185546875,2.478964328765869,7.549355506896973,3.3343982696533203
1711552139023978500,14.480978515625,1.9860427379608154,7.2095746994018555,4.025924205780029
1711552139042938600,14.499938720703126,1.8245272636413574,8.506484031677246,4.913661479949951
1711552139061898500,14.5188984375,1.4763715267181396,8.103293418884277,5.364708423614502
1711552139080858600,14.537858642578126,1.5409778356552124,6.9583282470703125,5.819344520568848
1711552139099818500,14.556818603515625,1.1581261157989502,5.839683532714844,6.8554368019104
1711552139118778600,14.575778564453126,0.916451096534729,5.133800983428955,8.58185863494873
1711552139137738500,14.594738525390625,0.5264210104942322,4.88853645324707,10.41476058959961
1711552139156698600,14.61369873046875,0.28594231605529785,4.565505504608154,11.48794174194336
1711552139175658500,14.632658447265625,0.5730810165405273,3.94815731048584,11.453245162963867
1711552139194618600,14.65161865234375,0.34576287865638733,2.9754750728607178,10.620543479919434
1711552139213578500,14.67057861328125,-0.607776939868927,2.3712873458862305,10.04148006439209
1711552139232538400,14.689538330078125,-1.892722725868225,2.7326035499572754,9.724431037902832
1711552139251498500,14.70849853515625,-2.60339093208313,3.142972469329834,9.030512809753418
1711552139270458400,14.727458251953125,-2.8426733016967773,2.6356940269470215,8.545966148376465
1711552139289418500,14.74641845703125,-2.9838497638702393,2.0757737159729004,8.474181175231934
1711552139308378400,14.76537841796875,-3.473181962966919,2.524427890777588,9.251849174499512
1711552139327338500,14.78433837890625,-4.051048755645752,3.9433717727661133,10.600204467773438
1711552139346298400,14.80329833984375,-4.246063709259033,3.6083765029907227,11.052447319030762
1711552139365258200,14.82225830078125,-3.077169895172119,2.5351955890655518,10.99741268157959
1711552139384218400,14.84121826171875,-2.633301258087158,1.8831514120101929,11.284551620483398
1711552139403178200,14.86017822265625,-2.843869686126709,1.1042876243591309,10.785648345947266
1711552139422138400,14.879138427734375,-3.566502094268799,0.3409772217273712,9.278169631958008
1711552139441098200,14.89809814453125,-3.617947816848755,0.08135596662759781,8.565108299255371
1711552139460058000,14.91705810546875,-3.555734395980835,0.16749759018421173,7.927421569824219
1711552139479018200,14.936018310546874,-3.174079179763794,-0.07178468257188797,7.658228874206543
1711552139497978000,14.95497802734375,-2.5112674236297607,-0.5108676552772522,8.197810173034668
1711552139516938200,14.973938232421874,-1.8831514120101929,-1.215553879737854,8.915657043457031
1711552139535898000,14.992898193359375,-1.836491346359253,-1.435693621635437,8.82114028930664
1711552139554858000,15.01185791015625,-1.9310078620910645,-1.3196417093276978,8.554341316223145
1711552139573818000,15.030818115234375,-1.8472590446472168,-1.6869399547576904,8.37009334564209
1711552139592778200,15.0497783203125,-1.8029918670654297,-1.698904037475586,8.159524917602539
1711552139611738000,15.068738037109375,-1.3351950645446777,-0.9487541913986206,8.079365730285645
1711552139630698000,15.087697998046876,-1.0121639966964722,-1.2562319040298462,6.646064758300781
1711552139649658000,15.106658203125,-2.551945447921753,-2.2612173557281494,4.960321426391602
1711552139668618000,15.125617919921876,-2.9766714572906494,-2.531606435775757,6.97986364364624
1711552139687577900,15.144577880859375,-3.524627685546875,-3.7902309894561768,9.245866775512695
1711552139706538000,15.1635380859375,-3.4480574131011963,-4.369294166564941,11.173285484313965
1711552139725497900,15.182497802734375,-2.702693223953247,-3.3343982696533203,11.753544807434082
1711552139744457700,15.201457763671876,-1.6354942321777344,-2.7397818565368652,10.831111907958984
1711552139763417900,15.22041796875,-1.2837493419647217,-3.524627685546875,9.67657470703125
1711552139782377700,15.239377685546875,-1.7754744291305542,-4.211368083953857,8.23250675201416
1711552139801337600,15.258337646484375,-2.478964328765869,-4.004388809204102,7.311269760131836
1711552139820297700,15.277297607421875,-3.3403804302215576,-3.724428415298462,7.261020183563232
1711552139839257600,15.296257568359374,-3.3822548389434814,-3.775874137878418,7.683353424072266
1711552139858217500,15.315217529296875,-2.6021945476531982,-3.4480574131011963,8.703892707824707
1711552139877177600,15.334177490234374,-2.2612173557281494,-3.056830883026123,9.355937004089355
1711552139896137500,15.353137451171875,-2.2241287231445312,-2.9108686447143555,9.871589660644531
1711552139915097600,15.37209765625,-2.2408783435821533,-2.912065267562866,9.77109146118164
1711552139934057500,15.391057373046875,-2.568695068359375,-3.2410783767700195,9.486345291137695
1711552139953017600,15.410017578125,-3.0855448246002197,-3.4372897148132324,9.07717227935791
1711552139971977500,15.4289775390625,-3.2614171504974365,-3.2709884643554688,8.761320114135742
1711552139990937300,15.447937255859374,-2.9347970485687256,-3.3332018852233887,8.681160926818848
1711552140009897500,15.4668974609375,-2.641676187515259,-3.297309637069702,8.912068367004395
1711552140028857300,15.485857421875,-2.469393014907837,-3.078366279602051,9.480362892150879
1711552140047817200,15.504817138671875,-2.3916261196136475,-2.9204399585723877,9.77826976776123
1711552140066777000,15.523777099609376,-2.4335005283355713,-2.974278450012207,9.554540634155273
1711552140085737200,15.5427373046875,-2.431107759475708,-3.3643085956573486,9.396614074707031
1711552140104697000,15.561697021484376,-2.407179594039917,-3.6634113788604736,9.007781028747559
1711552140123657000,15.580656982421875,-2.7050859928131104,-3.6191442012786865,8.659625053405762
1711552140142617000,15.5996171875,-2.788834810256958,-3.5808591842651367,8.69910717010498
1711552140161577000,15.618576904296875,-2.4646072387695312,-3.964907169342041,8.700303077697754
1711552140180537000,15.637537109375,-2.496910333633423,-3.9433717727661133,8.885746955871582
1711552140199497000,15.6564970703125,-2.579462766647339,-3.7770705223083496,9.169296264648438
1711552140218456800,15.675456787109376,-2.5663022994995117,-3.9493536949157715,9.32722282409668
1711552140237416700,15.694416748046875,-2.526820659637451,-4.11206579208374,9.109476089477539
1711552140256376800,15.713376953125,-2.7038896083831787,-4.033102512359619,8.760123252868652
1711552140275336700,15.732336669921875,-2.7146573066711426,-4.104887008666992,8.628518104553223
1711552140294296600,15.751296630859375,-2.5674986839294434,-4.107280254364014,8.294719696044922
1711552140313256700,15.770256591796874,-2.480160713195801,-3.9672999382019043,8.404789924621582
1711552140332216600,15.789216552734375,-2.3054845333099365,-3.8333017826080322,8.770891189575195
1711552140351176400,15.808176513671874,-1.8999011516571045,-3.827319860458374,9.372686386108398
1711552140370136300,15.82713623046875,-1.8436698913574219,-3.82373046875,9.41336441040039
1711552140389096400,15.846096435546874,-1.7371892929077148,-3.486342668533325,8.998209953308105
1711552140408056300,15.865056396484375,-1.9597218036651611,-2.994617462158203,8.755337715148926
1711552140427016200,15.88401611328125,-2.194218397140503,-2.554338216781616,8.981459617614746
1711552140445976300,15.902976318359375,-1.5589239597320557,-2.7290141582489014,8.847461700439453
1711552140464936200,15.921936279296874,-1.3722838163375854,-3.0269205570220947,7.485945701599121
1711552140483896000,15.94089599609375,-1.0719845294952393,-4.016352653503418,4.219742774963379
1711552140502856000,15.95985595703125,-1.1042876243591309,-1.817348837852478,4.1347975730896
1711552140521816000,15.978816162109375,-0.5156532526016235,-4.380061626434326,11.286944389343262
1711552140540776000,15.99777587890625,-4.460221290588379,-4.491328239440918,12.55274772644043
1711552140559735800,16.01673583984375,-2.678765058517456,-3.6083765029907227,11.33360481262207
1711552140578696000,16.035696044921874,-1.5708880424499512,-3.8727834224700928,12.191431045532227
1711552140597655800,16.05465576171875,-1.9214365482330322,-4.502095699310303,10.472187995910645
1711552140616615700,16.07361572265625,-2.392822742462158,-4.564309120178223,8.701499938964844
1711552140635575800,16.092575927734377,-2.2193429470062256,-4.565505504608154,8.195417404174805
1711552140654535700,16.11153564453125,-1.8999011516571045,-4.101297855377197,7.861618995666504
1711552140673495600,16.13049560546875,-1.698904037475586,-3.6095728874206543,7.557730197906494
1711552140692455400,16.149455322265624,-1.9932212829589844,-3.326023578643799,7.301698207855225
1711552140711415600,16.16841552734375,-2.445464849472046,-3.9433717727661133,7.135396957397461
1711552140730375400,16.18737548828125,-2.4777679443359375,-4.229313850402832,7.192824840545654
1711552140749335300,16.206335205078126,-2.4011974334716797,-4.7365922927856445,7.8903326988220215
1711552140768295400,16.22529541015625,-2.768495798110962,-4.826323509216309,9.035298347473145
1711552140787255300,16.24425537109375,-2.7349963188171387,-4.405186653137207,9.504291534423828
1711552140806215200,16.263215087890625,-2.242074728012085,-4.071387767791748,9.7998046875
1711552140825175000,16.282175048828126,-1.8532410860061646,-3.680161237716675,9.749555587768555
1711552140844135200,16.30113525390625,-1.6187444925308228,-3.266202926635742,9.239884376525879
1711552140863095000,16.320094970703124,-1.6019947528839111,-3.755535125732422,8.787641525268555
1711552140882055000,16.339054931640625,-1.8664016723632812,-4.336990833282471,8.797212600708008
1711552140901014800,16.358014892578126,-2.2121646404266357,-4.024727821350098,9.09272575378418
1711552140919975000,16.376974853515627,-2.201396942138672,-3.6023945808410645,9.262616157531738
1711552140938934800,16.395934814453124,-2.038684844970703,-3.6287155151367188,9.104690551757812
1711552140957894700,16.414894775390625,-2.0829520225524902,-4.073780536651611,8.956335067749023
1711552140976854800,16.433854736328126,-2.475374937057495,-4.207778453826904,8.708678245544434
1711552140995814700,16.452814697265627,-2.669193744659424,-4.191029071807861,8.45743179321289
1711552141014774500,16.4717744140625,-2.5184457302093506,-4.18145751953125,8.58185863494873
1711552141033734700,16.490734619140625,-2.0985054969787598,-4.177868366241455,8.732605934143066
1711552141052694500,16.509694580078126,-1.9848463535308838,-4.023531436920166,8.925228118896484
1711552141071654400,16.528654296875,-2.090130567550659,-3.810570001602173,9.083154678344727
1711552141090614300,16.5476142578125,-1.9728822708129883,-3.955335855484009,9.104690551757812
1711552141109574400,16.566574462890625,-2.0267207622528076,-4.213760852813721,9.044869422912598
1711552141128534300,16.5855341796875,-2.0614166259765625,-4.124029636383057,8.878568649291992
1711552141147494100,16.604494140625,-2.1678972244262695,-3.7698919773101807,8.636893272399902
1711552141166454300,16.623454345703124,-2.1415762901306152,-3.871587038040161,8.58903694152832
1711552141185414100,16.6424140625,-2.2325034141540527,-4.1383867263793945,8.63330364227295
1711552141204374300,16.661374267578125,-2.372483730316162,-4.0797624588012695,8.630910873413086
1711552141223334100,16.680334228515626,-2.2743778228759766,-4.029513359069824,8.647661209106445
1711552141242294000,16.6992939453125,-1.9441684484481812,-3.999603033065796,8.726624488830566
1711552141261254000,16.71825390625,-2.0650060176849365,-3.893122434616089,8.85942554473877
1711552141280214000,16.737214111328125,-2.0554347038269043,-3.9278182983398438,8.970691680908203
1711552141299174000,16.756173828125,-1.8903298377990723,-4.122833251953125,9.007781028747559
1711552141318133800,16.7751337890625,-1.9728822708129883,-4.0666022300720215,8.861818313598633
1711552141337094000,16.794093994140624,-2.14516544342041,-3.755535125732422,8.774480819702148
1711552141356053800,16.8130537109375,-1.8771693706512451,-3.803391695022583,8.892925262451172
1711552141375013600,16.832013671875,-1.7647067308425903,-3.9876389503479004,9.030512809753418
1711552141393973800,16.850973876953127,-1.9381862878799438,-3.988835334777832,8.898907661437988
1711552141412933600,16.86993359375,-2.1786649227142334,-3.961317777633667,8.778069496154785
1711552141431893800,16.888893798828125,-2.204986095428467,-4.0079779624938965,8.707481384277344
1711552141450853600,16.907853515625,-2.115255117416382,-3.937389612197876,8.632107734680176
1711552141469813500,16.9268134765625,-2.1439690589904785,-3.8189449310302734,8.732605934143066
1711552141488773600,16.945773681640624,-2.1822543144226074,-3.851248025894165,8.793622970581055
1711552141507733500,16.9647333984375,-2.0985054969787598,-4.005585193634033,8.898907661437988
1711552141526693400,16.983693359375,-2.0506489276885986,-4.054637908935547,8.910871505737305
1711552141545653200,17.0026533203125,-2.2097716331481934,-3.923032760620117,8.883354187011719
1711552141564613400,17.02161328125,-2.2504496574401855,-3.8464624881744385,8.83071231842041
1711552141583573200,17.0405732421875,-2.1894326210021973,-3.845266103744507,8.926424980163574
1711552141602533000,17.059533203125,-2.066202402114868,-3.731606960296631,8.9850492477417
1711552141621493200,17.0784931640625,-2.0554347038269043,-3.820141315460205,8.910871505737305
1711552141640453000,17.097453125,-2.1954147815704346,-3.806980848312378,8.947959899902344
1711552141659413000,17.1164130859375,-2.2157537937164307,-3.792623996734619,8.965906143188477
1711552141678373000,17.135373046875,-2.155933141708374,-3.8081772327423096,9.028120040893555
1711552141697333000,17.1543330078125,-2.132004976272583,-3.8392839431762695,9.025727272033691
1711552141716293000,17.173293212890623,-2.149951219558716,-3.9014973640441895,8.949156761169434
1711552141735253000,17.1922529296875,-2.1643080711364746,-3.902693748474121,8.906085968017578
1711552141754213000,17.211213134765625,-2.1678972244262695,-3.8739798069000244,8.94676399230957
1711552141773173000,17.230173095703126,-2.1056840419769287,-3.803391695022583,8.924032211303711
1711552141792133000,17.249133056640623,-2.1882362365722656,-3.728017568588257,9.035298347473145
1711552141811093000,17.268093017578124,-2.170290231704712,-3.7459638118743896,9.025727272033691
1711552141830052900,17.287052978515625,-2.128415822982788,-3.8703906536102295,8.947959899902344
1711552141849013000,17.306012939453126,-2.091326951980591,-3.9589250087738037,8.873783111572266
1711552141867972900,17.324972900390627,-2.3030917644500732,-3.8763725757598877,8.82951545715332
1711552141886932700,17.3439326171875,-2.170290231704712,-3.8907296657562256,8.810373306274414
1711552141905892900,17.362892822265625,-1.9716858863830566,-3.9433717727661133,8.80798053741455
1711552141924852700,17.381852783203126,-2.1272194385528564,-3.803391695022583,8.774480819702148
1711552141943812900,17.400812744140627,-2.0829520225524902,-3.946960926055908,8.745766639709473
1711552141962772700,17.419772705078124,-2.0781664848327637,-4.034298896789551,8.840283393859863
1711552141981732600,17.438732666015625,-2.14516544342041,-4.06540584564209,8.865407943725586
1711552142000692700,17.457692626953126,-2.139183521270752,-3.970889091491699,8.874979019165039
1711552142019652600,17.476652587890626,-2.053041934967041,-3.9768712520599365,8.805587768554688
1711552142038612700,17.49561279296875,-1.9609181880950928,-4.094119548797607,8.754141807556152
1711552142057572600,17.514572509765625,-2.062613010406494,-4.035495281219482,8.726624488830566
1711552142076532500,17.533532470703125,-2.1678972244262695,-4.045066833496094,8.724231719970703
1711552142095492600,17.55249267578125,-2.093719720840454,-4.132404804229736,8.730213165283203
1711552142114452500,17.571452392578124,-2.0315065383911133,-4.152743816375732,8.700303077697754
1711552142133412600,17.59041259765625,-2.111665964126587,-4.078566074371338,8.632107734680176
1711552142152372500,17.60937255859375,-2.1619153022766113,-4.071387767791748,8.656036376953125
1711552142171332600,17.62833251953125,-2.1930220127105713,-4.175475597381592,8.670392990112305
1711552142190292500,17.64729248046875,-2.0685951709747314,-4.161118507385254,8.788837432861328
1711552142209252600,17.666252685546876,-2.0709879398345947,-4.073780536651611,8.854640007019043
1711552142228212500,17.68521240234375,-1.9070796966552734,-4.085744857788086,8.873783111572266
1711552142247172600,17.704172607421874,-1.588834285736084,-4.222135543823242,8.886942863464355
1711552142266132500,17.723132568359375,-1.5074782371520996,-4.137190341949463,8.70508861541748
1711552142285092600,17.742092529296876,-1.7359927892684937,-4.101297855377197,8.624929428100586
1711552142304052500,17.761052490234373,-1.8460626602172852,-4.106083869934082,8.532805442810059
1711552142323012600,17.7800126953125,-1.5601203441619873,-4.364508628845215,8.323433876037598
1711552142341972500,17.798972412109375,-1.7252250909805298,-4.372883319854736,8.048258781433105
1711552142360932600,17.8179326171875,-1.832902193069458,-4.555934429168701,7.847261905670166
1711552142379892500,17.836892578125,-1.7886348962783813,-4.902893543243408,7.944170951843262
1711552142398852600,17.8558525390625,-2.060220241546631,-4.831109046936035,8.02791976928711
1711552142417812500,17.8748125,-2.589034080505371,-4.704289436340332,8.041080474853516
1711552142436772600,17.893772705078124,-2.572284460067749,-4.34536600112915,8.155936241149902
1711552142455732500,17.912732421875,-2.4921247959136963,-4.025924205780029,8.398807525634766
1711552142474692600,17.931692626953126,-2.359323024749756,-3.6430723667144775,8.628518104553223
1711552142493652500,17.950652587890627,-2.2301106452941895,-3.6131622791290283,8.767302513122559
1711552142512612600,17.969612548828124,-2.2205393314361572,-3.6442689895629883,9.028120040893555
1711552142531572500,17.988572509765625,-2.200200319290161,-3.655036687850952,9.227920532226562
1711552142550532600,18.00753271484375,-2.1571295261383057,-3.6430723667144775,9.370293617248535
1711552142569492500,18.026492431640627,-2.2265214920043945,-3.5377883911132812,9.475577354431152
1711552142588452600,18.04545263671875,-2.2923240661621094,-3.5844483375549316,9.414560317993164
1711552142607412500,18.06441259765625,-2.4981069564819336,-3.4851462841033936,9.293723106384277
1711552142626372600,18.08337255859375,-2.6464617252349854,-3.4193434715270996,9.09272575378418
1711552142645332500,18.10233251953125,-2.585444927215576,-3.6394832134246826,8.828319549560547
1711552142664292600,18.121292724609376,-2.788834810256958,-3.5676984786987305,8.592626571655273
1711552142683252500,18.14025244140625,-2.963510751724243,-3.518645763397217,8.476573944091797
1711552142702212600,18.159212646484374,-3.0041887760162354,-3.5234313011169434,8.543573379516602
1711552142721172500,18.17817236328125,-2.7637102603912354,-3.651447296142578,8.733802795410156
1711552142740132600,18.197132568359375,-2.885744094848633,-3.4707891941070557,8.871390342712402
1711552142759092500,18.216092529296876,-3.0975089073181152,-3.352344512939453,9.006584167480469
1711552142778052600,18.235052490234374,-3.050848960876465,-3.2757742404937744,9.08674430847168
1711552142797012500,18.254012451171874,-2.830709218978882,-3.2207393646240234,9.047262191772461
1711552142815972600,18.27297265625,-2.864208698272705,-3.1764719486236572,9.072386741638184
1711552142834932500,18.291932373046876,-2.9730820655822754,-3.067598581314087,9.105886459350586
1711552142853892600,18.310892578125,-3.0903303623199463,-3.1034910678863525,9.09392261505127
1711552142872852700,18.329852783203126,-3.1214370727539062,-3.0520453453063965,9.08674430847168
1711552142891812600,18.3488125,-3.2745778560638428,-3.108276605606079,9.07717227935791
1711552142910772700,18.367772705078124,-3.2315070629119873,-3.078366279602051,9.019744873046875
1711552142929732600,18.386732666015625,-3.242274761199951,-3.067598581314087,8.86780071258545
1711552142948692700,18.405692626953126,-3.3068809509277344,-3.1334011554718018,8.898907661437988
1711552142967652900,18.42465283203125,-3.372683525085449,-3.266202926635742,8.956335067749023
1711552142986612700,18.44361279296875,-3.3332018852233887,-3.243471145629883,8.944371223449707
1711552143005572900,18.46257275390625,-3.2781670093536377,-3.3846476078033447,8.83669376373291
1711552143024532700,18.48153271484375,-3.298506021499634,-3.4301111698150635,8.745766639709473
1711552143043492900,18.500492919921875,-3.3308091163635254,-3.394218921661377,8.654839515686035
1711552143062453000,18.519452880859376,-3.3966116905212402,-3.355933666229248,8.670392990112305
1711552143081412900,18.538412841796877,-3.370290756225586,-3.403790235519409,8.731410026550293
1711552143100373000,18.557373046875,-3.3547372817993164,-3.4229328632354736,8.693124771118164
1711552143119333000,18.5763330078125,-3.4372897148132324,-3.3367912769317627,8.61894702911377
1711552143138293000,18.59529296875,-3.4169507026672363,-3.379862070083618,8.57468032836914
1711552143157253000,18.614253173828125,-3.346362352371216,-3.513859987258911,8.592626571655273
1711552143176213000,18.633212890625,-3.4576287269592285,-3.403790235519409,8.648857116699219
1711552143195173000,18.652173095703127,-3.3822548389434814,-3.3846476078033447,8.673981666564941
1711552143214133000,18.671133056640624,-3.1920254230499268,-3.504288673400879,8.644071578979492
1711552143233093000,18.690093017578125,-3.2925238609313965,-3.524627685546875,8.615358352661133
1711552143252053200,18.70905322265625,-3.370290756225586,-3.4755749702453613,8.59621524810791
1711552143271013000,18.72801318359375,-3.366701364517212,-3.3475589752197266,8.556734085083008
1711552143289973200,18.74697314453125,-3.242274761199951,-3.5150563716888428,8.62014389038086
1711552143308933400,18.765933349609377,-3.3128628730773926,-3.5365917682647705,8.73619556427002
1711552143327893200,18.784893310546874,-3.3308091163635254,-3.418147087097168,8.672785758972168
1711552143346853400,18.803853271484375,-3.25663161277771,-3.449253797531128,8.650053977966309
1711552143365813500,18.8228134765625,-3.2757742404937744,-3.4337005615234375,8.615358352661133
1711552143384773400,18.8417734375,-3.3104701042175293,-3.421736478805542,8.651249885559082
1711552143403733500,18.8607333984375,-3.3128628730773926,-3.3882367610931396,8.672785758972168
1711552143422693600,18.879693603515626,-3.3236305713653564,-3.4061830043792725,8.723034858703613
1711552143441653800,18.89865380859375,-3.31884503364563,-3.3858439922332764,8.778069496154785
1711552143460613600,18.917613525390625,-3.2829527854919434,-3.445664644241333,8.755337715148926
1711552143479573800,18.93657373046875,-3.284149169921875,-3.390629768371582,8.677571296691895
1711552143498533600,18.95553369140625,-3.276970624923706,-3.4025938510894775,8.660821914672852
1711552143517493800,18.97449365234375,-3.291327476501465,-3.500699520111084,8.689535140991211
1711552143536453600,18.99345361328125,-3.4097721576690674,-3.4719855785369873,8.723034858703613
1711552143555413800,19.012413818359374,-3.294916868209839,-3.487539052963257,8.691927909851074
1711552143574374000,19.031373779296874,-3.2315070629119873,-3.463610887527466,8.62732219696045
1711552143593334000,19.050333984375,-3.3511481285095215,-3.438486099243164,8.634500503540039
1711552143612294000,19.0692939453125,-3.3714871406555176,-3.513859987258911,8.657232284545898
1711552143631254000,19.08825390625,-3.3403804302215576,-3.6059837341308594,8.629714965820312
1711552143650214100,19.107214111328126,-3.359523057937622,-3.4815568923950195,8.640482902526855
1711552143669174300,19.12617431640625,-3.311666488647461,-3.473181962966919,8.571090698242188
1711552143688134100,19.145134033203124,-3.3475589752197266,-3.4504501819610596,8.624929428100586
1711552143707094300,19.16409423828125,-3.3200414180755615,-3.4612178802490234,8.646464347839355
1711552143726054100,19.18305419921875,-3.2925238609313965,-3.4576287269592285,8.653642654418945
1711552143745014300,19.20201416015625,-3.1788649559020996,-3.3343982696533203,8.656036376953125
1711552143763974400,19.220974365234376,-3.0927233695983887,-3.4408788681030273,8.9910306930542
1711552143782934300,19.239934326171873,-3.4612178802490234,-3.3164522647857666,9.111868858337402
1711552143801894400,19.258894287109374,-3.4121651649475098,-3.3200414180755615,8.919246673583984
1711552143820854500,19.2778544921875,-3.267399311065674,-3.2470602989196777,8.785248756408691
1711552143839814700,19.296814697265624,-3.2267212867736816,-3.3367912769317627,8.739784240722656
1711552143858774500,19.3157744140625,-3.2781670093536377,-3.304488182067871,8.760123252868652
1711552143877734700,19.334734619140626,-3.2446675300598145,-3.273381471633911,8.730213165283203
1711552143896694800,19.35369482421875,-3.1381869316101074,-3.2925238609313965,8.656036376953125
1711552143915654700,19.372654541015624,-3.2542388439178467,-3.346362352371216,8.591429710388184
1711552143934614800,19.39161474609375,-3.4504501819610596,-3.4612178802490234,8.593822479248047
1711552143953575000,19.410574951171874,-3.321237802505493,-3.566502094268799,8.647661209106445
1711552143972534800,19.42953466796875,-3.1453654766082764,-3.597608804702759,8.632107734680176
1711552143991495000,19.448494873046876,-3.2709884643554688,-3.482753276824951,8.585447311401367
1711552144010455000,19.467455078125,-3.308077335357666,-3.4947173595428467,8.598608016967773
1711552144029415200,19.486415283203126,-3.2446675300598145,-3.5437703132629395,8.615358352661133
1711552144048375000,19.505375,-3.1130621433258057,-3.6227335929870605,8.592626571655273
1711552144067335200,19.524335205078124,-3.1477582454681396,-3.5270206928253174,8.583054542541504
1711552144086295300,19.54329541015625,-3.1621150970458984,-3.500699520111084,8.602197647094727
1711552144105255400,19.56225537109375,-3.1489546298980713,-3.5270206928253174,8.717052459716797
1711552144124215300,19.58121533203125,-3.1968109607696533,-3.456432342529297,8.70628547668457
1711552144143175400,19.600175537109376,-3.2315070629119873,-3.4612178802490234,8.666803359985352
1711552144162135300,19.61913525390625,-3.160918712615967,-3.486342668533325,8.657232284545898
1711552144181095400,19.638095458984374,-3.188436269760132,-3.3990044593811035,8.659625053405762
1711552144200055600,19.6570556640625,-3.2554352283477783,-3.342773199081421,8.723034858703613
1711552144219015700,19.676015625,-3.2004003524780273,-3.311666488647461,8.725427627563477
1711552144237975600,19.6949755859375,-3.1142587661743164,-3.394218921661377,8.737391471862793
1711552144256935700,19.713935791015626,-3.102294445037842,-3.3547372817993164,8.73619556427002
1711552144275895800,19.732895751953127,-3.0939197540283203,-3.4265220165252686,8.834300994873047
1711552144294856000,19.75185595703125,-3.078366279602051,-3.4444682598114014,8.970691680908203
1711552144313815800,19.77081591796875,-2.950350284576416,-3.4241292476654053,8.958727836608887
1711552144332776000,19.78977587890625,-3.0340991020202637,-3.3918261528015137,8.834300994873047
1711552144351736000,19.808736083984375,-3.1214370727539062,-3.4911282062530518,8.920442581176758
1711552144370696000,19.827696044921876,-3.2709884643554688,-3.4025938510894775,9.010173797607422
1711552144389656000,19.846656005859376,-3.3367912769317627,-3.383451223373413,9.126225471496582
1711552144408616200,19.8656162109375,-3.0652058124542236,-3.586841106414795,9.261420249938965
1711552144427576300,19.884576416015626,-3.128615617752075,-3.7220356464385986,9.119047164916992
1711552144446536200,19.9035361328125,-3.658625841140747,-3.428914785385132,8.903693199157715
1711552144465496300,19.922496337890625,-3.7112679481506348,-3.2027931213378906,9.104690551757812
1711552144484456400,19.94145654296875,-3.379862070083618,-3.3367912769317627,9.347561836242676
1711552144503416300,19.960416259765626,-3.1405797004699707,-3.332005500793457,9.896714210510254
1711552144522376400,19.97937646484375,-2.667997360229492,-3.610769271850586,9.391828536987305
1711552144541336600,19.998336669921876,-2.6009981632232666,-3.7016966342926025,8.490931510925293
1711552144560296700,20.017296630859374,-3.043670415878296,-3.4707891941070557,7.893921852111816
1711552144579256600,20.036256591796874,-3.5090744495391846,-3.1692936420440674,8.439485549926758
1711552144598216700,20.055216796875,-2.9874391555786133,-3.6681971549987793,8.711071014404297
1711552144617176800,20.0741767578125,-2.218146562576294,-4.124029636383057,8.994620323181152
1711552144636137000,20.093136962890625,-2.792423963546753,-3.9182469844818115,9.665806770324707
1711552144655096800,20.112096923828126,-3.311666488647461,-3.566502094268799,10.145567893981934
1711552144674057000,20.131056884765623,-3.108276605606079,-4.078566074371338,9.349954605102539
1711552144693017000,20.15001708984375,-3.2614171504974365,-4.406383037567139,7.922635555267334
1711552144711977000,20.16897705078125,-3.851248025894165,-4.621737003326416,7.390232563018799
1711552144730937000,20.18793701171875,-3.924229145050049,-5.002195835113525,7.700103282928467
1711552144749897200,20.206897216796875,-3.321237802505493,-4.826323509216309,8.073383331298828
1711552144768857300,20.225857421875,-2.6967110633850098,-4.302295207977295,7.818548202514648
1711552144787817200,20.244817138671873,-2.6907291412353516,-4.01754903793335,7.631907939910889
1711552144806777300,20.26377734375,-2.7876384258270264,-4.49252462387085,8.323433876037598
1711552144825737500,20.282737548828123,-2.8486554622650146,-4.677968502044678,8.37966537475586
1711552144844697600,20.301697509765624,-2.654836654663086,-4.503292083740234,8.090133666992188
1711552144863657500,20.320657470703125,-2.4777679443359375,-4.947160720825195,7.526623725891113
1711552144882617600,20.33961767578125,-2.3880369663238525,-4.990231513977051,7.3675007820129395
1711552144901577700,20.35857763671875,-2.0482561588287354,-4.478167533874512,6.492924213409424
1711552144920537600,20.37753759765625,-2.1308085918426514,-4.074976921081543,5.1804609298706055
1711552144939497700,20.396497802734373,-2.530410051345825,-4.5200419425964355,5.517848968505859
1711552144958457900,20.415457763671874,-1.2801600694656372,-3.2578279972076416,8.202595710754395
1711552144977418000,20.43441796875,0.6041877269744873,-2.3856441974639893,11.614761352539062
1711552144996377900,20.4533779296875,1.552941918373108,-2.7050859928131104,13.663017272949219
1711552145015338000,20.472337890625,0.42711883783340454,-3.339184045791626,12.447463035583496
1711552145034298000,20.491298095703126,-2.225325107574463,-4.296313285827637,8.943174362182617
1711552145053258200,20.51025830078125,-4.66361141204834,-4.700700283050537,6.113661766052246
1711552145072218000,20.529218017578124,-4.198207378387451,-4.778466701507568,6.595815658569336
1711552145091178200,20.54817822265625,-2.035095691680908,-4.754538536071777,9.488738059997559
1711552145110138400,20.567138427734374,-1.7312071323394775,-4.261617183685303,11.279766082763672
1711552145129098200,20.58609814453125,-2.1655044555664062,-3.8775691986083984,9.872786521911621
1711552145148058400,20.605058349609376,-2.0338993072509766,-4.5308098793029785,7.963313579559326
1711552145167018500,20.6240185546875,-2.465803623199463,-5.02133846282959,7.597211837768555
1711552145185978600,20.642978515625,-2.5112674236297607,-4.315455436706543,7.493124008178711
1711552145204938500,20.6619384765625,-1.526620864868164,-3.603590965270996,7.95134973526001
1711552145223898600,20.680898681640624,-1.5361921787261963,-3.8057844638824463,8.545966148376465
1711552145242858800,20.699858642578125,-2.0518453121185303,-3.5054850578308105,8.039883613586426
1711552145261818600,20.718818603515626,-1.7874385118484497,-3.6047873497009277,7.612765312194824
1711552145280778800,20.73777880859375,-1.8652052879333496,-4.456632137298584,7.905886173248291
1711552145299739000,20.75673876953125,-2.252842426300049,-4.7234320640563965,8.841479301452637
1711552145318699000,20.775698974609377,-2.550748825073242,-4.949553489685059,9.937392234802246
1711552145337659000,20.794658935546874,-3.300898790359497,-5.43290376663208,10.060623168945312
1711552145356619000,20.813618896484375,-3.5377883911132812,-4.595416069030762,9.32722282409668
1711552145375579100,20.8325791015625,-2.313859462738037,-4.480560302734375,8.507680892944336
1711552145394539300,20.851539306640625,-1.557727575302124,-4.557130813598633,8.226524353027344
1711552145413499100,20.8704990234375,-1.5170495510101318,-4.289134502410889,8.878568649291992
1711552145432459300,20.889459228515626,-1.755135416984558,-4.205385684967041,9.82373332977295
1711552145451419400,20.90841943359375,-1.3902299404144287,-4.277170658111572,10.163514137268066
1711552145470379500,20.927379638671876,-1.444068431854248,-4.275974273681641,10.047462463378906
1711552145489339400,20.94633935546875,-1.9692929983139038,-3.7986059188842773,9.806983947753906
1711552145508299500,20.965299560546875,-1.7479569911956787,-3.696911096572876,9.060422897338867
1711552145527259600,20.984259765625,-1.7491533756256104,-3.7495529651641846,8.717052459716797
1711552145546219800,21.0032197265625,-1.6402798891067505,-3.8596229553222656,8.367700576782227
1711552145565180000,21.022179931640625,-2.2755744457244873,-3.518645763397217,8.353343963623047
1711552145584139800,21.041139892578126,-2.007578134536743,-3.7160534858703613,7.836493968963623
1711552145603100000,21.060099853515624,-2.4323041439056396,-3.7387852668762207,7.23589563369751
1711552145622059800,21.079059814453124,-2.6225335597991943,-3.513859987258911,7.17368221282959
1711552145641020000,21.09802001953125,-2.754138946533203,-4.198207378387451,7.822137355804443
1711552145659980000,21.11697998046875,-2.513660192489624,-4.928018093109131,8.535198211669922
1711552145678940200,21.135940185546875,-2.5459632873535156,-4.677968502044678,9.044869422912598
1711552145697900300,21.154900390625,-2.451446771621704,-3.6981074810028076,9.274580955505371
1711552145716860400,21.1738603515625,-1.4333007335662842,-3.355933666229248,9.558130264282227
1711552145735820300,21.1928203125,-0.6759724020957947,-3.487539052963257,10.1276216506958
1711552145754780400,21.211780517578124,-0.6137589812278748,-3.7160534858703613,10.590633392333984
1711552145773740500,21.230740478515624,-0.9678967595100403,-3.4923245906829834,10.094121932983398
1711552145792700400,21.249700439453125,-1.4297115802764893,-3.3236305713653564,9.199206352233887
1711552145811660500,21.26866064453125,-2.146361827850342,-3.0891339778900146,9.006584167480469
1711552145830620700,21.28762060546875,-2.0398812294006348,-3.500699520111084,9.735198974609375
1711552145849580800,21.306580810546876,-1.435693621635437,-4.3896331787109375,10.363314628601074
1711552145868541000,21.325541015625,-0.6891329288482666,-4.968696117401123,10.29033374786377
1711552145887500800,21.344500732421874,-0.8709874153137207,-4.295116424560547,9.34157943725586
1711552145906461000,21.3634609375,-0.7800601720809937,-3.8775691986083984,8.72183895111084
1711552145925421000,21.382421142578124,-0.3326023519039154,-4.319045066833496,8.82951545715332
1711552145944381200,21.401381103515625,0.07178468257188797,-4.432703971862793,9.370293617248535
1711552145963341300,21.42034130859375,0.07657032459974289,-4.425525665283203,9.355937004089355
1711552145982301400,21.439301513671875,0.1423729509115219,-4.494917392730713,9.129815101623535
1711552146001261300,21.45826123046875,0.5096712112426758,-4.744967460632324,8.7445707321167
1711552146020221400,21.477221435546873,0.10049854964017868,-4.908875465393066,8.194221496582031
1711552146039181600,21.496181640625,-0.27397820353507996,-5.163711071014404,8.090133666992188
1711552146058141700,21.5151416015625,-0.3720839321613312,-5.285745143890381,7.976474285125732
1711552146077101800,21.534101806640624,-0.7824530005455017,-5.61116886138916,7.345965385437012
1711552146096061700,21.553061767578125,-1.200000524520874,-6.14835786819458,7.479963779449463
1711552146115021800,21.572021728515626,-1.6055840253829956,-5.960521221160889,7.87358283996582
1711552146133982000,21.59098193359375,-1.0923235416412354,-5.649454116821289,8.032705307006836
1711552146152942000,21.609942138671876,-0.7932206988334656,-5.288137912750244,7.458428382873535
1711552146171902200,21.628902099609373,-0.33379876613616943,-6.526423931121826,7.75753116607666
1711552146190862000,21.647862060546874,0.37806597352027893,-4.949553489685059,8.408378601074219
1711552146209822200,21.666822265625,0.8745766878128052,-3.6681971549987793,8.419146537780762
1711552146228782300,21.6857822265625,0.9451649188995361,-4.06540584564209,8.717052459716797
1711552146247742500,21.704742431640625,0.8865407705307007,-2.9383862018585205,9.10229778289795
1711552146266702600,21.72370263671875,1.4835500717163086,-3.702893018722534,8.615358352661133
1711552146285662700,21.742662841796875,-1.7156537771224976,-3.6095728874206543,9.068798065185547
1711552146304622800,21.761622802734376,-0.45224347710609436,-4.526023864746094,9.430113792419434
1711552146323583000,21.7805830078125,0.19262222945690155,-4.682754039764404,9.9469633102417
1711552146342542800,21.79954296875,0.5790630578994751,-4.329812526702881,10.204192161560059
1711552146361503000,21.8185029296875,0.13040883839130402,-4.262813568115234,9.736394882202148
1711552146380463000,21.837463134765624,0.07537391036748886,-3.789034605026245,9.336793899536133
1711552146399423200,21.85642333984375,0.5108676552772522,-4.07258415222168,7.899903774261475
1711552146418383400,21.87538330078125,0.5982056856155396,-4.456632137298584,7.590033531188965
1711552146437343500,21.894343505859375,0.7848458290100098,-4.036691665649414,8.657232284545898
1711552146456303600,21.9133037109375,1.0277173519134521,-3.786641836166382,9.242277145385742
1711552146475263700,21.932263671875,0.7645068168640137,-3.5198421478271484,9.169296264648438
1711552146494223600,21.9512236328125,1.7754744291305542,-3.5150563716888428,8.47896671295166
1711552146513183700,21.970183837890627,1.8640087842941284,-3.84765887260437,8.13798999786377
1711552146532143900,21.989143798828124,1.1078768968582153,-3.4779677391052246,8.303094863891602
1711552146551104000,22.00810400390625,0.8303094506263733,-3.053241729736328,8.72064208984375
1711552146570064100,22.027064208984374,-0.9451649188995361,-5.169693470001221,8.900103569030762
1711552146589024300,22.046024169921875,-3.3690943717956543,-7.911868095397949,8.569893836975098
1711552146607984400,22.064984375,-2.5435705184936523,-6.665207386016846,8.803194046020508
1711552146626944500,22.083944580078125,-1.5206388235092163,-3.59043025970459,8.58903694152832
1711552146645904600,22.102904541015626,-0.349352091550827,-3.827319860458374,7.3304123878479
1711552146664864800,22.12186474609375,0.3002992272377014,-4.569094657897949,7.054041385650635
1711552146683825000,22.140824951171876,-0.15553347766399384,-3.789034605026245,8.484949111938477
1711552146702784800,22.15978466796875,0.15912270545959473,-3.882354736328125,9.351150512695312
1711552146721745000,22.178744873046874,0.36251261830329895,-4.164707660675049,9.147761344909668
1711552146740705000,22.197705078125,-0.20578274130821228,-3.5712878704071045,9.664610862731934
1711552146759665200,22.2166650390625,-0.016749758273363113,-3.2578279972076416,10.185050010681152
1711552146778625300,22.235625244140625,0.064606212079525,-3.4648072719573975,10.303494453430176
1711552146797585400,22.25458544921875,-0.47258245944976807,-4.128815650939941,10.01037311553955
1711552146816545500,22.273545654296875,-1.1258230209350586,-4.791627407073975,9.67657470703125
1711552146835505700,22.292505615234376,-1.4452649354934692,-4.177868366241455,9.524630546569824
1711552146854465800,22.3114658203125,-1.077966570854187,-3.487539052963257,9.31047248840332
1711552146873426000,22.330426025390626,-0.3900300860404968,-3.6574294567108154,8.93240737915039
1711552146892386000,22.349385986328127,-0.7992027401924133,-4.011567115783691,9.142974853515625
1711552146911346200,22.36834619140625,-0.5479564070701599,-4.186243057250977,9.694520950317383
1711552146930306300,22.387306396484377,-0.5575276613235474,-4.657629489898682,9.832108497619629
1711552146949266400,22.406266357421874,-0.9104689955711365,-5.017749309539795,9.588040351867676
1711552146968226600,22.4252265625,-1.333998680114746,-4.754538536071777,8.80798053741455
1711552146987186700,22.444186767578124,-1.4991034269332886,-4.4135613441467285,7.919046401977539
1711552147006146800,22.463146728515625,-1.2526426315307617,-4.844269275665283,7.674978733062744
1711552147025107000,22.48210693359375,-0.833898663520813,-4.977071285247803,7.832904815673828
1711552147044067000,22.501067138671875,-0.8231309652328491,-4.486542224884033,8.624929428100586
1711552147063027200,22.520027099609376,-0.8638089895248413,-3.867997884750366,9.67657470703125
1711552147081987300,22.5389873046875,-0.3936193287372589,-3.5748770236968994,10.307083129882812
1711552147100947500,22.557947509765626,-0.7405785918235779,-3.924229145050049,10.063015937805176
1711552147119907600,22.576907470703127,-1.4464613199234009,-4.085744857788086,9.418149948120117
1711552147138867700,22.59586767578125,-1.7826528549194336,-3.8835511207580566,8.679964065551758
1711552147157827800,22.614827880859377,-1.7670994997024536,-3.8524444103240967,7.750352382659912
1711552147176788000,22.6337880859375,-1.5074782371520996,-3.6502509117126465,7.554141044616699
1711552147195748000,22.652748046875,-1.5098711252212524,-3.641875982284546,7.8317084312438965
1711552147214708200,22.671708251953124,-2.094916343688965,-4.131208419799805,8.080561637878418
1711552147233668400,22.69066845703125,-2.5328028202056885,-4.662415027618408,8.041080474853516
1711552147252628500,22.70962841796875,-3.267399311065674,-5.405386447906494,7.908278942108154
1711552147271588600,22.728588623046875,-3.421736478805542,-5.787041664123535,7.490731239318848
1711552147290548700,22.747548828125,-2.871387243270874,-4.548755645751953,7.598408222198486
1711552147309508900,22.7665087890625,-2.094916343688965,-2.9766714572906494,8.921639442443848
1711552147328469000,22.785468994140626,-1.4009976387023926,-2.6356940269470215,10.085747718811035
1711552147347429000,22.80442919921875,-1.046859860420227,-3.128615617752075,10.870593070983887
1711552147366389200,22.82338916015625,-1.0432707071304321,-3.513859987258911,11.352746963500977
1711552147385349400,22.842349365234377,-1.1413763761520386,-3.3786656856536865,11.302497863769531
1711552147404309500,22.8613095703125,-1.557727575302124,-3.1274192333221436,10.762916564941406
1711552147423269600,22.88026953125,-2.132004976272583,-3.3104701042175293,10.108479499816895
1711552147442229800,22.899229736328124,-2.606980323791504,-3.851248025894165,9.550951957702637
1711552147461190000,22.91818994140625,-2.7074787616729736,-4.486542224884033,8.58784008026123
1711552147480150000,22.93714990234375,-3.2303106784820557,-4.855037212371826,7.9728851318359375
1711552147499110400,22.9561103515625,-3.625126361846924,-4.677968502044678,7.3878397941589355
1711552147518070500,22.975070556640624,-3.401397466659546,-4.565505504608154,7.210771083831787
1711552147537030400,22.994030517578125,-2.8833513259887695,-4.683950424194336,7.459624767303467
1711552147555990800,23.01299072265625,-2.579462766647339,-4.595416069030762,7.704888820648193
1711552147574951000,23.031950927734375,-2.3198416233062744,-4.432703971862793,7.963313579559326
1711552147593911000,23.0509111328125,-2.132004976272583,-4.442275047302246,8.185846328735352
1711552147612871200,23.06987109375,-2.032702922821045,-4.390829563140869,8.419146537780762
1711552147631831300,23.088831298828126,-2.1846470832824707,-4.278367042541504,8.767302513122559
1711552147650791400,23.10779150390625,-2.0781664848327637,-4.175475597381592,8.864211082458496
1711552147669751600,23.12675146484375,-2.0063817501068115,-4.021138668060303,8.951549530029297
1711552147688711700,23.145711669921877,-2.2887349128723145,-3.955335855484009,9.269794464111328
1711552147707671800,23.164671875,-2.355733871459961,-3.895515203475952,9.072386741638184
1711552147726632200,23.183632080078127,-2.344966173171997,-4.1383867263793945,8.876175880432129
1711552147745592000,23.202592041015624,-2.2444677352905273,-4.299902439117432,8.74337387084961
1711552147764552400,23.221552490234377,-2.368894338607788,-4.170690059661865,8.591429710388184
1711552147783512600,23.2405126953125,-2.5674986839294434,-3.9984066486358643,8.47298526763916
1711552147802472700,23.25947265625,-2.606980323791504,-4.122833251953125,8.475378036499023
1711552147821432800,23.278432861328124,-2.581855535507202,-4.394418716430664,8.562715530395508
1711552147840393000,23.29739306640625,-2.4155545234680176,-4.456632137298584,8.660821914672852
1711552147859353000,23.31635302734375,-2.2325034141540527,-4.155136585235596,8.461020469665527
1711552147878313200,23.335313232421875,-2.2193429470062256,-4.156332969665527,8.313861846923828
1711552147897273300,23.3542734375,-2.4634108543395996,-4.216153621673584,8.423932075500488
1711552147916233500,23.3732333984375,-2.4885356426239014,-4.041477680206299,8.63330364227295
1711552147935193900,23.39219384765625,-2.441875457763672,-3.9637107849121094,8.86062240600586
1711552147954153700,23.41115380859375,-2.465803623199463,-4.059423446655273,8.937192916870117
1711552147973114000,23.430114013671876,-2.551945447921753,-4.1383867263793945,8.927620887756348
1711552147992074200,23.44907421875,-2.548356056213379,-4.113262176513672,8.897710800170898
1711552148011034400,23.468034423828126,-2.544766902923584,-3.9433717727661133,8.798408508300781
1711552148029994500,23.486994384765627,-2.6081767082214355,-3.924229145050049,8.708678245544434
1711552148048954600,23.50595458984375,-2.857030153274536,-4.287938117980957,8.812766075134277
1711552148067914800,23.524914794921877,-2.7278177738189697,-4.435096740722656,9.22433090209961
1711552148086875000,23.543875,-2.4323041439056396,-4.041477680206299,9.142974853515625
1711552148105835000,23.5628349609375,-2.6057839393615723,-3.5222349166870117,8.811569213867188
1711552148124795400,23.58179541015625,-2.80558443069458,-3.5712878704071045,8.711071014404297
1711552148143755500,23.600755615234377,-2.5435705184936523,-3.7052857875823975,9.067601203918457
1711552148162715600,23.619715576171874,-2.561516523361206,-3.6263227462768555,9.05563735961914
1711552148181675800,23.63867578125,-2.2636101245880127,-3.806980848312378,9.199206352233887
1711552148200636000,23.657635986328124,-2.063809633255005,-4.06540584564209,9.002995491027832
1711552148219596000,23.676595947265625,-2.8773691654205322,-3.9529430866241455,8.437092781066895
1711552148238556200,23.69555615234375,-3.136990547180176,-3.5569307804107666,7.980063438415527
1711552148257516500,23.7145166015625,-2.8630123138427734,-3.601198196411133,7.598408222198486
1711552148276476700,23.7334765625,-2.7529425621032715,-4.005585193634033,7.610372543334961
1711552148295436800,23.752436767578125,-2.6536402702331543,-3.8428730964660645,7.9657063484191895
1711552148314397000,23.77139697265625,-2.451446771621704,-3.706482172012329,8.085348129272461
1711552148333357000,23.790357177734375,-2.355733871459961,-4.140779495239258,8.280363082885742
1711552148352317200,23.809317138671876,-2.337787628173828,-4.575077056884766,9.377471923828125
1711552148371277300,23.82827734375,-1.454836130142212,-4.401597023010254,10.778470039367676
1711552148390237400,23.847237548828126,0.4043870270252228,-3.882354736328125,11.693724632263184
1711552148409197600,23.866197509765627,0.778863787651062,-3.462414264678955,11.892328262329102
1711552148428157700,23.88515771484375,0.12921242415905,-3.597608804702759,11.344371795654297
1711552148447118000,23.9041181640625,-0.9308080077171326,-4.628915309906006,10.06421184539795
1711552148466078200,23.923078125,-1.9202401638031006,-5.416153907775879,7.642675399780273
1711552148485038300,23.942038330078127,-2.249253273010254,-4.979464054107666,5.030909538269043
1711552148503998500,23.96099853515625,-1.9453648328781128,-4.336990833282471,4.633700847625732
1711552148522958600,23.97995849609375,-1.4416756629943848,-4.0833516120910645,6.723831653594971
1711552148541918700,23.998918701171874,-0.2967100143432617,-4.216153621673584,9.316454887390137
1711552148560878800,24.01787890625,0.6436693072319031,-4.384847640991211,10.567901611328125
1711552148579839000,24.0368388671875,0.4570291340351105,-3.623929977416992,11.034502029418945
1711552148598799400,24.05579931640625,0.2883351147174835,-3.025724172592163,10.295119285583496
1711552148617759500,24.074759521484374,0.6209374666213989,-3.6921253204345703,9.480362892150879
1711552148636719600,24.0937197265625,-0.013160524889826775,-4.219742774963379,8.703892707824707
1711552148655679700,24.1126796875,-0.6484549641609192,-3.513859987258911,8.85224723815918
1711552148674640000,24.131639892578125,0.009571290574967861,-4.295116424560547,9.21834945678711
1711552148693600000,24.15060009765625,-0.381655216217041,-4.825126647949219,8.757730484008789
1711552148712560000,24.16956005859375,-0.882951557636261,-3.7674992084503174,8.372486114501953
1711552148731520300,24.188520263671876,-0.7968099117279053,-3.946960926055908,9.125029563903809
1711552148750480400,24.20748046875,0.2632105052471161,-4.271188259124756,9.558130264282227
1711552148769440800,24.226440673828126,0.10648060590028763,-4.140779495239258,9.256634712219238
1711552148788401000,24.24540087890625,-0.1866401731967926,-3.1932218074798584,9.43609619140625
1711552148807361000,24.264361083984376,0.6436693072319031,-4.040280818939209,9.373882293701172
1711552148826321200,24.283321044921873,-0.26440688967704773,-4.6995038986206055,8.73619556427002
1711552148845281300,24.30228125,-0.8470591902732849,-3.7902309894561768,8.439485549926758
1711552148864241400,24.321241455078123,-0.6508477330207825,-4.31306266784668,8.489734649658203
1711552148883201500,24.340201416015624,-0.5276173949241638,-4.862215518951416,8.062616348266602
1711552148902161700,24.35916162109375,-0.7082754969596863,-4.3417768478393555,7.836493968963623
1711552148921122000,24.3781220703125,-0.9559326171875,-3.9326040744781494,8.555537223815918
1711552148940082200,24.397082275390623,-0.9068797826766968,-4.040280818939209,9.038887977600098
1711552148959042000,24.4160419921875,-0.18065811693668365,-3.9385859966278076,8.940781593322754
