time,seconds_elapsed,z,y,x
1711552124603820800,0.06082080078125,-0.22151483595371246,0.10659590363502502,0.13217586278915405
1711552124622781000,0.079781005859375,-0.26763513684272766,0.37140578031539917,0.14622575044631958
1711552124641740800,0.09874072265625,-0.31955865025520325,0.14538581669330597,0.11598794907331467
1711552124660700700,0.11770068359375,-0.16562071442604065,-0.21930044889450073,0.05917752534151077
1711552124679660500,0.13666064453125,-0.11950042098760605,-0.44348782300949097,0.06742420047521591
1711552124698620400,0.155620361328125,-0.13110685348510742,-0.1185077652335167,0.07689260691404343
1711552124717580300,0.174580322265625,-0.15615230798721313,0.10323614627122879,0.12698352336883545
1711552124736540200,0.1935400390625,-0.13507747650146484,0.11667517572641373,0.1498909443616867
1711552124755500000,0.2125,-0.09964732080698013,-0.07544180005788803,0.12362375855445862
1711552124774460000,0.2314599609375,-0.04283689334988594,-0.29535311460494995,0.06589704006910324
1711552124793419800,0.250419677734375,-0.16500984132289886,-0.5051851868629456,-0.014737112447619438
1711552124812380000,0.2693798828125,-0.23128867149353027,-0.6856957077980042,-0.11278090626001358
1711552124831339800,0.28833984375,-0.312228262424469,-0.9834923148155212,-0.1527925580739975
1711552124850299600,0.307299560546875,-0.1989128440618515,-1.2583814859390259,-0.11125374585390091
1711552124869259500,0.326259521484375,0.0628427118062973,-1.2263110876083374,-0.12286017835140228
1711552124888219400,0.345219482421875,-0.09262236952781677,-1.0216712951660156,-0.08743002265691757
1711552124907179300,0.36417919921875,-0.3177260458469391,-0.9114102721214294,0.01763872057199478
1711552124926139100,0.38313916015625,-0.43256860971450806,-0.8915571570396423,0.13370302319526672
1711552124945099000,0.40209912109375,-0.5513818264007568,-1.275485634803772,0.247629314661026
1711552124964059000,0.421058837890625,-0.4881573021411896,-1.740659236907959,0.23357942700386047
1711552124983018800,0.440018798828125,-0.32047492265701294,-2.0473132133483887,0.24946190416812897
1711552125001978600,0.458978515625,-0.30856308341026306,-2.017686367034912,0.2989419400691986
1711552125020938800,0.477938720703125,-0.4655553102493286,-1.7684534788131714,0.35361436009407043
1711552125039898600,0.496898681640625,-0.6475930213928223,-1.286786675453186,0.44066259264945984
1711552125058858500,0.5158583984375,-0.4469239413738251,-0.7904590368270874,0.4938078224658966
1711552125077818400,0.534818359375,-0.5929206013679504,-0.4407389461994171,0.5787180066108704
1711552125096778200,0.5537783203125,-0.3082576394081116,-0.7021890878677368,0.44096800684928894
1711552125115738000,0.572738037109375,-0.11064288020133972,-1.1597267389297485,0.2842811942100525
1711552125134698000,0.591697998046875,-0.11430807411670685,-1.2632683515548706,0.17188207805156708
1711552125153657900,0.610657958984375,-0.1937204897403717,-0.9107993841171265,0.12881611287593842
1711552125172617700,0.62961767578125,-0.28321218490600586,-0.49113526940345764,0.16760602593421936
1711552125191577600,0.64857763671875,-0.2511417865753174,-0.5039634704589844,0.22075125575065613
1711552125210537500,0.667537353515625,-0.19280420243740082,-0.10720676928758621,0.1651625633239746
1711552125229497600,0.68649755859375,-0.18608468770980835,0.1750127524137497,0.26076290011405945
1711552125248457500,0.70545751953125,-0.27924156188964844,-0.42455101013183594,0.26473352313041687
1711552125267417300,0.724417236328125,-0.4084394574165344,-0.7666352987289429,0.21861323714256287
1711552125286377200,0.743377197265625,-0.32902705669403076,-0.8573487401008606,0.23541201651096344
1711552125305337000,0.762337158203125,-0.23312127590179443,-0.5079340934753418,0.1553887277841568
1711552125324297000,0.781296875,-0.1839466542005539,-0.22388194501399994,0.10713040828704834
1711552125343256800,0.8002568359375,-0.14668390154838562,-0.09560033679008484,0.10713040828704834
1711552125362216700,0.819216796875,-0.15920662879943848,-0.3643808364868164,0.04634936526417732
1711552125381176600,0.838176513671875,-0.18150319159030914,-0.7104357481002808,-0.07002037763595581
1711552125400136400,0.857136474609375,-0.1576794683933258,-0.6417134404182434,-0.13813179731369019
1711552125419096300,0.876096435546875,-0.19066616892814636,-0.2861901521682739,0.03321577236056328
1711552125438056400,0.895056396484375,-0.18150319159030914,0.007635809946805239,0.17188207805156708
1711552125457016300,0.914016357421875,-0.2508363425731659,-0.010690134018659592,0.1547778695821762
1711552125475976200,0.93297607421875,-0.441426157951355,-0.23976442217826843,0.16974404454231262
1711552125494936000,0.95193603515625,-0.5892554521560669,-0.03543015569448471,0.2519053518772125
1711552125513896000,0.97089599609375,-0.6384300589561462,0.010995565913617611,0.3187950551509857
1711552125532855800,0.989855712890625,-0.5138136148452759,0.37751442193984985,0.30199626088142395
1711552125551815700,1.008815673828125,-0.3632354736328125,0.9844086170196533,0.38934993743896484
1711552125570775600,1.027775634765625,-0.2407570779323578,1.1872156858444214,0.44493862986564636
1711552125589735400,1.0467353515625,-0.21082471311092377,0.7443387508392334,0.4525744318962097
1711552125608695300,1.0656953125,-0.21601705253124237,0.3897317349910736,0.34842199087142944
1711552125627655400,1.084655517578125,-0.01718057133257389,0.5488619804382324,0.1914297491312027
1711552125646615300,1.103615234375,0.19204062223434448,0.9902117848396301,0.08910989761352539
1711552125665575200,1.1225751953125,0.29130613803863525,1.3750566244125366,0.0576503649353981
1711552125684535000,1.14153515625,0.3395644724369049,1.7431026697158813,0.06467530876398087
1711552125703495000,1.160494873046875,0.3096320927143097,1.9581270217895508,0.09644027799367905
1711552125722454800,1.179454833984375,0.25037819147109985,1.5412118434906006,0.07903063297271729
1711552125741414700,1.19841455078125,0.30749404430389404,0.9447023868560791,0.034437503665685654
1711552125760374800,1.217374755859375,0.5145772099494934,0.5323686599731445,-0.026648975908756256
1711552125779334700,1.236334716796875,0.7549524903297424,0.35705047845840454,-0.22243113815784454
1711552125798294500,1.25529443359375,0.9082795977592468,0.3222311735153198,-0.26702427864074707
1711552125817254400,1.27425439453125,0.6446914076805115,0.516791582107544,-0.16195552051067352
1711552125836214300,1.29321435546875,0.39454227685928345,0.48075059056282043,-0.16012293100357056
1711552125855174100,1.312174072265625,0.23907721042633057,0.23732095956802368,-0.18272492289543152
1711552125874134300,1.33113427734375,0.2213621288537979,-0.06902772188186646,-0.27435463666915894
1711552125893094100,1.35009423828125,0.2625955045223236,-0.021380268037319183,-0.3989710509777069
1711552125912054000,1.369053955078125,0.1758527010679245,-0.24862197041511536,-0.21876594424247742
1711552125931014000,1.388013916015625,0.07567087560892105,-0.38850998878479004,-0.01107192412018776
1711552125949973800,1.406973876953125,-0.046807512640953064,-0.49999281764030457,-0.041004300117492676
1711552125968933600,1.42593359375,-0.006185005884617567,-0.43371400237083435,-0.17050762474536896
1711552125987893800,1.444893798828125,0.07506000995635986,-0.4731147587299347,-0.08559742569923401
1711552126006853600,1.463853515625,0.0527634471654892,-0.5760455131530762,-0.09873101860284805
1711552126025813500,1.4828134765625,-0.015347977168858051,-0.46425724029541016,-0.18791727721691132
1711552126044773400,1.5017734375,-0.13019055128097534,-0.5827649831771851,-0.03611737862229347
1711552126063733200,1.520733154296875,0.027717988938093185,-0.7015781998634338,0.150196373462677
1711552126082693000,1.539693115234375,0.17707443237304688,-0.721431314945221,0.05978839099407196
1711552126101653000,1.558653076171875,0.13645191490650177,-0.7455604672431946,-0.11003202199935913
1711552126120613000,1.577613037109375,-0.004963276442140341,-0.9257655739784241,-0.15981750190258026
1711552126139573000,1.596572998046875,-0.07429642975330353,-1.2440260648727417,-0.10819942504167557
1711552126158532900,1.615532958984375,-0.20227259397506714,-1.5949679613113403,-0.17631085216999054
1711552126177492700,1.63449267578125,-0.17020219564437866,-1.739437460899353,-0.30978479981422424
1711552126196452900,1.653452880859375,-0.1784488707780838,-1.4621047973632812,-0.27832525968551636
1711552126215412700,1.672412841796875,-0.17050762474536896,-1.2919789552688599,-0.16042836010456085
1711552126234372600,1.69137255859375,-0.3369682729244232,-1.508836030960083,-0.2569449841976166
1711552126253332500,1.71033251953125,-0.3745364546775818,-1.546709656715393,-0.2957349121570587
1711552126272292600,1.729292724609375,-0.2807687222957611,-1.239139199256897,-0.16470441222190857
1711552126291252500,1.74825244140625,-0.24625486135482788,-1.3637555837631226,-0.20654866099357605
1711552126310212400,1.76721240234375,-0.1995237022638321,-1.721111536026001,-0.3427715003490448
1711552126329172200,1.786172119140625,-0.09903645515441895,-1.813657522201538,-0.4252382516860962
1711552126348132000,1.805132080078125,-0.03306305781006813,-1.6328415870666504,-0.4200458824634552
1711552126367092000,1.824092041015625,-0.06635518372058868,-1.7892229557037354,-0.3891972303390503
1711552126386051800,1.8430517578125,-0.12347104400396347,-1.7516547441482544,-0.32078036665916443
1711552126405012000,1.862011962890625,-0.22792892158031464,-1.342680811882019,-0.14149154722690582
1711552126423971800,1.880971923828125,-0.18791727721691132,-0.5684096813201904,0.1764635592699051
1711552126442931700,1.899931640625,-0.16073378920555115,-0.0873536616563797,0.40981391072273254
1711552126461891800,1.918891845703125,-0.19708025455474854,-0.003970621153712273,0.5011382102966309
1711552126480851700,1.937851806640625,-0.12377647310495377,0.11759147047996521,0.41958773136138916
1711552126499811600,1.9568115234375,0.08116865903139114,0.3851502537727356,0.2225838601589203
1711552126518771500,1.975771484375,0.2732856273651123,0.9410371780395508,0.18226677179336548
1711552126537731300,1.9947314453125,0.40034550428390503,1.545487880706787,0.2894735336303711
1711552126556691500,2.01369140625,0.5597811937332153,1.9694280624389648,0.35727953910827637
1711552126575651300,2.0326513671875,0.6877573728561401,2.1954479217529297,0.31665703654289246
1711552126594611200,2.051611083984375,0.7018072605133057,2.2171337604522705,0.13064870238304138
1711552126613571300,2.0705712890625,0.6788998246192932,2.0686936378479004,-0.10728313028812408
1711552126632531200,2.08953125,0.6630173325538635,1.8258748054504395,-0.3638463318347931
1711552126651491000,2.108490966796875,0.2375500351190567,1.1032217741012573,-0.5926151871681213
1711552126670451000,2.127450927734375,-0.021456625312566757,0.1805105358362198,-0.8455132246017456
1711552126689410800,2.146410888671875,0.10499238222837448,-0.4053087830543518,-1.0165553092956543
1711552126708371000,2.165370849609375,0.5252673625946045,-0.7107411623001099,-1.247462272644043
1711552126727330800,2.184330810546875,0.6193405389785767,-0.9648609161376953,-1.4282782077789307
1711552126746291000,2.203291015625,0.5970439910888672,-1.1184934377670288,-1.4649300575256348
1711552126765250800,2.222250732421875,0.5231293439865112,-0.998153030872345,-1.433470606803894
1711552126784210700,2.241210693359375,0.5817723274230957,-1.0235038995742798,-1.4096468687057495
1711552126803170600,2.260170654296875,0.6422479748725891,-1.1294889450073242,-1.3778818845748901
1711552126822130400,2.27913037109375,0.6737074851989746,-1.3041963577270508,-1.3558907508850098
1711552126841090600,2.298090576171875,0.6749292016029358,-1.3527600765228271,-1.3051890134811401
1711552126860050400,2.317050537109375,0.6636282205581665,-1.2812888622283936,-1.2224167585372925
1711552126879010300,2.33601025390625,0.5802451968193054,-1.1869102716445923,-1.1039090156555176
1711552126897970200,2.35497021484375,0.4947241246700287,-1.1239912509918213,-0.9667698740959167
1711552126916930300,2.373930419921875,0.4385245442390442,-1.1212422847747803,-0.894076943397522
1711552126935890200,2.39289013671875,0.37927067279815674,-1.1462877988815308,-0.8617011308670044
1711552126954850300,2.411850341796875,0.28214317560195923,-1.2101231813430786,-0.7795398235321045
1711552126973810200,2.43081005859375,0.24549128115177155,-1.1890482902526855,-0.6445387005805969
1711552126992770000,2.44977001953125,0.22105668485164642,-1.0928370952606201,-0.5544361472129822
1711552127011730000,2.46872998046875,0.05826122686266899,-1.0329723358154297,-0.45883581042289734
1711552127030690000,2.48768994140625,-0.09017891436815262,-0.9330959320068359,-0.3690386712551117
1711552127049650000,2.50664990234375,-0.09384410083293915,-0.9401208758354187,-0.1787542998790741
1711552127068609800,2.52560986328125,-0.05413788929581642,-1.1881320476531982,0.050930850207805634
1711552127087569700,2.544569580078125,-0.15065452456474304,-1.9498803615570068,0.04146244749426842
1711552127106529800,2.56352978515625,-0.20715951919555664,-2.525315046310425,-0.21235187351703644
1711552127125489700,2.58248974609375,-0.0022143847309052944,-2.1920883655548096,-0.4951822757720947
1711552127144449800,2.60144970703125,0.16332997381687164,-0.7461713552474976,-0.7031817436218262
1711552127163409700,2.62040966796875,-0.003741546766832471,0.31459537148475647,-0.5168679356575012
1711552127182369500,2.63936962890625,-0.21082471311092377,0.4214966893196106,-0.26763513684272766
1711552127201329400,2.658329345703125,-0.2853502035140991,-0.5027416944503784,-0.013820815831422806
1711552127220289500,2.67728955078125,-0.1421024203300476,-1.3927717208862305,0.09246965497732162
1711552127239249400,2.69624951171875,0.13187043368816376,-1.85092031955719,0.06192641705274582
1711552127258209300,2.715209228515625,0.39942920207977295,-2.0155482292175293,-0.1576794683933258
1711552127277169200,2.734169189453125,0.35727953910827637,-1.6719368696212769,-0.20013457536697388
1711552127296129300,2.75312939453125,0.1089630052447319,-1.0277799367904663,-0.12927426397800446
1711552127315089200,2.772089111328125,-0.10331250727176666,-0.4938841760158539,0.03413207083940506
1711552127334049300,2.79104931640625,-0.20013457536697388,-0.29626941680908203,0.11812597513198853
1711552127353009200,2.810009033203125,-0.17417281866073608,-0.04978547990322113,0.08147408813238144
1711552127371969000,2.828968994140625,-0.10453423857688904,-0.4062250852584839,0.04482220485806465
1711552127390929000,2.847928955078125,0.06375901401042938,-0.5635227560997009,-0.030314164236187935
1711552127409889000,2.866888916015625,0.14653119444847107,-0.31001389026641846,-0.08254310488700867
1711552127428849000,2.885848876953125,0.06681333482265472,-0.08857539296150208,-0.05413788929581642
1711552127447808800,2.904808837890625,0.007254019379615784,-0.013439024798572063,-0.015958841890096664
1711552127466769000,2.923768798828125,-0.01870773360133171,0.34697118401527405,-0.02023489587008953
1711552127485728800,2.942728759765625,-0.008628465235233307,0.4889972507953644,-0.011377356946468353
1711552127504688600,2.961688720703125,0.06039925664663315,0.759304940700531,-0.06085740402340889
1711552127523648500,2.9806484375,0.13064870238304138,1.1673625707626343,-0.11003202199935913
1711552127542608600,2.999608642578125,0.14683662354946136,1.4541635513305664,-0.05841394513845444
1711552127561568500,3.018568603515625,0.0628427118062973,1.4059052467346191,0.04451677203178406
1711552127580528600,3.037528564453125,0.009392046369612217,1.4450006484985352,0.08208495378494263
1711552127599488500,3.056488525390625,0.0066431546583771706,1.130099892616272,0.07658717036247253
1711552127618448400,3.075448486328125,0.026190826669335365,1.0986403226852417,0.12881611287593842
1711552127637408500,3.094408447265625,0.04146244749426842,1.0299180746078491,0.18226677179336548
1711552127656368400,3.113368408203125,0.03260490670800209,0.9480621218681335,0.24029892683029175
1711552127675328300,3.132328369140625,-0.06727148592472076,0.9343177080154419,0.261984646320343
1711552127694288100,3.1512880859375,-0.0962875634431839,1.062904715538025,0.22411102056503296
1711552127713248300,3.170248291015625,0.08727730810642242,1.3839141130447388,0.22472187876701355
1711552127732208000,3.1892080078125,0.16485713422298431,1.2834268808364868,0.252210795879364
1711552127751168000,3.20816796875,0.06864593178033829,0.8530726432800293,0.22594361007213593
1711552127770128100,3.227128173828125,0.048792824149131775,0.5152644515037537,0.11720968037843704
1711552127789088000,3.246087890625,0.08025235682725906,0.2761108875274658,0.007254019379615784
1711552127808048000,3.265048095703125,0.15263983607292175,0.06902772188186646,0.00511599238961935
1711552127827008000,3.284008056640625,0.1407279670238495,-0.09590577334165573,-0.015347977168858051
1711552127845968000,3.3029677734375,0.10193806141614914,-0.22876885533332825,-0.0025198173243552446
1711552127864927700,3.321927734375,0.06192641705274582,-0.4205803871154785,0.03352120518684387
1711552127883887900,3.340887939453125,0.03535379841923714,-0.46364638209342957,0.03352120518684387
1711552127902847700,3.35984765625,0.06681333482265472,-0.602007269859314,0.013973532244563103
1711552127921807600,3.3788076171875,0.09827287495136261,-0.5021308660507202,0.04298960790038109
1711552127940767500,3.397767578125,0.057955797761678696,-0.25411975383758545,0.04818195849657059
1711552127959727600,3.4167275390625,-0.033979352563619614,0.5048797130584717,0.054901473224163055
1711552127978687500,3.4356875,-0.12255474925041199,0.750141978263855,0.10560324788093567
1711552127997647400,3.4546474609375,-0.09353867173194885,0.6890554428100586,0.07933606207370758
1711552128016607500,3.473607421875,-0.0019089524867013097,0.3194822669029236,0.0243582334369421
1711552128035567400,3.4925673828125,0.03352120518684387,0.21319180727005005,-0.043753188103437424
1711552128054527500,3.511527587890625,0.015806125476956367,0.40714138746261597,-0.018402300775051117
1711552128073487400,3.5304873046875,-0.06604975461959839,0.7116574645042419,0.05826122686266899
1711552128092447200,3.549447265625,-0.09414953738451004,0.943786084651947,0.13828451931476593
1711552128111407400,3.568407470703125,-0.051389001309871674,0.851545512676239,0.19937099516391754
1711552128130367200,3.5873671875,-0.08743002265691757,0.4474584460258484,0.19326233863830566
1711552128149327000,3.6063271484375,-0.17234022915363312,-0.007024944759905338,0.11232276260852814
1711552128168287000,3.625286865234375,-0.1014799103140831,-0.4511236250400543,0.050319984555244446
1711552128187247000,3.6442470703125,-0.04405862092971802,-0.6765327453613281,0.018860450014472008
1711552128206207000,3.66320703125,0.042684175074100494,-0.850018322467804,0.004199695307761431
1711552128225166800,3.682166748046875,0.11049016565084457,-1.1465932130813599,-0.03581194952130318
1711552128244127000,3.701126953125,0.1508072465658188,-1.3961313962936401,-0.08009964227676392
1711552128263086800,3.7200869140625,0.14714205265045166,-1.5790854692459106,-0.12255474925041199
1711552128282047000,3.739046875,0.11323905736207962,-1.6218459606170654,-0.13965895771980286
1711552128301006800,3.7580068359375,0.10774127393960953,-1.3665045499801636,-0.14118611812591553
1711552128319966700,3.776966796875,0.06039925664663315,-1.0696241855621338,-0.1219438835978508
1711552128338926600,3.795926513671875,-0.06238456442952156,-0.9837977290153503,-0.10270164161920547
1711552128357886700,3.81488671875,-0.13904809951782227,-1.0653481483459473,-0.10178534686565399
1711552128376846600,3.8338466796875,-0.1219438835978508,-1.1633919477462769,-0.08223766833543777
1711552128395806500,3.852806396484375,-0.09017891436815262,-1.0650427341461182,-0.016875140368938446
1711552128414766300,3.871766357421875,-0.08559742569923401,-0.5396990180015564,-0.022067490965127945
1711552128433726500,3.8907265625,-0.14454588294029236,-0.15546508133411407,-0.09964732080698013
1711552128452686300,3.909686279296875,-0.13568833470344543,0.10506874322891235,-0.024205517023801804
1711552128471646500,3.928646484375,-0.14332415163516998,0.3430005609989166,0.04604393243789673
1711552128490606300,3.9476064453125,-0.13324488699436188,0.33536475896835327,0.0781143307685852
1711552128509566200,3.966566162109375,-0.14698933064937592,0.044898562133312225,0.10468695312738419
1711552128528526300,3.9855263671875,-0.17997603118419647,-0.30024003982543945,0.13553562760353088
1711552128547486200,4.004486328125,-0.17905974388122559,-0.5925388336181641,0.1651625633239746
1711552128566446000,4.023446044921875,-0.1726456582546234,-1.2214241027832031,0.05429060757160187
1711552128585406000,4.042406005859375,-0.10178534686565399,-1.6927063465118408,0.04696023091673851
1711552128604366000,4.061365966796875,0.017333287745714188,-1.377500057220459,0.07597630470991135
1711552128623326000,4.080325927734375,0.07719803601503372,-1.1209368705749512,0.061620984226465225
1711552128642285800,4.099285888671875,0.022220205515623093,-0.8261946439743042,0.08177952468395233
1711552128661245700,4.11824560546875,-0.0907897800207138,-0.6087267398834229,0.13553562760353088
1711552128680205800,4.137205810546875,-0.12499820441007614,-0.40866854786872864,0.03840812295675278
1711552128699165700,4.156165771484375,-0.05780307948589325,0.08368847519159317,-0.10422880202531815
1711552128718125800,4.175125732421875,0.06192641705274582,0.8897245526313782,-0.19097159802913666
1711552128737085700,4.194085693359375,0.07750347256660461,0.693636953830719,-0.16134466230869293
1711552128756045600,4.213045654296875,0.12240202724933624,0.9999856352806091,-0.27985242009162903
1711552128775005700,4.232005615234375,-0.014737112447619438,1.9718714952468872,-0.33544111251831055
1711552128793965600,4.250965576171875,-0.02848157100379467,2.7061309814453125,-0.2917642891407013
1711552128812925400,4.269925537109375,0.15447242558002472,3.2418594360351562,-0.09292780607938766
1711552128831885300,4.28888525390625,-0.049250971525907516,3.7565128803253174,0.11782054603099823
1711552128850845400,4.307845458984375,-0.275270938873291,3.629453182220459,0.2015090137720108
1711552128869805300,4.326805419921875,-0.21846051514148712,3.0405795574188232,0.15263983607292175
1711552128888765200,4.34576513671875,-0.05627591907978058,2.2864668369293213,0.11690424382686615
1711552128907725300,4.364725341796875,-0.018096869811415672,1.2165372371673584,0.04512763395905495
1711552128926685200,4.383685302734375,-0.059635672718286514,0.9465349912643433,0.13920080661773682
1711552128945645000,4.40264501953125,-0.0501672700047493,1.395825982093811,0.08544471114873886
1711552128964605200,4.421605224609375,0.1914297491312027,2.2647812366485596,0.29069527983665466
1711552128983565000,4.44056494140625,-0.14576761424541473,2.816697597503662,0.10163262486457825
1711552129002525000,4.45952490234375,-0.21265730261802673,1.7424918413162231,0.026801692321896553
1711552129021484800,4.47848486328125,-0.030314164236187935,0.7067705392837524,-0.25725042819976807
1711552129040445000,4.49744482421875,0.11537708342075348,-0.000305432389723137,-0.37606361508369446
1711552129059404800,4.51640478515625,0.04451677203178406,-0.2257145345211029,-0.30947935581207275
1711552129078364700,4.53536474609375,0.006948587018996477,-0.1853974610567093,-0.23251040279865265
1711552129097324800,4.55432470703125,-0.031841326504945755,-0.2721402645111084,-0.1683696061372757
1711552129116284700,4.57328466796875,-0.04558578506112099,-0.37171122431755066,-0.10453423857688904
1711552129135244500,4.59224462890625,-0.08040507882833481,-0.26511532068252563,-0.03520108386874199
1711552129154204700,4.61120458984375,-0.11522436887025833,-0.10567960888147354,0.042684175074100494
1711552129173164500,4.63016455078125,-0.00007635809743078426,-0.06352993845939636,0.0475710928440094
1711552129192124400,4.64912451171875,0.032910339534282684,0.01954767294228077,0.020998476073145866
1711552129211084300,4.668084228515625,0.07567087560892105,0.24037529528141022,-0.012293653562664986
1711552129230044400,4.68704443359375,0.06375901401042938,0.527481734752655,-0.043753188103437424
1711552129249004300,4.70600439453125,0.07047852128744125,0.6047561168670654,-0.10331250727176666
1711552129267964200,4.724964111328125,0.056428633630275726,0.6273581385612488,-0.12255474925041199
1711552129286924000,4.743924072265625,0.08177952468395233,0.37262752652168274,-0.13446660339832306
1711552129305884200,4.76288427734375,0.045738499611616135,0.22876885533332825,-0.10606139898300171
1711552129324844000,4.781843994140625,0.0732274129986763,-0.11636973917484283,-0.06727148592472076
1711552129343804000,4.800803955078125,0.13309216499328613,-0.4318813979625702,-0.044669486582279205
1711552129362764000,4.819763916015625,0.20547963678836823,-0.7443387508392334,-0.040088001638650894
1711552129381724000,4.838723876953125,0.19540037214756012,-0.8072578310966492,-0.05810851231217384
1711552129400683800,4.857683837890625,0.07475458085536957,-0.5250383019447327,-0.021456625312566757
1711552129419643600,4.8766435546875,-0.043753188103437424,-0.2626718580722809,0.002672533504664898
1711552129438603800,4.895603759765625,-0.09689842909574509,-0.24312418699264526,-0.04436405375599861
1711552129457563600,4.914563720703125,-0.10514509677886963,-0.32620179653167725,-0.11369720846414566
1711552129476523500,4.9335234375,-0.09353867173194885,-0.2932150959968567,-0.10881029069423676
1711552129495483600,4.952483642578125,-0.013515383005142212,-0.2574795186519623,-0.04069886729121208
1711552129514443500,4.971443603515625,0.000839939049910754,-0.4159989058971405,-0.0758235901594162
1711552129533403400,4.9904033203125,0.03107774630188942,-0.7202095985412598,-0.13416117429733276
1711552129552363300,5.00936328125,0.05123628303408623,-1.0378592014312744,-0.17753258347511292
1711552129571323400,5.028323486328125,0.0985783040523529,-1.2944225072860718,-0.17020219564437866
1711552129590283300,5.047283203125,0.14836378395557404,-1.275485634803772,-0.18241949379444122
1711552129609243100,5.0662431640625,0.18745912611484528,-1.295338749885559,-0.2954294681549072
1711552129628203000,5.085203125,0.27603453397750854,-1.2562434673309326,-0.36476263403892517
1711552129647163000,5.104162841796875,0.2900844216346741,-0.7889318466186523,-0.2954294681549072
1711552129666123000,5.123123046875,0.33315038681030273,-0.8588758707046509,-0.043142326176166534
1711552129685083000,5.142082763671875,0.3236819803714752,-1.1261292695999146,0.06650790572166443
1711552129704042800,5.161042724609375,0.39484772086143494,-1.416900873184204,-0.006185005884617567
1711552129723003000,5.1800029296875,0.5408443808555603,-1.6059634685516357,-0.11827868968248367
1711552129741962800,5.198962646484375,0.5857429504394531,-1.4950915575027466,-0.06238456442952156
1711552129760922600,5.217922607421875,0.5466476082801819,-1.0344995260238647,0.0781143307685852
1711552129779882500,5.236882568359375,0.5258781909942627,-0.6594285368919373,0.22808164358139038
1711552129798842400,5.25584228515625,0.4650971591472626,-0.3426951467990875,0.3096320927143097
1711552129817802500,5.274802490234375,0.4128682315349579,0.036651886999607086,0.43944084644317627
1711552129836762400,5.293762451171875,0.3181841969490051,0.7706059217453003,0.49228066205978394
1711552129855722200,5.31272216796875,0.2928332984447479,1.4749330282211304,0.594295084476471
1711552129874682400,5.331682373046875,0.33223408460617065,1.8903210163116455,0.7128028273582458
1711552129893642200,5.350642333984375,0.2543488144874573,2.175900459289551,0.7745001912117004
1711552129912602000,5.36960205078125,0.11140646785497665,2.4205517768859863,0.8117629289627075
1711552129931562000,5.38856201171875,0.06681333482265472,2.3729043006896973,0.8303943276405334
1711552129950521900,5.40752197265625,0.12179116904735565,1.7223331928253174,0.8413898944854736
1711552129969482000,5.42648193359375,0.19448406994342804,1.1087195873260498,0.8032108545303345
1711552129988441900,5.44544189453125,0.2683987021446228,0.27000224590301514,0.826423704624176
1711552130007401700,5.464401611328125,0.2271653413772583,-0.36132651567459106,0.9214131832122803
1711552130026361900,5.48336181640625,-0.08437569439411163,0.22724169492721558,0.8316160440444946
1711552130045321700,5.50232177734375,-0.06085740402340889,0.3197877109050751,0.5814669132232666
1711552130064281600,5.521281494140625,-0.037949975579977036,0.5445859432220459,0.6297252178192139
1711552130083241500,5.540241455078125,-0.033368486911058426,0.23518294095993042,0.6401099562644958
1711552130102201300,5.559201416015625,-0.183030366897583,0.07483093440532684,0.6196459531784058
1711552130121161200,5.5781611328125,-0.3384954333305359,-0.10445787757635117,0.6358338594436646
1711552130140121300,5.597121337890625,-0.39225155115127563,-0.007635809946805239,0.6721803545951843
1711552130159081200,5.616081298828125,-0.4469239413738251,0.13561198115348816,0.7079159021377563
1711552130178041000,5.635041015625,-0.5752055644989014,-0.26908594369888306,0.7170788645744324
1711552130197001200,5.654001220703125,-0.6317105293273926,-0.5302306413650513,0.678288996219635
1711552130215961000,5.672961181640625,-0.5516872406005859,-0.4068359434604645,0.5130500793457031
1711552130234921000,5.6919208984375,-0.6384300589561462,-0.4175260663032532,0.40431612730026245
1711552130253880800,5.710880859375,-0.9346994757652283,-0.8164207935333252,0.395764023065567
1711552130272840700,5.7298408203125,-1.0373247861862183,-1.3026691675186157,0.3362047076225281
1711552130291800800,5.74880078125,-0.9744057059288025,-1.4492766857147217,0.170965775847435
1711552130310760700,5.7677607421875,-1.152778148651123,-1.6429208517074585,0.10713040828704834
1711552130329720600,5.786720458984375,-1.2080614566802979,-1.9129230976104736,0.17890702188014984
1711552130348680400,5.805680419921875,-1.127427339553833,-1.8952080011367798,0.22075125575065613
1711552130367640300,5.824640380859375,-1.2285254001617432,-1.878714680671692,0.11476621776819229
1711552130386600400,5.843600341796875,-1.1692715883255005,-1.7730350494384766,0.05826122686266899
1711552130405560300,5.862560302734375,-0.894993245601654,-1.5470150709152222,0.1450040340423584
1711552130424520200,5.881520263671875,-0.8702532649040222,-1.1771364212036133,0.1602756530046463
1711552130443480300,5.900480224609375,-0.9047670960426331,-0.5739074349403381,0.13767364621162415
1711552130462440200,5.919440185546875,-0.608497679233551,0.23793183267116547,0.022525638341903687
1711552130481400000,5.938400146484375,-0.42707082629203796,0.6823359727859497,0.0322994738817215
1711552130500360000,5.95735986328125,-0.4600575268268585,1.017395257949829,0.045738499611616135
1711552130519319800,5.97631982421875,-0.47838348150253296,1.2528836727142334,0.061620984226465225
1711552130538279700,5.99527978515625,-0.4350120723247528,1.5152500867843628,0.0683404952287674
1711552130557239800,6.01423974609375,-0.23709189891815186,1.8191553354263306,0.17157664895057678
1711552130576199700,6.03319970703125,-0.04711294546723366,1.91414475440979,0.2592357397079468
1711552130595159600,6.05215966796875,0.024052800610661507,2.075718402862549,0.24640758335590363
1711552130614119700,6.07111962890625,0.000839939049910754,2.3542728424072266,0.0057268571108579636
1711552130633079600,6.09007958984375,-0.19249875843524933,2.7699663639068604,-0.2092975378036499
1711552130652039400,6.109039306640625,-0.3635408878326416,3.327380418777466,-0.4059959948062897
1711552130670999300,6.127999267578125,-0.44875654578208923,4.037510871887207,-0.5657371282577515
1711552130689959200,6.146959228515625,-0.571234941482544,4.157545566558838,-0.6619483232498169
1711552130708919300,6.165919189453125,-0.636292040348053,2.6300783157348633,-0.5886445641517639
1711552130727879200,6.184879150390625,-0.4597521126270294,0.1484401375055313,-0.5742892622947693
1711552130746839000,6.203839111328125,-0.3360520005226135,-1.37078058719635,-0.8363502621650696
1711552130765799200,6.222799072265625,-0.297872930765152,-2.682612657546997,-1.1029927730560303
1711552130784759000,6.241759033203125,-0.1378263682126999,-3.587608814239502,-1.237688422203064
1711552130803719000,6.260718994140625,-0.07124210149049759,-3.6056294441223145,-1.303661823272705
1711552130822678800,6.2796787109375,-0.2566395699977875,-3.236361503601074,-1.3525309562683105
1711552130841639000,6.298638916015625,-0.6323214173316956,-2.389092206954956,-1.4142283201217651
1711552130860598800,6.317598876953125,-0.9872338175773621,-1.561675786972046,-1.4197261333465576
1711552130879558700,6.33655859375,-1.2517383098602295,-0.9550870656967163,-1.3980404138565063
1711552130898518500,6.3555185546875,-1.4246129989624023,-0.6801979541778564,-1.3354268074035645
1711552130917478400,6.374478515625,-1.5251002311706543,-0.5564978122711182,-1.246240496635437
1711552130936438500,6.3934384765625,-1.5953497886657715,-0.5024362802505493,-1.1656063795089722
1711552130955398400,6.4123984375,-1.680565357208252,-0.5439751148223877,-1.1112394332885742
1711552130974358500,6.431358642578125,-1.7419573068618774,-0.6062833070755005,-1.079779863357544
1711552130993318400,6.450318359375,-1.7902156114578247,-0.6026180982589722,-1.043738842010498
1711552131012278300,6.4692783203125,-1.8076252937316895,-0.48441576957702637,-0.9814306497573853
1711552131031238100,6.488238037109375,-1.7816635370254517,-0.2522871494293213,-0.9188169836997986
1711552131050198300,6.5071982421875,-1.6704860925674438,0.03176496922969818,-0.8455132246017456
1711552131069158100,6.526158203125,-1.523878574371338,0.33689191937446594,-0.7584649920463562
1711552131088118000,6.545117919921875,-1.3158791065216064,0.5937605500221252,-0.7044034600257874
1711552131107078000,6.564077880859375,-1.0590105056762695,0.7819069027900696,-0.6292670965194702
1711552131126038000,6.5830380859375,-0.8244383931159973,0.907439649105072,-0.5550470352172852
1711552131144998000,6.601997802734375,-0.607886791229248,0.8796452879905701,-0.49884745478630066
1711552131163958000,6.6209580078125,-0.37514734268188477,0.8148936033248901,-0.38247770071029663
1711552131182918000,6.63991796875,-0.16470441222190857,0.730594277381897,-0.2713003158569336
1711552131201877800,6.658877685546875,-0.07002037763595581,0.5958985686302185,-0.11736239492893219
1711552131220838000,6.677837890625,-0.03520108386874199,0.5986474752426147,0.10010546445846558
1711552131239797800,6.6967978515625,-0.0019089524867013097,0.7174606919288635,0.3258199989795685
1711552131258757600,6.715757568359375,-0.003741546766832471,0.8820887207984924,0.5130500793457031
1711552131277717500,6.734717529296875,-0.002825249684974551,1.1151336431503296,0.6758455038070679
1711552131296677600,6.753677734375,0.043600473552942276,1.3588687181472778,0.7714458703994751
1711552131315637500,6.772637451171875,0.06498073786497116,1.477987289428711,0.8145118355751038
1711552131334597400,6.791597412109375,0.032910339534282684,1.4883720874786377,0.8377246856689453
1711552131353557500,6.8105576171875,-0.04283689334988594,1.4367539882659912,0.8383355736732483
1711552131372517400,6.829517333984375,-0.0859028622508049,1.423925757408142,0.8087086081504822
1711552131391477500,6.8484775390625,-0.047723811119794846,1.4340050220489502,0.7369319796562195
1711552131410437400,6.867437255859375,0.0524580143392086,1.3533709049224854,0.6205622553825378
1711552131429397200,6.886397216796875,0.1856265366077423,0.9960150122642517,0.4336376488208771
1711552131448357400,6.905357421875,0.3245982825756073,0.37812530994415283,0.17249293625354767
1711552131467317200,6.924317138671875,0.5011382102966309,-0.2260199636220932,-0.11736239492893219
1711552131486277000,6.943277099609375,0.705472469329834,-0.6728675365447998,-0.36567893624305725
1711552131505237200,6.9622373046875,0.9357684850692749,-0.9593631625175476,-0.5031235218048096
1711552131524197000,6.981197021484375,1.1614830493927002,-1.0586286783218384,-0.5211440324783325
1711552131543157000,7.000156982421875,1.342909812927246,-1.1133010387420654,-0.5095375776290894
1711552131562117000,7.0191171875,1.4730240106582642,-1.1698060035705566,-0.44203701615333557
1711552131581077000,7.038076904296875,1.609246850013733,-1.1670571565628052,-0.2709949016571045
1711552131600036900,7.057036865234375,1.7735695838928223,-1.2070688009262085,-0.09995274990797043
1711552131618997000,7.0759970703125,1.935143232345581,-1.3649773597717285,0.020693045109510422
1711552131637956900,7.094956787109375,2.001422166824341,-1.5216641426086426,0.16271910071372986
1711552131656916700,7.113916748046875,1.9540801048278809,-1.5690062046051025,0.3358992636203766
1711552131675876900,7.132876953125,1.8798600435256958,-1.4575233459472656,0.5133554935455322
1711552131694836700,7.151836669921875,1.9024620056152344,-1.2104285955429077,0.6828704476356506
1711552131713796900,7.170796875,1.9791254997253418,-0.9853248596191406,0.8230639100074768
1711552131732756700,7.1897568359375,2.0976333618164062,-0.815199077129364,0.9336304664611816
1711552131751716900,7.208716796875,2.228358268737793,-0.6939423680305481,1.0096831321716309
1711552131770676700,7.2276767578125,2.2106432914733887,-0.6606502532958984,1.0982584953308105
1711552131789636600,7.24663671875,2.0985496044158936,-0.6966912746429443,1.1798089742660522
1711552131808596700,7.2655966796875,1.9748494625091553,-0.6985238790512085,1.314504623413086
1711552131827556600,7.284556640625,1.7973932027816772,-0.5812378525733948,1.4476732015609741
1711552131846516700,7.303516845703125,1.5457170009613037,-0.35185810923576355,1.4782164096832275
1711552131865476600,7.3224765625,1.306257963180542,-0.08918625861406326,1.419268012046814
1711552131884436500,7.3414365234375,1.1660645008087158,0.2049451321363449,1.342909812927246
1711552131903396600,7.360396728515625,1.049083948135376,0.43432486057281494,1.2060761451721191
1711552131922356500,7.3793564453125,0.918664276599884,0.43951719999313354,1.0133483409881592
1711552131941316600,7.398316650390625,0.8868992924690247,0.2370155304670334,0.8606321215629578
1711552131960276500,7.4172763671875,0.9376010894775391,0.0665842592716217,0.7247146964073181
1711552131979236400,7.436236328125,0.9131664633750916,0.0513126403093338,0.5606974959373474
1711552131998196500,7.455196533203125,0.8276454210281372,0.16249002516269684,0.4272235631942749
1711552132017156400,7.47415625,0.7793871164321899,0.28954991698265076,0.3606393039226532
1711552132036116500,7.493116455078125,0.7534253597259521,0.31093016266822815,0.31726789474487305
1711552132055076400,7.512076416015625,0.7347939610481262,0.2162461280822754,0.3108538091182709
1711552132074036500,7.531036376953125,0.7112756967544556,0.11759147047996521,0.3264308571815491
1711552132092996400,7.549996337890625,0.6233111619949341,-0.010690134018659592,0.12576179206371307
1711552132111956200,7.568956298828125,0.47120583057403564,-0.06780599057674408,0.09796743839979172
1711552132130916400,7.587916259765625,0.36247187852859497,-0.04886918142437935,0.10743584483861923
1711552132149876200,7.606876220703125,0.30566146969795227,-0.06047561392188072,0.051847148686647415
1711552132168836400,7.62583642578125,0.2577085793018341,-0.10690133273601532,0.009697478264570236
1711552132187796200,7.644796142578125,0.20486877858638763,-0.08491020649671555,0.09155336022377014
1711552132206756400,7.66375634765625,0.10560324788093567,-0.08582650125026703,0.18806999921798706
1711552132225716200,7.68271630859375,-0.0006872228696011007,-0.16554436087608337,0.26564982533454895
1711552132244676400,7.70167626953125,-0.021151192486286163,-0.33200499415397644,0.33223408460617065
1711552132263636200,7.72063623046875,0.03260490670800209,-0.536339282989502,0.3557523787021637
1711552132282596400,7.739596435546875,0.05581776797771454,-0.5946768522262573,0.3459785282611847
1711552132301556200,7.75855615234375,0.018860450014472008,-0.38698282837867737,0.33345580101013184
1711552132320516400,7.777516357421875,0.003283398225903511,-0.08124501258134842,0.3157407343387604
1711552132339476200,7.796476318359375,0.010613775812089443,0.20708316564559937,0.31268641352653503
1711552132358436400,7.815436279296875,0.00603228947147727,0.3802633285522461,0.2693150043487549
1711552132377396200,7.834396240234375,0.014278964139521122,0.42271843552589417,0.22441644966602325
1711552132396356400,7.8533564453125,-0.010461059398949146,0.42363473773002625,0.1859319657087326
1711552132415316200,7.872316162109375,-0.013515383005142212,0.389120876789093,0.14653119444847107
1711552132434276400,7.8912763671875,-0.011682788841426373,0.3695732057094574,0.11751510947942734
1711552132453236200,7.910236328125,-0.029397867619991302,0.34727662801742554,0.11751510947942734
1711552132472196400,7.9291962890625,-0.011988221667706966,0.13133592903614044,0.06039925664663315
1711552132491156200,7.94815625,-0.06696604937314987,0.007635809946805239,0.0057268571108579636
1711552132510116400,7.967116455078125,-0.10942115634679794,0.1026252806186676,0.09308052062988281
1711552132529076200,7.986076171875,-0.05688678100705147,0.21349723637104034,0.16485713422298431
1711552132548036400,8.005036376953125,-0.16103923320770264,0.11728604137897491,0.04634936526417732
1711552132566996200,8.023996337890624,-0.561766505241394,-0.23457208275794983,-0.28809911012649536
1711552132585956400,8.042956298828125,-1.0293835401535034,-0.7092140316963196,-0.7496074438095093
1711552132604916200,8.061916259765624,-1.4105631113052368,-1.1801908016204834,-1.114904522895813
1711552132623876400,8.08087646484375,-1.7019456624984741,-1.36772620677948,-1.2080614566802979
1711552132642836200,8.099836181640624,-2.1826961040496826,-1.4773764610290527,-1.1045198440551758
1711552132661796400,8.11879638671875,-2.347935199737549,-1.0830632448196411,-1.218140721321106
1711552132680756200,8.137756103515626,-2.4862959384918213,-0.6349939107894897,-1.4484367370605469
1711552132699716400,8.15671630859375,-2.982318162918091,-0.6407971382141113,-1.7682244777679443
1711552132718676200,8.17567626953125,-3.2474334239959717,-0.2922987937927246,-2.032423496246338
1711552132737636400,8.19463623046875,-3.2642323970794678,0.4712821841239929,-2.3085343837738037
1711552132756596200,8.21359619140625,-3.2523205280303955,1.6618576049804688,-2.628322124481201
1711552132775556400,8.232556396484375,-3.1958155632019043,2.078772783279419,-2.8103597164154053
1711552132794516200,8.25151611328125,-2.949026107788086,2.0274600982666016,-2.91603946685791
1711552132813476400,8.270476318359375,-2.4530038833618164,1.8017456531524658,-2.9649085998535156
1711552132832436500,8.2894365234375,-1.9197189807891846,1.4834851026535034,-2.8983242511749268
1711552132851396400,8.308396240234375,-1.559003233909607,1.1264346837997437,-2.783787250518799
1711552132870356500,8.3273564453125,-1.478369116783142,0.8943060636520386,-2.547076940536499
1711552132889316400,8.34631640625,-1.5052471160888672,0.9260709881782532,-2.2883758544921875
1711552132908276500,8.3652763671875,-1.5333470106124878,1.0357211828231812,-2.1020619869232178
1711552132927236400,8.384236328125,-1.5168535709381104,1.1307107210159302,-1.8060981035232544
1711552132946196500,8.403196533203126,-1.5315144062042236,1.1853830814361572,-1.5431207418441772
1711552132965156400,8.42215625,-1.588630199432373,1.0039563179016113,-1.3757438659667969
1711552132984116500,8.441116455078125,-1.7028619050979614,0.7434224486351013,-1.2398264408111572
1711552133003076400,8.460076416015625,-1.7483713626861572,0.610559344291687,-1.1014655828475952
1711552133022036500,8.479036376953125,-1.7489821910858154,0.5415316224098206,-1.052290916442871
1711552133040996600,8.49799658203125,-1.7419573068618774,0.4990765154361725,-1.0022000074386597
1711552133059956500,8.51695654296875,-1.5791617631912231,0.499381959438324,-0.9991456866264343
1711552133078916600,8.53591650390625,-1.365053653717041,0.5534434914588928,-1.0128902196884155
1711552133097876500,8.55487646484375,-1.3268746137619019,0.6142245531082153,-0.9997565746307373
1711552133116836600,8.573836669921874,-1.2941933870315552,0.5656607747077942,-0.9896773099899292
1711552133135796500,8.59279638671875,-1.1940115690231323,0.5061014890670776,-0.9948696494102478
1711552133154756600,8.611756591796874,-1.099632978439331,0.45539969205856323,-1.0086140632629395
1711552133173716500,8.630716552734375,-0.9710459113121033,0.4062250852584839,-0.9933425188064575
1711552133192676600,8.649676513671874,-0.8229112029075623,0.33139413595199585,-0.9206495881080627
1711552133211636700,8.66863671875,-0.6689732670783997,0.23915356397628784,-0.8369610905647278
1711552133230596600,8.6875966796875,-0.45394888520240784,0.12095122784376144,-0.6986002326011658
1711552133249556700,8.706556640625,-0.20624321699142456,-0.0256563201546669,-0.591088056564331
1711552133268516600,8.7255166015625,-0.06146826967597008,-0.1026252806186676,-0.46341729164123535
1711552133287476700,8.744476806640625,-0.08132137358188629,-0.010079269297420979,-0.4515054225921631
1711552133306436600,8.7634365234375,-0.18058690428733826,0.1130099818110466,-0.5037343502044678
1711552133325396700,8.782396728515625,-0.22701261937618256,0.1805105358362198,-0.5278635025024414
1711552133344356600,8.801356689453126,-0.24136795103549957,0.1340848207473755,-0.5397753715515137
1711552133363316700,8.820316650390625,-0.32566729187965393,0.023212861269712448,-0.5403862595558167
1711552133382276600,8.839276611328126,-0.414242684841156,-0.08826996386051178,-0.49457138776779175
1711552133401236700,8.85823681640625,-0.4203513264656067,-0.18081597983837128,-0.4053851366043091
1711552133420196600,8.877196533203126,-0.4157698452472687,-0.33322674036026,-0.26916229724884033
1711552133439156700,8.89615673828125,-0.3977493345737457,-0.5103775262832642,-0.12469277530908585
1711552133458116600,8.91511669921875,-0.3943895697593689,-0.5580250024795532,0.0029779658652842045
1711552133477076700,8.93407666015625,-0.42157304286956787,-0.48594292998313904,0.09674570709466934
1711552133496036900,8.953036865234376,-0.4756345748901367,-0.40408703684806824,0.16455170512199402
1711552133514996700,8.971996826171875,-0.5678751468658447,-0.3191768527030945,0.20975568890571594
1711552133533956900,8.990956787109376,-0.6329322457313538,-0.1536324918270111,0.19845469295978546
1711552133552916700,9.009916748046875,-0.6879100799560547,-0.024740023538470268,0.09460768103599548
1711552133571876900,9.028876953125,-0.6698895692825317,-0.11698060482740402,0.01824958436191082
1711552133590836700,9.047836669921875,-0.5681806206703186,-0.2861901521682739,-0.0012980876490473747
1711552133609796900,9.066796875,-0.46311184763908386,-0.39248061180114746,-0.027259841561317444
1711552133628756700,9.0857568359375,-0.3895026445388794,-0.40805765986442566,-0.08040507882833481
1711552133647716900,9.104716796875,-0.2957349121570587,-0.370184063911438,-0.09262236952781677
1711552133666676700,9.1236767578125,-0.2514472007751465,-0.3585776388645172,-0.13538290560245514
1711552133685636900,9.142636962890625,-0.249920055270195,-0.33689191937446594,-0.14088068902492523
1711552133704596700,9.1615966796875,-0.2761872410774231,-0.32100942730903625,-0.1011744812130928
1711552133723556900,9.180556884765625,-0.3210858106613159,-0.29535311460494995,-0.05871937796473503
1711552133742516700,9.199516845703124,-0.3430769443511963,-0.2415970265865326,-0.10270164161920547
1711552133761476900,9.218476806640625,-0.36659523844718933,-0.16310089826583862,-0.16500984132289886
1711552133780436700,9.237436767578124,-0.3485747277736664,-0.13255766034126282,-0.224569171667099
1711552133799396900,9.25639697265625,-0.3314704895019531,-0.13164135813713074,-0.2590830326080322
1711552133818356700,9.275356689453124,-0.2920697331428528,-0.16157373785972595,-0.27924156188964844
1711552133837316900,9.29431689453125,-0.2972620725631714,-0.16798780858516693,-0.2774089574813843
1711552133856276700,9.31327685546875,-0.3113119602203369,-0.13622283935546875,-0.23342670500278473
1711552133875236900,9.33223681640625,-0.32597270607948303,-0.07544180005788803,-0.16012293100357056
1711552133894196700,9.35119677734375,-0.3388008773326874,-0.07452550530433655,-0.08254310488700867
1711552133913156600,9.370156494140625,-0.3433823585510254,-0.14508038759231567,-0.016875140368938446
1711552133932116700,9.38911669921875,-0.3333030939102173,-0.17256930470466614,0.05520690605044365
1711552133951076600,9.40807666015625,-0.32444554567337036,-0.10079269111156464,0.14286600053310394
1711552133970036700,9.42703662109375,-0.3360520005226135,-0.06383536756038666,0.1706603467464447
1711552133988996600,9.44599658203125,-0.3623191714286804,-0.13041962683200836,0.17890702188014984
1711552134007956700,9.464956787109376,-0.38705918192863464,-0.18661919236183167,0.14194969832897186
1711552134026916600,9.48391650390625,-0.3742310404777527,-0.17287473380565643,0.1251509189605713
1711552134045876700,9.502876708984376,-0.4050796926021576,-0.10720676928758621,0.14836378395557404
1711552134064836600,9.521836669921875,-0.4713585376739502,-0.021685699000954628,0.15141810476779938
1711552134083796700,9.540796630859376,-0.5474112033843994,0.034208428114652634,0.09246965497732162
1711552134102756600,9.559756591796875,-0.606970489025116,0.09010255336761475,0.051847148686647415
1711552134121716500,9.578716552734376,-0.6139954328536987,0.24740023910999298,-0.02848157100379467
1711552134140676600,9.597676513671875,-0.6341540217399597,0.37201663851737976,-0.11919499188661575
1711552134159636500,9.616636474609376,-0.7584649920463562,0.5021308660507202,-0.12713623046875
1711552134178596600,9.6355966796875,-0.9151517748832703,0.5415316224098206,-0.09017891436815262
1711552134197556500,9.654556396484375,-0.9456950426101685,0.528092622756958,0.009392046369612217
1711552134216516600,9.6735166015625,-0.9246202111244202,0.32589635252952576,0.06772962957620621
1711552134235476500,9.6924765625,-0.8922443389892578,0.09621120244264603,0.0524580143392086
1711552134254436400,9.711436279296874,-0.8268818259239197,0.08857539296150208,-0.02237292192876339
1711552134273396500,9.730396484375,-0.7321978211402893,0.205861434340477,-0.1417969912290573
1711552134292356400,9.7493564453125,-0.6937133073806763,0.2098320573568344,-0.2407570779323578
1711552134311316500,9.76831640625,-0.607581377029419,0.10506874322891235,-0.3171151876449585
1711552134330276400,9.7872763671875,-0.5263363718986511,0.028405211865901947,-0.3745364546775818
1711552134349236500,9.806236572265625,-0.44325876235961914,-0.06108647957444191,-0.4237110912799835
1711552134368196400,9.8251962890625,-0.3898080885410309,-0.24953825771808624,-0.46433359384536743
1711552134387156200,9.84415625,-0.3778962194919586,-0.2767217457294464,-0.5052615404129028
1711552134406116400,9.863116455078124,-0.4762454628944397,-0.2254091054201126,-0.5190060138702393
1711552134425076200,9.882076171875,-0.5632936954498291,-0.1438586562871933,-0.4725802540779114
1711552134444036400,9.901036376953124,-0.5330559015274048,-0.04062250629067421,-0.42859798669815063
1711552134462996200,9.919996337890625,-0.4906007647514343,-0.020769402384757996,-0.4203513264656067
1711552134481956400,9.938956298828124,-0.4970148503780365,-0.10965022444725037,-0.3937787115573883
1711552134500916200,9.957916259765625,-0.48510298132896423,-0.19089524447917938,-0.3690386712551117
1711552134519876400,9.97687646484375,-0.47380200028419495,-0.15027274191379547,-0.349185585975647
1711552134538836200,9.995836181640625,-0.47349655628204346,-0.10415244847536087,-0.36048656702041626
1711552134557796000,10.014796142578126,-0.46769335865974426,-0.020158538594841957,-0.37514734268188477
1711552134576756200,10.033756103515625,-0.43684467673301697,0.1078176349401474,-0.3992764949798584
1711552134595716000,10.052716064453126,-0.3723984360694885,0.14721840620040894,-0.40721774101257324
1711552134614676000,10.071676025390625,-0.25786128640174866,0.07880155742168427,-0.3278053104877472
1711552134633636000,10.090635986328126,-0.2096029818058014,-0.06414080411195755,-0.16134466230869293
1711552134652596000,10.109595947265625,-0.13538290560245514,-0.05742128938436508,-0.05933023989200592
1711552134671555800,10.128555908203126,-0.11766783148050308,-0.026572618633508682,-0.010766491293907166
1711552134690516000,10.147515869140625,-0.16042836010456085,-0.07819069176912308,-0.0022143847309052944
1711552134709475800,10.166475830078125,-0.16103923320770264,-0.08765909820795059,-0.02328922040760517
1711552134728436000,10.18543603515625,-0.13813179731369019,0.011300998739898205,-0.047723811119794846
1711552134747395800,10.204395751953125,-0.08651372790336609,0.14508038759231567,-0.04955640435218811
1711552134766355700,10.223355712890625,-0.004352411720901728,0.13683371245861053,-0.025121813639998436
1711552134785315800,10.24231591796875,0.08544471114873886,0.02260199747979641,0.00847574882209301
1711552134804275700,10.261275634765624,0.11079560220241547,0.07116574794054031,0.030772313475608826
1711552134823235800,10.28023583984375,0.14928008615970612,0.16584978997707367,0.061620984226465225
1711552134842195700,10.29919580078125,0.17829616367816925,0.1805105358362198,0.09949459880590439
1711552134861155600,10.318155517578125,0.14592032134532928,0.1490510106086731,0.1755472719669342
1711552134880115700,10.33711572265625,0.11049016565084457,0.14233149588108063,0.19234605133533478
1711552134899075600,10.35607568359375,0.07964149862527847,0.1951712965965271,0.1758527010679245
1711552134918035500,10.375035400390624,0.06039925664663315,0.21410810947418213,0.12209659814834595
1711552134936995600,10.39399560546875,0.049709122627973557,0.21716243028640747,0.009392046369612217
1711552134955955500,10.41295556640625,0.013973532244563103,0.2605338394641876,-0.10514509677886963
1711552134974915300,10.431915283203125,-0.002825249684974551,0.2883281707763672,-0.13874267041683197
1711552134993875500,10.45087548828125,0.07108938694000244,0.231212317943573,-0.07460185885429382
1711552135012835300,10.46983544921875,0.15294526517391205,0.1893680840730667,-0.02756527252495289
1711552135031795200,10.488795166015626,0.19234605133533478,0.15088360011577606,0.014584396965801716
1711552135050755000,10.507755126953125,0.1969275325536728,0.12186752259731293,0.04451677203178406
1711552135069715200,10.526715087890626,0.1608865112066269,0.14477495849132538,0.06864593178033829
1711552135088675000,10.545675048828125,0.13584105670452118,0.0769689604640007,0.08269581943750381
1711552135107635200,10.56463525390625,0.15141810476779938,0.03481929376721382,0.07353284955024719
1711552135126595000,10.583594970703125,0.16302454471588135,0.007941242307424545,0.055512335151433945
1711552135145555000,10.602554931640626,0.1700494885444641,0.031154103577136993,0.0524580143392086
1711552135164515000,10.62151513671875,0.18471023440361023,0.0769689604640007,0.040546149015426636
1711552135183475000,10.640474853515625,0.18745912611484528,0.09132428467273712,0.01611155830323696
1711552135202434800,10.659434814453125,0.1856265366077423,0.036651886999607086,-0.02237292192876339
1711552135221394700,10.678394775390625,0.1914297491312027,0.023823726922273636,0.003283398225903511
1711552135240354800,10.697354736328125,0.16149736940860748,0.08124501258134842,0.04390590637922287
1711552135259314700,10.716314697265625,0.14194969832897186,0.08093958348035812,0.056428633630275726
1711552135278274600,10.735274658203124,0.09185878932476044,0.09010255336761475,0.033826638013124466
1711552135297234700,10.754234619140625,0.03107774630188942,0.13744457066059113,0.017944153398275375
1711552135316194600,10.773194580078124,-0.006185005884617567,0.17287473380565643,-0.00038179047987796366
1711552135335154400,10.792154541015625,0.008781181648373604,0.12980876863002777,-0.004657844081521034
1711552135354114600,10.811114501953124,0.02283107116818428,0.04459312930703163,-0.00954476185142994
1711552135373074400,10.830074462890625,0.009697478264570236,-0.022296564653515816,0.0029779658652842045
1711552135392034300,10.849034423828124,0.0057268571108579636,0.023212861269712448,0.004810560029000044
1711552135410994400,10.867994384765625,0.02130390889942646,0.1230892539024353,-0.04192059487104416
1711552135429954300,10.886954345703124,0.035964664071798325,0.1285870373249054,-0.07918334752321243
1711552135448914200,10.9059140625,0.03138317912817001,0.10995566099882126,-0.09995274990797043
1711552135467874000,10.9248740234375,0.036880962550640106,0.10934479534626007,-0.10819942504167557
1711552135486834200,10.943834228515625,0.04909825697541237,0.057726722210645676,-0.08712458610534668
1711552135505794000,10.9627939453125,0.06620246917009354,0.000305432389723137,-0.08009964227676392
1711552135524754200,10.981754150390625,0.08575014024972916,-0.025045456364750862,-0.07307469844818115
1711552135543714000,11.000714111328126,0.09338594973087311,-0.003359756199643016,-0.060551971197128296
1711552135562674000,11.019673828125,0.10193806141614914,0.0027488914784044027,-0.04436405375599861
1711552135581633800,11.0386337890625,0.08544471114873886,-0.056810423731803894,-0.02848157100379467
1711552135600594000,11.057593994140625,0.06895136088132858,-0.10018182545900345,0.004199695307761431
1711552135619553800,11.0765537109375,0.05429060757160187,-0.05253437161445618,0.0319940410554409
1711552135638513700,11.095513671875,0.028328854590654373,-0.007941242307424545,0.05978839099407196
1711552135657473500,11.1144736328125,0.00847574882209301,-0.04306596517562866,0.08300124853849411
1711552135676433700,11.13343359375,0.000839939049910754,-0.07422006875276566,0.08544471114873886
1711552135695393500,11.1523935546875,-0.010766491293907166,-0.06261363625526428,0.06986765563488007
1711552135714353400,11.171353515625,-0.008933897130191326,-0.0360410213470459,0.06589704006910324
1711552135733313500,11.1903134765625,0.007864884100854397,-0.006719512399286032,0.053985174745321274
1711552135752273400,11.2092734375,0.014278964139521122,-0.04917461425065994,0.02496909722685814
1711552135771233300,11.2282333984375,0.016416991129517555,-0.09346231073141098,0.00603228947147727
1711552135790193400,11.247193359375,0.009392046369612217,-0.09560033679008484,-0.016569707542657852
1711552135809153300,11.2661533203125,0.0319940410554409,-0.07941242307424545,-0.024816380813717842
1711552135828113200,11.285113037109374,0.023441936820745468,-0.07238747924566269,-0.03733910992741585
1711552135847073300,11.3040732421875,0.0029779658652842045,-0.051618073135614395,-0.053832460194826126
1711552135866033200,11.323033203125,-0.03520108386874199,-0.029016077518463135,-0.07246383279561996
1711552135884993000,11.341992919921875,-0.05352702736854553,-0.011606430634856224,-0.09506583213806152
1711552135903953000,11.360952880859376,-0.05994110554456711,-0.029626941308379173,-0.11339177191257477
1711552135922913000,11.3799130859375,-0.04405862092971802,-0.033597562462091446,-0.12591449916362762
1711552135941873000,11.398872802734376,-0.036422811448574066,-0.019242240116000175,-0.1482110619544983
1711552135960833000,11.4178330078125,-0.023594651371240616,0.0021380267571657896,-0.17142392694950104
1711552135979793000,11.43679296875,-0.0193185992538929,0.012217295356094837,-0.1726456582546234
1711552135998752800,11.455752685546875,-0.019624030217528343,0.01435532234609127,-0.16684244573116302
1711552136017713000,11.474712890625,-0.009850194677710533,0.029016077518463135,-0.1738673895597458
1711552136036672800,11.4936728515625,0.01763872057199478,0.020158538594841957,-0.18455752730369568
1711552136055632600,11.512632568359376,0.0423787422478199,-0.0027488914784044027,-0.15370884537696838
1711552136074592800,11.5315927734375,0.03810269013047218,-0.03451386094093323,-0.09323323518037796
1711552136093552600,11.550552734375,0.02496909722685814,-0.034208428114652634,-0.033979352563619614
1711552136112512500,11.569512451171875,-0.007406735327094793,-0.043982263654470444,0.020082179456949234
1711552136131472400,11.588472412109375,-0.05810851231217384,-0.034208428114652634,0.04512763395905495
1711552136150432500,11.6074326171875,-0.10392337292432785,-0.007330377586185932,0.06498073786497116
1711552136169392400,11.626392333984375,-0.11736239492893219,0.02260199747979641,0.06192641705274582
1711552136188352300,11.645352294921874,-0.08956804871559143,0.03756818547844887,0.025274530053138733
1711552136207312400,11.6643125,-0.0550541877746582,0.043371398001909256,-0.03061959706246853
1711552136226272300,11.683272216796874,-0.02909243479371071,0.016187917441129684,-0.07338013499975204
1711552136245232400,11.702232421875,-0.009850194677710533,0.004886918235570192,-0.10331250727176666
1711552136264192300,11.721192138671874,-0.0022143847309052944,0.008552107028663158,-0.09964732080698013
1711552136283152100,11.740152099609375,-0.011988221667706966,-0.0015271619195118546,-0.07338013499975204
1711552136302112300,11.7591123046875,-0.04436405375599861,-0.000610864779446274,-0.03061959706246853
1711552136321072000,11.778072021484375,-0.06818778067827225,0.0204639695584774,0.007254019379615784
1711552136340032000,11.797031982421874,-0.07307469844818115,0.015577051788568497,0.03321577236056328
1711552136358992100,11.8159921875,-0.07979421317577362,-0.006719512399286032,0.03779725730419159
1711552136377952000,11.834951904296876,-0.07887791097164154,-0.006414080038666725,0.02130390889942646
1711552136396912000,11.853912109375,-0.06360629200935364,-0.003359756199643016,0.004199695307761431
1711552136415872000,11.8728720703125,-0.053832460194826126,0.014966187067329884,-0.01107192412018776
1711552136434832000,11.891831787109375,-0.055970486253499985,0.01282816007733345,-0.03061959706246853
1711552136453792000,11.9107919921875,-0.06849320977926254,0.01435532234609127,-0.029397867619991302
1711552136472751900,11.929751953125,-0.07307469844818115,0.033597562462091446,-0.043142326176166534
1711552136491711700,11.948711669921876,-0.06452259421348572,0.06261363625526428,-0.07338013499975204
1711552136510672000,11.967671875,-0.0602465383708477,0.05222893878817558,-0.06940951198339462
1711552136529631700,11.9866318359375,-0.05169443041086197,0.03909534588456154,-0.07460185885429382
1711552136548591900,12.005591796875,-0.031230462715029716,0.0513126403093338,-0.08376483619213104
1711552136567551700,12.0245517578125,-0.00954476185142994,0.05100720748305321,-0.08040507882833481
1711552136586512000,12.043511962890625,0.006948587018996477,0.020769402384757996,-0.07765618711709976
1711552136605471700,12.0624716796875,0.008170315995812416,-0.0054977829568088055,-0.059635672718286514
1711552136624431600,12.081431640625,-0.002825249684974551,-0.030543239787220955,-0.038560837507247925
1711552136643391700,12.100391845703125,-0.0031306820455938578,-0.040317077189683914,-0.029397867619991302
1711552136662351600,12.1193515625,-0.0193185992538929,-0.041844237595796585,-0.019929463043808937
1711552136681311700,12.138311767578125,-0.027870705351233482,-0.027488915249705315,-0.010155626572668552
1711552136700271600,12.157271728515624,-0.026038112118840218,-0.04673115536570549,-0.00007635809743078426
1711552136719231500,12.1762314453125,-0.018096869811415672,-0.048563748598098755,0.0023671009112149477
1711552136738191600,12.195191650390624,-0.00923932995647192,-0.0308486707508564,-0.02695440873503685
1711552136757151500,12.2141513671875,0.03840812295675278,-0.010995565913617611,-0.06757691502571106
1711552136776111600,12.233111572265624,0.09460768103599548,-0.014660755172371864,-0.11552979797124863
1711552136795071500,12.252071533203125,0.13675735890865326,-0.053145237267017365,-0.14668390154838562
1711552136814031400,12.27103125,0.1443931609392166,-0.10415244847536087,-0.17081306874752045
1711552136832991500,12.289991455078125,0.09002619981765747,-0.06322450190782547,-0.24442227184772491
1711552136851951400,12.308951416015624,0.13614648580551147,0.035124726593494415,-0.24625486135482788
1711552136870911500,12.327911376953125,0.24457497894763947,-0.01893680728971958,-0.189444437623024
1711552136889871400,12.346871337890626,0.3136027157306671,-0.1444695144891739,-0.05780307948589325
1711552136908831200,12.365831298828125,0.2735910713672638,-0.231212317943573,0.009392046369612217
1711552136927791400,12.384791259765626,0.09185878932476044,-0.26908594369888306,0.1141553521156311
1711552136946751200,12.403751220703125,-0.03672824427485466,-0.16187916696071625,0.2277761995792389
1711552136965711400,12.42271142578125,-0.07948877662420273,-0.04306596517562866,0.33834272623062134
1711552136984671200,12.441671142578125,-0.0550541877746582,0.007941242307424545,0.3951531648635864
1711552137003631400,12.46063134765625,0.04696023091673851,0.0717766135931015,0.3878227770328522
1711552137022591200,12.47959130859375,0.14653119444847107,0.18264856934547424,0.3001636862754822
1711552137041551400,12.49855126953125,0.24640758335590363,0.18295399844646454,0.17768529057502747
1711552137060511200,12.51751123046875,0.303523451089859,0.09315688163042068,0.1242346242070198
1711552137079471400,12.536471435546876,0.34170249104499817,0.0873536616563797,0.07658717036247253
1711552137098431200,12.55543115234375,0.30138540267944336,0.15241076052188873,0.12362375855445862
1711552137117391400,12.574391357421876,0.27511823177337646,0.11667517572641373,0.2625955045223236
1711552137136351200,12.593351318359375,0.32734715938568115,-0.008857538923621178,0.4006509482860565
1711552137155311400,12.612311279296875,0.37896522879600525,-0.07757982611656189,0.49228066205978394
1711552137174271200,12.631271240234375,0.4388299882411957,0.019242240116000175,0.5307651162147522
1711552137193231400,12.6502314453125,0.48189595341682434,0.10659590363502502,0.5350412130355835
1711552137212191200,12.669191162109374,0.5411498546600342,0.13988803327083588,0.5515345335006714
1711552137231151400,12.6881513671875,0.584826648235321,0.1078176349401474,0.5487856268882751
1711552137250111200,12.707111328125,0.6153699159622192,0.11759147047996521,0.5356520414352417
1711552137269071400,12.7260712890625,0.6752346754074097,0.09896009415388107,0.4886154532432556
1711552137288031200,12.74503125,0.7460949420928955,0.17898337543010712,0.44554948806762695
1711552137306991000,12.7639912109375,0.7888554930686951,0.29993459582328796,0.4379136860370636
1711552137325951200,12.782951171875,0.7564796805381775,0.3127627670764923,0.4235583543777466
1711552137344911000,12.8019111328125,0.7402917742729187,0.21716243028640747,0.4263072609901428
1711552137363871200,12.820871337890624,0.7625883221626282,0.08796452730894089,0.4376082420349121
1711552137382831000,12.8398310546875,0.8056542873382568,0.06108647957444191,0.4638754427433014
1711552137401791200,12.858791259765624,0.8490256667137146,0.12614357471466064,0.49777844548225403
1711552137420751000,12.877751220703125,0.8896481990814209,0.15302163362503052,0.4837285578250885
1711552137439711200,12.896711181640624,0.927521824836731,0.11423171311616898,0.4828122556209564
1711552137458671000,12.915671142578125,0.9660062789916992,0.13469567894935608,0.4641808867454529
1711552137477631200,12.93463134765625,0.8957568407058716,0.16279546916484833,0.40462157130241394
1711552137496591400,12.95359130859375,0.8007673621177673,0.27947062253952026,0.38965538144111633
1711552137515551200,12.97255126953125,0.7097485065460205,0.20280711352825165,0.3713294267654419
1711552137534511400,12.991511474609375,0.7091376781463623,0.37629270553588867,0.3927097022533417
1711552137553471200,13.01047119140625,0.6715694665908813,0.3289506733417511,0.44616037607192993
1711552137572431400,13.029431396484375,0.6856193542480469,0.23976442217826843,0.48525571823120117
1711552137591391200,13.04839111328125,0.6599630117416382,0.16615521907806396,0.5154935121536255
1711552137610351400,13.067351318359375,0.6367501616477966,0.12492185086011887,0.5774962902069092
1711552137629311200,13.086311279296876,0.6278926134109497,0.11056652665138245,0.5845212340354919
1711552137648271400,13.105271240234375,0.6046797633171082,0.13775001466274261,0.5652790069580078
1711552137667231200,13.124231201171876,0.6251437664031982,0.22846342623233795,0.5585594773292542
1711552137686191400,13.14319140625,0.6633228063583374,0.2516762912273407,0.48647743463516235
1711552137705151200,13.162151123046876,0.678288996219635,0.23854269087314606,0.44554948806762695
1711552137724111400,13.181111328125,0.7338776588439941,0.1646280586719513,0.376827210187912
1711552137743071200,13.2000712890625,0.797102153301239,0.09040798991918564,0.29619306325912476
1711552137762031400,13.21903125,0.8123738169670105,0.12064579129219055,0.19234605133533478
1711552137780991200,13.2379912109375,0.7635046243667603,0.2617555558681488,0.12362375855445862
1711552137799951400,13.256951416015625,0.732655942440033,0.29962918162345886,0.14317142963409424
1711552137818911200,13.2759111328125,0.7412080764770508,0.2562577724456787,0.23663374781608582
1711552137837871400,13.294871337890624,0.7457895278930664,0.15118902921676636,0.35727953910827637
1711552137856831200,13.313831298828125,0.7030289769172668,0.016798781231045723,0.428139865398407
1711552137875791400,13.332791259765624,0.6523272395133972,-0.004276053514331579,0.4828122556209564
1711552137894751200,13.351751220703125,0.6449968218803406,0.10995566099882126,0.5325977206230164
1711552137913711400,13.37071142578125,0.6459131240844727,0.1545487940311432,0.5017490386962891
1711552137932671200,13.389671142578125,0.6602684855461121,0.10476330667734146,0.47700902819633484
1711552137951631400,13.40863134765625,0.7354048490524292,0.010384701192378998,0.4177551567554474
1711552137970591200,13.42759130859375,0.8059597015380859,0.07024945318698883,0.3557523787021637
1711552137989551400,13.44655126953125,0.8603267073631287,0.0717766135931015,0.2421315312385559
1711552138008511500,13.465511474609375,0.9131664633750916,0.035735588520765305,0.17982332408428192
1711552138027471400,13.484471435546874,0.9336304664611816,0.03390299528837204,0.17524182796478271
1711552138046431500,13.503431396484375,0.9583705067634583,0.08155044913291931,0.2164752036333084
1711552138065391400,13.522391357421874,0.94523686170578,0.08552107214927673,0.29649847745895386
1711552138084351500,13.5413515625,0.8841503858566284,0.03237583488225937,0.3820195496082306
1711552138103311400,13.560311279296876,0.8545234799385071,-0.010384701192378998,0.48036879301071167
1711552138122271500,13.579271484375,0.8731548190116882,-0.010384701192378998,0.5744419693946838
1711552138141231400,13.5982314453125,0.9036980867385864,-0.03787361457943916,0.6101775765419006
1711552138160191500,13.61719140625,0.8948405385017395,-0.1496618688106537,0.6220894455909729
1711552138179151400,13.6361513671875,0.9522618055343628,-0.17287473380565643,0.6107884049415588
1711552138198111500,13.655111572265625,0.9922734498977661,-0.15027274191379547,0.5478693246841431
1711552138217071600,13.674071533203126,0.9424880146980286,-0.028405211865901947,0.5341249108314514
1711552138236031500,13.693031494140625,0.9149990677833557,0.002443459117785096,0.5420661568641663
1711552138254991600,13.71199169921875,0.8523854613304138,-0.04886918142437935,0.5970439910888672
1711552138273951500,13.730951416015625,0.7283799052238464,-0.19822561740875244,0.6004037261009216
1711552138292911600,13.74991162109375,0.5661953091621399,-0.25534147024154663,0.5964331030845642
1711552138311871500,13.76887158203125,0.4421897530555725,-0.18570289015769958,0.5741365551948547
1711552138330831600,13.78783154296875,0.34170249104499817,-0.06902772188186646,0.5622246861457825
1711552138349791500,13.80679150390625,0.25984659790992737,-0.03695731982588768,0.5564214587211609
1711552138368751600,13.825751708984376,0.19356778264045715,-0.09132428467273712,0.5087739825248718
1711552138387711500,13.84471142578125,0.16302454471588135,-0.20311254262924194,0.4421897530555725
1711552138406671600,13.863671630859375,0.15233440697193146,-0.20189081132411957,0.4159225523471832
1711552138425631500,13.882631591796875,0.18776455521583557,-0.10598503798246384,0.3853793144226074
1711552138444591600,13.901591552734375,0.27114760875701904,-0.031154103577136993,0.30749404430389404
1711552138463551500,13.920551513671874,0.28641921281814575,-0.09162971377372742,0.21403174102306366
1711552138482511600,13.93951171875,0.2781725525856018,-0.1496618688106537,0.14775292575359344
1711552138501471700,13.9584716796875,0.37835437059402466,-0.017715077847242355,0.05917752534151077
1711552138520431600,13.977431640625,0.42508551478385925,0.12186752259731293,-0.009850194677710533
1711552138539391700,13.996391845703124,0.4290561378002167,0.23854269087314606,-0.04039343446493149
1711552138558351600,14.0153515625,0.4434114694595337,0.3023780584335327,-0.09384410083293915
1711552138577311700,14.034311767578124,0.44096800684928894,0.21227550506591797,-0.08407026529312134
1711552138596271600,14.053271728515625,0.4672352075576782,0.023212861269712448,-0.04344775900244713
1711552138615231700,14.072231689453124,0.4953349828720093,-0.08674279600381851,-0.01779143698513508
1711552138634191600,14.091191650390625,0.49075350165367126,-0.08491020649671555,0.06131555140018463
1711552138653151700,14.11015185546875,0.5216021537780762,0.015577051788568497,0.1245400533080101
1711552138672111600,14.129111572265625,0.5674170255661011,0.01802051067352295,0.15172353386878967
1711552138691071700,14.14807177734375,0.5836049318313599,-0.0665842592716217,0.15661045908927917
1711552138710031600,14.167031494140625,0.5606974959373474,-0.1383608728647232,0.1755472719669342
1711552138728991700,14.18599169921875,0.5619192123413086,-0.0873536616563797,0.22930335998535156
1711552138747951600,14.20495166015625,0.5976548194885254,-0.04245510324835777,0.2949713170528412
1711552138766911700,14.223911865234374,0.6150645017623901,-0.12614357471466064,0.33315038681030273
1711552138785871600,14.24287158203125,0.6281980872154236,-0.2666424810886383,0.34811657667160034
1711552138804831700,14.261831787109376,0.6578249931335449,-0.3631591200828552,0.3652207851409912
1711552138823791600,14.28079150390625,0.6993638277053833,-0.4575377106666565,0.3343721032142639
1711552138842751700,14.299751708984376,0.7088322043418884,-0.4413498044013977,0.2900844216346741
1711552138861711600,14.318711669921875,0.7799979448318481,-0.43921178579330444,0.26015204191207886
1711552138880671700,14.337671630859376,0.9036980867385864,-0.4535670876502991,0.19265148043632507
1711552138899631600,14.356631591796875,0.9861648082733154,-0.40927940607070923,0.11293362826108932
1711552138918591700,14.375591796875,1.1623992919921875,-0.3246746361255646,-0.03306305781006813
1711552138937551600,14.394551513671875,1.4840196371078491,-0.25503605604171753,-0.3314704895019531
1711552138956511700,14.41351171875,1.7662391662597656,-0.31062474846839905,-0.6329322457313538
1711552138975471600,14.4324716796875,2.021580696105957,-0.6774490475654602,-0.9850957989692688
1711552138994431500,14.451431396484375,2.127260208129883,-1.1533126831054688,-1.2141700983047485
1711552139013391600,14.4703916015625,2.077780246734619,-1.4059052467346191,-1.208366870880127
1711552139032351500,14.4893515625,1.8878012895584106,-1.4929535388946533,-1.3442842960357666
1711552139051311600,14.5083115234375,1.684994101524353,-1.7846415042877197,-1.5629738569259644
1711552139070271500,14.527271484375,1.5035673379898071,-2.4049746990203857,-1.6011528968811035
1711552139089231600,14.546231689453125,1.518838882446289,-2.955974578857422,-1.6304744482040405
1711552139108191500,14.56519140625,1.6636139154434204,-3.2876741886138916,-1.449963927268982
1711552139127151600,14.584151611328124,1.8334342241287231,-3.2617125511169434,-1.1753802299499512
1711552139146111500,14.603111572265625,2.0780856609344482,-3.015533924102783,-0.8977421522140503
1711552139165071600,14.622071533203124,2.284863233566284,-2.668562889099121,-0.6201041340827942
1711552139184031500,14.641031494140625,2.392986297607422,-2.232405424118042,-0.2404516488313675
1711552139202991400,14.659991455078124,2.527376651763916,-1.774256706237793,0.2430478185415268
1711552139221951500,14.678951416015625,2.717355728149414,-1.5198315382003784,0.7069995999336243
1711552139240911400,14.697911376953124,2.7891321182250977,-1.5381574630737305,1.1013128757476807
1711552139259871500,14.71687158203125,2.7515640258789062,-1.8225150108337402,1.455614447593689
1711552139278831400,14.735831298828124,2.6773440837860107,-2.156963586807251,1.8966587781906128
1711552139297791500,14.75479150390625,2.61137056350708,-2.3674063682556152,2.376492977142334
1711552139316751400,14.77375146484375,2.508134365081787,-2.313039541244507,2.769890069961548
1711552139335711200,14.792711181640625,2.103131055831909,-1.9584324359893799,2.959868907928467
1711552139354671400,14.81167138671875,1.694767951965332,-1.4834851026535034,2.935434341430664
1711552139373631200,14.83063134765625,1.4931825399398804,-0.8958331942558289,2.940321207046509
1711552139392591400,14.84959130859375,1.2610539197921753,-0.1945604383945465,2.929936647415161
1711552139411551200,14.86855126953125,1.0353394746780396,0.26389357447624207,2.762254238128662
1711552139430511400,14.887511474609376,1.1028399467468262,0.40225446224212646,2.4201698303222656
1711552139449471200,14.90647119140625,1.1437679529190063,0.3857611119747162,2.1788783073425293
1711552139468431400,14.925431396484376,1.0567196607589722,0.14660754799842834,2.0173046588897705
1711552139487391200,14.94439111328125,0.9837213754653931,-0.10323614627122879,1.8285473585128784
1711552139506351400,14.963351318359376,0.9791398644447327,-0.04153880476951599,1.5918372869491577
1711552139525311200,14.982311279296875,0.8429170250892639,0.2614501118659973,1.4714969396591187
1711552139544271000,15.00127099609375,0.6019308567047119,0.5079340934753418,1.3218350410461426
1711552139563231200,15.020231201171875,0.41989317536354065,0.6462949514389038,1.0524436235427856
1711552139582191000,15.039191162109375,0.3300960659980774,0.7241802215576172,0.8365029692649841
1711552139601151000,15.05815087890625,0.2885572612285614,0.7525854110717773,0.5594757795333862
1711552139620111000,15.077111083984375,0.1495855152606964,0.6878337264060974,0.27572908997535706
1711552139639071000,15.096071044921874,-0.2303723841905594,0.6181951761245728,0.1605810821056366
1711552139658031000,15.115031005859375,-0.34032803773880005,0.14569124579429626,-0.0058795735239982605
1711552139676991000,15.133990966796874,-0.1530979871749878,-0.3961458206176758,0.05978839099407196
1711552139695950800,15.152950927734375,0.0985783040523529,-0.639270007610321,0.20456334948539734
1711552139714911000,15.171910888671874,0.3603338599205017,-0.7959567904472351,0.3753000497817993
1711552139733870800,15.190870849609375,0.29649847745895386,-0.526870846748352,0.4638754427433014
1711552139752830700,15.209830810546874,0.07658717036247253,0.06811141967773438,0.4699840843677521
1711552139771790800,15.228790771484375,-0.02542724646627903,0.4376846253871918,0.49258607625961304
1711552139790750700,15.247750732421874,0.0017562361899763346,0.45539969205856323,0.5322923064231873
1711552139809710600,15.266710693359375,0.09674570709466934,0.2260199636220932,0.5316814184188843
1711552139828670700,15.285670654296876,0.15844304859638214,-0.23793183267116547,0.5243510603904724
1711552139847630600,15.304630615234375,0.20853395760059357,-0.620333194732666,0.4782307744026184
1711552139866590700,15.3235908203125,0.16302454471588135,-0.7089085578918457,0.46051567792892456
1711552139885550600,15.342550537109375,0.11690424382686615,-0.6417134404182434,0.4223366379737854
1711552139904510700,15.3615107421875,0.08819360285997391,-0.42455101013183594,0.3557523787021637
1711552139923470600,15.380470703125,0.0631481483578682,-0.08429934084415436,0.3132972717285156
1711552139942430500,15.399430419921876,0.05154171586036682,0.10598503798246384,0.2827540338039398
1711552139961390300,15.418390380859375,0.06498073786497116,0.10995566099882126,0.26045745611190796
1711552139980350500,15.4373505859375,0.10713040828704834,-0.01740964688360691,0.21800236403942108
1711552139999310300,15.456310302734375,0.1495855152606964,-0.1902843713760376,0.21067199110984802
1711552140018270200,15.475270263671876,0.1969275325536728,-0.2559523284435272,0.17982332408428192
1711552140037230300,15.494230224609375,0.25557056069374084,-0.1637117564678192,0.16943861544132233
1711552140056190200,15.513190185546875,0.23327398300170898,0.017715077847242355,0.1605810821056366
1711552140075150000,15.532150146484375,0.20731224119663239,0.19272783398628235,0.10132719576358795
1711552140094110200,15.551110107421875,0.17463096976280212,0.23732095956802368,0.08544471114873886
1711552140113070000,15.570070068359374,0.15691588819026947,0.19150610268115997,0.12331832945346832
1711552140132030200,15.5890302734375,0.17890702188014984,0.14049890637397766,0.09980003535747528
1711552140150990000,15.607989990234374,0.19356778264045715,0.04214967042207718,0.0781143307685852
1711552140169950000,15.626949951171875,0.22472187876701355,0.010384701192378998,0.1037706509232521
1711552140188910000,15.64591015625,0.261984646320343,-0.000305432389723137,0.1190422773361206
1711552140207870000,15.664869873046875,0.2690095901489258,0.035735588520765305,0.12820523977279663
1711552140226829800,15.683829833984374,0.24152065813541412,0.0977383628487587,0.15386156737804413
1711552140245789700,15.702789794921875,0.2216675579547882,0.14660754799842834,0.1966221034526825
1711552140264749800,15.721749755859374,0.21922409534454346,0.17104214429855347,0.1960112303495407
1711552140283709700,15.740709716796875,0.22105668485164642,0.16279546916484833,0.21311545372009277
1711552140302669600,15.759669677734376,0.21861323714256287,0.06872228533029556,0.23357942700386047
1711552140321629700,15.778629638671875,0.24915647506713867,-0.060781046748161316,0.2641226649284363
1711552140340589600,15.797589599609376,0.2931387424468994,-0.09590577334165573,0.274812787771225
1711552140359549400,15.816549560546875,0.2900844216346741,0.02260199747979641,0.2772562503814697
1711552140378509600,15.835509521484376,0.2772562503814697,0.15241076052188873,0.2699258625507355
1711552140397469400,15.854469482421875,0.27053675055503845,0.2370155304670334,0.26626068353652954
1711552140416429300,15.87342919921875,0.26167920231819153,0.22815799713134766,0.29100072383880615
1711552140435389200,15.89238916015625,0.10774127393960953,0.17226386070251465,0.30230170488357544
1711552140454349300,15.911349365234376,-0.15645773708820343,0.22693626582622528,0.19784383475780487
1711552140473309200,15.93030908203125,-0.45914125442504883,0.2831358313560486,0.09552398324012756
1711552140492269000,15.94926904296875,-0.5862011313438416,0.019853105768561363,-0.15187625586986542
1711552140511229000,15.96822900390625,-0.2700785994529724,-0.8869756460189819,-0.2856556475162506
1711552140530189000,15.98718896484375,-0.15981750190258026,-0.401949018239975,0.26564982533454895
1711552140549149000,16.00614892578125,0.06925679743289948,-0.4841103255748749,0.16852232813835144
1711552140568109000,16.025109130859374,-0.03245219215750694,-0.36285367608070374,0.083306685090065
1711552140587069000,16.04406884765625,-0.04802924394607544,0.13133592903614044,0.10865757614374161
1711552140606028800,16.06302880859375,0.006948587018996477,0.41233372688293457,0.1242346242070198
1711552140624988700,16.08198876953125,0.013973532244563103,0.31490078568458557,0.09674570709466934
1711552140643948500,16.100948486328125,-0.00954476185142994,0.16829325258731842,0.056428633630275726
1711552140662908700,16.11990869140625,-0.03764454275369644,0.07574722915887833,0.020082179456949234
1711552140681868500,16.13886865234375,-0.14912736415863037,0.13561198115348816,-0.01626427471637726
1711552140700828400,16.157828369140624,-0.3134499788284302,0.15577052533626556,-0.04283689334988594
1711552140719788500,16.17678857421875,-0.33024877309799194,0.04245510324835777,-0.013209951110184193
1711552140738748400,16.19574853515625,-0.27893611788749695,-0.17226386070251465,0.08575014024972916
1711552140757708300,16.214708251953127,-0.16653701663017273,-0.37293294072151184,0.24060437083244324
1711552140776668400,16.23366845703125,-0.08681915700435638,-0.5204567909240723,0.390571653842926
1711552140795628300,16.252628173828125,-0.05108356848359108,-0.5522217750549316,0.4290561378002167
1711552140814588200,16.271588134765626,-0.0703258067369461,-0.4263836145401001,0.3951531648635864
1711552140833548000,16.290548095703127,-0.1427132785320282,-0.2834412455558777,0.3145190179347992
1711552140852508200,16.309508056640624,-0.1937204897403717,-0.13500112295150757,0.21006113290786743
1711552140871468000,16.328468017578125,-0.16745330393314362,-0.06047561392188072,0.1343138962984085
1711552140890428000,16.347427978515626,-0.059024810791015625,-0.08796452730894089,0.1443931609392166
1711552140909387800,16.3663876953125,0.02802342176437378,-0.15607595443725586,0.16760602593421936
1711552140928348000,16.385347900390624,0.021914774551987648,-0.12186752259731293,0.13309216499328613
1711552140947307800,16.404307861328125,-0.018402300775051117,-0.0204639695584774,0.06895136088132858
1711552140966268000,16.423267822265625,-0.024510949850082397,0.13500112295150757,0.07261654734611511
1711552140985227800,16.442227783203126,-0.030314164236187935,0.15668681263923645,0.11018473654985428
1711552141004187600,16.461187744140624,-0.024205517023801804,0.04214967042207718,0.1291215419769287
1711552141023147500,16.4801474609375,-0.019013166427612305,-0.06536252796649933,0.15111267566680908
1711552141042107600,16.499107666015625,-0.0031306820455938578,-0.08093958348035812,0.1559995859861374
1711552141061067500,16.518067626953126,0.0029779658652842045,-0.04520399495959282,0.13858994841575623
1711552141080027400,16.53702734375,0.005421424750238657,-0.000610864779446274,0.07780890166759491
1711552141098987300,16.5559873046875,0.000839939049910754,0.07544180005788803,0.015500693581998348
1711552141117947400,16.574947509765625,0.021914774551987648,0.10384701192378998,-0.0025198173243552446
1711552141136907300,16.5939072265625,0.050319984555244446,0.10690133273601532,-0.01107192412018776
1711552141155867400,16.612867431640623,0.03138317912817001,0.08949168771505356,-0.04039343446493149
1711552141174827300,16.6318271484375,0.0005345066892914474,0.05864302068948746,-0.03917170315980911
1711552141193787100,16.650787109375,-0.016569707542657852,0.02932151034474373,0.00511599238961935
1711552141212747000,16.6697470703125,-0.006490438245236874,-0.01893680728971958,0.03260490670800209
1711552141231707100,16.68870703125,0.000839939049910754,-0.05803215503692627,0.03627009689807892
1711552141250667000,16.7076669921875,0.00022907429956831038,-0.051618073135614395,0.04024071618914604
1711552141269627000,16.726626953125,-0.009850194677710533,-0.041844237595796585,0.03138317912817001
1711552141288587000,16.7455869140625,-0.008323032408952713,-0.02412915788590908,0.012140937149524689
1711552141307547000,16.764546875,0.0066431546583771706,0.018631376326084137,0.01030834298580885
1711552141326506800,16.7835068359375,0.020998476073145866,0.03145953640341759,0.0066431546583771706
1711552141345467000,16.802466796875,0.02283107116818428,-0.003359756199643016,-0.018402300775051117
1711552141364426800,16.8214267578125,0.007254019379615784,-0.000305432389723137,-0.0345902182161808
1711552141383387000,16.840386962890626,-0.011377356946468353,0.05436696484684944,-0.04039343446493149
1711552141402346800,16.8593466796875,-0.016875140368938446,0.08949168771505356,-0.04894553869962692
1711552141421306600,16.878306640625,-0.0009926552884280682,0.07849612087011337,-0.061162836849689484
1711552141440266500,16.8972666015625,0.015500693581998348,0.04001164436340332,-0.046196650713682175
1711552141459226600,16.9162265625,0.01977674663066864,-0.011300998739898205,-0.012904518283903599
1711552141478186500,16.9351865234375,0.007864884100854397,-0.05528326332569122,0.005421424750238657
1711552141497146400,16.954146484375,-0.006185005884617567,-0.06719512492418289,0.009086613543331623
1711552141516106500,16.9731064453125,-0.007406735327094793,-0.05222893878817558,0.015806125476956367
1711552141535066400,16.99206640625,-0.00679587060585618,-0.035124726593494415,0.03535379841923714
1711552141554026200,17.011026123046875,-0.004963276442140341,-0.057726722210645676,0.044211339205503464
1711552141572986400,17.029986328125,-0.003741546766832471,-0.08521563559770584,0.03871355578303337
1711552141591946200,17.0489462890625,-0.0019089524867013097,-0.10934479534626007,0.04604393243789673
1711552141610906000,17.067906005859374,-0.008323032408952713,-0.09162971377372742,0.04451677203178406
1711552141629866200,17.0868662109375,-0.004963276442140341,-0.07391463965177536,0.05215258151292801
1711552141648826000,17.105826171875,0.000839939049910754,-0.07422006875276566,0.05154171586036682
1711552141667786200,17.1247861328125,0.009697478264570236,-0.07849612087011337,0.04390590637922287
1711552141686746000,17.14374609375,0.0017562361899763346,-0.07269290834665298,0.053985174745321274
1711552141705706200,17.162706298828127,-0.008323032408952713,-0.06108647957444191,0.06681333482265472
1711552141724666000,17.181666015625,-0.0077121676877141,-0.05406153202056885,0.07170025259256363
1711552141743626000,17.2006259765625,-0.004352411720901728,-0.057726722210645676,0.07780890166759491
1711552141762586000,17.219586181640626,-0.011377356946468353,-0.0772743970155716,0.09033162891864777
1711552141781546000,17.2385458984375,-0.011377356946468353,-0.08155044913291931,0.10163262486457825
1711552141800505900,17.257505859375,-0.0058795735239982605,-0.06719512492418289,0.09980003535747528
1711552141819466000,17.276466064453125,-0.006490438245236874,-0.023823726922273636,0.09644027799367905
1711552141838425900,17.29542578125,-0.0019089524867013097,-0.0030543238390237093,0.09155336022377014
1711552141857386000,17.314385986328126,-0.011988221667706966,-0.0009162971982732415,0.10713040828704834
1711552141876345900,17.333345947265624,-0.016875140368938446,-0.019853105768561363,0.10163262486457825
1711552141895305700,17.3523056640625,-0.012293653562664986,-0.01802051067352295,0.08819360285997391
1711552141914265900,17.371265869140625,-0.006490438245236874,-0.011300998739898205,0.12392919510602951
1711552141933225700,17.390225830078126,-0.008323032408952713,-0.007635809946805239,0.12606722116470337
1711552141952185900,17.409185791015624,0.001450803829357028,-0.001221729558892548,0.1242346242070198
1711552141971145700,17.428145751953124,0.013362666592001915,0.0027488914784044027,0.13675735890865326
1711552141990105600,17.447105712890625,0.0243582334369421,-0.010079269297420979,0.15202897787094116
1711552142009065700,17.466065673828126,0.01824958436191082,-0.011606430634856224,0.14592032134532928
1711552142028025600,17.485025634765623,0.020387612283229828,0.009162971749901772,0.13706278800964355
1711552142046985700,17.50398583984375,0.024052800610661507,0.02932151034474373,0.14164426922798157
1711552142065945600,17.522945556640625,0.019471315667033195,0.01649334840476513,0.1242346242070198
1711552142084905700,17.54190576171875,0.008170315995812416,-0.008246674202382565,0.10499238222837448
1711552142103865600,17.560865478515623,0.009392046369612217,0.000610864779446274,0.09582941234111786
1711552142122825700,17.57982568359375,0.017027854919433594,0.010079269297420979,0.08941533416509628
1711552142141785600,17.59878564453125,0.022220205515623093,0.0021380267571657896,0.0884990319609642
1711552142160745700,17.617745849609374,0.0191658828407526,-0.008552107028663158,0.09155336022377014
1711552142179705600,17.63670556640625,0.01611155830323696,-0.01893680728971958,0.09796743839979172
1711552142198665500,17.65566552734375,0.000839939049910754,-0.019853105768561363,0.10529781877994537
1711552142217625600,17.67462548828125,-0.030925029888749123,-0.02260199747979641,0.09094249457120895
1711552142236585500,17.69358544921875,-0.054443322122097015,-0.001832594396546483,0.061620984226465225
1711552142255545600,17.712545654296875,-0.04130972921848297,0.05253437161445618,0.041157014667987823
1711552142274505500,17.73150537109375,-0.039477135986089706,0.12675444781780243,0.023441936820745468
1711552142293465600,17.750465576171877,-0.05230529606342316,0.15210533142089844,-0.027870705351233482
1711552142312425500,17.769425537109374,-0.06391172856092453,0.1432477980852127,-0.0654388889670372
1711552142331385600,17.788385498046875,-0.08223766833543777,0.14996729791164398,-0.07368556410074234
1711552142350345500,17.807345458984376,-0.13904809951782227,0.12278381735086441,-0.09873101860284805
1711552142369305600,17.8263056640625,-0.2193768173456192,0.08032871782779694,-0.1689804643392563
1711552142388265500,17.845265380859374,-0.22273656725883484,0.014049889519810677,-0.1995237022638321
1711552142407225600,17.8642255859375,-0.1934150606393814,-0.05528326332569122,-0.17539454996585846
1711552142426185500,17.883185546875,-0.14149154722690582,-0.17867794632911682,-0.12560907006263733
1711552142445145600,17.9021455078125,-0.17172935605049133,-0.3094030022621155,-0.039477135986089706
1711552142464105500,17.92110546875,-0.2089921087026596,-0.41294458508491516,0.041157014667987823
1711552142483065600,17.940065673828126,-0.2398407906293869,-0.4520399272441864,0.10071633011102676
1711552142502025500,17.959025390625,-0.24747659265995026,-0.45448338985443115,0.13187043368816376
1711552142520985600,17.977985595703124,-0.25236350297927856,-0.4831940531730652,0.1349247545003891
1711552142539945500,17.996945556640625,-0.22579088807106018,-0.49418962001800537,0.10865757614374161
1711552142558905600,18.015905517578126,-0.1931096315383911,-0.4514290690422058,0.06864593178033829
1711552142577865500,18.034865478515623,-0.18272492289543152,-0.39400777220726013,0.014278964139521122
1711552142596825600,18.05382568359375,-0.1476002037525177,-0.30115634202957153,-0.04650207981467247
1711552142615785500,18.072785400390625,-0.09506583213806152,-0.20219624042510986,-0.070631243288517
1711552142634745600,18.09174560546875,-0.06818778067827225,-0.13683371245861053,-0.08193223923444748
1711552142653705500,18.11070556640625,-0.05780307948589325,-0.12522727251052856,-0.055970486253499985
1711552142672665600,18.12966552734375,-0.06177370250225067,-0.18845178186893463,-0.00679587060585618
1711552142691625500,18.14862548828125,-0.0758235901594162,-0.2678641974925995,0.021914774551987648
1711552142710585600,18.167585693359374,-0.06788235157728195,-0.3298669755458832,0.04634936526417732
1711552142729545700,18.186545654296875,-0.0550541877746582,-0.34086254239082336,0.08758273720741272
1711552142748505600,18.205505615234376,-0.06635518372058868,-0.3484983444213867,0.12667807936668396
1711552142767465700,18.2244658203125,-0.08468113094568253,-0.3692677617073059,0.12362375855445862
1711552142786425600,18.243425537109374,-0.08040507882833481,-0.36712974309921265,0.11537708342075348
1711552142805385700,18.2623857421875,-0.046196650713682175,-0.31673339009284973,0.11049016565084457
1711552142824345600,18.281345703125,-0.018402300775051117,-0.2715294063091278,0.10743584483861923
1711552142843305700,18.3003056640625,-0.011682788841426373,-0.235793799161911,0.07353284955024719
1711552142862265600,18.319265625,0.019471315667033195,-0.19150610268115997,0.0423787422478199
1711552142881225700,18.338225830078127,0.02588539570569992,-0.1337793916463852,0.013362666592001915
1711552142900185600,18.357185546875,0.045738499611616135,-0.11362084746360779,-0.0016035200096666813
1711552142919145700,18.376145751953125,0.0524580143392086,-0.08979712426662445,0.0057268571108579636
1711552142938105600,18.395105712890626,0.04543306678533554,-0.06475166976451874,-0.0009926552884280682
1711552142957065700,18.414065673828127,0.029245151206851006,-0.05864302068948746,-0.005268708802759647
1711552142976025900,18.43302587890625,0.0191658828407526,-0.056199558079242706,0.0005345066892914474
1711552142994985700,18.45198583984375,0.01183550525456667,-0.028405211865901947,-0.0016035200096666813
1711552143013945900,18.47094580078125,0.013973532244563103,0.007024944759905338,-0.006490438245236874
1711552143032906000,18.489906005859375,0.012140937149524689,0.012522728182375431,-0.015958841890096664
1711552143051865900,18.508865966796876,0.003283398225903511,0.004886918235570192,-0.02176205813884735
1711552143070826000,18.527825927734376,-0.0006872228696011007,-0.011300998739898205,-0.02909243479371071
1711552143089785900,18.546785888671874,-0.0012980876490473747,-0.008246674202382565,-0.024205517023801804
1711552143108746000,18.56574609375,0.0029779658652842045,0.003970621153712273,-0.015958841890096664
1711552143127706000,18.5847060546875,0.004505127668380737,-0.006108647678047419,-0.010461059398949146
1711552143146666000,18.603666015625,0.002672533504664898,-0.02107483521103859,-0.004963276442140341
1711552143165626000,18.622626220703125,0.008170315995812416,-0.029016077518463135,0.011224640533328056
1711552143184586200,18.641586181640626,-0.0031306820455938578,-0.040317077189683914,0.014278964139521122
1711552143203546000,18.660546142578124,-0.020540328696370125,-0.039706211537122726,0.010919207707047462
1711552143222506200,18.67950634765625,-0.01870773360133171,-0.026878049597144127,0.023747367784380913
1711552143241466000,18.698466064453125,-0.012293653562664986,-0.026878049597144127,0.02588539570569992
1711552143260426200,18.71742626953125,-0.0016035200096666813,-0.04062250629067421,0.0295505840331316
1711552143279386000,18.73638623046875,-0.0034361144062131643,-0.05222893878817558,0.020998476073145866
1711552143298346200,18.75534619140625,-0.005268708802759647,-0.05589412897825241,0.023441936820745468
1711552143317306400,18.774306396484373,-0.004963276442140341,-0.04886918142437935,0.03535379841923714
1711552143336266200,18.793266357421874,-0.008017600513994694,-0.040317077189683914,0.030466880649328232
1711552143355226400,18.812226318359375,-0.014431680552661419,-0.04153880476951599,0.030466880649328232
1711552143374186500,18.8311865234375,-0.02237292192876339,-0.04306596517562866,0.03352120518684387
1711552143393146600,18.850146728515625,-0.01779143698513508,-0.043371398001909256,0.034437503665685654
1711552143412106500,18.8691064453125,-0.008628465235233307,-0.04153880476951599,0.0371863916516304
1711552143431066600,18.888066650390623,-0.007406735327094793,-0.03909534588456154,0.03474293276667595
1711552143450026800,18.90702685546875,-0.00923932995647192,-0.032681263983249664,0.02802342176437378
1711552143468986600,18.925986572265625,-0.006490438245236874,-0.011606430634856224,0.019471315667033195
1711552143487946800,18.94494677734375,-0.008017600513994694,0.007024944759905338,0.0066431546583771706
1711552143506907000,18.963906982421875,-0.013515383005142212,0.009162971749901772,0.001450803829357028
1711552143525866800,18.98286669921875,-0.013820815831422806,0.001832594396546483,0.005421424750238657
1711552143544827000,19.001826904296873,-0.008323032408952713,-0.011300998739898205,-0.0019089524867013097
1711552143563786800,19.020786865234374,-0.004352411720901728,0.001832594396546483,-0.0058795735239982605
1711552143582747000,19.039746826171875,-0.004046979360282421,0.01893680728971958,-0.005268708802759647
1711552143601707000,19.05870703125,-0.007101302966475487,0.00946840364485979,-0.008017600513994694
1711552143620667000,19.0776669921875,-0.005268708802759647,0.007024944759905338,-0.008933897130191326
1711552143639627000,19.096626953125,0.0029779658652842045,0.008552107028663158,-0.008017600513994694
1711552143658587100,19.115587158203127,-0.008933897130191326,0.003970621153712273,-0.004046979360282421
1711552143677547300,19.13454736328125,-0.015042545273900032,-0.000610864779446274,-0.00007635809743078426
1711552143696507100,19.153507080078125,0.004810560029000044,-0.014966187067329884,0.0066431546583771706
1711552143715467300,19.17246728515625,0.007254019379615784,-0.008857538923621178,0.00847574882209301
1711552143734427400,19.191427490234375,0.008170315995812416,-0.01802051067352295,0.014278964139521122
1711552143753387300,19.21038720703125,0.00847574882209301,-0.0015271619195118546,0.017944153398275375
1711552143772347400,19.229347412109377,0.027717988938093185,0.04245510324835777,0.022525638341903687
1711552143791307500,19.2483076171875,0.02649625949561596,0.0818558782339096,0.00511599238961935
1711552143810267400,19.267267333984375,0.012446369975805283,0.0873536616563797,-0.018402300775051117
1711552143829227500,19.2862275390625,0.009392046369612217,0.06963858753442764,-0.02756527252495289
1711552143848187600,19.305187744140625,0.006337722297757864,0.05558869615197182,-0.02909243479371071
1711552143867147500,19.3241474609375,0.007254019379615784,0.05345066636800766,-0.04039343446493149
1711552143886107600,19.343107666015626,0.01183550525456667,0.08277218043804169,-0.046807512640953064
1711552143905067800,19.36206787109375,0.018860450014472008,0.11636973917484283,-0.041004300117492676
1711552143924028000,19.38102783203125,0.014584396965801716,0.1078176349401474,-0.024205517023801804
1711552143942987800,19.39998779296875,0.0023671009112149477,0.07055488228797913,-0.018096869811415672
1711552143961948000,19.418947998046875,-0.007406735327094793,0.05803215503692627,-0.016569707542657852
1711552143980907800,19.43790771484375,-0.017486004158854485,0.06719512492418289,-0.011682788841426373
1711552143999868000,19.456867919921876,-0.028787001967430115,0.06322450190782547,-0.01259908638894558
1711552144018828000,19.475828125,-0.026038112118840218,0.05406153202056885,-0.016569707542657852
1711552144037788200,19.4947880859375,-0.011377356946468353,0.05039634555578232,-0.01107192412018776
1711552144056748000,19.513748046875,0.0023671009112149477,0.051618073135614395,0.0005345066892914474
1711552144075708200,19.532708251953125,-0.004046979360282421,0.035735588520765305,0.007864884100854397
1711552144094668300,19.551668212890625,-0.011377356946468353,0.032070402055978775,-0.0006872228696011007
1711552144113628400,19.57062841796875,-0.0009926552884280682,0.040317077189683914,-0.0009926552884280682
1711552144132588300,19.58958837890625,0.003283398225903511,0.061391908675432205,0.001450803829357028
1711552144151548400,19.60854833984375,0.007254019379615784,0.05222893878817558,0.000839939049910754
1711552144170508500,19.627508544921874,0.0029779658652842045,0.03695731982588768,0.004199695307761431
1711552144189468400,19.646468505859374,0.007254019379615784,0.019242240116000175,0.011224640533328056
1711552144208428500,19.665428466796875,0.004199695307761431,0.015577051788568497,0.007254019379615784
1711552144227388700,19.684388671875,0.007254019379615784,0.023518294095993042,0.008170315995812416
1711552144246348800,19.703348876953125,0.016416991129517555,0.02260199747979641,0.0191658828407526
1711552144265308700,19.72230859375,0.012446369975805283,0.017715077847242355,0.027107125148177147
1711552144284268800,19.741268798828123,0.00847574882209301,0.000610864779446274,0.02893971838057041
1711552144303229000,19.76022900390625,0.018555017188191414,-0.024740023538470268,0.03871355578303337
1711552144322189000,19.77918896484375,0.03260490670800209,-0.04520399495959282,0.05123628303408623
1711552144341149000,19.79814892578125,0.04451677203178406,-0.060781046748161316,0.04329504072666168
1711552144360109000,19.817109130859375,0.04696023091673851,-0.07513637095689774,0.02741255611181259
1711552144379069000,19.83606884765625,0.04390590637922287,-0.06750056147575378,0.007864884100854397
1711552144398029000,19.855029052734373,0.029245151206851006,-0.02871064469218254,-0.022067490965127945
1711552144416989200,19.8739892578125,-0.018096869811415672,0.04428769648075104,-0.04864010959863663
1711552144435949300,19.89294921875,-0.06391172856092453,0.13591741025447845,-0.06818778067827225
1711552144454909400,19.911909423828124,-0.06940951198339462,0.2202167510986328,-0.16531528532505035
1711552144473869300,19.930869384765625,-0.08865175396203995,0.34636032581329346,-0.297872930765152
1711552144492829400,19.949829345703126,-0.06788235157728195,0.5482511520385742,-0.4053851366043091
1711552144511789600,19.96878955078125,-0.03245219215750694,0.6826413869857788,-0.4493674039840698
1711552144530749700,19.987749755859376,0.03962985426187515,0.7137954831123352,-0.4463130831718445
1711552144549709600,20.00670947265625,0.15905392169952393,0.5235111117362976,-0.441426157951355
1711552144568669700,20.025669677734374,0.3264308571815491,0.1844811588525772,-0.46799877285957336
1711552144587629800,20.0446298828125,0.45562875270843506,-0.14477495849132538,-0.5150353908538818
1711552144606589700,20.063589599609376,0.5836049318313599,-0.4169152081012726,-0.4667770564556122
1711552144625549800,20.0825498046875,0.6898953914642334,-0.32192572951316833,-0.3421606421470642
1711552144644510000,20.101510009765626,0.7271581888198853,0.043982263654470444,-0.3073413372039795
1711552144663470000,20.120469970703127,0.6926442980766296,0.34086254239082336,-0.3278053104877472
1711552144682430000,20.139429931640624,0.6431642770767212,0.5283980369567871,-0.24625486135482788
1711552144701390000,20.15839013671875,0.6294198036193848,0.4822777509689331,-0.07948877662420273
1711552144720350200,20.17735009765625,0.630641520023346,0.2919933497905731,0.03413207083940506
1711552144739310000,20.19631005859375,0.6425533890724182,0.1597411334514618,0.09033162891864777
1711552144758270200,20.215270263671876,0.5845212340354919,0.20127993822097778,0.17951788008213043
1711552144777230300,20.234230224609377,0.483423113822937,0.2559523284435272,0.20242531597614288
1711552144796190500,20.2531904296875,0.42539095878601074,0.3943132162094116,0.11476621776819229
1711552144815150300,20.272150390625,0.3795761168003082,0.5677987933158875,0.13614648580551147
1711552144834110500,20.2911103515625,0.27053675055503845,0.6493492722511292,0.2589302957057953
1711552144853070600,20.310070556640625,0.08544471114873886,0.5891790986061096,0.3862956166267395
1711552144872030700,20.32903076171875,-0.0553596206009388,0.4303542375564575,0.5118283033370972
1711552144890990600,20.347990478515626,-0.18241949379444122,0.282524973154068,0.5884918570518494
1711552144909950700,20.36695068359375,-0.3262781500816345,0.04001164436340332,0.6184242367744446
1711552144928910600,20.38591064453125,-0.36537349224090576,-0.4410443603992462,0.5793288946151733
1711552144947870700,20.40487060546875,-0.07704532146453857,-1.361006736755371,0.3343721032142639
1711552144966830800,20.423830810546875,0.1813504844903946,-1.8698570728302002,0.03932442143559456
1711552144985791000,20.442791015625,0.07994692772626877,-1.3530654907226562,-0.29420775175094604
1711552145004751000,20.461751220703125,-0.12530364096164703,0.1182023361325264,-0.45364347100257874
1711552145023711000,20.4807109375,-0.3467421233654022,1.3368775844573975,-0.3418551981449127
1711552145042671000,20.499671142578126,-0.3785070776939392,1.4691298007965088,-0.106366828083992
1711552145061631200,20.51863134765625,-0.14851650595664978,0.592233419418335,-0.06421715766191483
1711552145080591400,20.53759130859375,0.07170025259256363,-0.3741546869277954,-0.11339177191257477
1711552145099551200,20.55655126953125,0.1398116797208786,-0.42791077494621277,0.08697187155485153
1711552145118511400,20.575511474609375,0.014889828860759735,0.17195843160152435,0.3187950551509857
1711552145137471500,20.594471435546875,-0.11827868968248367,0.5119046568870544,0.34292420744895935
1711552145156431400,20.613431396484376,-0.15615230798721313,0.5510000586509705,0.29558220505714417
1711552145175391500,20.6323916015625,-0.091400645673275,0.2987128794193268,0.24457497894763947
1711552145194351600,20.6513515625,-0.04283689334988594,-0.003970621153712273,0.048792824149131775
1711552145213311700,20.670311767578124,-0.10422880202531815,0.05864302068948746,-0.11430807411670685
1711552145232271600,20.689271728515624,-0.20624321699142456,0.2617555558681488,-0.20074543356895447
1711552145251231700,20.708231689453125,-0.25205808877944946,0.2809978127479553,-0.326583594083786
1711552145270191900,20.72719189453125,-0.24839289486408234,0.17592905461788177,-0.3531562089920044
1711552145289151700,20.74615185546875,-0.2300669401884079,0.04764745384454727,-0.2654971182346344
1711552145308112000,20.76511181640625,-0.16562071442604065,-0.010079269297420979,-0.12377647310495377
1711552145327072000,20.784072021484373,-0.12774710357189178,0.1328630894422531,0.08727730810642242
1711552145346032000,20.8030322265625,-0.10850485414266586,0.24373504519462585,0.2989419400691986
1711552145364992000,20.821991943359375,-0.11797326058149338,0.14782927930355072,0.3197113573551178
1711552145383952100,20.8409521484375,-0.12713623046875,-0.06383536756038666,0.30566146969795227
1711552145402912300,20.859912353515625,-0.08529199659824371,-0.24037529528141022,0.29069527983665466
1711552145421872400,20.878872314453126,-0.004963276442140341,-0.2834412455558777,0.22960880398750305
1711552145440832300,20.897832275390623,0.06986765563488007,-0.1853974610567093,0.12789981067180634
1711552145459792400,20.91679248046875,0.12606722116470337,0.01435532234609127,0.07231111824512482
1711552145478752500,20.93575244140625,0.1859319657087326,0.22235478460788727,0.0371863916516304
1711552145497712400,20.95471240234375,0.20853395760059357,0.2822195291519165,-0.03275762498378754
1711552145516672500,20.973672607421875,0.17829616367816925,0.3454440236091614,-0.10606139898300171
1711552145535632600,20.992632568359376,0.09430225193500519,0.3961458206176758,-0.16103923320770264
1711552145554592800,21.0115927734375,0.007254019379615784,0.4828886091709137,-0.18700097501277924
1711552145573553000,21.030552978515626,-0.11400263756513596,0.4926624298095703,-0.20288346707820892
1711552145592512800,21.0495126953125,-0.2508363425731659,0.4169152081012726,-0.1274416595697403
1711552145611473000,21.068472900390624,-0.34552037715911865,0.16523891687393188,-0.03917170315980911
1711552145630433000,21.08743310546875,-0.44753479957580566,-0.11911863088607788,0.05826122686266899
1711552145649393000,21.106392822265626,-0.450589120388031,-0.29626941680908203,0.1755472719669342
1711552145668353000,21.12535302734375,-0.32352927327156067,-0.34238970279693604,0.37896522879600525
1711552145687313200,21.144313232421876,-0.14424043893814087,-0.35216355323791504,0.49716755747795105
1711552145706273300,21.163273193359377,-0.060551971197128296,-0.500298261642456,0.44554948806762695
1711552145725233400,21.1822333984375,-0.029703300446271896,-0.5064069032669067,0.29191699624061584
1711552145744193500,21.201193603515627,0.01183550525456667,-0.2412915825843811,0.13584105670452118
1711552145763153400,21.2201533203125,0.05520690605044365,0.16035200655460358,0.004810560029000044
1711552145782113500,21.239113525390625,0.12667807936668396,0.45875945687294006,-0.10300707072019577
1711552145801073700,21.25807373046875,0.1706603467464447,0.5204567909240723,-0.1778380125761032
1711552145820033500,21.277033447265627,0.10621411353349686,0.40897396206855774,-0.25389066338539124
1711552145838993700,21.29599365234375,0.008781181648373604,0.41325002908706665,-0.28473934531211853
1711552145857953800,21.314953857421877,0.01000291109085083,0.6154462695121765,-0.28412848711013794
1711552145876914000,21.333913818359374,0.03138317912817001,0.7422007322311401,-0.21326816082000732
1711552145895874000,21.3528740234375,0.016416991129517555,0.6957749724388123,-0.22823435068130493
1711552145914834200,21.371834228515624,0.0035888305865228176,0.5522217750549316,-0.28779366612434387
1711552145933794000,21.3907939453125,0.093691386282444,0.481361448764801,-0.3488801419734955
1711552145952754200,21.409754150390626,0.14408773183822632,0.5855138897895813,-0.39164069294929504
1711552145971714300,21.42871435546875,0.19753839075565338,0.7736602425575256,-0.49884745478630066
1711552145990674400,21.44767431640625,0.28703010082244873,0.9306524991989136,-0.6390409469604492
1711552146009634600,21.466634521484377,0.36796966195106506,1.1224640607833862,-0.7361684441566467
1711552146028594700,21.4855947265625,0.4324159026145935,1.2644901275634766,-0.8748347163200378
1711552146047554600,21.504554443359375,0.5322923064231873,1.339931845664978,-0.9533308744430542
1711552146066514700,21.5235146484375,0.42050403356552124,1.341459035873413,-0.8891900181770325
1711552146085474800,21.542474853515625,0.3468948304653168,1.119104266166687,-0.8281035423278809
1711552146104435000,21.56143505859375,0.29741477966308594,0.8518509268760681,-0.6979893445968628
1711552146123395000,21.58039501953125,0.21403174102306366,0.5635227560997009,-0.6210203766822815
1711552146142355000,21.59935498046875,0.2167806327342987,0.3231474757194519,-0.5281689763069153
1711552146161315000,21.618315185546876,0.17737986147403717,0.13011419773101807,-0.33452481031417847
1711552146180275200,21.637275146484374,0.18012875318527222,-0.11056652665138245,-0.3232238292694092
1711552146199235300,21.6562353515625,0.20028728246688843,-0.19150610268115997,-0.28993168473243713
1711552146218195500,21.675195556640624,0.1969275325536728,-0.18417572975158691,-0.2929860055446625
1711552146237155600,21.694155517578125,0.16455170512199402,-0.059864748269319534,-0.22120940685272217
1711552146256115500,21.713115478515626,0.028328854590654373,0.09621120244264603,-0.09506583213806152
1711552146275075600,21.73207568359375,-0.04558578506112099,0.323452889919281,0.09063705801963806
1711552146294035700,21.75103564453125,-0.027259841561317444,0.056199558079242706,-0.02023489587008953
1711552146312995800,21.769995849609376,0.12698352336883545,-0.2107483446598053,-0.06910407543182373
1711552146331956000,21.7889560546875,0.20456334948539734,-0.1597411334514618,-0.01107192412018776
1711552146350916000,21.807916015625,0.18898628652095795,0.012217295356094837,0.07475458085536957
1711552146369876200,21.826876220703124,0.1550832986831665,0.2574795186519623,-0.016569707542657852
1711552146388836400,21.84583642578125,0.1092684343457222,0.2776380479335785,-0.11858412623405457
1711552146407796200,21.864796142578125,0.0836121141910553,0.20952661335468292,-0.1378263682126999
1711552146426756400,21.88375634765625,0.08147408813238144,0.028405211865901947,-0.12499820441007614
1711552146445716500,21.902716552734375,0.004505127668380737,0.07910698652267456,-0.1222493126988411
1711552146464676600,21.921676513671876,-0.152487114071846,0.2419024556875229,-0.14698933064937592
1711552146483636700,21.94063671875,-0.275270938873291,0.35643959045410156,-0.3232238292694092
1711552146502596900,21.959596923828126,-0.34002259373664856,0.4874700903892517,-0.4820486605167389
1711552146521556700,21.978556640625,-0.4041634202003479,0.5797106623649597,-0.6045270562171936
1711552146540516900,21.997516845703124,-0.5046506524085999,0.6322450637817383,-0.8073341846466064
1711552146559477000,22.01647705078125,-0.6262127757072449,0.6823359727859497,-0.8085559010505676
1711552146578437000,22.03543701171875,-0.5559632778167725,0.767857015132904,-0.46341729164123535
1711552146597397200,22.054397216796875,-0.15981750190258026,0.3503309488296509,-0.054443322122097015
1711552146616357400,22.073357421875,0.2063959389925003,-0.08582650125026703,0.39484772086143494
1711552146635317500,22.0923173828125,0.08300124853849411,-0.37659814953804016,0.5594757795333862
1711552146654277600,22.111277587890626,-0.13477204740047455,-0.7153226733207703,0.6590467095375061
1711552146673237800,22.13023779296875,-0.1891390085220337,-0.9312633275985718,0.7711403965950012
1711552146692198000,22.149197998046876,-0.17172935605049133,-1.018617033958435,0.7525090575218201
1711552146711158000,22.168157958984374,-0.19249875843524933,-1.0241148471832275,0.7760273218154907
1711552146730118100,22.1871181640625,-0.14088068902492523,-1.0723731517791748,0.7958804368972778
1711552146749078300,22.206078369140624,-0.12621992826461792,-1.1508692502975464,0.7592285871505737
1711552146768038400,22.225038330078124,-0.17508912086486816,-1.1001675128936768,0.677678108215332
1711552146786998500,22.24399853515625,-0.20288346707820892,-0.9297361969947815,0.6459131240844727
1711552146805958700,22.262958740234374,-0.19188790023326874,-0.7974839806556702,0.6902008652687073
1711552146824918500,22.28191845703125,-0.11766783148050308,-0.7834340929985046,0.7280744314193726
1711552146843878700,22.300878662109376,-0.034895651042461395,-0.7816014885902405,0.7143300175666809
1711552146862838800,22.3198388671875,-0.05474875494837761,-0.7828232049942017,0.6373610496520996
1711552146881799200,22.338799072265626,-0.07735075056552887,-0.7229584455490112,0.5435932874679565
1711552146900759000,22.357759033203124,-0.039477135986089706,-0.6438514590263367,0.39484772086143494
1711552146919719200,22.37671923828125,-0.04589121788740158,-0.47952884435653687,0.27175846695899963
1711552146938679300,22.39567919921875,-0.03275762498378754,-0.20830489695072174,0.17799071967601776
1711552146957639400,22.414639404296874,0.00511599238961935,0.049480047076940536,0.12851068377494812
1711552146976599600,22.433599609375,0.040546149015426636,0.1646280586719513,0.08269581943750381
1711552146995559700,22.4525595703125,0.045738499611616135,0.036651886999607086,0.0066431546583771706
1711552147014519800,22.471519775390625,0.0371863916516304,-0.2562577724456787,-0.03520108386874199
1711552147033480000,22.49047998046875,0.11079560220241547,-0.4831940531730652,-0.06421715766191483
1711552147052440000,22.509440185546875,0.1960112303495407,-0.5170970559120178,-0.16409355401992798
1711552147071400200,22.528400146484376,0.21616977453231812,-0.37843072414398193,-0.3128391206264496
1711552147090360300,22.5473603515625,0.16271910071372986,-0.001832594396546483,-0.3638463318347931
1711552147109320400,22.566320556640626,0.10071633011102676,0.39278605580329895,-0.3384954333305359
1711552147128280600,22.585280517578123,0.07597630470991135,0.5152644515037537,-0.2911534309387207
1711552147147240700,22.60424072265625,0.043600473552942276,0.39370235800743103,-0.21632249653339386
1711552147166200800,22.623200927734374,0.030772313475608826,0.08460476994514465,-0.14851650595664978
1711552147185161000,22.642160888671874,0.03168861195445061,-0.27519458532333374,-0.08529199659824371
1711552147204121000,22.66112109375,-0.07368556410074234,-0.4569268524646759,0.01000291109085083
1711552147223081200,22.680081298828124,-0.23189954459667206,-0.5662716627120972,0.11354449391365051
1711552147242041300,22.699041259765625,-0.3797288239002228,-0.6496546864509583,0.2888626754283905
1711552147261001500,22.71800146484375,-0.4365392327308655,-0.8451313972473145,0.5515345335006714
1711552147279961600,22.736961669921875,-0.3384954333305359,-1.1343759298324585,0.8487202525138855
1711552147298922000,22.755921875,-0.13965895771980286,-1.5167772769927979,0.983415961265564
1711552147317881900,22.7748818359375,-0.061162836849689484,-1.8225150108337402,0.9296598434448242
1711552147336842000,22.793842041015626,-0.10361793637275696,-1.7834197282791138,0.8203150629997253
1711552147355802000,22.812802001953123,-0.07521272450685501,-1.414151906967163,0.6578249931335449
1711552147374762500,22.831762451171876,0.03627009689807892,-0.8872811198234558,0.4366919696331024
1711552147393722400,22.850722412109373,0.11812597513198853,-0.3243691921234131,0.20547963678836823
1711552147412682500,22.8696826171875,0.1303432732820511,0.1591302752494812,-0.02328922040760517
1711552147431643000,22.888642822265624,0.11110103130340576,0.5241219997406006,-0.224569171667099
1711552147450603000,22.90760302734375,0.050319984555244446,0.7116574645042419,-0.3064250349998474
1711552147469563100,22.926563232421874,0.04024071618914604,0.7260127663612366,-0.2749654948711395
1711552147488523300,22.945523193359374,0.05948295816779137,0.5439751148223877,-0.15523600578308105
1711552147507483400,22.9644833984375,0.0576503649353981,0.27947062253952026,-0.04222602769732475
1711552147526443500,22.983443603515624,0.0243582334369421,0.01282816007733345,0.047265663743019104
1711552147545403600,23.002403564453125,-0.013820815831422806,-0.16004657745361328,0.1297324001789093
1711552147564363800,23.02136376953125,-0.03611737862229347,-0.21197007596492767,0.16424626111984253
1711552147583324000,23.040323974609375,-0.041615162044763565,-0.20647229254245758,0.16241367161273956
1711552147602284000,23.059283935546876,-0.04222602769732475,-0.17867794632911682,0.13858994841575623
1711552147621244200,23.078244140625,-0.00679587060585618,-0.17318016290664673,0.104076087474823
1711552147640204300,23.097204345703126,0.023441936820745468,-0.18814635276794434,0.04451677203178406
1711552147659164700,23.11616455078125,0.03932442143559456,-0.13011419773101807,-0.008017600513994694
1711552147678124800,23.135124755859376,0.032910339534282684,-0.05497783049941063,-0.049250971525907516
1711552147697084700,23.154084716796874,-0.003741546766832471,0.006719512399286032,-0.09170607477426529
1711552147716045000,23.173045166015626,-0.03886627033352852,0.06444623321294785,-0.116751529276371
1711552147735005200,23.192005126953124,-0.041615162044763565,0.08063415437936783,-0.11125374585390091
1711552147753965300,23.21096533203125,-0.00954476185142994,0.09560033679008484,-0.08162680268287659
