time,seconds_elapsed,z,y,x
1710889128540662500,0.09866259765625,-0.1182023361325264,-0.009773836471140385,-0.02779434807598591
1710889128559621000,0.11762109375,-0.12003492563962936,0.01588248461484909,-0.010384701192378998
1710889128578580000,0.136580078125,-0.1178968995809555,0.06322450190782547,0.019242240116000175
1710889128597538800,0.155538818359375,-0.1285870373249054,0.10231985151767731,0.03817904740571976
1710889128616497700,0.17449755859375,-0.14172062277793884,0.13133592903614044,0.043982263654470444
1710889128635456500,0.19345654296875,-0.14141519367694855,0.1383608728647232,0.03848448023200035
1710889128654415400,0.212415283203125,-0.1279761642217636,0.12461641430854797,0.029016077518463135
1710889128673374200,0.231374267578125,-0.11026109009981155,0.08582650125026703,0.021380268037319183
1710889128692333000,0.2503330078125,-0.10415244847536087,0.03756818547844887,0.013439024798572063
1710889128711291600,0.269291748046875,-0.1026252806186676,-0.011911863461136818,0.003970621153712273
1710889128730250500,0.28825048828125,-0.09834922850131989,-0.06963858753442764,-0.004276053514331579
1710889128749209300,0.307209228515625,-0.08826996386051178,-0.13255766034126282,-0.01588248461484909
1710889128768168200,0.326168212890625,-0.061391908675432205,-0.18234314024448395,-0.02626718580722809
1710889128787127000,0.345126953125,-0.03543015569448471,-0.16523891687393188,-0.02718348242342472
1710889128806086000,0.3640859375,-0.02871064469218254,-0.10567960888147354,-0.01740964688360691
1710889128825044700,0.383044677734375,-0.033597562462091446,-0.046425722539424896,-0.005803215317428112
1710889128844003600,0.402003662109375,-0.041844237595796585,0.003665188793092966,0.008857538923621178
1710889128862962200,0.420962158203125,-0.043371398001909256,0.0513126403093338,0.019853105768561363
1710889128881921000,0.439921142578125,-0.04153880476951599,0.07941242307424545,0.01954767294228077
1710889128900880000,0.4588798828125,-0.04886918142437935,0.07360920310020447,0.013133592903614044
1710889128919838700,0.477838623046875,-0.07422006875276566,0.043371398001909256,0.006719512399286032
1710889128938797600,0.496797607421875,-0.10598503798246384,-0.000610864779446274,0
1710889128957756400,0.51575634765625,-0.14538581669330597,-0.06414080411195755,-0.011300998739898205
1710889128976715300,0.53471533203125,-0.2052505612373352,-0.1588248461484909,-0.026878049597144127
1710889128995673900,0.553673828125,-0.28924447298049927,-0.282524973154068,-0.04459312930703163
1710889129014632700,0.5726328125,-0.36712974309921265,-0.42424559593200684,-0.05283980444073677
1710889129033591600,0.591591552734375,-0.42363473773002625,-0.5577195286750793,-0.06444623321294785
1710889129052550400,0.61055029296875,-0.4819723069667816,-0.6322450637817383,-0.07422006875276566
1710889129071509200,0.62950927734375,-0.5519163012504578,-0.6380482912063599,-0.06200277432799339
1710889129090468000,0.648468017578125,-0.6291907429695129,-0.5809323787689209,-0.029626941308379173
1710889129109427000,0.667427001953125,-0.7052434086799622,-0.4618137776851654,0.018325943499803543
1710889129128385800,0.6863857421875,-0.7870992422103882,-0.2929096519947052,0.07971785217523575
1710889129147344400,0.705344482421875,-0.8857539296150208,-0.1288924664258957,0.15485422313213348
1710889129166303200,0.72430322265625,-1.0522146224975586,0.011911863461136818,0.25411975383758545
1710889129185262000,0.743261962890625,-1.1200206279754639,0.09468404203653336,0.3445277214050293
1710889129204221000,0.762220947265625,-1.0760383605957031,0.17134757339954376,0.39248061180114746
1710889129223179800,0.7811796875,-1.053436279296875,0.20769402384757996,0.3949240744113922
1710889129242138400,0.800138427734375,-1.0201442241668701,0.21777328848838806,0.36774060130119324
1710889129261097200,0.81909716796875,-0.9737184643745422,0.19333870708942413,0.35185810923576355
1710889129280056300,0.838056396484375,-0.9037744402885437,0.20769402384757996,0.3191768527030945
1710889129299015000,0.857014892578125,-0.8090903759002686,0.24434591829776764,0.2831358313560486
1710889129317973800,0.875973876953125,-0.6847794055938721,0.21380266547203064,0.22815799713134766
1710889129336932600,0.8949326171875,-0.46944957971572876,0.036651886999607086,0.13622283935546875
1710889129355891500,0.913891357421875,-0.15210533142089844,-0.24312418699264526,-0.043982263654470444
1710889129374850300,0.932850341796875,0.18173226714134216,-0.4159989058971405,-0.26511532068252563
1710889129393809200,0.95180908203125,0.4156934916973114,-0.35246896743774414,-0.4361574649810791
1710889129412767700,0.970767822265625,0.4874700903892517,-0.0821613147854805,-0.5061014890670776
1710889129431726600,0.9897265625,0.3814850449562073,0.2562577724456787,-0.48655378818511963
1710889129450685700,1.008685791015625,0.20402882993221283,0.5079340934753418,-0.3811796307563782
1710889129469644300,1.027644287109375,0.04276053607463837,0.6078104376792908,-0.24037529528141022
1710889129488603100,1.04660302734375,-0.05222893878817558,0.5983420610427856,-0.1646280586719513
1710889129507562000,1.06556201171875,-0.10629047453403473,0.547029435634613,-0.16707152128219604
1710889129526520800,1.084520751953125,-0.12492185086011887,0.462424635887146,-0.18814635276794434
1710889129545479700,1.103479736328125,-0.12461641430854797,0.31490078568458557,-0.20402882993221283
1710889129564438500,1.1224384765625,-0.13622283935546875,0.13103049993515015,-0.20402882993221283
1710889129583397400,1.1413974609375,-0.1585194170475006,-0.06597339361906052,-0.2214384824037552
1710889129602356200,1.160356201171875,-0.16126830875873566,-0.26939135789871216,-0.27977606654167175
1710889129621315000,1.179315185546875,-0.11698060482740402,-0.4199695289134979,-0.3500255048274994
1710889129640274000,1.19827392578125,-0.04581485688686371,-0.4825831651687622,-0.406530499458313
1710889129659232800,1.217232666015625,0.008246674202382565,-0.5082395076751709,-0.44929105043411255
1710889129678191600,1.236191650390625,0.028099779039621353,-0.5415316224098206,-0.48013970255851746
1710889129697150500,1.255150390625,0.021380268037319183,-0.5781835317611694,-0.4783071279525757
1710889129716109000,1.274109130859375,0.007635809946805239,-0.609948456287384,-0.43279770016670227
1710889129735068000,1.29306787109375,0.01802051067352295,-0.6429351568222046,-0.36712974309921265
1710889129754026800,1.31202685546875,0.056810423731803894,-0.6905826330184937,-0.3042106628417969
1710889129772985600,1.330985595703125,0.09590577334165573,-0.7550288438796997,-0.25534147024154663
1710889129791944400,1.3499443359375,0.09315688163042068,-0.8164207935333252,-0.2257145345211029
1710889129810903300,1.3689033203125,0.035735588520765305,-0.8646790981292725,-0.21868959069252014
1710889129829862100,1.387862060546875,-0.0513126403093338,-0.8949168920516968,-0.2110537886619568
1710889129848821000,1.406821044921875,-0.13652828335762024,-0.9132428169250488,-0.18631376326084137
1710889129867779800,1.42577978515625,-0.2009745091199875,-0.9355394244194031,-0.16737695038318634
1710889129886738700,1.44473876953125,-0.20372340083122253,-1.0024291276931763,-0.15485422313213348
1710889129905697500,1.463697509765625,-0.14996729791164398,-1.1087195873260498,-0.1484401375055313
1710889129924656400,1.482656494140625,-0.07849612087011337,-1.219591498374939,-0.15760311484336853
1710889129943615200,1.501615234375,-0.02871064469218254,-1.3264929056167603,-0.19303326308727264
1710889129962574000,1.520573974609375,-0.03329212963581085,-1.404072642326355,-0.24923282861709595
1710889129981533000,1.539532958984375,-0.08765909820795059,-1.4272855520248413,-0.2935205399990082
1710889130000491800,1.55849169921875,-0.11392628401517868,-1.3918553590774536,-0.29962918162345886
1710889130019450600,1.57745068359375,-0.07116574794054031,-1.2751802206039429,-0.277332603931427
1710889130038409500,1.596409423828125,-0.023212861269712448,-1.0928370952606201,-0.2614501118659973
1710889130057368300,1.615368408203125,-0.025045456364750862,-0.9492838382720947,-0.24709481000900269
1710889130076327200,1.6343271484375,-0.06261363625526428,-0.9233221411705017,-0.250149130821228
1710889130095286000,1.6532861328125,-0.10048725455999374,-0.9837977290153503,-0.2868010103702545
1710889130114244900,1.672244873046875,-0.11392628401517868,-1.0818414688110352,-0.3503309488296509
1710889130133203700,1.69120361328125,-0.10445787757635117,-1.1997383832931519,-0.4205803871154785
1710889130152162800,1.710162841796875,-0.08613193035125732,-1.3194679021835327,-0.4789179861545563
1710889130171121700,1.72912158203125,-0.0717766135931015,-1.3988803625106812,-0.5048797130584717
1710889130190080500,1.74808056640625,-0.08643736690282822,-1.406821608543396,-0.49541133642196655
1710889130209039400,1.767039306640625,-0.15118902921676636,-1.349400281906128,-0.4667007029056549
1710889130227998200,1.785998291015625,-0.24740023910999298,-1.2525782585144043,-0.42424559593200684
1710889130246957000,1.80495703125,-0.33567020297050476,-1.1377356052398682,-0.3555232882499695
1710889130265916000,1.823916015625,-0.40255987644195557,-1.0396918058395386,-0.26542073488235474
1710889130284874800,1.842874755859375,-0.48930269479751587,-1.0036507844924927,-0.18600831925868988
1710889130303833600,1.86183349609375,-0.5784889459609985,-1.0177006721496582,-0.13530655205249786
1710889130322792400,1.88079248046875,-0.5995637774467468,-1.0399973392486572,-0.10079269111156464
1710889130341751300,1.899751220703125,-0.5797106623649597,-1.0235038995742798,-0.09010255336761475
1710889130360710100,1.918710205078125,-0.6029235124588013,-0.9596685767173767,-0.11545344442129135
1710889130379669200,1.937669189453125,-0.657290518283844,-0.887891948223114,-0.14080433547496796
1710889130398628000,1.956628173828125,-0.6835576891899109,-0.8353576064109802,-0.143553227186203
1710889130417587000,1.9755869140625,-0.6661480665206909,-0.7788525819778442,-0.13683371245861053
1710889130436545800,1.9945458984375,-0.6154462695121765,-0.7168498039245605,-0.13927717506885529
1710889130455504600,2.013504638671875,-0.5082395076751709,-0.6517927050590515,-0.14599667489528656
1710889130474463500,2.03246337890625,-0.38331764936447144,-0.5778780579566956,-0.17134757339954376
1710889130493422300,2.05142236328125,-0.29138249158859253,-0.5125155448913574,-0.1893680840730667
1710889130512381200,2.070381103515625,-0.20616686344146729,-0.45417797565460205,-0.17134757339954376
1710889130531340300,2.08934033203125,-0.12614357471466064,-0.38698282837867737,-0.12034036219120026
1710889130550299100,2.108299072265625,-0.056199558079242706,-0.3246746361255646,-0.04214967042207718
1710889130569258000,2.127258056640625,0.008552107028663158,-0.28924447298049927,0.043371398001909256
1710889130588216800,2.146216796875,0.07116574794054031,-0.28069236874580383,0.12003492563962936
1710889130607175700,2.16517578125,0.12705987691879272,-0.29138249158859253,0.17653992772102356
1710889130626134800,2.184134765625,0.16829325258731842,-0.33139413595199585,0.2052505612373352
1710889130645093600,2.20309375,0.20250166952610016,-0.40744680166244507,0.20311254262924194
1710889130664052500,2.222052490234375,0.2364046722650528,-0.5097666382789612,0.1737910360097885
1710889130683011300,2.24101123046875,0.2712239623069763,-0.6035344004631042,0.1288924664258957
1710889130701970200,2.25997021484375,0.29962918162345886,-0.664926290512085,0.08093958348035812
1710889130720929300,2.27892919921875,0.3090975880622864,-0.7141009569168091,0.02871064469218254
1710889130739888000,2.29788818359375,0.28924447298049927,-0.7553343176841736,-0.027488915249705315
1710889130758847000,2.316846923828125,0.24251331388950348,-0.795651376247406,-0.08338304609060287
1710889130777805800,2.335805908203125,0.2208276242017746,-0.8213077187538147,-0.13072505593299866
1710889130796765000,2.354764892578125,0.2208276242017746,-0.8231402635574341,-0.17287473380565643
1710889130815723800,2.373723876953125,0.21197007596492767,-0.8014546036720276,-0.189673513174057
1710889130834682600,2.3926826171875,0.19333870708942413,-0.7583886384963989,-0.18692462146282196
1710889130853641500,2.411641357421875,0.15729768574237823,-0.7061597108840942,-0.1750127524137497
1710889130872600600,2.4306005859375,0.12370011955499649,-0.6447677612304688,-0.1484401375055313
1710889130891559400,2.449559326171875,0.09040798991918564,-0.5769617557525635,-0.10231985151767731
1710889130910518300,2.468518310546875,0.07819069176912308,-0.5103775262832642,-0.05497783049941063
1710889130929477000,2.48747705078125,0.08368847519159317,-0.4465421438217163,-0.03543015569448471
1710889130948436000,2.50643603515625,0.09437860548496246,-0.41416633129119873,-0.04825831577181816
1710889130967395000,2.52539501953125,0.10018182545900345,-0.4156934916973114,-0.09651663154363632
1710889130986354000,2.54435400390625,0.0922405794262886,-0.43340855836868286,-0.16768237948417664
1710889131005312800,2.563312744140625,0.06047561392188072,-0.46364638209342957,-0.24434591829776764
1710889131024271600,2.582271728515625,0.007635809946805239,-0.5021308660507202,-0.31123560667037964
1710889131043230700,2.601230712890625,-0.05528326332569122,-0.545502245426178,-0.3607156574726105
1710889131062189600,2.620189453125,-0.10965022444725037,-0.5827649831771851,-0.39858928322792053
1710889131081148400,2.6391484375,-0.15027274191379547,-0.618806004524231,-0.4315759539604187
1710889131100107500,2.658107421875,-0.17623448371887207,-0.6514872908592224,-0.4608974754810333
1710889131119066400,2.67706640625,-0.19792018830776215,-0.6954695582389832,-0.4819723069667816
1710889131138025200,2.696025146484375,-0.2208276242017746,-0.758694052696228,-0.49510589241981506
1710889131156984300,2.714984375,-0.23793183267116547,-0.8344413042068481,-0.4972439408302307
1710889131175943200,2.733943115234375,-0.24770566821098328,-0.9187406301498413,-0.4978547990322113
1710889131194902000,2.752902099609375,-0.24404047429561615,-0.989295482635498,-0.5027416944503784
1710889131213860900,2.77186083984375,-0.2257145345211029,-1.0375537872314453,-0.5115992426872253
1710889131232820000,2.790820068359375,-0.20189081132411957,-1.061682939529419,-0.5232056975364685
1710889131251778800,2.80977880859375,-0.18723005056381226,-1.0696241855621338,-0.5320632457733154
1710889131270737700,2.828737548828125,-0.17073670029640198,-1.0512982606887817,-0.5247328281402588
1710889131289696800,2.84769677734375,-0.14294235408306122,-0.9993748068809509,-0.4987711012363434
1710889131308655600,2.866655517578125,-0.11087195575237274,-0.9080504775047302,-0.4575377106666565
1710889131327614700,2.88561474609375,-0.0772743970155716,-0.8200859427452087,-0.41355544328689575
1710889131346573600,2.904573486328125,-0.056810423731803894,-0.767857015132904,-0.37843072414398193
1710889131365532400,2.923532470703125,-0.05558869615197182,-0.7373138070106506,-0.35796675086021423
1710889131384491500,2.942491455078125,-0.047036588191986084,-0.7260127663612366,-0.3393353819847107
1710889131403450400,2.961450439453125,-0.031154103577136993,-0.7528908252716064,-0.32100942730903625
1710889131422409200,2.9804091796875,-0.029016077518463135,-0.8289434909820557,-0.3176496922969818
1710889131441368000,2.9993681640625,-0.039706211537122726,-0.9111047983169556,-0.3243691921234131
1710889131460327200,3.0183271484375,-0.054672397673130035,-0.9685261249542236,-0.3335321843624115
1710889131479286000,3.0372861328125,-0.09804379940032959,-1.0830632448196411,-0.33567020297050476
1710889131498245000,3.0562451171875,-0.13713914155960083,-1.1902700662612915,-0.3298669755458832
1710889131517204000,3.075203857421875,-0.16829325258731842,-1.212566614151001,-0.3127627670764923
1710889131536163000,3.0941630859375,-0.18295399844646454,-1.1640028953552246,-0.2883281707763672
1710889131555122000,3.113121826171875,-0.2000582218170166,-1.0656535625457764,-0.25534147024154663
1710889131574080800,3.132080810546875,-0.22449280321598053,-0.9227112531661987,-0.2156352698802948
1710889131593039600,3.15103955078125,-0.23945899307727814,-0.7290670871734619,-0.17195843160152435
1710889131611998700,3.169998779296875,-0.2666424810886383,-0.5170970559120178,-0.12980876863002777
1710889131630957600,3.18895751953125,-0.33078327775001526,-0.31520622968673706,-0.09101885557174683
1710889131649916700,3.207916748046875,-0.3863719701766968,-0.11942406743764877,-0.048563748598098755
1710889131668875500,3.22687548828125,-0.40225446224212646,0.07849612087011337,0.024740023538470268
1710889131687834600,3.245834716796875,-0.3915643095970154,0.18356487154960632,0.07941242307424545
1710889131706793500,3.26479345703125,-0.3814850449562073,0.2764163017272949,0.06811141967773438
1710889131725752300,3.28375244140625,-0.36804601550102234,0.3796524703502655,0.03695731982588768
1710889131744711400,3.30271142578125,-0.3231474757194519,0.5244274139404297,0.008857538923621178
1710889131763670300,3.321670166015625,-0.21471896767616272,0.6502655744552612,-0.022296564653515816
1710889131782629400,3.34062939453125,-0.10079269111156464,0.7718276381492615,-0.06017018109560013
1710889131801588200,3.359588134765625,-0.011911863461136818,0.8677334189414978,-0.07941242307424545
1710889131820547300,3.37854736328125,0.07788526266813278,0.9043853282928467,-0.08491020649671555
1710889131839506200,3.397506103515625,0.14049890637397766,0.869566023349762,-0.056810423731803894
1710889131858465000,3.416465087890625,0.17715078592300415,0.7492256760597229,-0.020158538594841957
1710889131877424000,3.435424072265625,0.16218459606170654,0.5974257588386536,0.03909534588456154
1710889131896383000,3.454383056640625,0.11392628401517868,0.4615083336830139,0.09621120244264603
1710889131915342000,3.473342041015625,0.09407317638397217,0.37812530994415283,0.168904110789299
1710889131934301000,3.492301025390625,0.12156209349632263,0.3494146466255188,0.27000224590301514
1710889131953260000,3.511260009765625,0.1695149689912796,0.3530798554420471,0.3857611119747162
1710889131972219000,3.530218994140625,0.18234314024448395,0.35705047845840454,0.5112938284873962
1710889131991178000,3.549177978515625,0.12614357471466064,0.36254823207855225,0.627968966960907
1710889132010136800,3.56813671875,0.059864748269319534,0.4175260663032532,0.7192932963371277
1710889132029095700,3.587095703125,0.02932151034474373,0.5415316224098206,0.7672461867332458
1710889132048054800,3.6060546875,0.022296564653515816,0.6582068204879761,0.7718276381492615
1710889132067013600,3.625013671875,0.02871064469218254,0.7104357481002808,0.7538071274757385
1710889132085972700,3.64397265625,0.054672397673130035,0.713184654712677,0.7400626540184021
1710889132104931600,3.662931640625,0.10354158282279968,0.6982184648513794,0.740368127822876
1710889132123890700,3.681890625,0.1899789422750473,0.6982184648513794,0.7431169748306274
1710889132142849500,3.700849609375,0.28496840596199036,0.7070759534835815,0.7128791809082031
1710889132161808400,3.719808349609375,0.3533852696418762,0.7089085578918457,0.6640099883079529
1710889132180767500,3.738767578125,0.39278605580329895,0.7235693335533142,0.6322450637817383
1710889132199726300,3.757726318359375,0.4355465769767761,0.740368127822876,0.627968966960907
1710889132218685400,3.776685546875,0.4987711012363434,0.7648026943206787,0.639270007610321
1710889132237644500,3.79564453125,0.5473348498344421,0.8066469430923462,0.6273581385612488
1710889132256603400,3.814603271484375,0.5568032264709473,0.870482325553894,0.572685718536377
1710889132275562200,3.833562255859375,0.5464185476303101,0.9596685767173767,0.4969384968280792
1710889132294521300,3.852521240234375,0.516791582107544,1.0509928464889526,0.42424559593200684
1710889132313480200,3.871480224609375,0.481361448764801,1.1496474742889404,0.3805687427520752
1710889132332439300,3.890439208984375,0.44990190863609314,1.212566614151001,0.3390299379825592
1710889132351398400,3.9093984375,0.4175260663032532,1.1963787078857422,0.2932150959968567
1710889132370357200,3.928357177734375,0.38789913058280945,1.1059707403182983,0.24404047429561615
1710889132389316000,3.947316162109375,0.36835145950317383,0.9181297421455383,0.16798780858516693
1710889132408275200,3.966275146484375,0.3543015718460083,0.6319395899772644,0.05558869615197182
1710889132427234000,3.985234130859375,0.3439168632030487,0.25931209325790405,-0.07422006875276566
1710889132446193200,4.004193115234375,0.3298669755458832,-0.18814635276794434,-0.20189081132411957
1710889132465152000,4.023152099609375,0.2968802750110626,-0.6948586702346802,-0.3197877109050751
1710889132484111000,4.042111083984375,0.23823726177215576,-1.1740821599960327,-0.42332929372787476
1710889132503070000,4.061070068359375,0.17073670029640198,-1.551901936531067,-0.4987711012363434
1710889132522029000,4.080029052734375,0.09285144507884979,-1.7986913919448853,-0.5433642268180847
1710889132540988000,4.09898779296875,-0.010995565913617611,-1.9049818515777588,-0.5531380772590637
1710889132559947000,4.117947021484375,-0.12705987691879272,-1.8894047737121582,-0.5308414697647095
1710889132578906000,4.136906005859375,-0.24465134739875793,-1.740964651107788,-0.48441576957702637
1710889132597865000,4.155864990234375,-0.3335321843624115,-1.4844014644622803,-0.42943793535232544
1710889132616823800,4.17482373046875,-0.3637699782848358,-1.1597267389297485,-0.3634645342826843
1710889132635783000,4.193782958984375,-0.3433060050010681,-0.8026763200759888,-0.30604326725006104
1710889132654741800,4.21274169921875,-0.2968802750110626,-0.47006043791770935,-0.2577849328517914
1710889132673700900,4.231700927734375,-0.23976442217826843,-0.18173226714134216,-0.21838416159152985
1710889132692660000,4.250659912109375,-0.18753549456596375,0.03909534588456154,-0.1798996776342392
1710889132711618800,4.269618896484375,-0.1487455666065216,0.1951712965965271,-0.14599667489528656
1710889132730577700,4.28857763671875,-0.12492185086011887,0.30024003982543945,-0.11148282140493393
1710889132749536800,4.307536865234375,-0.12278381735086441,0.3488037884235382,-0.08765909820795059
1710889132768495900,4.326495849609375,-0.1380554437637329,0.33200499415397644,-0.0769689604640007
1710889132787454700,4.345454833984375,-0.1594357043504715,0.25045454502105713,-0.08032871782779694
1710889132806413600,4.36441357421875,-0.1795942485332489,0.1444695144891739,-0.10170898586511612
1710889132825372700,4.38337255859375,-0.19272783398628235,0.02779434807598591,-0.14080433547496796
1710889132844331800,4.402331787109375,-0.2003636509180069,-0.09346231073141098,-0.1795942485332489
1710889132863290600,4.42129052734375,-0.2110537886619568,-0.20372340083122253,-0.21166464686393738
1710889132882249700,4.440249755859375,-0.21502439677715302,-0.3084867000579834,-0.22296564280986786
1710889132901208600,4.45920849609375,-0.20738859474658966,-0.4263836145401001,-0.210442915558815
1710889132920167700,4.478167724609375,-0.16584978997707367,-0.5290089249610901,-0.18692462146282196
1710889132939126500,4.49712646484375,-0.10201441496610641,-0.592233419418335,-0.16310089826583862
1710889132958085600,4.516085693359375,-0.0409279391169548,-0.6004800796508789,-0.13255766034126282
1710889132977044700,4.535044677734375,0.005192350596189499,-0.5253437161445618,-0.0974329337477684
1710889132996003600,4.554003662109375,0.02260199747979641,-0.3631591200828552,-0.04764745384454727
1710889133014962400,4.57296240234375,0.015271619893610477,-0.1591302752494812,0.01802051067352295
1710889133033921500,4.591921630859375,-0.003665188793092966,0.05222893878817558,0.0821613147854805
1710889133052880600,4.610880615234375,-0.03176496922969818,0.22785256803035736,0.13591741025447845
1710889133071839500,4.629839599609375,-0.04764745384454727,0.3500255048274994,0.17806708812713623
1710889133090798600,4.648798583984375,-0.03145953640341759,0.4196641147136688,0.21349723637104034
1710889133109757400,4.66775732421875,0.004276053514331579,0.43432486057281494,0.22968515753746033
1710889133128716500,4.686716552734375,0.03176496922969818,0.40866854786872864,0.2257145345211029
1710889133147675400,4.70567529296875,0.05192350596189499,0.3652971386909485,0.21441353857517242
1710889133166634500,4.724634521484375,0.06627883017063141,0.3384190797805786,0.20738859474658966
1710889133185593600,4.743593505859375,0.0766635313630104,0.33597561717033386,0.19853104650974274
1710889133204552400,4.762552490234375,0.08307760953903198,0.3555232882499695,0.18723005056381226
1710889133223511300,4.78151123046875,0.08338304609060287,0.3796524703502655,0.17073670029640198
1710889133242470400,4.800470458984375,0.07238747924566269,0.3860665261745453,0.15057817101478577
1710889133261429500,4.819429443359375,0.05803215503692627,0.37354379892349243,0.1288924664258957
1710889133280388400,4.838388427734375,0.04734202101826668,0.33658650517463684,0.10598503798246384
1710889133299347500,4.857347412109375,0.04245510324835777,0.28405213356018066,0.08277218043804169
1710889133318306300,4.876306396484375,0.04153880476951599,0.22479823231697083,0.061391908675432205
1710889133337265400,4.895265380859375,0.03817904740571976,0.1646280586719513,0.038789913058280945
1710889133356224300,4.914224365234375,0.031154103577136993,0.10537417232990265,0.021685699000954628
1710889133375183400,4.933183349609375,0.025045456364750862,0.05803215503692627,0.012522728182375431
1710889133394142500,4.952142578125,0.02107483521103859,0.029016077518463135,0.010079269297420979
1710889133413101300,4.971101318359375,0.016798781231045723,0.014660755172371864,0.007941242307424545
1710889133432060400,4.990060302734375,0.008246674202382565,0.010384701192378998,0
1710889133451019300,5.009019287109375,-0.0009162971982732415,0.005192350596189499,-0.013439024798572063
1710889133469978400,5.027978271484375,-0.009162971749901772,-0.010995565913617611,-0.028405211865901947
1710889133488937200,5.046937255859375,-0.01588248461484909,-0.038789913058280945,-0.03909534588456154
1710889133507896300,5.065896240234375,-0.019242240116000175,-0.07116574794054031,-0.043371398001909256
1710889133526855200,5.084855224609375,-0.023823726922273636,-0.10170898586511612,-0.043982263654470444
1710889133545814300,5.103814208984375,-0.02932151034474373,-0.1233946830034256,-0.041844237595796585
1710889133564773400,5.1227734375,-0.03237583488225937,-0.13744457066059113,-0.039706211537122726
1710889133583732200,5.141732177734375,-0.03848448023200035,-0.14080433547496796,-0.03298669680953026
1710889133602691300,5.16069140625,-0.04734202101826668,-0.13958260416984558,-0.02718348242342472
1710889133621650200,5.179650146484375,-0.054672397673130035,-0.13255766034126282,-0.021380268037319183
1710889133640609300,5.198609375,-0.0616973415017128,-0.12125665694475174,-0.01649334840476513
1710889133659568400,5.217568359375,-0.06414080411195755,-0.10537417232990265,-0.017104214057326317
1710889133678527200,5.23652734375,-0.06200277432799339,-0.08949168771505356,-0.024740023538470268
1710889133697486000,5.255486083984375,-0.06963858753442764,-0.09010255336761475,-0.03848448023200035
1710889133716445200,5.274445068359375,-0.0720820426940918,-0.09560033679008484,-0.04581485688686371
1710889133735404300,5.293404296875,-0.051618073135614395,-0.09926552325487137,-0.0461202897131443
1710889133754363100,5.312363037109375,-0.029626941308379173,-0.10965022444725037,-0.0513126403093338
1710889133773322200,5.331322265625,-0.017104214057326317,-0.1282816082239151,-0.06261363625526428
1710889133792281000,5.350281005859375,-0.010995565913617611,-0.13041962683200836,-0.06750056147575378
1710889133811240200,5.369240234375,-0.002443459117785096,-0.1182023361325264,-0.06444623321294785
1710889133830199300,5.38819921875,0.013133592903614044,-0.09132428467273712,-0.061391908675432205
1710889133849158100,5.407158203125,0.030543239787220955,-0.06322450190782547,-0.06444623321294785
1710889133868117200,5.4261171875,0.04001164436340332,-0.053756099194288254,-0.07360920310020447
1710889133887076000,5.445076171875,0.03756818547844887,-0.05864302068948746,-0.08124501258134842
1710889133906035200,5.46403515625,0.03481929376721382,-0.06719512492418289,-0.08552107214927673
1710889133924994300,5.482994384765625,0.03237583488225937,-0.07971785217523575,-0.08826996386051178
1710889133943953200,5.501953125,0.026572618633508682,-0.0821613147854805,-0.09040798991918564
1710889133962912300,5.520912353515625,0.019853105768561363,-0.07757982611656189,-0.08857539296150208
1710889133981871000,5.53987109375,0.010995565913617611,-0.06841685622930527,-0.08460476994514465
1710889134000830200,5.558830322265625,0.003970621153712273,-0.05589412897825241,-0.0772743970155716
1710889134019789000,5.5777890625,-0.000610864779446274,-0.04214967042207718,-0.06719512492418289
1710889134038748200,5.596748046875,-0.010995565913617611,-0.04001164436340332,-0.06230820715427399
1710889134057707000,5.61570703125,-0.026572618633508682,-0.05039634555578232,-0.059864748269319534
1710889134076666000,5.634666015625,-0.035735588520765305,-0.061391908675432205,-0.05833758786320686
1710889134095625200,5.653625244140625,-0.035735588520765305,-0.06200277432799339,-0.0565049909055233
1710889134114584000,5.672583984375,-0.031154103577136993,-0.05803215503692627,-0.05345066636800766
1710889134133543200,5.691543212890625,-0.025350889191031456,-0.061391908675432205,-0.04825831577181816
1710889134152502000,5.710501953125,-0.021991131827235222,-0.07238747924566269,-0.040317077189683914
1710889134171461000,5.729461181640625,-0.019242240116000175,-0.08002328872680664,-0.03237583488225937
1710889134190420200,5.748420166015625,-0.013133592903614044,-0.07513637095689774,-0.025350889191031456
1710889134209379000,5.767379150390625,-0.004276053514331579,-0.0616973415017128,-0.016798781231045723
1710889134228338200,5.786338134765625,0.001832594396546483,-0.04459312930703163,-0.009773836471140385
1710889134247297000,5.805297119140625,0.006414080038666725,-0.02779434807598591,-0.0030543238390237093
1710889134266256100,5.824256103515625,0.011300998739898205,-0.012522728182375431,-0.003359756199643016
1710889134285215000,5.843215087890625,0.01893680728971958,0.004886918235570192,-0.004276053514331579
1710889134304174000,5.862174072265625,0.03298669680953026,0.02626718580722809,-0.0009162971982732415
1710889134323133200,5.88113330078125,0.05100720748305321,0.05100720748305321,0.005803215317428112
1710889134342092000,5.900092041015625,0.06475166976451874,0.0720820426940918,0.013133592903614044
1710889134361051100,5.919051025390625,0.0665842592716217,0.08307760953903198,0.015577051788568497
1710889134380010000,5.938010009765625,0.06383536756038666,0.08857539296150208,0.01893680728971958
1710889134398969000,5.956968994140625,0.0668896958231926,0.10018182545900345,0.02260199747979641
1710889134417928200,5.97592822265625,0.06627883017063141,0.10873392969369888,0.01954767294228077
1710889134436887000,5.994886962890625,0.05558869615197182,0.10965022444725037,0.014660755172371864
1710889134455846100,6.01384619140625,0.05497783049941063,0.12370011955499649,0.016798781231045723
1710889134474805000,6.032804931640625,0.06200277432799339,0.1490510106086731,0.021685699000954628
1710889134493764000,6.05176416015625,0.056199558079242706,0.16859868168830872,0.018325943499803543
1710889134512723000,6.070722900390625,0.04367683082818985,0.1795942485332489,0.02107483521103859
1710889134531682000,6.08968212890625,0.032070402055978775,0.20250166952610016,0.0360410213470459
1710889134550641200,6.10864111328125,0.024434590712189674,0.2306014597415924,0.04581485688686371
1710889134569600300,6.127600341796875,0.020158538594841957,0.2605338394641876,0.046425722539424896
1710889134588559000,6.14655908203125,0.018325943499803543,0.2868010103702545,0.0409279391169548
1710889134607518200,6.165518310546875,0.01588248461484909,0.3066541254520416,0.038789913058280945
1710889134626477000,6.18447705078125,0.01802051067352295,0.32650721073150635,0.04367683082818985
1710889134645436200,6.203436279296875,0.023212861269712448,0.33505934476852417,0.04764745384454727
1710889134664395300,6.222395263671875,0.022907428443431854,0.33536475896835327,0.048563748598098755
1710889134683354000,6.24135400390625,0.023823726922273636,0.33750277757644653,0.05253437161445618
1710889134702313200,6.260313232421875,0.02412915788590908,0.3399462401866913,0.05406153202056885
1710889134721272000,6.27927197265625,0.021380268037319183,0.3381136655807495,0.05283980444073677
1710889134740231200,6.298231201171875,0.021685699000954628,0.33658650517463684,0.05070177838206291
1710889134759190300,6.317190185546875,0.023823726922273636,0.3436114490032196,0.05528326332569122
1710889134778149000,6.336149169921875,0.026572618633508682,0.35155269503593445,0.05925388261675835
1710889134797108200,6.355108154296875,0.02871064469218254,0.3585776388645172,0.06017018109560013
1710889134816067300,6.3740673828125,0.02932151034474373,0.3631591200828552,0.057726722210645676
1710889134835026200,6.393026123046875,0.034208428114652634,0.36682429909706116,0.05925388261675835
1710889134853985300,6.4119853515625,0.03695731982588768,0.36132651567459106,0.05864302068948746
1710889134872944400,6.4309443359375,0.03176496922969818,0.3601047992706299,0.05925388261675835
1710889134891903500,6.449903564453125,0.01802051067352295,0.3597993552684784,0.05894844979047775
1710889134910862300,6.4688623046875,0.006719512399286032,0.3585776388645172,0.05833758786320686
1710889134929821400,6.487821533203125,0.0021380267571657896,0.3582721948623657,0.0616973415017128
1710889134948780300,6.5067802734375,0.005803215317428112,0.35796675086021423,0.06444623321294785
1710889134967739400,6.525739501953125,0.006719512399286032,0.34727662801742554,0.06536252796649933
1710889134986698500,6.544698486328125,0.008246674202382565,0.318871408700943,0.06536252796649933
1710889135005657300,6.5636572265625,0.011606430634856224,0.2883281707763672,0.0665842592716217
1710889135024616400,6.582616455078125,0.01588248461484909,0.25534147024154663,0.06902772188186646
1710889135043575600,6.601575439453125,0.020158538594841957,0.21930044889450073,0.0665842592716217
1710889135062534700,6.62053466796875,0.02260199747979641,0.17745621502399445,0.05955931544303894
1710889135081493500,6.639493408203125,0.02107483521103859,0.13225223124027252,0.04001164436340332
1710889135100452600,6.65845263671875,0.008246674202382565,0.08399390429258347,0.015577051788568497
1710889135119411700,6.67741162109375,-0.001221729558892548,0.03543015569448471,-0.002443459117785096
1710889135138370600,6.69637060546875,-0.006108647678047419,-0.012217295356094837,-0.016187917441129684
1710889135157329700,6.71532958984375,-0.011300998739898205,-0.06047561392188072,-0.025350889191031456
1710889135176288800,6.734288818359375,-0.006414080038666725,-0.10751219838857651,-0.033597562462091446
1710889135195247900,6.753247802734375,0.011911863461136818,-0.15179990231990814,-0.044898562133312225
1710889135214206700,6.772206787109375,0.019853105768561363,-0.20219624042510986,-0.0668896958231926
1710889135233165800,6.791165771484375,0.010995565913617611,-0.27580544352531433,-0.09101885557174683
1710889135252125000,6.810125,0.000305432389723137,-0.3503309488296509,-0.10598503798246384
1710889135271084000,6.829083984375,-0.004886918235570192,-0.3998109996318817,-0.11056652665138245
1710889135290043000,6.84804296875,-0.001832594396546483,-0.4401280879974365,-0.12156209349632263
1710889135309002000,6.867001953125,-0.008246674202382565,-0.46944957971572876,-0.14752385020256042
1710889135327961000,6.885961181640625,-0.0409279391169548,-0.5076286196708679,-0.18264856934547424
1710889135346920200,6.904920166015625,-0.10598503798246384,-0.5849030017852783,-0.22876885533332825
1710889135365879300,6.92387939453125,-0.17867794632911682,-0.7021890878677368,-0.2718348205089569
1710889135384838400,6.94283837890625,-0.2263254076242447,-0.8506292104721069,-0.3249800503253937
1710889135403797200,6.96179736328125,-0.24006985127925873,-1.0403027534484863,-0.39186975359916687
1710889135422756400,6.98075634765625,-0.23823726177215576,-1.2238675355911255,-0.4557051360607147
1710889135441715500,6.999715576171875,-0.2614501118659973,-1.3793326616287231,-0.4978547990322113
1710889135460674300,7.01867431640625,-0.30970844626426697,-1.5604541301727295,-0.5369501113891602
1710889135479633400,7.03763330078125,-0.31490078568458557,-1.8002184629440308,-0.535728394985199
1710889135498592500,7.056592529296875,-0.19730933010578156,-1.9874485731124878,-0.4819723069667816
1710889135517551600,7.075551513671875,-0.02260199747979641,-2.0949606895446777,-0.4367683231830597
1710889135536510700,7.0945107421875,0.10201441496610641,-2.112065076828003,-0.4364628791809082
1710889135555469800,7.1134697265625,0.13439024984836578,-2.047924280166626,-0.4557051360607147
1710889135574428700,7.1324287109375,0.11178825795650482,-1.9511021375656128,-0.45539969205856323
1710889135593387800,7.1513876953125,0.08643736690282822,-1.8820743560791016,-0.4529562294483185
1710889135612347000,7.170346923828125,0.07330377399921417,-1.8985676765441895,-0.47952884435653687
1710889135631306000,7.189305908203125,0.0668896958231926,-2.036623239517212,-0.5442805290222168
1710889135650265000,7.20826513671875,0.09529490768909454,-2.2650866508483887,-0.5986474752426147
1710889135669224200,7.22722412109375,0.17226386070251465,-2.4599523544311523,-0.6569850444793701
1710889135688183300,7.246183349609375,0.2409861534833908,-2.517984628677368,-0.721431314945221
1710889135707142100,7.26514208984375,0.23915356397628784,-2.484387159347534,-0.7861829996109009
1710889135726101200,7.284101318359375,0.1279761642217636,-2.411999464035034,-0.8665117025375366
1710889135745060400,7.303060302734375,-0.0461202897131443,-2.3396120071411133,-0.8790343999862671
1710889135764019500,7.32201953125,-0.19792018830776215,-2.2644758224487305,-0.813060998916626
1710889135782978600,7.340978515625,-0.22327107191085815,-2.201862096786499,-0.7318159937858582
1710889135801937700,7.359937744140625,-0.13225223124027252,-2.1862850189208984,-0.7400626540184021
1710889135820896500,7.378896484375,-0.02779434807598591,-2.230267286300659,-0.8692606091499329
1710889135839855600,7.397855712890625,0.01282816007733345,-2.3264784812927246,-1.0793980360031128
1710889135858814700,7.416814697265625,-0.01282816007733345,-2.461174249649048,-1.267238974571228
1710889135877773800,7.43577392578125,-0.07269290834665298,-2.484387159347534,-1.3930771350860596
1710889135896733000,7.45473291015625,-0.1853974610567093,-2.3762640953063965,-1.4840959310531616
1710889135915692000,7.473692138671875,-0.3277289569377899,-2.1872012615203857,-1.5677844285964966
1710889135934651100,7.492651123046875,-0.48044514656066895,-1.9840887784957886,-1.6453642845153809
1710889135953610200,7.5116103515625,-0.627968966960907,-1.7828088998794556,-1.6801835298538208
1710889135972569300,7.5305693359375,-0.7095194458961487,-1.6264275312423706,-1.712559461593628
1710889135991528400,7.549528564453125,-0.7137954831123352,-1.5008947849273682,-1.7171409130096436
1710889136010487600,7.568487548828125,-0.6856957077980042,-1.3744457960128784,-1.6875139474868774
1710889136029446400,7.5874462890625,-0.6148353815078735,-1.2205078601837158,-1.653916358947754
1710889136048405800,7.60640576171875,-0.4822777509689331,-0.962417483329773,-1.5937461853027344
1710889136067364900,7.62536474609375,-0.40378162264823914,-0.732121467590332,-1.482263445854187
1710889136086323700,7.64432373046875,-0.3995055556297302,-0.5745183229446411,-1.3365721702575684
1710889136105282800,7.66328271484375,-0.4150826036930084,-0.34055712819099426,-1.146898627281189
1710889136124242000,7.682241943359375,-0.39858928322792053,-0.02932151034474373,-0.8933897614479065
1710889136143201000,7.701200927734375,-0.4166097939014435,0.2315177470445633,-0.6325504779815674
1710889136162160000,7.72016015625,-0.47097674012184143,0.35277441143989563,-0.39675667881965637
1710889136181119200,7.739119140625,-0.48960810899734497,0.39248061180114746,-0.2254091054201126
1710889136200078300,7.758078369140625,-0.4523453712463379,0.42332929372787476,-0.04214967042207718
1710889136219037400,7.777037353515625,-0.4318813979625702,0.4615083336830139,0.1585194170475006
1710889136237996500,7.79599658203125,-0.46456265449523926,0.42363473773002625,0.2049451321363449
1710889136256955600,7.81495556640625,-0.5195404887199402,0.30054548382759094,0.18875721096992493
1710889136275914800,7.833914794921875,-0.4862483739852905,0.2159406989812851,0.22724169492721558
1710889136294873900,7.852873779296875,-0.39400777220726013,0.19639302790164948,0.26511532068252563
1710889136313833000,7.8718330078125,-0.370184063911438,0.14477495849132538,0.23029601573944092
1710889136332792000,7.8907919921875,-0.43860089778900146,0,0.129197895526886
1710889136351751200,7.909751220703125,-0.5784889459609985,-0.17806708812713623,-0.04001164436340332
1710889136370710300,7.928710205078125,-0.72173672914505,-0.39400777220726013,-0.2101374864578247
1710889136389669400,7.94766943359375,-0.805425226688385,-0.6239983439445496,-0.3787361681461334
1710889136408628500,7.96662841796875,-0.8448259830474854,-0.8066469430923462,-0.5329795479774475
1710889136427587600,7.985587646484375,-0.8374956250190735,-0.9413426518440247,-0.6530144214630127
1710889136446546700,8.004546630859375,-0.8240565657615662,-1.027169108390808,-0.7422007322311401
1710889136465505800,8.023505859375,-0.8188642263412476,-1.035415768623352,-0.7812960743904114
1710889136484465000,8.04246484375,-0.8185588121414185,-1.0201442241668701,-0.7736602425575256
1710889136503424000,8.061424072265625,-0.8060360550880432,-1.0131192207336426,-0.7046325206756592
1710889136522383000,8.080383056640626,-0.7522799968719482,-1.007315993309021,-0.5720748901367188
1710889136541342200,8.09934228515625,-0.6780598759651184,-0.9877683520317078,-0.43463030457496643
1710889136560301300,8.11830126953125,-0.6194168925285339,-0.962722897529602,-0.32100942730903625
1710889136579260400,8.137260498046874,-0.5342012643814087,-0.9560033679008484,-0.21197007596492767
1710889136598219500,8.156219482421875,-0.4001164436340332,-0.9825760126113892,-0.1178968995809555
1710889136617178600,8.1751787109375,-0.2415970265865326,-1.0384701490402222,-0.0461202897131443
1710889136636138000,8.194137939453125,-0.07360920310020447,-1.1160500049591064,0.017715077847242355
1710889136655096800,8.213096923828125,0.2009745091199875,-1.1239912509918213,0.1484401375055313
1710889136674056200,8.23205615234375,0.4572322964668274,-1.027169108390808,0.3228420317173004
1710889136693015300,8.251015380859375,0.15699224174022675,-1.0485494136810303,0.43493571877479553
1710889136711974400,8.269974365234376,-0.3704894781112671,-1.130405306816101,0.4566214084625244
1710889136730933500,8.28893359375,-0.6728675365447998,-0.9358448386192322,0.4468475878238678
1710889136749892600,8.307892578125,-0.5326740741729736,-0.45387253165245056,0.4780016839504242
1710889136768851700,8.326851806640626,-0.22754712402820587,0.09682206809520721,0.44379326701164246
1710889136787810800,8.345810791015625,0.13958260416984558,0.4673115611076355,0.3530798554420471
1710889136806770000,8.36477001953125,0.4776962697505951,0.6493492722511292,0.2156352698802948
1710889136825729000,8.38372900390625,0.5464185476303101,0.5748237371444702,0.09407317638397217
1710889136844688100,8.402688232421875,0.3597993552684784,0.32009315490722656,0.059864748269319534
1710889136863647200,8.421647216796876,0.20372340083122253,0.14538581669330597,0.0616973415017128
1710889136882606600,8.440606689453125,0.12034036219120026,-0.007941242307424545,0.016798781231045723
1710889136901565700,8.459565673828125,0.13622283935546875,-0.2205221801996231,-0.08124501258134842
1710889136920524800,8.47852490234375,0.231212317943573,-0.47525280714035034,-0.20127993822097778
1710889136939484000,8.49748388671875,0.33628106117248535,-0.6890554428100586,-0.3081812858581543
1710889136958443000,8.516443115234376,0.38850998878479004,-0.7999274134635925,-0.3585776388645172
1710889136977402000,8.535402099609374,0.33200499415397644,-0.8277217745780945,-0.3546070158481598
1710889136996361200,8.554361328125,0.18814635276794434,-0.8075632452964783,-0.32528549432754517
1710889137015320300,8.5733203125,0.0308486707508564,-0.6933315396308899,-0.281914085149765
1710889137034279400,8.592279541015625,-0.05558869615197182,-0.46944957971572876,-0.22357651591300964
1710889137053238500,8.611238525390625,-0.041844237595796585,-0.17318016290664673,-0.1539379209280014
1710889137072197600,8.63019775390625,0.0513126403093338,0.1484401375055313,-0.07757982611656189
1710889137091157000,8.649156982421875,0.20127993822097778,0.4511236250400543,-0.003970621153712273
1710889137110116000,8.6681162109375,0.36193737387657166,0.675616443157196,0.024434590712189674
1710889137129075200,8.6870751953125,0.46517354249954224,0.8185588121414185,-0.004581485874950886
1710889137148034300,8.706034423828125,0.47952884435653687,0.9172134399414062,-0.04520399495959282
1710889137166993400,8.724993408203124,0.44348782300949097,0.9468404054641724,-0.050090912729501724
1710889137185952500,8.743952392578125,0.3900371491909027,0.8924734592437744,-0.018325943499803543
1710889137204911600,8.76291162109375,0.34636032581329346,0.7874047160148621,0.025350889191031456
1710889137223871000,8.78187109375,0.32192572951316833,0.6707295179367065,0.07452550530433655
1710889137242829800,8.800829833984375,0.3020726442337036,0.5601630210876465,0.12186752259731293
1710889137261789200,8.8197890625,0.2809978127479553,0.4731147587299347,0.16554436087608337
1710889137280748300,8.838748291015625,0.24220788478851318,0.42088583111763,0.19669845700263977
1710889137299707400,8.857707275390625,0.18417572975158691,0.42271843552589417,0.22174391150474548
1710889137318666500,8.87666650390625,0.129197895526886,0.46425724029541016,0.24006985127925873
1710889137337625600,8.89562548828125,0.09865466505289078,0.5048797130584717,0.2467893660068512
1710889137356584700,8.914584716796876,0.09682206809520721,0.5375609993934631,0.23823726177215576
1710889137375543800,8.933543701171875,0.10965022444725037,0.5745183229446411,0.2419024556875229
1710889137394503200,8.952503173828125,0.09498947113752365,0.5745183229446411,0.27519458532333374
1710889137413462300,8.971462158203124,0.08613193035125732,0.49052441120147705,0.30085089802742004
1710889137432421400,8.99042138671875,0.35643959045410156,0.4734202027320862,0.3127627670764923
1710889137451380500,9.00938037109375,0.7082977294921875,0.6860011219978333,0.20677772164344788
1710889137470339600,9.028339599609374,0.4575377106666565,0.7776308655738831,0.0821613147854805
1710889137489298700,9.047298583984375,0.12370011955499649,0.7538071274757385,0.06963858753442764
1710889137508257800,9.0662578125,-0.033597562462091446,0.7522799968719482,0.049480047076940536
1710889137527217200,9.085217041015625,-0.025350889191031456,0.8524618148803711,0.0030543238390237093
1710889137546176000,9.104176025390625,0.022907428443431854,0.9749401807785034,-0.07941242307424545
1710889137565135400,9.12313525390625,0.02871064469218254,0.9312633275985718,-0.22510367631912231
1710889137584094500,9.142094482421875,-0.047036588191986084,0.6637045741081238,-0.37140578031539917
1710889137603053600,9.161053466796876,-0.20280711352825165,0.35766133666038513,-0.4529562294483185
1710889137622012700,9.1800126953125,-0.35796675086021423,0.1496618688106537,-0.5097666382789612
1710889137640971800,9.1989716796875,-0.4263836145401001,0.05558869615197182,-0.5836812853813171
1710889137659931000,9.217930908203124,-0.42974337935447693,-0.047952886670827866,-0.7165443897247314
1710889137678890000,9.236889892578125,-0.4211912751197815,-0.24556763470172882,-0.8848376274108887
1710889137697849300,9.255849365234376,-0.4248564541339874,-0.4608974754810333,-1.0228930711746216
1710889137716808400,9.274808349609375,-0.43829548358917236,-0.6041452884674072,-1.099556565284729
1710889137735767600,9.293767578125,-0.43860089778900146,-0.6050615906715393,-1.1044435501098633
1710889137754726700,9.3127265625,-0.3943132162094116,-0.45906487107276917,-1.0458004474639893
1710889137773685800,9.331685791015625,-0.2000582218170166,-0.1945604383945465,-0.9144645929336548
1710889137792644900,9.350644775390625,0.12705987691879272,0.1747073233127594,-0.7614429593086243
1710889137811604000,9.36960400390625,0.43493571877479553,0.5418370366096497,-0.6695078015327454
1710889137830563000,9.38856298828125,0.6169734001159668,0.8060360550880432,-0.6563742160797119
1710889137849522400,9.4075224609375,0.630107045173645,0.943786084651947,-0.7177661061286926
1710889137868481500,9.4264814453125,0.5213730931282043,0.9648609161376953,-0.7935133576393127
1710889137887440600,9.445440673828125,0.3741546869277954,0.8833104968070984,-0.7843503952026367
1710889137906399700,9.464399658203124,0.2834412455558777,0.7116574645042419,-0.6933315396308899
1710889137925358800,9.48335888671875,0.27366742491722107,0.4159989058971405,-0.5870410799980164
1710889137944318000,9.50231787109375,0.2672533392906189,0.0565049909055233,-0.5485565662384033
1710889137963277000,9.521277099609375,0.210442915558815,-0.2605338394641876,-0.5952877402305603
1710889137982236400,9.540236328125,0.11239911615848541,-0.4923570156097412,-0.6514872908592224
1710889138001195300,9.5591953125,0.0021380267571657896,-0.6166679859161377,-0.6698132157325745
1710889138020154600,9.578154541015625,-0.07116574794054031,-0.5836812853813171,-0.627968966960907
1710889138039113700,9.59711376953125,-0.061391908675432205,-0.3894262909889221,-0.5164861679077148
1710889138058072800,9.61607275390625,0.02779434807598591,-0.10506874322891235,-0.3686569035053253
1710889138077032000,9.635031982421875,0.15179990231990814,0.21166464686393738,-0.22815799713134766
1710889138095991000,9.653990966796876,0.2409861534833908,0.5134318470954895,-0.07757982611656189
1710889138114950100,9.6729501953125,0.26908594369888306,0.7648026943206787,0.06322450190782547
1710889138133909200,9.6919091796875,0.2629773020744324,0.9385937452316284,0.19761475920677185
1710889138152868600,9.71086865234375,0.25931209325790405,1.0241148471832275,0.323452889919281
1710889138171827500,9.729827392578125,0.27855435013771057,1.0045671463012695,0.40347617864608765
1710889138190786800,9.748786865234376,0.31459537148475647,0.8671225309371948,0.4355465769767761
1710889138209746000,9.767745849609375,0.34605491161346436,0.6071996092796326,0.42943793535232544
1710889138228705000,9.786705078125,0.3539961278438568,0.24862197041511536,0.39186975359916687
1710889138247664000,9.8056640625,0.3533852696418762,-0.14721840620040894,0.34086254239082336
1710889138266623200,9.824623291015625,0.3607156574726105,-0.526565432548523,0.2864955961704254
1710889138285582300,9.843582275390625,0.36651885509490967,-0.8610138893127441,0.23182319104671478
1710889138304541400,9.86254150390625,0.3393353819847107,-1.1414008140563965,0.17195843160152435
1710889138323500800,9.881500732421875,0.31001389026641846,-1.3576469421386719,0.14599667489528656
1710889138342459600,9.900459716796876,0.32620179653167725,-1.4755438566207886,0.14141519367694855
1710889138361419000,9.9194189453125,0.3582721948623657,-1.4865394830703735,0.12400554865598679
1710889138380377900,9.9383779296875,0.36254823207855225,-1.4309507608413696,0.11239911615848541
1710889138399337200,9.957337158203124,0.3484983444213867,-1.349400281906128,0.12278381735086441
1710889138418296300,9.97629638671875,0.33108872175216675,-1.239139199256897,0.1337793916463852
1710889138437255400,9.99525537109375,0.3133736252784729,-1.1081087589263916,0.1490510106086731
1710889138456214500,10.014214599609375,0.31520622968673706,-0.9688315391540527,0.17715078592300415
1710889138475173600,10.033173583984375,0.34208428859710693,-0.8747583627700806,0.2000582218170166
1710889138494132700,10.0521328125,0.40317076444625854,-0.8952223062515259,0.2159406989812851
1710889138513091800,10.071091796875,0.5433642268180847,-1.0879502296447754,0.2461785078048706
1710889138532051000,10.090051025390625,0.7461713552474976,-1.5225805044174194,0.2874118685722351
1710889138551010000,10.109010009765624,0.6875283122062683,-2.1114540100097656,0.164322629570961
1710889138569969400,10.127969482421875,-0.1078176349401474,-2.6777257919311523,-0.2211330533027649
1710889138588928300,10.14692822265625,-1.0317505598068237,-3.0723443031311035,-0.5668824911117554
1710889138607887600,10.1658876953125,-1.5051708221435547,-3.1120505332946777,-0.6313287615776062
1710889138626846700,10.1848466796875,-1.5137228965759277,-2.799593210220337,-0.42882707715034485
1710889138645805800,10.203805908203124,-1.306334376335144,-2.433074474334717,-0.250149130821228
1710889138664765000,10.222764892578125,-1.117577075958252,-2.3203699588775635,-0.28954991698265076
1710889138683724000,10.24172412109375,-0.9468404054641724,-2.405585527420044,-0.4269944727420807
1710889138702683100,10.26068310546875,-0.8579595685005188,-2.6535966396331787,-0.5662716627120972
1710889138721642200,10.279642333984375,-0.8277217745780945,-3.0353870391845703,-0.6829468011856079
1710889138740601300,10.298601318359376,-0.7672461867332458,-3.3961026668548584,-0.8179479241371155
1710889138759560400,10.317560546875,-0.6633991599082947,-3.548513412475586,-0.9450078010559082
1710889138778519600,10.33651953125,-0.5812378525733948,-3.606851100921631,-1.0244202613830566
1710889138797478700,10.355478759765624,-0.5506945848464966,-3.683209180831909,-1.0308343172073364
1710889138816437800,10.374437744140625,-0.5684096813201904,-3.7797257900238037,-0.9657772183418274
1710889138835396900,10.39339697265625,-0.5888736248016357,-3.849975347518921,-0.851545512676239
1710889138854356000,10.41235595703125,-0.6078104376792908,-3.8857109546661377,-0.7730493545532227
1710889138873315300,10.4313154296875,-0.602007269859314,-3.8597490787506104,-0.6860011219978333
1710889138892274400,10.4502744140625,-0.5519163012504578,-3.7507097721099854,-0.5674933791160583
1710889138911233500,10.469233642578125,-0.4783071279525757,-3.5527894496917725,-0.4043924808502197
1710889138930192600,10.488192626953126,-0.4046979248523712,-3.408931016921997,-0.24495677649974823
1710889138949151700,10.50715185546875,-0.36285367608070374,-3.1923792362213135,-0.16768237948417664
1710889138968110800,10.52611083984375,-0.32681265473365784,-3.0836453437805176,-0.14691297709941864
1710889138987070000,10.545070068359376,-0.2574795186519623,-2.8460190296173096,-0.12370011955499649
1710889139006029000,10.564029052734375,-0.11239911615848541,-2.5381431579589844,-0.12614357471466064
1710889139024988200,10.58298828125,0.05192350596189499,-2.2253804206848145,-0.10903936624526978
1710889139043947300,10.601947265625,0.250149130821228,-2.0018038749694824,-0.024740023538470268
1710889139062906400,10.62090625,0.48960810899734497,-1.907119870185852,0.1130099818110466
1710889139081865500,10.639865478515626,0.7538071274757385,-1.8747440576553345,0.24740023910999298
1710889139100824600,10.658824462890625,1.0314451456069946,-1.9758421182632446,0.2971857190132141
1710889139119783700,10.67778369140625,1.24769127368927,-2.2198827266693115,0.27550002932548523
1710889139138742800,10.69674267578125,1.3142756223678589,-2.500880479812622,0.24342961609363556
1710889139157702000,10.715701904296875,1.2968659400939941,-2.7229297161102295,0.1997527778148651
1710889139176661000,10.734660888671876,1.2666281461715698,-2.776991367340088,0.16126830875873566
1710889139195620000,10.7536201171875,1.2260055541992188,-2.674365997314453,0.2110537886619568
1710889139214579200,10.7725791015625,1.1850776672363281,-2.4260494709014893,0.34147340059280396
1710889139233538300,10.791538330078126,1.1438442468643188,-2.058919668197632,0.5204567909240723
1710889139252497400,10.810497314453125,1.0888664722442627,-1.700036644935608,0.6692023873329163
1710889139271456500,10.82945654296875,1.036942958831787,-1.3823870420455933,0.8060360550880432
1710889139290415600,10.84841552734375,0.9868520498275757,-1.074205756187439,0.998153030872345
1710889139309374700,10.867374755859375,0.9120211005210876,-0.9126319885253906,1.0806198120117188
1710889139328333800,10.886333740234376,0.8365793228149414,-0.7932079434394836,1.1056652069091797
1710889139347293200,10.905293212890625,0.7690787315368652,-0.7018836140632629,1.0650427341461182
1710889139366252000,10.924251953125,0.7137954831123352,-0.7229584455490112,0.9651663303375244
1710889139385211400,10.94321142578125,0.6603448390960693,-0.8625410795211792,0.9037744402885437
1710889139404170200,10.962170166015625,0.5885682106018066,-1.0219768285751343,0.9239329695701599
1710889139423129600,10.981129638671876,0.4819723069667816,-1.0424407720565796,1.0244202613830566
1710889139442088700,11.000088623046874,0.34147340059280396,-0.8579595685005188,1.1786636114120483
1710889139461047800,11.0190478515625,0.2156352698802948,-0.7736602425575256,1.283732295036316
1710889139480007000,11.0380068359375,0.23732095956802368,-1.0821470022201538,1.1643083095550537
1710889139498966000,11.056966064453125,0.41355544328689575,-1.5479313135147095,0.8374956250190735
1710889139517925000,11.075925048828125,0.6059778332710266,-1.8359540700912476,0.7235693335533142
1710889139536884200,11.09488427734375,0.8109229803085327,-1.8380920886993408,0.9193515181541443
1710889139555843300,11.11384326171875,0.9016364216804504,-1.2024873495101929,1.0296125411987305
1710889139574802400,11.132802490234376,0.8405499458312988,-0.3185659945011139,0.8414662480354309
1710889139593761500,11.151761474609375,0.7929024696350098,-0.12736530601978302,0.5244274139404297
1710889139612720600,11.170720703125,0.78648841381073,-0.02107483521103859,0.3222311735153198
1710889139631679700,11.1896796875,0.8426879644393921,0.23487751185894012,0.5131264328956604
1710889139650638800,11.208638916015625,0.9419534802436829,0.5888736248016357,0.7351757884025574
1710889139669598000,11.227597900390625,1.0876446962356567,1.117882490158081,0.6667588949203491
1710889139688557000,11.24655712890625,1.2147046327590942,1.6334524154663086,0.6230821013450623
1710889139707516200,11.26551611328125,1.1618647575378418,1.6789618730545044,0.9245438575744629
1710889139726475300,11.284475341796876,1.0852012634277344,1.3552035093307495,1.2021819353103638
1710889139745434400,11.303434326171875,0.952032744884491,0.638353705406189,1.3185516595840454
1710889139764393500,11.3223935546875,0.7907644510269165,-0.17165300250053406,1.4645483493804932
1710889139783352600,11.3413525390625,0.6707295179367065,-0.776103675365448,1.691789984703064
1710889139802312000,11.36031201171875,0.6646208763122559,-1.2287545204162598,1.932165265083313
1710889139821270800,11.379270751953126,0.6695078015327454,-1.4734058380126953,2.1169519424438477
1710889139840230100,11.398230224609375,0.536644697189331,-1.497840404510498,2.2024729251861572
1710889139859189000,11.41718896484375,0.32620179653167725,-1.5051708221435547,2.2986841201782227
1710889139878148400,11.4361484375,0.20708316564559937,-1.5964951515197754,2.3292274475097656
1710889139897107500,11.455107421875,0.12644900381565094,-1.6612467765808105,2.3295328617095947
1710889139916066600,11.474066650390625,0.0720820426940918,-1.7049236297607422,2.3066253662109375
1710889139935025700,11.493025634765624,0.07544180005788803,-1.7681480646133423,2.2760822772979736
1710889139953984800,11.51198486328125,0.04764745384454727,-1.7568471431732178,2.160017967224121
1710889139972944000,11.53094384765625,-0.04978547990322113,-1.7250821590423584,2.023184061050415
1710889139991903000,11.549903076171875,-0.15057817101478577,-1.7825034856796265,1.9523237943649292
1710889140010862000,11.568862060546875,-0.17134757339954376,-1.665522813796997,1.8353432416915894
1710889140029821200,11.5878212890625,-0.17623448371887207,-1.5109740495681763,1.6988149881362915
1710889140048780300,11.6067802734375,-0.185092031955719,-1.3781108856201172,1.6056580543518066
1710889140067739600,11.62573974609375,-0.23029601573944092,-1.2889246940612793,1.4110976457595825
1710889140086698500,11.644698486328124,-0.2718348205089569,-1.2156208753585815,1.1527018547058105
1710889140105657900,11.663657958984375,-0.29901832342147827,-1.1514800786972046,0.9129374027252197
1710889140124617000,11.682616943359376,-0.20708316564559937,-1.0134246349334717,0.7354812026023865
1710889140143576000,11.701576171875,-0.023823726922273636,-0.7800742983818054,0.5925388336181641
1710889140162535200,11.72053515625,0.0565049909055233,-0.5702422857284546,0.46608981490135193
1710889140181494300,11.739494384765624,-0.04825831577181816,-0.41294458508491516,0.2712239623069763
1710889140200453400,11.758453369140625,-0.18784092366695404,-0.09651663154363632,-0.09010255336761475
1710889140219412500,11.77741259765625,-0.1747073233127594,0.41783151030540466,-0.36835145950317383
1710889140238371800,11.796371826171875,0.006414080038666725,0.9196569323539734,-0.374765545129776
1710889140257330700,11.81533056640625,0.2660316228866577,1.2727367877960205,-0.20311254262924194
1710889140276290000,11.8342900390625,0.4257727563381195,1.1826342344284058,0.011911863461136818
1710889140295249200,11.853249267578125,0.4315759539604187,0.7412844300270081,0.1545487940311432
1710889140314208300,11.872208251953126,0.37751442193984985,0.19853104650974274,0.21868959069252014
1710889140333167400,11.89116748046875,0.2675587832927704,-0.12583814561367035,0.3344484567642212
1710889140352126500,11.91012646484375,0.14752385020256042,-0.3836230933666229,0.4734202027320862
1710889140371085600,11.92908544921875,-0.026878049597144127,-0.6878337264060974,0.5757400393486023
1710889140390044700,11.948044677734375,-0.2409861534833908,-0.9938769936561584,0.7171552777290344
1710889140409003800,11.967003662109375,-0.48105600476264954,-1.2495238780975342,0.8081740736961365
1710889140427963100,11.985963134765624,-0.7189878225326538,-1.4593559503555298,0.8772017955780029
1710889140446922200,12.004922119140625,-0.906828761100769,-1.4932589530944824,0.981354296207428
1710889140465881300,12.02388134765625,-1.1062761545181274,-1.2712095975875854,1.0784817934036255
1710889140484840400,12.04284033203125,-1.3179407119750977,-0.9947932958602905,1.1585050821304321
1710889140503799600,12.061799560546875,-1.4581341743469238,-0.9645555019378662,1.135597586631775
1710889140522759000,12.080759033203124,-1.462715744972229,-0.9761618971824646,0.9941824078559875
1710889140541718000,12.099718017578125,-1.3457350730895996,-0.9001092314720154,0.7351757884025574
1710889140560677000,12.118677001953126,-1.1548398733139038,-0.896138608455658,0.45051276683807373
1710889140579636200,12.13763623046875,-0.971580445766449,-0.9685261249542236,0.3035998046398163
1710889140598595300,12.15659521484375,-0.8429933786392212,-1.0225876569747925,0.30115634202957153
1710889140617554400,12.175554443359376,-0.7855721116065979,-0.9663881063461304,0.34055712819099426
1710889140636513800,12.194513671875,-0.7666352987289429,-0.7455604672431946,0.2965748608112335
1710889140655473000,12.213472900390625,-0.731510579586029,-0.41783151030540466,0.2000582218170166
1710889140674432000,12.232431884765624,-0.5748237371444702,-0.1185077652335167,0.03329212963581085
1710889140693391000,12.25139111328125,-0.3222311735153198,0.025045456364750862,-0.19761475920677185
1710889140712350200,12.27035009765625,-0.05283980444073677,0.11056652665138245,-0.4111120104789734
1710889140731309300,12.289309326171875,0.1026252806186676,0.18295399844646454,-0.4975493550300598
1710889140750268700,12.3082685546875,0.13652828335762024,0.20799945294857025,-0.45417797565460205
1710889140769227800,12.327227783203124,0.1233946830034256,0.16126830875873566,-0.36804601550102234
1710889140788187000,12.346186767578125,0.11728604137897491,0.09590577334165573,-0.2782489061355591
1710889140807146000,12.36514599609375,0.13988803327083588,0.06780599057674408,-0.20708316564559937
1710889140826105300,12.384105224609375,0.16035200655460358,0.1026252806186676,-0.16096286475658417
1710889140845064400,12.403064453125,0.15546508133411407,0.15760311484336853,-0.13561198115348816
1710889140864023600,12.4220234375,0.13988803327083588,0.17134757339954376,-0.10323614627122879
1710889140882982700,12.440982666015625,0.12736530601978302,0.16676609218120575,-0.047952886670827866
1710889140901941800,12.459941650390626,0.12492185086011887,0.14080433547496796,0.007941242307424545
1710889140920900900,12.47890087890625,0.13041962683200836,0.10109812021255493,0.034208428114652634
1710889140939860200,12.497860107421875,0.143553227186203,0.09376774728298187,0.036651886999607086
1710889140958819300,12.5168193359375,0.1542433500289917,0.1185077652335167,0.038789913058280945
1710889140977778400,12.5357783203125,0.15210533142089844,0.1701258420944214,0.037262752652168274
1710889140996737500,12.554737548828125,0.12950333952903748,0.22663083672523499,0.024434590712189674
1710889141015697000,12.57369677734375,0.08918625861406326,0.2632827162742615,0.001221729558892548
1710889141034656000,12.592656005859375,0.044898562133312225,0.28466299176216125,-0.03237583488225937
1710889141053615000,12.611614990234376,0.00946840364485979,0.281914085149765,-0.07299833744764328
1710889141072574200,12.63057421875,-0.022907428443431854,0.25320345163345337,-0.12400554865598679
1710889141091533600,12.649533447265625,-0.08674279600381851,0.19914191961288452,-0.1438586562871933
1710889141110492700,12.66849267578125,-0.16340632736682892,0.08796452730894089,-0.13255766034126282
1710889141129451800,12.68745166015625,-0.2733619809150696,-0.016798781231045723,-0.12492185086011887
1710889141148411000,12.706410888671876,-0.37201663851737976,-0.07819069176912308,-0.12156209349632263
1710889141167370200,12.725370361328125,-0.41783151030540466,-0.0412333719432354,-0.1182023361325264
1710889141186329300,12.744329345703125,-0.43310311436653137,0.10629047453403473,-0.11942406743764877
1710889141205288700,12.763288818359374,-0.42852163314819336,0.2730565667152405,-0.16004657745361328
1710889141224247800,12.782247802734375,-0.42821621894836426,0.41263917088508606,-0.2214384824037552
1710889141243207000,12.80120703125,-0.4056142270565033,0.5213730931282043,-0.30146175622940063
1710889141262166000,12.820166015625,-0.401949018239975,0.6276635527610779,-0.3906480371952057
1710889141281125400,12.83912548828125,-0.43829548358917236,0.6466003656387329,-0.4783071279525757
1710889141300084500,12.85808447265625,-0.47952884435653687,0.5067123174667358,-0.56382817029953
1710889141319043600,12.877043701171875,-0.526870846748352,0.2669478952884674,-0.619722306728363
1710889141338002700,12.896002685546875,-0.5907062292098999,0.005192350596189499,-0.6502655744552612
1710889141356962000,12.914962158203124,-0.6423243284225464,-0.2910770773887634,-0.6633991599082947
1710889141375921200,12.933921142578125,-0.6453786492347717,-0.6447677612304688,-0.6527090072631836
1710889141394880300,12.95288037109375,-0.5888736248016357,-1.028085470199585,-0.6267472505569458
1710889141413839600,12.971839599609375,-0.5158752799034119,-1.3277145624160767,-0.6004800796508789
1710889141432798700,12.990798828125,-0.4376846253871918,-1.5036436319351196,-0.6044507026672363
1710889141451757800,13.0097578125,-0.3594939112663269,-1.5598431825637817,-0.6160571575164795
1710889141470717000,13.028717041015625,-0.3081812858581543,-1.489593744277954,-0.5955931544303894
1710889141489676300,13.04767626953125,-0.27397283911705017,-1.3335177898406982,-0.5314523577690125
1710889141508635400,13.066635498046875,-0.2263254076242447,-1.1291835308074951,-0.46425724029541016
1710889141527594800,13.0855947265625,-0.17165300250053406,-0.8790343999862671,-0.40805765986442566
1710889141546553900,13.104553955078124,-0.12583814561367035,-0.6359102129936218,-0.34147340059280396
1710889141565513000,13.123512939453125,-0.09651663154363632,-0.4358520209789276,-0.25473061203956604
1710889141584472000,13.14247216796875,-0.0873536616563797,-0.29443681240081787,-0.13927717506885529
1710889141603431400,13.161431396484375,-0.09162971377372742,-0.19150610268115997,-0.024740023538470268
1710889141622390500,13.180390625,-0.09162971377372742,-0.11606431007385254,0.06017018109560013
1710889141641349600,13.199349609375,-0.0922405794262886,-0.046425722539424896,0.11728604137897491
1710889141660309000,13.21830908203125,-0.0922405794262886,0.029932374134659767,0.15729768574237823
1710889141679268000,13.23726806640625,-0.08857539296150208,0.08979712426662445,0.17134757339954376
1710889141698227500,13.2562275390625,-0.0873536616563797,0.14080433547496796,0.1957821547985077
1710889141717186600,13.2751865234375,-0.0925460159778595,0.17226386070251465,0.21807873249053955
1710889141736145700,13.294145751953126,-0.09468404203653336,0.18387030065059662,0.2162461280822754
1710889141755105000,13.31310498046875,-0.09560033679008484,0.18753549456596375,0.20189081132411957
1710889141774064000,13.332064208984375,-0.07544180005788803,0.17623448371887207,0.18325942754745483
1710889141793023200,13.351023193359374,-0.03940077871084213,0.17592905461788177,0.1853974610567093
1710889141811982300,13.369982421875,-0.001221729558892548,0.17592905461788177,0.22754712402820587
1710889141830941700,13.388941650390626,0.03695731982588768,0.17531819641590118,0.2864955961704254
1710889141849900800,13.40790087890625,0.07788526266813278,0.1893680840730667,0.38270679116249084
1710889141868860200,13.426860107421875,0.14172062277793884,0.1640172004699707,0.5061014890670776
1710889141887819300,13.4458193359375,0.23304490745067596,0.129197895526886,0.5690205693244934
1710889141906778400,13.4647783203125,0.3289506733417511,0.09957095980644226,0.6047561168670654
1710889141925737700,13.48373779296875,0.3805687427520752,0.12644900381565094,0.6270527243614197
1710889141944696800,13.50269677734375,0.3631591200828552,0.24006985127925873,0.6820304989814758
1710889141963656200,13.52165625,0.3387245237827301,0.33017241954803467,0.7458658814430237
1710889141982615300,13.540615234375,0.35094180703163147,0.3851502537727356,0.7452550530433655
1710889142001574400,13.559574462890625,0.38698282837867737,0.4315759539604187,0.7055488228797913
1710889142020533800,13.57853369140625,0.41355544328689575,0.46059203147888184,0.6627882719039917
1710889142039492900,13.597492919921875,0.41233372688293457,0.4407389461994171,0.6050615906715393
1710889142058452000,13.616451904296875,0.3790415823459625,0.37720900774002075,0.5021308660507202
1710889142077411300,13.635411376953124,0.3026835024356842,0.31673339009284973,0.3756818473339081
1710889142096370400,13.654370361328125,0.17684535682201385,0.29443681240081787,0.2360992431640625
1710889142115329500,13.67332958984375,0.04306596517562866,0.282524973154068,0.06719512492418289
1710889142134289000,13.692288818359375,-0.04306596517562866,0.26908594369888306,-0.1389717310667038
1710889142153248000,13.711248046875,-0.061391908675432205,0.2623664140701294,-0.3442223072052002
1710889142172207400,13.730207275390624,-0.023823726922273636,0.27366742491722107,-0.5036579966545105
1710889142191166500,13.74916650390625,0.014966187067329884,0.26450446248054504,-0.6078104376792908
1710889142210125600,13.76812548828125,0.000305432389723137,0.1750127524137497,-0.6969966888427734
1710889142229085000,13.7870849609375,-0.05894844979047775,0.03909534588456154,-0.7816014885902405
1710889142248044000,13.8060439453125,-0.13530655205249786,-0.0824667438864708,-0.8442151546478271
1710889142267003400,13.82500341796875,-0.21349723637104034,-0.16768237948417664,-0.8701768517494202
1710889142285962500,13.84396240234375,-0.30024003982543945,-0.1893680840730667,-0.841160774230957
1710889142304921600,13.862921630859375,-0.3484983444213867,-0.19089524447917938,-0.7538071274757385
1710889142323881000,13.881880859375,-0.30451610684394836,-0.235793799161911,-0.6517927050590515
1710889142342840000,13.900840087890625,-0.2049451321363449,-0.26969680190086365,-0.5687150955200195
1710889142361799200,13.919799072265626,-0.11606431007385254,-0.26511532068252563,-0.49968740344047546
1710889142380758500,13.938758544921875,-0.06597339361906052,-0.23365578055381775,-0.4373791813850403
1710889142399717600,13.957717529296875,-0.04978547990322113,-0.1637117564678192,-0.3597993552684784
1710889142418676700,13.9766767578125,-0.04550942778587341,-0.03634645417332649,-0.2834412455558777
1710889142437636000,13.995635986328125,-0.04428769648075104,0.14508038759231567,-0.22479823231697083
1710889142456595200,14.01459521484375,-0.04001164436340332,0.33750277757644653,-0.168904110789299
1710889142475554300,14.03355419921875,-0.03023780696094036,0.4825831651687622,-0.10842850059270859
1710889142494513700,14.052513671875,-0.016798781231045723,0.5393936038017273,-0.06475166976451874
1710889142513472800,14.07147265625,-0.012522728182375431,0.5235111117362976,-0.05558869615197182
1710889142532432100,14.09043212890625,-0.008857538923621178,0.45875945687294006,-0.08460476994514465
1710889142551391200,14.10939111328125,0.0021380267571657896,0.3698786199092865,-0.13469567894935608
1710889142570350600,14.1283505859375,0.01649334840476513,0.2370155304670334,-0.16554436087608337
1710889142589309700,14.147309814453125,0.02412915788590908,0.054672397673130035,-0.18753549456596375
1710889142608268800,14.166268798828124,0.02107483521103859,-0.13072505593299866,-0.2162461280822754
1710889142627228000,14.185227783203125,0.0204639695584774,-0.2657261788845062,-0.24801109731197357
1710889142646187300,14.204187255859376,0.02412915788590908,-0.323452889919281,-0.2663370370864868
1710889142665146400,14.223146484375,0.022907428443431854,-0.3130682110786438,-0.2571740746498108
1710889142684105500,14.24210546875,0.014049889519810677,-0.2559523284435272,-0.2309068888425827
1710889142703064800,14.26106494140625,0.001832594396546483,-0.17348559200763702,-0.20158538222312927
1710889142722024000,14.28002392578125,-0.008246674202382565,-0.09437860548496246,-0.18203771114349365
1710889142740983300,14.2989833984375,-0.023212861269712448,-0.022907428443431854,-0.17592905461788177
1710889142759942400,14.3179423828125,-0.041844237595796585,0.020769402384757996,-0.16249002516269684
1710889142778901500,14.336901611328125,-0.050090912729501724,0.021380268037319183,-0.1441640853881836
1710889142797860900,14.35586083984375,-0.04306596517562866,-0.00946840364485979,-0.11453714966773987
1710889142816820000,14.374820068359375,-0.03390299528837204,-0.04153880476951599,-0.0668896958231926
1710889142835779000,14.393779052734375,-0.009162971749901772,-0.07788526266813278,-0.007635809946805239
1710889142854738400,14.412738525390624,0.03298669680953026,-0.09560033679008484,0.04001164436340332
1710889142873697500,14.431697509765625,0.0720820426940918,-0.05742128938436508,0.07055488228797913
1710889142892656600,14.45065673828125,0.0818558782339096,0.02107483521103859,0.09682206809520721
1710889142911616000,14.469615966796875,0.054672397673130035,0.07544180005788803,0.1279761642217636
1710889142930575000,14.4885751953125,-0.02260199747979641,0.10018182545900345,0.15485422313213348
1710889142949534200,14.5075341796875,-0.15638138353824615,0.07574722915887833,0.1792888194322586
1710889142968493600,14.52649365234375,-0.2932150959968567,-0.08491020649671555,0.18112140893936157
1710889142987452700,14.54545263671875,-0.34788748621940613,-0.36804601550102234,0.1383608728647232
1710889143006411800,14.564411865234375,-0.2718348205089569,-0.6914989352226257,0.07910698652267456
1710889143025371100,14.58337109375,-0.10842850059270859,-0.9728021621704102,0.036651886999607086
1710889143044330200,14.602330322265624,0.04550942778587341,-1.1991275548934937,-0.006414080038666725
1710889143063289300,14.621289306640625,0.15149445831775665,-1.390328288078308,-0.09834922850131989
1710889143082248700,14.640248779296876,0.22968515753746033,-1.497840404510498,-0.24281874299049377
1710889143101207800,14.659207763671875,0.2932150959968567,-1.4303399324417114,-0.37262752652168274
1710889143120167000,14.6781669921875,0.3289506733417511,-1.1875211000442505,-0.4120282828807831
1710889143139126300,14.697126220703124,0.32009315490722656,-0.8307760953903198,-0.3381136655807495
1710889143158085400,14.71608544921875,0.25381430983543396,-0.3845393657684326,-0.18325942754745483
1710889143177044500,14.73504443359375,0.14599667489528656,0.1288924664258957,-0.0054977829568088055
1710889143196003600,14.754003662109374,0.02626718580722809,0.6398808360099792,0.14294235408306122
1710889143214963000,14.772962890625,-0.0720820426940918,1.0845904350280762,0.2556469142436981
1710889143233922000,14.791922119140626,-0.12736530601978302,1.3933825492858887,0.34147340059280396
1710889143252881400,14.81088134765625,-0.14049890637397766,1.5189152956008911,0.41844236850738525
1710889143271840500,14.829840576171875,-0.10690133273601532,1.4324779510498047,0.4825831651687622
1710889143290799600,14.848799560546874,-0.006719512399286032,1.156977891921997,0.5345066785812378
1710889143309758700,14.8677587890625,0.1233946830034256,0.7690787315368652,0.5711585879325867
1710889143328718000,14.886718017578126,0.2360992431640625,0.347582072019577,0.5858193039894104
1710889143347677200,14.90567724609375,0.29474225640296936,-0.06444623321294785,0.5787943601608276
1710889143366636300,14.92463623046875,0.29046618938446045,-0.39675667881965637,0.5262600183486938
1710889143385595600,14.943595703125,0.24373504519462585,-0.5986474752426147,0.4816668927669525
1710889143404554800,14.9625546875,0.185092031955719,-0.6603448390960693,0.44898560643196106
1710889143423513900,14.981513916015626,0.14141519367694855,-0.5852084755897522,0.42943793535232544
1710889143442473000,15.000472900390625,0.1182023361325264,-0.4105011224746704,0.430659681558609
1710889143461432300,15.019432373046875,0.10873392969369888,-0.19822561740875244,0.41783151030540466
1710889143480391400,15.038391357421874,0.10201441496610641,0.02718348242342472,0.37201663851737976
1710889143499350500,15.0573505859375,0.10201441496610641,0.26969680190086365,0.3436114490032196
1710889143518310000,15.076309814453126,0.11667517572641373,0.48930269479751587,0.3436114490032196
1710889143537269000,15.09526904296875,0.1279761642217636,0.6423243284225464,0.37354379892349243
1710889143556228000,15.11422802734375,0.1383608728647232,0.7278453707695007,0.425467312335968
1710889143575187500,15.1331875,0.164322629570961,0.732121467590332,0.4944950342178345
1710889143594146600,15.152146484375,0.20922118425369263,0.647516667842865,0.5537489056587219
1710889143613105700,15.171105712890625,0.22296564280986786,0.5711585879325867,0.5842921733856201
1710889143632064800,15.190064697265624,0.20616686344146729,0.4932733178138733,0.6252201199531555
1710889143651024100,15.209024169921875,0.20280711352825165,0.37629270553588867,0.6508764028549194
1710889143669983200,15.227983154296876,0.1588248461484909,0.3533852696418762,0.6343830823898315
1710889143688942300,15.2469423828125,0.06322450190782547,0.37720900774002075,0.6808087825775146
1710889143707901400,15.2659013671875,0.02626718580722809,0.28008151054382324,0.7064651250839233
1710889143726860800,15.28486083984375,0.017715077847242355,0.14782927930355072,0.6692023873329163
1710889143745820000,15.30381982421875,-0.02779434807598591,0.037262752652168274,0.5919279456138611
1710889143764779000,15.322779052734376,-0.11362084746360779,-0.07757982611656189,0.4474584460258484
1710889143783738000,15.341738037109375,-0.21135921776294708,-0.2260199636220932,0.24892739951610565
1710889143802697200,15.360697265625,-0.27427828311920166,-0.37140578031539917,0.0925460159778595
1710889143821656600,15.379656494140624,-0.2984074354171753,-0.47922343015670776,0.022296564653515816
1710889143840615700,15.39861572265625,-0.29962918162345886,-0.5571087002754211,0.012217295356094837
1710889143859574800,15.41757470703125,-0.2614501118659973,-0.6093376278877258,-0.0027488914784044027
1710889143878534000,15.436533935546874,-0.205861434340477,-0.5904008150100708,-0.03451386094093323
1710889143897493200,15.4554931640625,-0.1905898153781891,-0.4584540128707886,-0.0256563201546669
1710889143916452400,15.474452392578126,-0.21502439677715302,-0.2666424810886383,0.01588248461484909
1710889143935411500,15.493411376953125,-0.22449280321598053,-0.10048725455999374,0.0565049909055233
1710889143954370600,15.51237060546875,-0.1695149689912796,-0.000610864779446274,0.07391463965177536
1710889143973330000,15.531329833984374,-0.0769689604640007,0.10720676928758621,0.0821613147854805
1710889143992289000,15.5502890625,-0.005803215317428112,0.19608759880065918,0.059864748269319534
1710889144011248000,15.569248046875,0.004581485874950886,0.25503605604171753,-0.008552107028663158
1710889144030207200,15.588207275390625,-0.035735588520765305,0.2932150959968567,-0.09407317638397217
1710889144049166600,15.60716650390625,-0.07605266571044922,0.2874118685722351,-0.15027274191379547
1710889144068125700,15.626125732421874,-0.07574722915887833,0.2110537886619568,-0.16096286475658417
1710889144087084800,15.645084716796875,-0.020158538594841957,0.07605266571044922,-0.13591741025447845
1710889144106044000,15.6640439453125,0.035735588520765305,-0.06475166976451874,-0.08949168771505356
1710889144125003300,15.683003173828125,0.05528326332569122,-0.18295399844646454,-0.06230820715427399
1710889144143962400,15.70196240234375,0.021380268037319183,-0.23945899307727814,-0.08521563559770584
1710889144162921500,15.72092138671875,-0.04276053607463837,-0.21960589289665222,-0.12278381735086441
1710889144181880600,15.739880615234375,-0.08124501258134842,-0.1285870373249054,-0.14294235408306122
1710889144200840000,15.75883984375,-0.07635809481143951,0.029016077518463135,-0.14172062277793884
1710889144219799000,15.777799072265625,-0.041844237595796585,0.22479823231697083,-0.1230892539024353
1710889144238758100,15.796758056640625,0.012217295356094837,0.39797839522361755,-0.09376774728298187
1710889144257717200,15.81571728515625,0.08491020649671555,0.5134318470954895,-0.08032871782779694
1710889144276676400,15.83467626953125,0.15760311484336853,0.5564978122711182,-0.0616973415017128
1710889144295635500,15.853635498046875,0.21441353857517242,0.5250383019447327,-0.06780599057674408
1710889144314594800,15.8725947265625,0.2565632164478302,0.4456258714199066,-0.09285144507884979
1710889144333554000,15.891553955078125,0.28924447298049927,0.31093016266822815,-0.15607595443725586
1710889144352513000,15.910512939453126,0.3023780584335327,0.15729768574237823,-0.21380266547203064
1710889144371472100,15.92947216796875,0.3094030022621155,0.029626941308379173,-0.21777328848838806
1710889144390431500,15.948431396484375,0.32070401310920715,-0.04459312930703163,-0.18325942754745483
1710889144409390600,15.967390625,0.34238970279693604,-0.09132428467273712,-0.09071341902017593
1710889144428349700,15.986349609375,0.3863719701766968,-0.12186752259731293,-0.00946840364485979
1710889144447308800,16.005308837890624,0.3995055556297302,-0.1178968995809555,0.019242240116000175
1710889144466268000,16.024267822265625,0.3787361681461334,-0.13988803327083588,0.06536252796649933
1710889144485227000,16.04322705078125,0.3607156574726105,-0.19364413619041443,0.08338304609060287
1710889144504186400,16.062186279296874,0.31581708788871765,-0.11881320178508759,0.04520399495959282
1710889144523145500,16.0811455078125,0.22815799713134766,-0.01802051067352295,0.016187917441129684
1710889144542104600,16.1001044921875,0.15515965223312378,0.02626718580722809,-0.01802051067352295
1710889144561063700,16.119063720703124,0.1340848207473755,0.05345066636800766,-0.04062250629067421
1710889144580023000,16.13802294921875,0.1737910360097885,0.03756818547844887,-0.020158538594841957
1710889144598982100,16.156982177734374,0.23029601573944092,0.000610864779446274,0.006108647678047419
1710889144617941200,16.175941162109375,0.26450446248054504,-0.020769402384757996,-0.004276053514331579
1710889144636900400,16.194900390625,0.2770271897315979,-0.07238747924566269,-0.008857538923621178
1710889144655859500,16.213859375,0.2568686306476593,-0.1029307171702385,-0.007941242307424545
1710889144674818800,16.23281884765625,0.20280711352825165,0.031154103577136993,0.0009162971982732415
1710889144693778000,16.25177783203125,0.14691297709941864,0.22846342623233795,0.0409279391169548
1710889144712737000,16.270737060546875,0.09621120244264603,0.43004879355430603,0.059864748269319534
1710889144731696000,16.289696044921875,0.056810423731803894,0.5934551358222961,0.06291907280683517
1710889144750655500,16.308655517578124,0.03909534588456154,0.6716458201408386,0.07483093440532684
1710889144769614600,16.327614501953125,0.03817904740571976,0.5937605500221252,0.08368847519159317
1710889144788573700,16.34657373046875,0.044898562133312225,0.3549124300479889,0.04917461425065994
1710889144807532800,16.36553271484375,0.033597562462091446,-0.06291907280683517,-0.005803215317428112
1710889144826492000,16.384491943359375,-0.0054977829568088055,-0.4416552484035492,-0.040317077189683914
1710889144845451000,16.403450927734376,-0.008552107028663158,-0.7003564834594727,-0.002443459117785096
1710889144864410400,16.422410400390625,0.07360920310020447,-0.9728021621704102,0.05100720748305321
1710889144883369500,16.441369384765625,0.1496618688106537,-1.0516036748886108,0.12431098520755768
1710889144902328600,16.46032861328125,0.19883649051189423,-0.8414662480354309,0.21380266547203064
1710889144921287700,16.47928759765625,0.2608392536640167,-0.5360338687896729,0.27977606654167175
1710889144940247000,16.4982470703125,0.3017672002315521,-0.25870123505592346,0.37110036611557007
1710889144959206100,16.5172060546875,0.27458372712135315,0.025045456364750862,0.46059203147888184
1710889144978165200,16.536165283203125,0.24220788478851318,0.2464839369058609,0.5027416944503784
1710889144997124400,16.555124267578126,0.23457208275794983,0.3750709891319275,0.5549706816673279
1710889145016083700,16.574083740234375,0.21807873249053955,0.47036588191986084,0.6426297426223755
1710889145035042800,16.593042724609376,0.20158538222312927,0.4657844007015228,0.7327322959899902
1710889145054002000,16.612001953125,0.17256930470466614,0.4046979248523712,0.8011491298675537
1710889145072961000,16.6309609375,0.14630211889743805,0.3066541254520416,0.833219587802887
1710889145091920400,16.64992041015625,0.13194678723812103,0.1646280586719513,0.9199623465538025
1710889145110879500,16.66887939453125,0.1432477980852127,-0.04306596517562866,0.9737184643745422
1710889145129838600,16.687838623046876,0.11972949653863907,-0.21838416159152985,1.045189619064331
1710889145148797700,16.706797607421876,0.06017018109560013,-0.32192572951316833,1.1142174005508423
1710889145167756800,16.7257568359375,0.016187917441129684,-0.4370737373828888,1.1514800786972046
1710889145186716200,16.744716064453126,-0.032070402055978775,-0.37110036611557007,1.1899645328521729
1710889145205675300,16.76367529296875,-0.07116574794054031,-0.29504770040512085,1.2647955417633057
1710889145224634400,16.78263427734375,-0.06780599057674408,-0.3035998046398163,1.3075560331344604
1710889145243593500,16.801593505859376,-0.01740964688360691,-0.2935205399990082,1.305112600326538
1710889145262552800,16.820552734375,0.05100720748305321,-0.20189081132411957,1.303585410118103
1710889145281512000,16.839511962890626,0.17073670029640198,-0.22724169492721558,1.2675443887710571
1710889145300471000,16.858470947265626,0.28557929396629333,-0.28588470816612244,1.227838158607483
1710889145319430100,16.87743017578125,0.3197877109050751,-0.23396120965480804,1.1954623460769653
1710889145338389500,16.896389404296876,0.3084867000579834,-0.16554436087608337,1.1661409139633179
1710889145357348600,16.9153486328125,0.26878049969673157,-0.011300998739898205,1.138346552848816
1710889145376307700,16.9343076171875,0.21319180727005005,0.1340848207473755,1.109635829925537
1710889145395267000,16.95326708984375,0.1737910360097885,0.3081812858581543,1.0793980360031128
1710889145414226200,16.97222607421875,0.164322629570961,0.4196641147136688,1.0754274129867554
1710889145433185300,16.991185302734376,0.2162461280822754,0.39889469742774963,1.046105980873108
1710889145452144600,17.01014453125,0.22754712402820587,0.3335321843624115,1.0238093137741089
1710889145471103700,17.029103759765626,0.18325942754745483,0.19669845700263977,0.9749401807785034
1710889145490062800,17.048062744140626,0.14630211889743805,0.013133592903614044,0.9337068200111389
1710889145509022000,17.06702197265625,0.13988803327083588,-0.18264856934547424,0.8622356653213501
1710889145527981300,17.085981201171876,0.05711585655808449,-0.3640754222869873,0.7870992422103882
1710889145546940400,17.1049404296875,-0.05864302068948746,-0.5207622051239014,0.6890554428100586
1710889145565899500,17.1238994140625,-0.11148282140493393,-0.7006618976593018,0.5681042671203613
1710889145584859000,17.14285888671875,-0.14049890637397766,-0.7974839806556702,0.46914416551589966
1710889145603818000,17.16181787109375,-0.16004657745361328,-0.8527672290802002,0.406530499458313
1710889145622777000,17.180777099609376,-0.12400554865598679,-0.8393282294273376,0.3442223072052002
1710889145641736200,17.199736083984376,-0.10995566099882126,-0.7544180154800415,0.25381430983543396
1710889145660695600,17.218695556640625,-0.1646280586719513,-0.6133082509040833,0.1490510106086731
1710889145679654700,17.237654541015626,-0.22876885533332825,-0.41263917088508606,0.0720820426940918
1710889145698614000,17.256614013671875,-0.2306014597415924,-0.30054548382759094,0.04917461425065994
1710889145717573000,17.275572998046876,-0.23487751185894012,-0.30146175622940063,0.022907428443431854
1710889145736532200,17.2945322265625,-0.2260199636220932,-0.33169957995414734,-0.01282816007733345
1710889145755491300,17.3134912109375,-0.23335035145282745,-0.3295615613460541,-0.05253437161445618
1710889145774450700,17.33245068359375,-0.27458372712135315,-0.2364046722650528,-0.059864748269319534
1710889145793409800,17.351409912109375,-0.23732095956802368,-0.16004657745361328,-0.01802051067352295
1710889145812369000,17.370368896484376,-0.18203771114349365,-0.19303326308727264,0.019853105768561363
1710889145831328300,17.389328369140625,-0.17134757339954376,-0.3347539007663727,0.0308486707508564
1710889145850287400,17.408287353515625,-0.164322629570961,-0.5198459029197693,0.005192350596189499
1710889145869246700,17.427246826171874,-0.1853974610567093,-0.6890554428100586,-0.056810423731803894
1710889145888205800,17.446205810546875,-0.1951712965965271,-0.7241802215576172,-0.06719512492418289
1710889145907165000,17.4651650390625,-0.1844811588525772,-0.6404917240142822,-0.040317077189683914
1710889145926124000,17.4841240234375,-0.16523891687393188,-0.4557051360607147,-0.05222893878817558
1710889145945083400,17.50308349609375,-0.0974329337477684,-0.2626718580722809,-0.0616973415017128
1710889145964042500,17.52204248046875,-0.03940077871084213,-0.10842850059270859,-0.05589412897825241
1710889145983001600,17.541001708984375,-0.04245510324835777,0.008857538923621178,-0.06719512492418289
1710889146001961000,17.5599609375,-0.06383536756038666,0.07880155742168427,-0.09132428467273712
1710889146020920000,17.578920166015624,-0.06597339361906052,0.12614357471466064,-0.10934479534626007
1710889146039879400,17.59787939453125,-0.08002328872680664,0.18325942754745483,-0.12553271651268005
1710889146058838500,17.616838623046874,-0.09498947113752365,0.2009745091199875,-0.13133592903614044
1710889146077797600,17.635797607421875,-0.07788526266813278,0.16157373785972595,-0.1533270627260208
1710889146096757000,17.654757080078124,-0.06047561392188072,0.11972949653863907,-0.18173226714134216
1710889146115716000,17.673716064453124,-0.06108647957444191,0.11423171311616898,-0.1701258420944214
1710889146134675500,17.692675537109373,-0.0616973415017128,0.1444695144891739,-0.12705987691879272
1710889146153634600,17.711634521484374,-0.060781046748161316,0.13988803327083588,-0.1081230640411377
1710889146172593700,17.73059375,-0.06383536756038666,0.08979712426662445,-0.07910698652267456
1710889146191553000,17.749552978515624,-0.0873536616563797,0.02412915788590908,-0.05406153202056885
1710889146210512100,17.76851220703125,-0.10934479534626007,-0.05589412897825241,-0.04520399495959282
1710889146229471500,17.787471435546873,-0.09865466505289078,-0.1026252806186676,-0.019853105768561363
1710889146248430600,17.8064306640625,-0.05039634555578232,-0.04917461425065994,0.0204639695584774
1710889146267389700,17.8253896484375,0.01282816007733345,0.021991131827235222,0.029016077518463135
1710889146286349000,17.84434912109375,0.07422006875276566,0.029626941308379173,0.01282816007733345
1710889146305308200,17.86330810546875,0.0769689604640007,-0.043371398001909256,-0.019242240116000175
1710889146324267500,17.882267578125,0.05436696484684944,-0.1230892539024353,-0.029932374134659767
1710889146343226600,17.9012265625,0.05955931544303894,-0.12675444781780243,-0.02932151034474373
1710889146362185700,17.920185791015626,0.06291907280683517,-0.0922405794262886,-0.04214967042207718
1710889146381145000,17.93914501953125,0.03756818547844887,-0.028405211865901947,-0.0668896958231926
1710889146400104200,17.958104248046876,0.003359756199643016,0.04214967042207718,-0.07819069176912308
1710889146419063600,17.9770634765625,-0.02412915788590908,0.1127045527100563,-0.04428769648075104
1710889146438022700,17.996022705078126,-0.04581485688686371,0.1701258420944214,-0.0054977829568088055
1710889146456982000,18.01498193359375,-0.051618073135614395,0.19181154668331146,-0.005192350596189499
1710889146475941000,18.033941162109375,-0.05253437161445618,0.22510367631912231,-0.007635809946805239
1710889146494900200,18.052900146484376,-0.05222893878817558,0.2406807243824005,0.01435532234609127
1710889146513859600,18.071859619140625,-0.06291907280683517,0.21288637816905975,0.029932374134659767
1710889146532818700,18.090818603515626,-0.07483093440532684,0.12003492563962936,0.024434590712189674
1710889146551778000,18.109778076171875,-0.07299833744764328,0.010995565913617611,0.013133592903614044
1710889146570737200,18.128737060546875,-0.07452550530433655,-0.03451386094093323,0.008552107028663158
1710889146589696500,18.147696533203124,-0.08674279600381851,-0.02626718580722809,-0.0054977829568088055
1710889146608655600,18.166655517578125,-0.09498947113752365,0.05100720748305321,-0.02260199747979641
1710889146627614700,18.18561474609375,-0.08918625861406326,0.18234314024448395,-0.01954767294228077
1710889146646574000,18.204573974609374,-0.05558869615197182,0.3124573230743408,0.010384701192378998
1710889146665533200,18.223533203125,-0.023518294095993042,0.3494146466255188,0.008857538923621178
1710889146684492500,18.242492431640624,-0.02107483521103859,0.2733619809150696,-0.0308486707508564
1710889146703451600,18.26145166015625,-0.04214967042207718,0.16829325258731842,-0.04673115536570549
1710889146722411000,18.280410888671874,-0.04062250629067421,0.08002328872680664,-0.04520399495959282
1710889146741370000,18.2993701171875,-0.011911863461136818,-0.01588248461484909,-0.06872228533029556
1710889146760329500,18.31832958984375,0.016798781231045723,-0.09040798991918564,-0.08857539296150208
1710889146779288600,18.33728857421875,0.038789913058280945,-0.10965022444725037,-0.0922405794262886
1710889146798248000,18.356248046875,0.059864748269319534,-0.09621120244264603,-0.08979712426662445
1710889146817207000,18.37520703125,0.06719512492418289,-0.06750056147575378,-0.06994401663541794
1710889146836166400,18.39416650390625,0.0412333719432354,-0.04886918142437935,-0.06963858753442764
1710889146855125500,18.41312548828125,0.02779434807598591,-0.024434590712189674,-0.05864302068948746
1710889146874084900,18.4320849609375,0.03451386094093323,-0.0027488914784044027,-0.04428769648075104
1710889146893044000,18.4510439453125,0.021991131827235222,-0.008246674202382565,-0.04734202101826668
1710889146912003000,18.470003173828125,0.002443459117785096,-0.02626718580722809,-0.06291907280683517
1710889146930962400,18.48896240234375,0.0054977829568088055,-0.01954767294228077,-0.07269290834665298
1710889146949921500,18.507921630859375,0.020158538594841957,0.004581485874950886,-0.06841685622930527
1710889146968881000,18.526880859375,0.01282816007733345,0.040317077189683914,-0.06994401663541794
1710889146987840000,18.545840087890625,-0.002443459117785096,0.09621120244264603,-0.06872228533029556
1710889147006799400,18.56479931640625,-0.001832594396546483,0.15118902921676636,-0.05528326332569122
1710889147025758500,18.583758544921874,-0.011606430634856224,0.15057817101478577,-0.05497783049941063
1710889147044717800,18.6027177734375,-0.022296564653515816,0.10903936624526978,-0.05345066636800766
1710889147063677000,18.621677001953124,-0.024434590712189674,0.0409279391169548,-0.03756818547844887
1710889147082636300,18.64063623046875,-0.014049889519810677,-0.034208428114652634,-0.025961752980947495
1710889147101595400,18.659595458984374,-0.0009162971982732415,-0.0720820426940918,-0.023823726922273636
1710889147120554800,18.6785546875,0.007941242307424545,-0.07360920310020447,-0.020769402384757996
1710889147139513900,18.697513916015627,-0.000305432389723137,-0.05558869615197182,-0.003970621153712273
1710889147158473000,18.716472900390624,-0.005803215317428112,-0.011606430634856224,0.026878049597144127
1710889147177432300,18.735432373046876,0.011606430634856224,0.05222893878817558,0.04825831577181816
1710889147196391700,18.7543916015625,0.03298669680953026,0.10873392969369888,0.059864748269319534
1710889147215350800,18.773350830078126,0.02779434807598591,0.10537417232990265,0.06597339361906052
1710889147234310100,18.79231005859375,0.021380268037319183,0.05742128938436508,0.05864302068948746
1710889147253269200,18.811269287109376,0.0256563201546669,-0.015271619893610477,0.04306596517562866
1710889147272228600,18.830228515625,0.029626941308379173,-0.06536252796649933,0.04001164436340332
1710889147291187700,18.849187744140625,0.0308486707508564,-0.06872228533029556,0.03909534588456154
1710889147310146800,18.868146728515626,0.024740023538470268,-0.0461202897131443,0.021380268037319183
1710889147329106200,18.887106201171875,0.02107483521103859,-0.04978547990322113,-0.004276053514331579
1710889147348065300,18.906065185546876,0.01802051067352295,-0.04214967042207718,-0.003359756199643016
1710889147367024600,18.925024658203125,0.025350889191031456,-0.009162971749901772,0.008552107028663158
1710889147385983700,18.943983642578125,0.023518294095993042,0.002443459117785096,0.011606430634856224
1710889147404943000,18.962943115234374,0.013744457624852657,-0.01282816007733345,0.006414080038666725
1710889147423902200,18.981902099609375,0.009773836471140385,-0.026878049597144127,0.003359756199643016
1710889147442861600,19.000861572265624,0.013744457624852657,-0.025045456364750862,-0.006414080038666725
1710889147461820700,19.019820556640624,0.016798781231045723,-0.002443459117785096,-0.015577051788568497
1710889147480780000,19.038780029296873,0.020769402384757996,0.040317077189683914,-0.022296564653515816
1710889147499739100,19.0577392578125,0.021685699000954628,0.04917461425065994,-0.026572618633508682
1710889147518698500,19.076698486328127,0.01740964688360691,0.047952886670827866,-0.022907428443431854
1710889147537657600,19.09565771484375,0.02260199747979641,0.0412333719432354,-0.011606430634856224
1710889147556616700,19.11461669921875,0.026878049597144127,0.013133592903614044,-0.01802051067352295
1710889147575576000,19.133576171875,0.021685699000954628,-0.010384701192378998,-0.03023780696094036
1710889147594535200,19.15253515625,0.0027488914784044027,-0.05039634555578232,-0.05039634555578232
1710889147613494500,19.17149462890625,-0.014966187067329884,-0.08582650125026703,-0.05589412897825241
1710889147632454000,19.190453857421875,-0.001832594396546483,-0.056199558079242706,-0.030543239787220955
1710889147651413000,19.2094130859375,0.014660755172371864,-0.017715077847242355,-0.0015271619195118546
1710889147670372400,19.228372314453125,0.007024944759905338,-0.010384701192378998,-0.000305432389723137
1710889147689331500,19.24733154296875,-0.007330377586185932,-0.059864748269319534,-0.006108647678047419
1710889147708290600,19.26629052734375,-0.023518294095993042,-0.09987638890743256,-0.015271619893610477
1710889147727250000,19.28525,-0.0204639695584774,-0.0922405794262886,-0.015577051788568497
1710889147746209000,19.304208984375,-0.01802051067352295,-0.05222893878817558,-0.0054977829568088055
1710889147765168400,19.32316845703125,-0.006414080038666725,-0.002443459117785096,-0.001832594396546483
1710889147784127500,19.34212744140625,0.0015271619195118546,0.03817904740571976,-0.006719512399286032
1710889147803086600,19.361086669921875,-0.005192350596189499,0.0668896958231926,-0.009162971749901772
1710889147822046000,19.3800458984375,-0.022907428443431854,0.056810423731803894,-0.007635809946805239
1710889147841005000,19.399005126953124,-0.033597562462091446,0.02718348242342472,-0.007024944759905338
1710889147859964400,19.41796435546875,-0.026572618633508682,-0.007330377586185932,0.003970621153712273
1710889147878923500,19.436923583984374,-0.011606430634856224,-0.03176496922969818,0.013439024798572063
1710889147897883000,19.4558828125,-0.010079269297420979,-0.04673115536570549,0.0021380267571657896
1710889147916842000,19.474842041015624,-0.023212861269712448,-0.0616973415017128,-0.010995565913617611
1710889147935801300,19.49380126953125,-0.034208428114652634,-0.06811141967773438,-0.018325943499803543
1710889147954760400,19.512760498046877,-0.02626718580722809,-0.05589412897825241,-0.003359756199643016
1710889147973719800,19.5317197265625,-0.026572618633508682,-0.03451386094093323,0.004886918235570192
1710889147992679000,19.550678955078126,-0.03940077871084213,-0.03329212963581085,-0.01649334840476513
1710889148011638000,19.569637939453123,-0.03543015569448471,-0.03756818547844887,-0.023518294095993042
1710889148030597400,19.588597412109376,-0.040317077189683914,-0.010384701192378998,-0.023212861269712448
1710889148049556500,19.607556396484377,-0.044898562133312225,-0.0054977829568088055,-0.02718348242342472
1710889148068515800,19.626515869140626,-0.035735588520765305,-0.0009162971982732415,-0.0360410213470459
1710889148087475000,19.645474853515626,-0.032070402055978775,-0.011606430634856224,-0.04306596517562866
1710889148106434300,19.664434326171875,-0.03817904740571976,-0.056810423731803894,-0.04367683082818985
1710889148125393400,19.683393310546876,-0.029932374134659767,-0.1340848207473755,-0.025045456364750862
1710889148144352800,19.702352783203125,-0.010079269297420979,-0.17043127119541168,-0.0030543238390237093
1710889148163311900,19.721311767578126,-0.0030543238390237093,-0.14508038759231567,-0.0015271619195118546
1710889148182271000,19.74027099609375,-0.02412915788590908,-0.10384701192378998,-0.020769402384757996
1710889148201230300,19.759230224609375,-0.03848448023200035,-0.053145237267017365,-0.0256563201546669
1710889148220189400,19.778189453125,-0.043982263654470444,0.015271619893610477,-0.010384701192378998
1710889148239148800,19.797148681640625,-0.046425722539424896,0.06444623321294785,-0.011911863461136818
1710889148258108000,19.81610791015625,-0.04306596517562866,0.08857539296150208,-0.020769402384757996
1710889148277067000,19.83506689453125,-0.033597562462091446,0.07910698652267456,-0.025350889191031456
1710889148296026400,19.8540263671875,-0.031154103577136993,0.028405211865901947,-0.0409279391169548
1710889148314985500,19.8729853515625,-0.044898562133312225,-0.0409279391169548,-0.057726722210645676
1710889148333944800,19.89194482421875,-0.047952886670827866,-0.08002328872680664,-0.05833758786320686
1710889148352904000,19.910904052734374,-0.02779434807598591,-0.06566796451807022,-0.04306596517562866
1710889148371863000,19.929863037109374,-0.011300998739898205,-0.03481929376721382,-0.04062250629067421
1710889148390822400,19.948822509765623,-0.010995565913617611,-0.04062250629067421,-0.05436696484684944
1710889148409781500,19.967781494140624,-0.022296564653515816,-0.02932151034474373,-0.0565049909055233
1710889148428740600,19.98674072265625,-0.018631376326084137,0.007635809946805239,-0.028405211865901947
1710889148447700000,20.005699951171874,-0.013133592903614044,0.022907428443431854,-0.007635809946805239
1710889148466659000,20.0246591796875,-0.009773836471140385,0.0308486707508564,-0.009162971749901772
1710889148485618200,20.0436181640625,0.0027488914784044027,0.015271619893610477,-0.02626718580722809
1710889148504577500,20.06257763671875,-0.004886918235570192,-0.025350889191031456,-0.04153880476951599
1710889148523536600,20.08153662109375,-0.01954767294228077,-0.0513126403093338,-0.03390299528837204
1710889148542496000,20.10049609375,-0.004581485874950886,-0.03756818547844887,-0.010079269297420979
1710889148561455000,20.119455078125,0.008857538923621178,-0.007330377586185932,-0.01435532234609127
1710889148580414200,20.138414306640627,0.003359756199643016,0.01649334840476513,-0.03451386094093323
1710889148599373600,20.15737353515625,-0.013439024798572063,0.028405211865901947,-0.037262752652168274
1710889148618332700,20.176332763671876,-0.019242240116000175,0.031154103577136993,-0.01954767294228077
1710889148637292000,20.1952919921875,-0.002443459117785096,0.04245510324835777,0.000305432389723137
1710889148656251100,20.214251220703126,0.000305432389723137,0.046425722539424896,-0.005192350596189499
1710889148675210200,20.233210205078127,-0.003359756199643016,0.008857538923621178,-0.013744457624852657
1710889148694169600,20.252169677734376,0.000610864779446274,-0.01435532234609127,-0.00946840364485979
1710889148713128700,20.271128662109376,-0.001221729558892548,-0.022296564653515816,-0.007024944759905338
1710889148732087800,20.290087890625,-0.003665188793092966,-0.01435532234609127,0.0030543238390237093
1710889148751047000,20.309046875,0.0030543238390237093,0.028405211865901947,0.01954767294228077
1710889148770006300,20.32800634765625,0.007024944759905338,0.05436696484684944,0.015271619893610477
1710889148788965400,20.34696533203125,-0.005192350596189499,0.04245510324835777,-0.010690134018659592
1710889148807924700,20.3659248046875,-0.01435532234609127,0.015271619893610477,-0.023212861269712448
1710889148826883800,20.3848837890625,0.0027488914784044027,0.020769402384757996,-0.008552107028663158
1710889148845843000,20.403843017578126,0.009162971749901772,0.044898562133312225,0.000610864779446274
1710889148864802300,20.42280224609375,-0.008246674202382565,0.03145953640341759,-0.00946840364485979
1710889148883761400,20.441761474609375,-0.0054977829568088055,-0.00946840364485979,-0.01588248461484909
1710889148902720500,20.460720458984376,-0.0009162971982732415,-0.04673115536570549,-0.016798781231045723
1710889148921679600,20.4796796875,0.0027488914784044027,-0.07024945318698883,-0.016798781231045723
1710889148940639000,20.498638916015626,0.006414080038666725,-0.0772743970155716,-0.013744457624852657
1710889148959598000,20.51759814453125,0.008246674202382565,-0.05589412897825241,-0.005192350596189499
1710889148978557400,20.536557373046875,0.011606430634856224,-0.02107483521103859,-0.0021380267571657896
1710889148997516500,20.5555166015625,0.002443459117785096,-0.011911863461136818,-0.011606430634856224
1710889149016475600,20.5744755859375,-0.004276053514331579,-0.015271619893610477,-0.004886918235570192
1710889149035435000,20.59343505859375,-0.0030543238390237093,0.010384701192378998,0.0027488914784044027
1710889149054394000,20.61239404296875,0.0054977829568088055,0.037262752652168274,0
1710889149073353200,20.631353271484375,0.01435532234609127,0.047036588191986084,-0.003970621153712273
1710889149092312300,20.650312255859376,0.006108647678047419,0.043371398001909256,-0.011606430634856224
1710889149111271700,20.669271728515625,0.0021380267571657896,0.02871064469218254,-0.007330377586185932
1710889149130230800,20.688230712890626,0.005192350596189499,-0.00946840364485979,-0.017715077847242355
1710889149149190100,20.707190185546875,0.000305432389723137,-0.04886918142437935,-0.019242240116000175
1710889149168149200,20.726149169921875,0.004886918235570192,-0.07147117704153061,-0.006719512399286032
1710889149187108400,20.7451083984375,0.008246674202382565,-0.08032871782779694,0
1710889149206067500,20.7640673828125,-0.007024944759905338,-0.0818558782339096,0.001832594396546483
1710889149225026800,20.78302685546875,-0.014966187067329884,-0.037262752652168274,-0.006414080038666725
1710889149243986000,20.80198583984375,-0.01802051067352295,0.03695731982588768,-0.003970621153712273
1710889149262945000,20.820945068359375,-0.0256563201546669,0.11209368705749512,0.006719512399286032
1710889149281904000,20.839904052734376,-0.02107483521103859,0.13958260416984558,0.010690134018659592
1710889149300863500,20.858863525390625,-0.004276053514331579,0.10537417232990265,0.021380268037319183
1710889149319822600,20.877822509765625,0.010690134018659592,0.0412333719432354,0.016798781231045723
1710889149338781700,20.89678173828125,0.010995565913617611,-0.026572618633508682,0.006719512399286032
1710889149357741000,20.915740966796875,0.017104214057326317,-0.07941242307424545,0.007941242307424545
1710889149376700200,20.9347001953125,0.023212861269712448,-0.10018182545900345,0.0054977829568088055
1710889149395659300,20.9536591796875,0.01435532234609127,-0.08491020649671555,-0.001221729558892548
1710889149414618400,20.972618408203125,-0.000305432389723137,-0.05528326332569122,-0.006414080038666725
1710889149433577700,20.99157763671875,-0.001221729558892548,-0.0021380267571657896,-0.006108647678047419
1710889149452536800,21.010536865234375,-0.002443459117785096,0.06047561392188072,-0.001832594396546483
1710889149471496200,21.02949609375,-0.014049889519810677,0.08368847519159317,-0.0021380267571657896
1710889149490455300,21.048455322265625,-0.014049889519810677,0.05894844979047775,-0.010995565913617611
1710889149509414400,21.067414306640625,-0.003970621153712273,0.028099779039621353,-0.010995565913617611
1710889149528373500,21.08637353515625,0.0021380267571657896,-0.012522728182375431,-0.0027488914784044027
1710889149547332900,21.105332763671875,0,-0.07055488228797913,-0.01282816007733345
1710889149566292000,21.1242919921875,-0.007330377586185932,-0.09957095980644226,-0.021991131827235222
1710889149585251000,21.1432509765625,-0.008857538923621178,-0.07880155742168427,-0.011911863461136818
1710889149604210200,21.162210205078125,0.001221729558892548,-0.04306596517562866,-0.014049889519810677
1710889149623169500,21.18116943359375,-0.001832594396546483,-0.007330377586185932,-0.01802051067352295
1710889149642128600,21.200128662109375,-0.01282816007733345,0.004581485874950886,-0.017104214057326317
1710889149661087700,21.219087646484375,-0.021685699000954628,0.011606430634856224,-0.023823726922273636
1710889149680047000,21.238047119140624,-0.023823726922273636,0.02871064469218254,-0.029016077518463135
1710889149699006200,21.257006103515625,-0.009773836471140385,0.05345066636800766,-0.011300998739898205
1710889149717965300,21.27596533203125,-0.0021380267571657896,0.05070177838206291,-0.019242240116000175
1710889149736924400,21.29492431640625,-0.012522728182375431,0.009162971749901772,-0.026572618633508682
1710889149755883800,21.3138837890625,-0.01649334840476513,-0.03543015569448471,-0.012217295356094837
1710889149774843000,21.3328427734375,-0.007941242307424545,-0.05100720748305321,-0.007330377586185932
1710889149793802000,21.351802001953125,0,-0.0513126403093338,-0.015577051788568497
1710889149812761300,21.37076123046875,-0.0027488914784044027,-0.01740964688360691,-0.021685699000954628
1710889149831720400,21.389720458984375,-0.009162971749901772,-0.000305432389723137,-0.01649334840476513
1710889149850679600,21.408679443359375,-0.012522728182375431,-0.006414080038666725,-0.01740964688360691
1710889149869639000,21.427638916015624,-0.008246674202382565,0.001221729558892548,-0.01435532234609127
1710889149888598000,21.446597900390625,-0.003665188793092966,0.014966187067329884,-0.003970621153712273
1710889149907557000,21.46555712890625,-0.002443459117785096,0.0030543238390237093,-0.0009162971982732415
1710889149926516200,21.48451611328125,0.000305432389723137,-0.018631376326084137,-0.022296564653515816
1710889149945475600,21.5034755859375,0.000305432389723137,-0.03695731982588768,-0.03451386094093323
1710889149964434700,21.5224345703125,-0.005192350596189499,-0.027488915249705315,-0.0204639695584774
1710889149983393800,21.541393798828125,-0.005803215317428112,-0.013133592903614044,0.000610864779446274
1710889150002353200,21.560353271484374,-0.004276053514331579,-0.010079269297420979,-0.009162971749901772
1710889150021312300,21.579312255859374,-0.0054977829568088055,-0.007330377586185932,-0.019853105768561363
1710889150040271400,21.598271240234375,-0.007941242307424545,-0.006414080038666725,-0.02260199747979641
1710889150059230700,21.617230712890624,-0.006108647678047419,-0.01954767294228077,-0.025350889191031456
1710889150078189800,21.63618994140625,-0.009162971749901772,-0.032681263983249664,-0.03634645417332649
1710889150097149000,21.65514892578125,-0.017104214057326317,-0.04062250629067421,-0.04001164436340332
1710889150116108300,21.6741083984375,-0.018325943499803543,-0.03787361457943916,-0.0308486707508564
1710889150135067400,21.6930673828125,-0.01588248461484909,-0.03329212963581085,-0.021380268037319183
1710889150154026500,21.712026611328124,-0.01588248461484909,-0.019853105768561363,-0.021991131827235222
1710889150172985900,21.73098583984375,0.0009162971982732415,0.011300998739898205,-0.017715077847242355
1710889150191945000,21.749945068359374,0.01649334840476513,0.06414080411195755,-0.01740964688360691
1710889150210904000,21.768904052734374,0.007330377586185932,0.06230820715427399,-0.03329212963581085
1710889150229863200,21.78786328125,-0.009773836471140385,0.016187917441129684,-0.033597562462091446
1710889150248822500,21.806822509765624,-0.007330377586185932,-0.016798781231045723,-0.020769402384757996
1710889150267781600,21.82578173828125,0.008246674202382565,-0.008857538923621178,-0.02260199747979641
1710889150286741000,21.844740966796873,0.010079269297420979,0.000610864779446274,-0.036651886999607086
1710889150305700000,21.8637001953125,-0.007330377586185932,-0.0027488914784044027,-0.047036588191986084
1710889150324659200,21.8826591796875,-0.020158538594841957,-0.017104214057326317,-0.0360410213470459
1710889150343618600,21.90161865234375,-0.008246674202382565,-0.022296564653515816,-0.02107483521103859
1710889150362577700,21.92057763671875,0.003665188793092966,-0.021685699000954628,-0.025961752980947495
1710889150381536800,21.939536865234373,0,-0.025350889191031456,-0.0412333719432354
1710889150400496000,21.95849609375,-0.005803215317428112,-0.012522728182375431,-0.03329212963581085
1710889150419455200,21.977455322265627,-0.010079269297420979,0.006719512399286032,-0.02779434807598591
1710889150438414300,21.996414306640624,-0.0009162971982732415,0.02871064469218254,-0.025045456364750862
1710889150457373700,22.015373779296876,0.007024944759905338,0.04062250629067421,-0.019853105768561363
1710889150476332800,22.034332763671873,0.003359756199643016,0.022907428443431854,-0.016798781231045723
1710889150495292000,22.0532919921875,-0.0021380267571657896,0.011606430634856224,-0.02107483521103859
1710889150514251300,22.072251220703127,0.0054977829568088055,0.007330377586185932,-0.01740964688360691
1710889150533210400,22.09121044921875,0.007024944759905338,-0.01435532234609127,-0.02412915788590908
1710889150552169700,22.110169677734376,-0.004276053514331579,-0.04153880476951599,-0.036651886999607086
1710889150571128800,22.12912890625,-0.006719512399286032,-0.05589412897825241,-0.03390299528837204
1710889150590088200,22.148088134765626,0.008246674202382565,-0.05253437161445618,-0.016798781231045723
1710889150609047300,22.16704736328125,0.007941242307424545,-0.04825831577181816,-0.022907428443431854
1710889150628006400,22.18600634765625,-0.004276053514331579,-0.019853105768561363,-0.03451386094093323
1710889150646965800,22.2049658203125,-0.007941242307424545,0.013133592903614044,-0.02779434807598591
1710889150665924900,22.2239248046875,0.006414080038666725,0.03329212963581085,-0.018631376326084137
1710889150684884200,22.24288427734375,0.008857538923621178,0.0308486707508564,-0.010079269297420979
1710889150703843300,22.26184326171875,-0.001221729558892548,0.03237583488225937,-0.011911863461136818
1710889150722802400,22.280802490234375,-0.007941242307424545,0.025961752980947495,-0.024434590712189674
1710889150741761800,22.29976171875,-0.013133592903614044,0.018325943499803543,-0.026878049597144127
1710889150760721000,22.318720947265625,-0.001832594396546483,0.013744457624852657,-0.0030543238390237093
1710889150779680300,22.33768017578125,0.016187917441129684,0.006108647678047419,-0.002443459117785096
1710889150798639400,22.356639404296875,0.012217295356094837,-0.02626718580722809,-0.022296564653515816
1710889150817598500,22.375598388671875,-0.016187917441129684,-0.05039634555578232,-0.030543239787220955
1710889150836557800,22.394557861328124,-0.025350889191031456,-0.05345066636800766,-0.017715077847242355
1710889150855517000,22.413516845703125,-0.006108647678047419,-0.04001164436340332,-0.012522728182375431
1710889150874476300,22.432476318359374,0.003359756199643016,-0.013133592903614044,-0.016798781231045723
1710889150893435400,22.451435302734374,-0.007941242307424545,0.008246674202382565,-0.022907428443431854
1710889150912394800,22.470394775390623,-0.0256563201546669,0.010079269297420979,-0.032681263983249664
1710889150931353900,22.489353759765624,-0.029932374134659767,0.001832594396546483,-0.02779434807598591
1710889150950313000,22.50831298828125,-0.010384701192378998,0.011300998739898205,-0.008246674202382565
1710889150969272300,22.527272216796874,0.003665188793092966,0.00946840364485979,0.005803215317428112
1710889150988231400,22.5462314453125,0.001832594396546483,-0.016187917441129684,0.010384701192378998
1710889151007190800,22.565190673828123,0.006719512399286032,-0.05192350596189499,-0.000610864779446274
1710889151026150000,22.58414990234375,0.01649334840476513,-0.060781046748161316,-0.007635809946805239
1710889151045109000,22.60310888671875,0.008857538923621178,-0.0513126403093338,-0.0030543238390237093
1710889151064068400,22.622068359375,-0.001832594396546483,-0.02871064469218254,0.007941242307424545
1710889151083027500,22.64102734375,0.003665188793092966,0.0030543238390237093,0.009162971749901772
1710889151101986800,22.65998681640625,0,0.02107483521103859,-0.0015271619195118546
1710889151120946000,22.67894580078125,-0.012217295356094837,0.019242240116000175,-0.005192350596189499
1710889151139905300,22.6979052734375,-0.008552107028663158,0.01740964688360691,-0.004581485874950886
1710889151158864400,22.716864501953125,-0.006719512399286032,0.007330377586185932,-0.012217295356094837
1710889151177823700,22.73582373046875,-0.011911863461136818,-0.019242240116000175,-0.01649334840476513
1710889151196782800,22.754782958984375,-0.011911863461136818,-0.03237583488225937,-0.003665188793092966
1710889151215742200,22.7737421875,-0.021380268037319183,-0.03695731982588768,-0.003970621153712273
1710889151234701300,22.792701416015625,-0.0256563201546669,-0.04367683082818985,-0.011606430634856224
1710889151253660700,22.81166064453125,-0.028099779039621353,-0.05222893878817558,-0.017715077847242355
1710889151272619800,22.830619873046874,-0.03848448023200035,-0.0461202897131443,-0.028099779039621353
1710889151291579000,22.849578857421875,-0.041844237595796585,-0.020769402384757996,-0.0308486707508564
1710889151310538200,22.868538330078124,-0.03940077871084213,0.008246674202382565,-0.029932374134659767
1710889151329497600,22.88749755859375,-0.032681263983249664,0.05345066636800766,-0.013133592903614044
1710889151348456700,22.906456787109374,-0.02107483521103859,0.11239911615848541,0.003970621153712273
1710889151367416000,22.925416015625,-0.014966187067329884,0.1328630894422531,0.003970621153712273
1710889151386375200,22.944375244140623,-0.0256563201546669,0.11026109009981155,0.002443459117785096
1710889151405334500,22.96333447265625,-0.03176496922969818,0.06383536756038666,0.005192350596189499
1710889151424293600,22.982293701171876,-0.01802051067352295,0.017715077847242355,0.006719512399286032
1710889151443252700,23.001252685546874,-0.00946840364485979,-0.006719512399286032,0.0021380267571657896
1710889151462212000,23.020212158203126,-0.013439024798572063,-0.0256563201546669,0.0030543238390237093
1710889151481171500,23.03917138671875,-0.01740964688360691,-0.05222893878817558,0.002443459117785096
1710889151500130600,23.058130615234376,-0.01954767294228077,-0.11178825795650482,-0.010995565913617611
1710889151519090000,23.07708984375,-0.026878049597144127,-0.13469567894935608,-0.018325943499803543
1710889151538049000,23.096049072265625,-0.025961752980947495,-0.09407317638397217,-0.012522728182375431
1710889151557008400,23.11500830078125,-0.02260199747979641,-0.025045456364750862,-0.010079269297420979
1710889151575967500,23.133967529296875,-0.019853105768561363,0.05803215503692627,-0.003359756199643016
