time,seconds_elapsed,z,y,x
1711072513536325400,0.164325439453125,3.370290756225586,8.415556907653809,4.392025947570801
1711072513555284200,0.1832841796875,3.404986619949341,8.645268440246582,4.394418716430664
1711072513574242800,0.202242919921875,3.4432718753814697,8.434700012207031,4.431507587432861
1711072513593201400,0.221201416015625,3.2350962162017822,8.311469078063965,4.334598064422607
1711072513612160300,0.24016015625,3.0592236518859863,8.423932075500488,4.157529354095459
1711072513631118800,0.259118896484375,3.047259569168091,8.315058708190918,3.889533281326294
1711072513650077400,0.278077392578125,3.0281169414520264,8.2695951461792,3.9122650623321533
1711072513669036300,0.297036376953125,3.040081262588501,8.208578109741211,4.076173305511475
1711072513687995000,0.315994873046875,3.0975089073181152,8.26241683959961,4.198207378387451
1711072513706953500,0.334953369140625,3.1561331748962402,8.25523853302002,4.195814609527588
1711072513725912300,0.353912353515625,3.1094729900360107,8.227720260620117,4.147958278656006
1711072513744871000,0.372870849609375,3.0795626640319824,8.249256134033203,4.098905086517334
1711072513763829800,0.391829833984375,3.0652058124542236,8.236095428466797,4.104887008666992
1711072513782788400,0.410788330078125,3.0628130435943604,8.227720260620117,4.121636867523193
1711072513801747000,0.429746826171875,3.0891339778900146,8.317451477050781,4.194618225097656
1711072513820705800,0.448705810546875,3.1178479194641113,8.33300495147705,4.2245283126831055
1711072513839664400,0.467664306640625,3.0520453453063965,8.207381248474121,4.260420799255371
1711072513858623200,0.486623291015625,3.0185458660125732,8.26839828491211,4.552345275878906
1711072513877581800,0.505581787109375,3.267399311065674,8.48734188079834,4.820341110229492
1711072513896540700,0.524540771484375,3.2865419387817383,8.02193832397461,4.872983455657959
1711072513915499300,0.543499267578125,2.932404041290283,7.853243827819824,4.67078971862793
1711072513934457900,0.562457763671875,2.537588357925415,7.921439170837402,3.840480327606201
1711072513953416700,0.581416748046875,2.3820550441741943,8.139185905456543,3.229114055633545
1711072513972375300,0.600375244140625,2.66560435295105,8.356932640075684,3.4157543182373047
1711072513991334000,0.619333984375,3.06999135017395,8.615358352661133,3.830909013748169
1711072514010292700,0.638292724609375,3.372683525085449,8.659625053405762,4.028316974639893
1711072514029251300,0.657251220703125,3.4851462841033936,8.652446746826172,4.445864677429199
1711072514048210200,0.676210205078125,3.3104701042175293,8.500502586364746,4.863411903381348
1711072514067168800,0.695168701171875,3.142972469329834,8.635697364807129,4.986642360687256
1711072514086127400,0.71412744140625,3.142972469329834,8.453842163085938,5.044070243835449
1711072514105086200,0.733086181640625,2.9252257347106934,8.178668022155762,4.869394302368164
1711072514124044800,0.752044921875,2.581855535507202,8.068597793579102,4.287938117980957
1711072514143003600,0.771003662109375,2.417947292327881,8.0291166305542,3.7256247997283936
1711072514161962200,0.789962158203125,2.5232315063476562,8.1224365234375,3.981656789779663
1711072514180921000,0.808921142578125,2.7637102603912354,8.273183822631836,4.704289436340332
1711072514199879700,0.827879638671875,3.0340991020202637,8.287541389465332,5.1050872802734375
1711072514218838300,0.84683837890625,3.102294445037842,8.508877754211426,5.234299659729004
1711072514237797000,0.865797119140625,2.9599215984344482,8.228917121887207,5.302495002746582
1711072514256755700,0.884755615234375,2.5974090099334717,7.856832981109619,5.101497650146484
1711072514275714300,0.90371435546875,2.465803623199463,7.820940971374512,5.0225348472595215
1711072514294673200,0.922673095703125,2.4849462509155273,7.8664045333862305,5.205585479736328
1711072514313631700,0.9416318359375,2.4885356426239014,7.853243827819824,5.089533805847168
1711072514332590600,0.960590576171875,2.6021945476531982,7.892725467681885,4.899304389953613
1711072514351549200,0.979549072265625,2.5292134284973145,7.788637638092041,4.902893543243408
1711072514370508000,0.998508056640625,2.23848557472229,7.488338470458984,5.047659397125244
1711072514389466600,1.017466552734375,1.97407865524292,7.319644451141357,5.023731231689453
1711072514408425500,1.036425537109375,1.7850457429885864,7.389036178588867,4.880161762237549
1711072514427384000,1.055384033203125,1.6977076530456543,7.660621643066406,5.047659397125244
1711072514446342700,1.0743427734375,1.7084753513336182,7.76470947265625,5.314459323883057
1711072514465301500,1.093301513671875,1.8137595653533936,7.837690353393555,5.563312530517578
1711072514484260000,1.112260009765625,1.8245272636413574,8.066205024719238,5.730810165405273
1711072514503219000,1.131218994140625,1.7982062101364136,8.271987915039062,5.840879917144775
1711072514522177500,1.150177490234375,1.7874385118484497,8.280363082885742,5.831308841705322
1711072514541136400,1.169136474609375,1.6259230375289917,8.403593063354492,5.7750773429870605
1711072514560095000,1.188094970703125,1.5649060010910034,8.532805442810059,5.769095420837402
1711072514579053800,1.2070537109375,1.628315806388855,8.569893836975098,5.36351203918457
1711072514598012400,1.226012451171875,1.8628123998641968,8.330612182617188,4.899304389953613
1711072514616971000,1.244970947265625,1.8137595653533936,8.86660385131836,4.382454872131348
1711072514635929900,1.263929931640625,2.0231316089630127,8.498109817504883,4.820341110229492
1711072514654888400,1.282888427734375,1.92741858959198,7.4979095458984375,5.913861274719238
1711072514673847300,1.301847412109375,1.8245272636413574,7.369893550872803,6.390032768249512
1711072514692806000,1.320805908203125,1.4787644147872925,7.4225358963012695,6.083751678466797
1711072514711764700,1.3397646484375,1.2598211765289307,7.743174076080322,5.669793128967285
1711072514730723300,1.358723388671875,1.5182459354400635,7.869993686676025,5.501099109649658
1711072514749682000,1.377681884765625,1.9752750396728516,8.079365730285645,5.639883041381836
1711072514768640800,1.396640869140625,2.2193429470062256,8.449056625366211,5.5034918785095215
1711072514787599400,1.415599365234375,2.170290231704712,8.37846851348877,5.032105922698975
1711072514806558200,1.43455810546875,1.8424733877182007,7.88076114654541,4.871787071228027
1711072514825516800,1.453516845703125,1.5014961957931519,7.1856465339660645,5.127819061279297
1711072514844475600,1.4724755859375,1.2729816436767578,6.845865726470947,5.675775527954102
1711072514863434200,1.491434326171875,1.3040883541107178,7.341179847717285,6.21774959564209
1711072514882393000,1.51039306640625,1.7252250909805298,8.346165657043457,5.983253002166748
1711072514901351700,1.5293515625,1.939382791519165,8.096115112304688,5.468796253204346
1711072514920310300,1.548310302734375,1.8233308792114258,8.337790489196777,5.407779216766357
1711072514939269000,1.56726904296875,1.8161523342132568,8.072187423706055,4.9292144775390625
1711072514958228000,1.58622802734375,1.2095718383789062,6.664011001586914,5.20678186416626
1711072514977186600,1.6051865234375,1.3268201351165771,7.0301127433776855,5.636293888092041
1711072514996145200,1.624145263671875,1.6019947528839111,7.923832416534424,5.980860233306885
1711072515015104000,1.64310400390625,1.954936146736145,8.23130989074707,6.178267955780029
1711072515034062600,1.6620625,2.1104695796966553,8.266005516052246,6.211767673492432
1711072515053021400,1.681021484375,2.080559253692627,8.190631866455078,6.147161483764648
1711072515071980000,1.69997998046875,1.812563180923462,7.735995769500732,5.600401401519775
1711072515090939000,1.71893896484375,1.5792629718780518,7.390232563018799,5.101497650146484
1711072515109897500,1.7378974609375,1.428515076637268,7.317251682281494,5.2630133628845215
1711072515128856300,1.756856201171875,1.5098711252212524,7.112665176391602,5.938985824584961
1711072515147815000,1.77581494140625,1.7575281858444214,7.0683979988098145,6.376872539520264
1711072515166773800,1.794773681640625,1.6139588356018066,7.3304123878479,6.722635269165039
1711072515185732400,1.813732421875,1.420140266418457,7.354340553283691,7.107879638671875
1711072515204691200,1.832691162109375,1.4297115802764893,7.60080099105835,7.036095142364502
1711072515223649800,1.85164990234375,1.4715858697891235,7.296912670135498,6.74656343460083
1711072515242608600,1.870608642578125,1.3256237506866455,7.192824840545654,6.573083877563477
1711072515261567200,1.889567138671875,1.4799607992172241,7.29810905456543,6.290730953216553
1711072515280526000,1.908526123046875,1.6654045581817627,7.246663570404053,6.051448345184326
1711072515299484700,1.927484619140625,1.7886348962783813,7.3292155265808105,6.15553617477417
1711072515318443300,1.946443359375,1.6498512029647827,7.4500532150268555,6.297909259796143
1711072515337402000,1.965402099609375,1.6546368598937988,7.631907939910889,6.141179084777832
1711072515356361000,1.98436083984375,1.7515461444854736,7.911868095397949,5.698507308959961
1711072515375319600,2.003319580078125,1.8305093050003052,7.511070251464844,5.801398277282715
1711072515394278400,2.0222783203125,1.5385849475860596,7.314858913421631,6.498906135559082
1711072515413237000,2.041237060546875,1.4979069232940674,7.47637414932251,6.52044153213501
1711072515432195800,2.06019580078125,1.5601203441619873,7.70249605178833,5.927021503448486
1711072515451154400,2.079154541015625,1.5242279767990112,7.690532207489014,5.7750773429870605
1711072515470113300,2.09811328125,1.4787644147872925,7.393822193145752,6.01675271987915
1711072515489071900,2.11707177734375,1.6414763927459717,7.436892986297607,6.190232276916504
1711072515508030700,2.13603076171875,1.8687944412231445,7.494320392608643,6.2536420822143555
1711072515526989300,2.1549892578125,1.7443677186965942,7.448856830596924,6.265605926513672
1711072515545948200,2.1739482421875,1.5469598770141602,7.416553974151611,6.223731517791748
1711072515564906800,2.19290673828125,1.373480200767517,7.427321434020996,6.105287075042725
1711072515583865600,2.211865478515625,1.3507484197616577,7.302894592285156,6.0023956298828125
1711072515602824200,2.23082421875,1.439282774925232,7.107879638671875,5.898307800292969
1711072515621783000,2.249782958984375,1.4536397457122803,7.27537727355957,5.955735683441162
1711072515640741600,2.26874169921875,1.526620864868164,7.812565803527832,5.784648895263672
1711072515659700500,2.287700439453125,1.4225330352783203,7.500302791595459,5.505885124206543
1711072515678659300,2.306659423828125,1.3746765851974487,7.264609336853027,5.72123908996582
1711072515697618000,2.325617919921875,1.4991034269332886,7.679764270782471,6.331408500671387
1711072515716576500,2.344576416015625,1.8137595653533936,8.051848411560059,6.423532485961914
1711072515735535400,2.363535400390625,1.8508483171463013,8.117650985717773,5.913861274719238
1711072515754494200,2.382494140625,1.8424733877182007,8.036294937133789,5.13021183013916
1711072515773452800,2.401452880859375,1.5182459354400635,8.117650985717773,4.730610370635986
1711072515792411400,2.420411376953125,1.4213366508483887,8.309076309204102,4.889732837677002
1711072515811370200,2.439370361328125,1.4057832956314087,8.277970314025879,5.231906890869141
1711072515830329000,2.4583291015625,1.3304094076156616,8.338987350463867,5.545366287231445
1711072515849287700,2.47728759765625,1.714457392692566,8.652446746826172,5.687739372253418
1711072515868246500,2.49624658203125,1.8508483171463013,8.426324844360352,6.126822471618652
1711072515887205000,2.515205078125,2.214557409286499,8.612964630126953,6.212964057922363
1711072515906164000,2.5341640625,2.231307029724121,8.337790489196777,5.898307800292969
1711072515925122600,2.55312255859375,2.0889341831207275,8.0350980758667,5.693721294403076
1711072515944081400,2.572081298828125,1.8508483171463013,7.814958572387695,5.5345988273620605
1711072515963040300,2.591040283203125,1.7599210739135742,7.6151580810546875,5.531009674072266
1711072515981998800,2.609998779296875,1.7132610082626343,7.342376232147217,5.5106706619262695
1711072516000957400,2.62895751953125,1.8987047672271729,7.3052873611450195,5.580062389373779
1711072516019916300,2.647916259765625,2.069791555404663,7.232306480407715,5.937789440155029
1711072516038875100,2.666875244140625,2.2157537937164307,6.959524631500244,6.056233882904053
1711072516057833700,2.685833740234375,2.386840581893921,6.898507595062256,6.087340831756592
1711072516076792600,2.70479248046875,2.434697151184082,7.007380962371826,5.965306758880615
1711072516095751200,2.723751220703125,2.3090739250183105,6.951149940490723,5.748756408691406
1711072516114710000,2.7427099609375,2.2444677352905273,6.953542709350586,5.422136306762695
1711072516133668600,2.761668701171875,2.225325107574463,7.0995049476623535,5.008177757263184
1711072516152627500,2.78062744140625,2.2911276817321777,7.331608772277832,4.797609329223633
1711072516171586300,2.79958642578125,2.421536445617676,7.625925540924072,4.694717884063721
1711072516190545000,2.818544921875,2.6763720512390137,8.242077827453613,4.82751989364624
1711072516209503700,2.837503662109375,2.864208698272705,8.769695281982422,4.624129772186279
1711072516228462300,2.85646240234375,2.82951283454895,8.754141807556152,4.271188259124756
1711072516247421200,2.875421142578125,2.7672994136810303,8.628518104553223,4.035495281219482
1711072516266379800,2.8943798828125,2.276770830154419,8.870193481445312,3.218346357345581
1711072516285338600,2.913338623046875,2.1415762901306152,9.250652313232422,3.174079179763794
1711072516304297500,2.93229736328125,2.6907291412353516,9.321240425109863,4.120440483093262
1711072516323256000,2.951256103515625,3.3882367610931396,9.047262191772461,5.296513080596924
1711072516342215000,2.97021484375,3.314059257507324,8.825926780700684,5.665007591247559
1711072516361173500,2.989173583984375,2.7050859928131104,8.810373306274414,4.871787071228027
1711072516380132400,3.00813232421875,2.122433662414551,8.810373306274414,4.199403762817383
1711072516399091000,3.027091064453125,1.7982062101364136,8.719446182250977,4.01754903793335
1711072516418049800,3.0460498046875,1.7359927892684937,8.635697364807129,3.8668015003204346
1711072516437008400,3.06500830078125,1.8269200325012207,8.417949676513672,3.8536407947540283
1711072516455967200,3.08396728515625,1.919043779373169,8.0350980758667,4.012763500213623
1711072516474926000,3.102926025390625,2.0985054969787598,7.987242221832275,4.171886444091797
1711072516493884700,3.121884765625,2.11405873298645,8.100900650024414,4.261617183685303
1711072516512843300,3.14084326171875,2.087737798690796,8.161917686462402,4.49252462387085
1711072516531802000,3.159802001953125,2.135594129562378,8.23968505859375,4.591826438903809
1711072516550761000,3.178760986328125,2.2600209712982178,8.250452041625977,4.516452789306641
1711072516569719600,3.197719482421875,2.2683959007263184,8.5100736618042,4.418346881866455
1711072516588678400,3.216678466796875,2.0650060176849365,8.817551612854004,4.549952030181885
1711072516607637200,3.23563720703125,2.0985054969787598,8.967103004455566,4.890929698944092
1711072516626595800,3.254595947265625,2.2612173557281494,8.919246673583984,5.08355188369751
1711072516645554700,3.2735546875,2.609373092651367,8.726624488830566,5.134997367858887
1711072516664513300,3.29251318359375,2.3856441974639893,8.388039588928223,5.026124000549316
1711072516683472100,3.31147216796875,1.9417755603790283,8.048258781433105,4.9292144775390625
1711072516702431000,3.330430908203125,1.841277003288269,7.945367813110352,4.871787071228027
1711072516721389600,3.3493896484375,2.0171494483947754,7.902296543121338,4.802394866943359
1711072516740348200,3.36834814453125,2.1332013607025146,7.813762187957764,4.833501815795898
1711072516759307000,3.38730712890625,1.9920248985290527,7.832904815673828,4.7952165603637695
1711072516778265900,3.406265869140625,2.0135602951049805,7.893921852111816,4.7030930519104
1711072516797224400,3.425224365234375,1.9812572002410889,8.02193832397461,4.816751956939697
1711072516816183300,3.444183349609375,1.9489539861679077,8.075776100158691,4.984249591827393
1711072516835142100,3.46314208984375,2.121237277984619,7.999206066131592,5.016552448272705
1711072516854100700,3.482100830078125,2.1367905139923096,7.977670669555664,4.802394866943359
1711072516873059600,3.5010595703125,1.8137595653533936,7.9728851318359375,4.459024906158447
1711072516892018200,3.52001806640625,1.561316728591919,7.964509963989258,4.334598064422607
1711072516910977000,3.53897705078125,1.5481562614440918,7.865208148956299,4.454239368438721
1711072516929936000,3.557935791015625,1.604387640953064,7.99083137512207,4.583451747894287
1711072516948894500,3.57689453125,1.3962119817733765,8.432307243347168,4.560719966888428
1711072516967853000,3.59585302734375,1.0348957777023315,8.85344409942627,4.535595417022705
1711072516986812000,3.61481201171875,0.914058268070221,9.084351539611816,4.764110088348389
1711072517005770800,3.633770751953125,1.140179991722107,9.148957252502441,5.125426292419434
1711072517024729300,3.652729248046875,1.3471591472625732,8.979066848754883,5.233103275299072
1711072517043688200,3.671688232421875,1.1976077556610107,8.928817749023438,5.2151570320129395
1711072517062647000,3.69064697265625,1.1102696657180786,8.964710235595703,5.190032482147217
1711072517081605600,3.709605712890625,1.2370892763137817,8.787641525268555,5.196014404296875
1711072517100564500,3.728564453125,1.3160524368286133,8.61057186126709,5.193621635437012
1711072517119523000,3.747523193359375,1.1270195245742798,8.58903694152832,4.962714195251465
1711072517138482000,3.76648193359375,0.9080761671066284,8.653642654418945,4.686343193054199
1711072517157440800,3.785440673828125,0.9260223507881165,8.7505521774292,4.453042984008789
1711072517176399400,3.8043994140625,1.0911271572113037,8.784051895141602,4.335794448852539
1711072517195358200,3.823358154296875,1.1425727605819702,8.849854469299316,4.493721008300781
1711072517214317000,3.842317138671875,1.2813565731048584,9.129815101623535,4.687539577484131
1711072517233275600,3.861275634765625,1.293320655822754,9.168100357055664,4.494917392730713
1711072517252234500,3.880234375,1.4213366508483887,9.238688468933105,4.268795490264893
1711072517271193000,3.899193115234375,1.210768222808838,9.274580955505371,4.152743816375732
1711072517290152000,3.91815185546875,1.337587833404541,9.259027481079102,4.1659040451049805
1711072517309110500,3.937110595703125,1.3280165195465088,8.957531929016113,4.028316974639893
1711072517328069400,3.9560693359375,1.168893814086914,8.701499938964844,4.268795490264893
1711072517347028000,3.975028076171875,0.9667003750801086,8.585447311401367,4.774877548217773
1711072517365986800,3.99398681640625,0.9200403094291687,8.420342445373535,5.277370452880859
1711072517384945700,4.012945556640625,0.8925228714942932,8.074580192565918,5.748756408691406
1711072517403904300,4.031904296875,1.153340458869934,7.5804619789123535,6.3122663497924805
1711072517422863000,4.050863037109375,1.4344971179962158,7.129415035247803,6.577869415283203
1711072517441821700,4.06982177734375,1.5445669889450073,6.709474563598633,6.530013084411621
1711072517460780500,4.088780517578125,1.4679967164993286,6.500102519989014,6.4941205978393555
1711072517479739400,4.107739501953125,1.3459627628326416,6.742974281311035,6.348158359527588
1711072517498698000,4.126697998046875,1.3674981594085693,7.171289443969727,6.1124653816223145
1711072517517656800,4.14565673828125,1.3040883541107178,7.36032247543335,6.275177478790283
1711072517536615700,4.16461572265625,1.5900306701660156,7.371089935302734,6.748956203460693
1711072517555574300,4.18357421875,1.8448662757873535,7.368697166442871,7.188039302825928
1711072517574533000,4.202533203125,2.0853450298309326,7.379465103149414,8.159524917602539
1711072517593491700,4.22149169921875,2.334198474884033,6.943971157073975,8.6907320022583
1711072517612450600,4.240450439453125,2.528017044067383,5.949753284454346,8.733802795410156
1711072517631409400,4.259409423828125,2.6907291412353516,5.499902725219727,8.228917121887207
1711072517650368000,4.278367919921875,2.641676187515259,5.715256690979004,7.787441253662109
1711072517669326800,4.297326904296875,2.469393014907837,6.020341873168945,7.164111137390137
1711072517688285700,4.31628564453125,2.297109842300415,6.380461692810059,6.474977970123291
1711072517707244300,4.335244384765625,2.2504496574401855,6.464210510253906,6.154339790344238
1711072517726203100,4.354203125,2.4119651317596436,6.339783668518066,6.278766632080078
1711072517745161700,4.37316162109375,2.792423963546753,6.153143405914307,6.988238334655762
1711072517764120600,4.39212060546875,3.3571300506591797,5.850451469421387,7.947760581970215
1711072517783079400,4.411079345703125,3.8356947898864746,5.618347644805908,8.452646255493164
1711072517802038000,4.4300380859375,4.067798614501953,5.163711071014404,8.433503150939941
1711072517820996900,4.448996826171875,4.024727821350098,4.980660438537598,8.10807991027832
1711072517839955500,4.46795556640625,3.8021950721740723,4.923232555389404,8.02074146270752
1711072517858914300,4.486914306640625,3.6849467754364014,4.7988057136535645,7.904689788818359
1711072517877873200,4.505873046875,3.70767879486084,4.503292083740234,7.891529083251953
1711072517896831700,4.524831787109375,3.924229145050049,4.35254430770874,8.182256698608398
1711072517915790600,4.54379052734375,4.311866283416748,4.460221290588379,8.173882484436035
1711072517934749400,4.56274951171875,4.810770034790039,4.996213912963867,7.010970115661621
1711072517953708000,4.5817080078125,4.541577339172363,4.755734920501709,5.889933109283447
1711072517972667000,4.6006669921875,4.43031120300293,4.356133460998535,6.733402729034424
1711072517991625500,4.61962548828125,3.7639100551605225,3.649054527282715,8.365307807922363
1711072518010584300,4.638584228515625,3.1824541091918945,3.1034910678863525,8.803194046020508
1711072518029543200,4.657543212890625,3.5018959045410156,2.719442844390869,9.17886734008789
1711072518048501800,4.676501708984375,4.2281174659729,2.3126630783081055,9.128618240356445
1711072518067460600,4.695460693359375,4.252045631408691,2.032702922821045,8.323433876037598
1711072518086419200,4.714419189453125,3.6741790771484375,2.3748764991760254,7.373483180999756
1711072518105378000,4.7333779296875,3.796213150024414,3.372683525085449,6.778866767883301
1711072518124337000,4.7523369140625,4.118047714233398,3.8249270915985107,7.0025954246521
1711072518143295500,4.77129541015625,4.3752760887146,3.996013879776001,7.195217609405518
1711072518162254300,4.79025439453125,4.78803825378418,4.3178486824035645,7.530212879180908
1711072518181213200,4.809213134765625,5.00578498840332,4.4410786628723145,7.88913631439209
1711072518200171800,4.828171875,4.863411903381348,4.370490550994873,8.203792572021484
1711072518219130600,4.847130615234375,4.689932346343994,4.0797624588012695,8.220541954040527
1711072518238089200,4.866089111328125,4.362115859985352,3.638286828994751,8.0350980758667
1711072518257048000,4.885048095703125,3.926621913909912,3.098705291748047,7.816154956817627
1711072518276007000,4.9040068359375,3.741178274154663,2.906083106994629,7.929814338684082
1711072518294965500,4.922965576171875,3.5030922889709473,3.0723843574523926,8.24566650390625
1711072518313924400,4.94192431640625,3.5330026149749756,3.2135608196258545,8.60459041595459
1711072518332883200,4.96088330078125,3.733999729156494,3.0041887760162354,8.761320114135742
1711072518351841800,4.979841796875,3.840480327606201,2.9898319244384766,8.61894702911377
1711072518370800600,4.998800537109375,3.799802303314209,3.218346357345581,8.451449394226074
1711072518389759200,5.01775927734375,3.7016966342926025,3.25663161277771,8.373682975769043
1711072518408718000,5.036718017578125,3.6466617584228516,3.242274761199951,8.428717613220215
1711072518427677000,5.055677001953125,3.8285162448883057,3.363112211227417,8.71226692199707
1711072518446635500,5.074635498046875,4.009174346923828,3.52103853225708,9.21117115020752
1711072518465594400,5.093594482421875,3.812962770462036,3.5150563716888428,9.31884765625
1711072518484553000,5.112552978515625,3.5928232669830322,3.4025938510894775,9.017352104187012
1711072518503511800,5.13151171875,3.5401811599731445,3.3296127319335938,8.702695846557617
1711072518522470700,5.150470703125,3.387040376663208,3.3535408973693848,8.59621524810791
1711072518541429200,5.16942919921875,3.249453067779541,3.2997024059295654,8.575876235961914
1711072518560388000,5.18838818359375,3.1310083866119385,3.2518460750579834,8.630910873413086
1711072518579347000,5.207346923828125,3.3164522647857666,3.276970624923706,8.80798053741455
1711072518598305500,5.226305419921875,3.449253797531128,3.3714871406555176,8.855836868286133
1711072518617264400,5.245264404296875,3.324826955795288,3.3786656856536865,8.751749038696289
1711072518636223000,5.264222900390625,3.4193434715270996,3.3032915592193604,8.545966148376465
1711072518655181800,5.283181884765625,3.4743785858154297,3.3403804302215576,8.511270523071289
1711072518674140700,5.302140625,3.6155550479888916,3.4648072719573975,8.554341316223145
1711072518693099300,5.321099365234375,3.8117663860321045,3.476771354675293,8.60459041595459
1711072518712058000,5.34005810546875,3.8356947898864746,3.4552359580993652,8.623732566833496
1711072518731016700,5.3590166015625,3.7495529651641846,3.4193434715270996,8.547162055969238
1711072518749975600,5.3779755859375,3.751945972442627,3.31884503364563,8.531609535217285
1711072518768934400,5.396934326171875,3.900300979614258,3.1274192333221436,8.358129501342773
1711072518787893000,5.41589306640625,3.9625144004821777,3.0628130435943604,8.315058708190918
1711072518806851800,5.434851806640625,4.091726779937744,3.1513473987579346,8.249256134033203
1711072518825810700,5.453810791015625,3.9984066486358643,3.297309637069702,8.086544036865234
1711072518844769300,5.472769287109375,3.814159393310547,3.4337005615234375,8.063812255859375
1711072518863728000,5.49172802734375,3.8775691986083984,3.656233072280884,8.158329010009766
1711072518882686700,5.510686767578125,4.013959884643555,3.418147087097168,8.276773452758789
1711072518901645600,5.5296455078125,4.064209461212158,3.370290756225586,8.426324844360352
1711072518920604400,5.5486044921875,3.8799619674682617,3.531806230545044,8.446663856506348
1711072518939563000,5.56756298828125,3.6849467754364014,3.387040376663208,8.079365730285645
1711072518958521900,5.58652197265625,3.7232320308685303,3.19441819190979,7.895118236541748
1711072518977480400,5.60548046875,3.830909013748169,3.181257724761963,8.011170387268066
1711072518996439300,5.624439208984375,3.7088751792907715,3.2626137733459473,8.062616348266602
1711072519015398100,5.643398193359375,3.6957144737243652,3.401397466659546,8.097311973571777
1711072519034356700,5.662356689453125,3.7782669067382812,3.4947173595428467,8.141578674316406
1711072519053315600,5.681315673828125,3.838087558746338,3.600001573562622,8.411968231201172
1711072519072274400,5.7002744140625,3.830909013748169,3.6047873497009277,8.528019905090332
1711072519091233000,5.71923291015625,3.9792640209198,3.5569307804107666,8.498109817504883
1711072519110191900,5.73819189453125,4.1036906242370605,3.4552359580993652,8.58066177368164
1711072519129150500,5.757150390625,4.016352653503418,3.4157543182373047,8.695517539978027
1711072519148109300,5.776109375,3.8608193397521973,3.266202926635742,8.82951545715332
1711072519167068200,5.795068115234375,3.796213150024414,3.1956145763397217,8.896514892578125
1711072519186026800,5.81402685546875,3.8261234760284424,3.221935749053955,8.894122123718262
1711072519204985600,5.832985595703125,3.8021950721740723,3.229114055633545,8.848658561706543
1711072519223944400,5.8519443359375,3.8249270915985107,3.249453067779541,8.6967134475708
1711072519242903000,5.870903076171875,3.978067636489868,3.328416347503662,8.523234367370605
1711072519261862000,5.88986181640625,4.084548473358154,3.5545380115509033,8.606983184814453
1711072519280820500,5.908820556640625,3.786641836166382,3.62153697013855,8.677571296691895
1711072519299779300,5.927779296875,3.431307554244995,3.3128628730773926,8.3629150390625
1711072519318738200,5.94673828125,3.834498405456543,3.3655049800872803,8.036294937133789
1711072519337696800,5.96569677734375,4.521238327026367,3.81655216217041,8.489734649658203
1711072519356655600,5.984655517578125,4.275974273681641,4.205385684967041,9.06401252746582
1711072519375614200,6.0036142578125,3.6083765029907227,4.053441524505615,8.823533058166504
1711072519394573000,6.022572998046875,3.418147087097168,3.651447296142578,8.274380683898926
1711072519413532000,6.041531982421875,3.462414264678955,3.3619158267974854,8.151150703430176
1711072519432490500,6.060490478515625,3.332005500793457,3.314059257507324,8.120043754577637
1711072519451449300,6.079449462890625,3.2829527854919434,3.5234313011169434,7.905886173248291
1711072519470408200,6.098408203125,3.600001573562622,3.6574294567108154,7.905886173248291
1711072519489367000,6.117366943359375,3.759124279022217,3.7986059188842773,7.983652591705322
1711072519508325600,6.13632568359375,3.762713670730591,3.9732820987701416,8.068597793579102
1711072519527284500,6.155284423828125,3.8261234760284424,4.076173305511475,8.279166221618652
1711072519546243000,6.1742431640625,3.864408493041992,4.024727821350098,8.782855987548828
1711072519565202000,6.193201904296875,3.7818562984466553,3.882354736328125,9.10110092163086
1711072519584160800,6.212160888671875,3.6957144737243652,3.8919260501861572,9.256634712219238
1711072519603119600,6.23111962890625,3.4432718753814697,4.05703067779541,9.523433685302734
1711072519622078200,6.250078125,3.434896945953369,4.132404804229736,9.602396965026855
1711072519641037000,6.269037109375,3.7220356464385986,4.2281174659729,9.731609344482422
1711072519659996000,6.287995849609375,3.649054527282715,4.869394302368164,10.98305606842041
1711072519678954500,6.30695458984375,3.449253797531128,5.722435474395752,12.235698699951172
1711072519697913300,6.325913330078125,4.096512317657471,5.68893575668335,12.455838203430176
1711072519716872200,6.3448720703125,4.680361270904541,5.648257732391357,12.294322967529297
1711072519735830800,6.363830810546875,3.1968109607696533,5.983253002166748,11.507083892822266
1711072519754789600,6.38278955078125,2.544766902923584,6.063412666320801,10.660024642944336
1711072519773748500,6.40174853515625,2.2229323387145996,5.998806476593018,10.595418930053711
1711072519792707300,6.420707275390625,1.9716858863830566,6.0263237953186035,10.205389022827148
1711072519811666000,6.439666015625,1.6163517236709595,6.1399827003479,9.787840843200684
1711072519830624800,6.458624755859375,1.3651052713394165,5.578866004943848,9.09990406036377
1711072519849583600,6.47758349609375,1.92741858959198,4.636094093322754,7.730013370513916
1711072519868542500,6.49654248046875,1.5170495510101318,4.48414945602417,6.866204738616943
1711072519887501000,6.5155009765625,1.5445669889450073,5.507081508636475,6.866204738616943
1711072519906460000,6.5344599609375,1.4979069232940674,6.763313293457031,7.874779224395752
1711072519925418800,6.553418701171875,2.0135602951049805,6.186643123626709,7.637889862060547
1711072519944377300,6.57237744140625,1.919043779373169,5.665007591247559,7.0683979988098145
1711072519963336200,6.591336181640625,1.420140266418457,6.001199245452881,6.346961975097656
1711072519982295000,6.610294921875,0.9128618240356445,6.488138675689697,6.075376510620117
1711072520001254000,6.62925390625,1.2789636850357056,6.607779502868652,6.241677761077881
1711072520020212500,6.64821240234375,2.0063817501068115,6.468996047973633,6.422336101531982
1711072520039171300,6.66717138671875,1.9956140518188477,6.465406894683838,6.454638957977295
1711072520058130200,6.686130126953125,1.6366907358169556,6.430710792541504,6.087340831756592
1711072520077089000,6.705089111328125,1.3722838163375854,6.918846607208252,5.9306111335754395
1711072520096047900,6.7240478515625,1.3639088869094849,7.1988067626953125,5.820540904998779
1711072520115006500,6.74300634765625,1.5984054803848267,7.194021224975586,5.5345988273620605
1711072520133965300,6.76196533203125,1.6474584341049194,6.911668300628662,5.3108696937561035
1711072520152924200,6.780924072265625,1.7084753513336182,6.805187702178955,5.08355188369751
1711072520171883000,6.799883056640625,1.8843477964401245,6.6915283203125,4.682754039764404
1711072520190841600,6.818841552734375,1.970489501953125,6.942774772644043,3.9385859966278076
1711072520209800400,6.837800537109375,1.750349760055542,6.7178497314453125,3.1800613403320312
1711072520228759300,6.85675927734375,1.872383713722229,6.714260101318359,2.7601208686828613
1711072520247718100,6.87571826171875,2.366501569747925,6.970292568206787,2.7972097396850586
1711072520266677000,6.894677001953125,2.2636101245880127,6.784848690032959,2.7732813358306885
1711072520285635600,6.913635498046875,2.1272194385528564,6.685546398162842,2.6572296619415283
1711072520304594400,6.932594482421875,2.2097716331481934,6.63051176071167,2.647658348083496
1711072520323553300,6.95155322265625,2.1367905139923096,6.964310169219971,2.6799614429473877
1711072520342512000,6.97051220703125,1.683350682258606,7.445267677307129,3.452843189239502
1711072520361471000,6.989470947265625,2.7014968395233154,8.671588897705078,5.0225348472595215
1711072520380429800,7.008429931640625,4.023531436920166,9.765109062194824,6.251249313354492
1711072520399388700,7.027388671875,3.8285162448883057,9.896714210510254,6.369693756103516
1711072520418347300,7.04634716796875,3.7148571014404297,9.595218658447266,6.161518096923828
1711072520437306000,7.06530615234375,3.5473594665527344,9.183652877807617,6.111268997192383
1711072520456265000,7.084264892578125,3.25663161277771,8.26121997833252,6.7657060623168945
1711072520475223800,7.103223876953125,3.080759048461914,6.522834300994873,7.386643409729004
1711072520494182700,7.1221826171875,3.087937593460083,5.901896953582764,6.378068923950195
1711072520513141500,7.1411416015625,2.4574289321899414,5.708078384399414,5.182853698730469
1711072520532100400,7.160100341796875,3.122633457183838,6.025127410888672,3.9433717727661133
1711072520551059000,7.179058837890625,2.3605196475982666,4.947160720825195,2.7601208686828613
1711072520570017800,7.198017822265625,1.129412293434143,4.206582069396973,4.225724697113037
1711072520588976600,7.2169765625,1.0325030088424683,4.902893543243408,6.905686378479004
1711072520607935500,7.235935546875,1.7072789669036865,5.976074695587158,8.898907661437988
1711072520626894300,7.254894287109375,2.7661030292510986,6.908079147338867,10.261619567871094
1711072520645853200,7.273853271484375,4.1659040451049805,6.929614543914795,11.050054550170898
1711072520664812000,7.29281201171875,4.7401814460754395,6.597012042999268,10.985448837280273
1711072520683771000,7.31177099609375,4.808377265930176,6.299105644226074,10.99860954284668
1711072520702729700,7.330729736328125,4.205385684967041,6.3122663497924805,10.709077835083008
1711072520721688600,7.3496884765625,3.324826955795288,6.477370738983154,10.329814910888672
1711072520740647400,7.3686474609375,2.6213371753692627,5.674578666687012,9.198010444641113
1711072520759606000,7.38760595703125,2.1571295261383057,4.587040901184082,8.47178840637207
1711072520778564900,7.40656494140625,1.5601203441619873,4.150351047515869,8.187042236328125
1711072520797523700,7.425523681640625,1.4225330352783203,4.252045631408691,8.23130989074707
1711072520816482600,7.444482666015625,1.8711873292922974,3.5880374908447266,7.980063438415527
1711072520835441400,7.46344140625,1.9812572002410889,2.441875457763672,8.017151832580566
1711072520854400300,7.482400146484375,2.550748825073242,1.5672988891601562,8.075776100158691
1711072520873359000,7.501359130859375,2.806781053543091,1.0289137363433838,8.024331092834473
1711072520892318000,7.52031787109375,3.046063184738159,0.745364248752594,8.286344528198242
1711072520911276800,7.53927685546875,3.300898790359497,0.2189432680606842,8.608179092407227
1711072520930235600,7.558235595703125,2.884547710418701,-0.26560330390930176,7.954938888549805
1711072520949194500,7.577194580078125,2.6943182945251465,-0.6005984544754028,7.523034572601318
1711072520968153300,7.5961533203125,3.071187973022461,-0.09690931439399719,7.0061845779418945
1711072520987112200,7.6151123046875,3.095116138458252,0.064606212079525,6.3529438972473145
1711072521006071000,7.634071044921875,2.8594231605529785,-0.41874396800994873,6.715456962585449
1711072521025030000,7.65302978515625,3.1310083866119385,-0.29312077164649963,8.776873588562012
1711072521043988700,7.67198876953125,2.9862427711486816,-0.32662028074264526,10.628918647766113
1711072521062947600,7.690947509765625,2.792423963546753,-0.9786644577980042,10.984251976013184
1711072521081906400,7.709906494140625,2.985046148300171,-1.6019947528839111,11.520244598388672
1711072521100865300,7.728865234375,2.89890456199646,-1.770688772201538,11.399407386779785
1711072521119824100,7.74782421875,2.7050859928131104,-2.1236300468444824,10.427921295166016
1711072521138783000,7.766782958984375,1.817348837852478,-2.2504496574401855,8.670392990112305
1711072521157741800,7.785741943359375,0.4043870270252228,-2.2265214920043945,7.372286796569824
1711072521176700700,7.80470068359375,0.05144568532705307,-2.5495524406433105,6.49770975112915
1711072521195659500,7.823659423828125,1.0205388069152832,-2.169093608856201,6.33499813079834
1711072521214618400,7.842618408203125,2.4538395404815674,-1.4859428405761719,7.995616912841797
1711072521233577500,7.861577392578125,3.7734813690185547,-1.0001999139785767,10.827522277832031
1711072521252536300,7.880536376953125,4.11206579208374,-1.2562319040298462,12.470194816589355
1711072521271495200,7.8994951171875,3.920639991760254,-1.6785650253295898,12.401999473571777
1711072521290454000,7.9184541015625,3.267399311065674,-1.6271194219589233,10.934002876281738
1711072521309412900,7.937412841796875,2.352144718170166,-1.7754744291305542,8.83669376373291
1711072521328371700,7.956371826171875,1.7228323221206665,-1.8005990982055664,7.509873867034912
1711072521347330600,7.97533056640625,1.7599210739135742,-1.7886348962783813,7.9250288009643555
1711072521366289400,7.994289306640625,2.423929452896118,-1.7982062101364136,8.9850492477417
1711072521385248300,8.013248291015625,2.8223342895507812,-2.3569302558898926,9.774680137634277
1711072521404207000,8.03220703125,2.4741785526275635,-3.0209386348724365,10.163514137268066
1711072521423166000,8.051166015625,1.6175481081008911,-2.7397818565368652,10.067801475524902
1711072521442124800,8.070124755859375,1.9046868085861206,-2.489732027053833,9.828518867492676
1711072521461084000,8.089083984375,2.799602508544922,-2.6967110633850098,10.494919776916504
1711072521480042800,8.108042724609374,1.9800606966018677,-2.915654420852661,11.294122695922852
1711072521499001600,8.127001708984375,0.9020941257476807,-2.8115665912628174,9.659825325012207
1711072521517960400,8.14596044921875,1.399801254272461,-2.7290141582489014,6.2105712890625
1711072521536919300,8.164919189453125,2.2205393314361572,-2.297109842300415,6.244070529937744
1711072521555878100,8.183878173828125,2.857030153274536,-2.1236300468444824,8.828319549560547
1711072521574837000,8.2028369140625,3.4133615493774414,-1.97407865524292,10.469795227050781
1711072521593796000,8.221796142578125,2.9802606105804443,-1.8891334533691406,10.8430757522583
1711072521612755000,8.2407548828125,2.555534601211548,-2.0709879398345947,10.185050010681152
1711072521631713800,8.2597138671875,2.148754835128784,-2.148754835128784,8.804390907287598
1711072521650672600,8.278672607421875,2.045863389968872,-1.903490424156189,8.382058143615723
1711072521669631500,8.297631591796875,2.0518453121185303,-1.7060825824737549,8.551948547363281
1711072521688590600,8.316590576171874,2.3820550441741943,-1.7407784461975098,8.817551612854004
1711072521707549400,8.335549560546875,2.9276185035705566,-1.7395820617675781,9.241081237792969
1711072521726508300,8.35450830078125,3.029313564300537,-1.8735800981521606,9.860821723937988
1711072521745467100,8.373467041015624,2.9072794914245605,-1.679761528968811,9.942177772521973
1711072521764426000,8.392426025390625,2.616551637649536,-1.7850457429885864,10.262816429138184
1711072521783384800,8.411384765625,2.2097716331481934,-2.084148406982422,11.112268447875977
1711072521802343700,8.43034375,3.4983067512512207,-1.9609181880950928,11.175678253173828
1711072521821302800,8.449302734375,3.7734813690185547,-1.0719845294952393,10.217352867126465
1711072521840261600,8.46826171875,3.1274192333221436,-0.5623133182525635,9.394221305847168
1711072521859220500,8.487220458984375,2.255235433578491,-0.8949156403541565,8.532805442810059
1711072521878179300,8.506179443359375,2.8797619342803955,-1.415354609489441,8.702695846557617
1711072521897138400,8.525138427734374,3.8021950721740723,-1.664208173751831,9.810572624206543
1711072521916097300,8.54409716796875,3.8703906536102295,-1.92741858959198,10.14437198638916
1711072521935056100,8.56305615234375,3.2446675300598145,-1.9980069398880005,9.615557670593262
1711072521954015200,8.58201513671875,2.455035924911499,-2.3306093215942383,8.964710235595703
1711072521972974000,8.60097412109375,2.421536445617676,-2.4406790733337402,8.70628547668457
1711072521991933000,8.619932861328126,2.4406790733337402,-2.3330020904541016,8.96231746673584
1711072522010892000,8.63889208984375,2.3772692680358887,-2.379662036895752,9.176474571228027
1711072522029851000,8.657850830078125,2.256431818008423,-2.5639095306396484,8.963513374328613
1711072522048809700,8.676809814453126,1.9992033243179321,-2.4287149906158447,8.234899520874023
1711072522067768600,8.6957685546875,2.234896421432495,-2.059023857116699,8.055437088012695
1711072522086727700,8.714727783203125,2.9288148880004883,-2.038684844970703,8.657232284545898
1711072522105686500,8.7336865234375,3.3607194423675537,-1.8544375896453857,9.462417602539062
1711072522124645400,8.752645263671875,3.3786656856536865,-1.4620146751403809,9.80219841003418
1711072522143604200,8.771604248046875,3.3104701042175293,-0.9918249845504761,10.01156997680664
1711072522162563300,8.790563232421874,3.675375461578369,-1.0564311742782593,10.214960098266602
1711072522181522200,8.809522216796875,3.937389612197876,-1.9836499691009521,9.844072341918945
1711072522200481000,8.82848095703125,3.326023578643799,-2.537588357925415,9.723235130310059
1711072522219440000,8.847440185546875,2.1571295261383057,-2.8833513259887695,10.113265037536621
1711072522238399000,8.86639892578125,1.5589239597320557,-3.0831520557403564,10.139585494995117
1711072522257358000,8.885358154296876,1.7682958841323853,-2.530410051345825,9.416953086853027
1711072522276317000,8.90431689453125,2.3150558471679688,-2.1343977451324463,8.423932075500488
1711072522295275800,8.92327587890625,2.029113531112671,-2.495713949203491,7.8795647621154785
1711072522314234600,8.942234619140624,1.5960127115249634,-2.7672994136810303,7.908278942108154
1711072522333193700,8.96119384765625,1.0444670915603638,-3.1274192333221436,8.094919204711914
1711072522352152600,8.980152587890625,0.22133609652519226,-3.817748546600342,8.39282512664795
1711072522371111400,8.999111328125,0.4043870270252228,-3.3750762939453125,9.166903495788574
1711072522390070500,9.018070556640625,1.7527425289154053,-2.091326951980591,9.548559188842773
1711072522409029400,9.037029296875,2.551945447921753,-1.4787644147872925,9.881160736083984
1711072522427988500,9.055988525390624,1.9764715433120728,-1.5541383028030396,10.363314628601074
1711072522446947300,9.074947265625,2.2265214920043945,-1.648654818534851,10.198209762573242
1711072522465906200,9.09390625,2.6739792823791504,-1.3507484197616577,9.957731246948242
1711072522484865300,9.112865234375,2.988635540008545,-0.882951557636261,9.77826976776123
1711072522503824100,9.13182421875,2.7182464599609375,-0.865005373954773,9.621540069580078
1711072522522783000,9.150782958984376,2.6356940269470215,-1.3004990816116333,9.470791816711426
1711072522541742000,9.1697421875,2.2504496574401855,-1.176072359085083,9.424132347106934
1711072522560701000,9.188700927734375,2.0027925968170166,-0.7824530005455017,9.870393753051758
1711072522579660000,9.207659912109374,1.8137595653533936,-0.9858429431915283,10.185050010681152
1711072522598619000,9.226618896484375,1.8951154947280884,-1.2849457263946533,10.1216402053833
1711072522617578000,9.245577880859376,1.8939191102981567,-1.3256237506866455,9.80817985534668
1711072522636536800,9.264536865234374,1.8508483171463013,-1.420140266418457,9.42054271697998
1711072522655495700,9.28349560546875,1.6977076530456543,-1.5002998113632202,9.43609619140625
1711072522674454800,9.302454833984376,1.6295121908187866,-1.4979069232940674,9.759127616882324
1711072522693413600,9.32141357421875,1.7730815410614014,-1.4895321130752563,9.970891952514648
1711072522712372500,9.34037255859375,1.781456470489502,-1.5565310716629028,9.900303840637207
1711072522731331600,9.35933154296875,1.557727575302124,-1.7180466651916504,9.363115310668945
1711072522750290400,9.37829052734375,1.2741780281066895,-1.7288143634796143,8.930013656616211
1711072522769249500,9.39724951171875,1.1282159090042114,-1.6498512029647827,8.891729354858398
1711072522788208400,9.41620849609375,1.1066805124282837,-1.5397813320159912,9.053244590759277
1711072522807167200,9.435167236328125,1.074377417564392,-1.3603196144104004,9.148957252502441
1711072522826126300,9.454126220703126,1.168893814086914,-1.2681959867477417,9.278169631958008
1711072522845085200,9.473085205078124,1.124626636505127,-1.2263215780258179,9.91107177734375
1711072522864044300,9.492044189453125,1.1820544004440308,-1.1150553226470947,10.676774978637695
1711072522883003100,9.511003173828126,1.31365966796875,-0.7657032608985901,11.112268447875977
1711072522901962200,9.529962158203125,1.688136339187622,-0.4666004180908203,11.112268447875977
1711072522920921000,9.548921142578125,1.994417667388916,-0.5814558863639832,10.77129077911377
1711072522939880000,9.5678798828125,1.7001005411148071,-0.6687939167022705,10.429117202758789
1711072522958839000,9.586839111328125,1.1174482107162476,-0.6472585201263428,10.04985523223877
1711072522977798000,9.6057978515625,0.8087740540504456,-0.794417142868042,9.445667266845703
1711072522996757000,9.624757080078124,0.9403793215751648,-1.0169496536254883,8.9312105178833
1711072523015715800,9.6437158203125,0.8901300430297852,-1.2406785488128662,9.026923179626465
1711072523034675000,9.662675048828126,0.7250252366065979,-1.4691931009292603,9.388239860534668
1711072523053633800,9.6816337890625,0.7417750358581543,-1.3244273662567139,9.56770133972168
1711072523072592600,9.700592529296875,0.9547362327575684,-0.9499505758285522,9.667003631591797
1711072523091551700,9.7195517578125,1.046859860420227,-0.8243274092674255,9.803394317626953
1711072523110510600,9.738510498046875,1.1820544004440308,-0.7405785918235779,9.779465675354004
1711072523129469700,9.7574697265625,1.7072789669036865,-0.9224331378936768,9.891928672790527
1711072523148428500,9.776428466796874,1.7060825824737549,-1.062413215637207,9.745966911315918
1711072523167387600,9.7953876953125,1.5182459354400635,-1.0396814346313477,9.54377269744873
1711072523186346500,9.814346435546875,1.4213366508483887,-1.0875378847122192,9.621540069580078
1711072523205305300,9.833305419921874,1.2586246728897095,-1.0971091985702515,9.725627899169922
1711072523224264400,9.852264404296875,1.1353943347930908,-1.058824062347412,9.91705322265625
1711072523243223300,9.871223388671876,1.2335001230239868,-1.207179069519043,10.113265037536621
1711072523262182100,9.89018212890625,1.1318050622940063,-1.31365966796875,10.192228317260742
1711072523281141200,9.909141357421875,1.0671988725662231,-1.171286702156067,10.214960098266602
1711072523300100000,9.92810009765625,1.2251251935958862,-0.9643075466156006,10.229316711425781
1711072523319059200,9.94705908203125,1.3112667798995972,-0.8087740540504456,10.02712345123291
1711072523338018000,9.96601806640625,1.2263215780258179,-0.747757077217102,9.899106979370117
1711072523356977200,9.98497705078125,1.2179467678070068,-0.6747759580612183,9.908679008483887
1711072523375936000,10.00393603515625,1.2394821643829346,-0.6460621356964111,9.914660453796387
1711072523394894800,10.022894775390625,1.191625714302063,-0.6532405614852905,9.885947227478027
1711072523413854000,10.04185400390625,1.168893814086914,-0.5491527915000916,9.857233047485352
1711072523432812800,10.060812744140625,1.222732424736023,-0.4091726839542389,9.900303840637207
1711072523451772000,10.07977197265625,1.2454642057418823,-0.2919243574142456,9.962516784667969
1711072523470730800,10.098730712890625,1.2801600694656372,-0.3852444589138031,10.068997383117676
1711072523489689900,10.11768994140625,1.4620146751403809,-0.6807580590248108,10.007980346679688
1711072523508648700,10.136648681640626,1.5720844268798828,-0.8841479420661926,9.78544807434082
1711072523527607600,10.155607666015625,1.5852450132369995,-1.038485050201416,9.479166984558105
1711072523546566700,10.174566650390625,1.4775680303573608,-1.074377417564392,9.290133476257324
1711072523565525500,10.193525390625,1.4476577043533325,-1.0133603811264038,9.278169631958008
1711072523584484600,10.212484619140625,1.444068431854248,-0.914058268070221,9.400203704833984
1711072523603443500,10.231443359375,1.557727575302124,-0.8566305041313171,9.524630546569824
1711072523622402300,10.25040234375,1.6342978477478027,-0.7585247755050659,9.659825325012207
1711072523641361400,10.269361328125,1.7240287065505981,-0.6771687865257263,9.79262638092041
1711072523660320300,10.2883203125,1.7994025945663452,-0.6364908218383789,9.840482711791992
1711072523679279000,10.307279052734375,1.7395820617675781,-0.576670229434967,9.8871431350708
1711072523698238200,10.32623828125,1.8424733877182007,-0.5730810165405273,9.818947792053223
1711072523717197000,10.345197021484376,1.95852530002594,-0.6317051649093628,9.650253295898438
1711072523736156200,10.36415625,1.8783657550811768,-0.6424728631973267,9.585647583007812
1711072523755115000,10.383114990234375,1.8843477964401245,-0.5958128571510315,9.635896682739258
1711072523774074000,10.40207421875,1.8041882514953613,-0.5084748268127441,9.78664493560791
1711072523793033000,10.421032958984375,1.7778671979904175,-0.4737788736820221,9.818947792053223
1711072523811991800,10.43999169921875,1.797009825706482,-0.5240281820297241,9.754341125488281
1711072523830950700,10.45895068359375,1.7718851566314697,-0.607776939868927,9.680164337158203
1711072523849909800,10.47790966796875,1.657029628753662,-0.5587241053581238,9.730413436889648
1711072523868868600,10.49686865234375,1.6295121908187866,-0.5647061467170715,9.938589096069336
1711072523887827700,10.51582763671875,1.5984054803848267,-0.6317051649093628,10.05823040008545
1711072523906786600,10.53478662109375,1.6857435703277588,-0.7932206988334656,9.994820594787598
1711072523925745700,10.55374560546875,1.6558332443237305,-0.8207381963729858,9.912267684936523
1711072523944704500,10.57270458984375,1.6307085752487183,-0.778863787651062,9.81535816192627
1711072523963663600,10.59166357421875,1.6534404754638672,-0.7896314859390259,9.747162818908691
1711072523982622500,10.61062255859375,1.7336000204086304,-0.8063812255859375,9.783055305480957
1711072524001581300,10.629581298828125,1.8831514120101929,-0.7597211599349976,9.889535903930664
1711072524020540200,10.6485400390625,1.94297194480896,-0.6293123364448547,10.013962745666504
1711072524039499300,10.667499267578124,1.9669002294540405,-0.6245267391204834,10.095318794250488
1711072524058458000,10.6864580078125,2.0554347038269043,-0.6269195079803467,10.097711563110352
1711072524077417200,10.705417236328126,2.172683000564575,-0.6963114142417908,9.938589096069336
1711072524096376000,10.7243759765625,2.166700839996338,-0.7992027401924133,9.670592308044434
1711072524115335000,10.7433349609375,2.043470621109009,-0.794417142868042,9.53659439086914
1711072524134294000,10.7622939453125,2.1128623485565186,-0.7621139883995056,9.45763111114502
1711072524153252900,10.7812529296875,2.100898265838623,-0.7800601720809937,9.651450157165527
1711072524172211700,10.800211669921875,2.080559253692627,-0.9200403094291687,10.16590690612793
1711072524191170800,10.8191708984375,2.283949136734009,-0.714257538318634,10.496116638183594
1711072524210129700,10.838129638671875,2.4646072387695312,-0.37088751792907715,10.078569412231445
1711072524229088500,10.857088623046875,2.421536445617676,-0.2799602448940277,9.54496955871582
1711072524248047600,10.876047607421874,2.1343977451324463,-0.3529413342475891,9.233902931213379
1711072524267006500,10.89500634765625,2.03629207611084,-0.6340979933738708,8.97787094116211
1711072524285965600,10.913965576171876,2.17627215385437,-0.7704889178276062,9.04845905303955
1711072524304924400,10.93292431640625,2.307877540588379,-0.867398202419281,9.358329772949219
1711072524323883300,10.95188330078125,2.3473589420318604,-0.9643075466156006,9.596415519714355
1711072524342842400,10.97084228515625,2.304288148880005,-0.9810572862625122,9.66221809387207
1711072524361801200,10.98980126953125,2.4047868251800537,-1.140179991722107,9.615557670593262
1711072524380760000,11.008760009765625,2.5674986839294434,-1.3351950645446777,9.565308570861816
1711072524399719000,11.027718994140624,2.796013355255127,-1.4572290182113647,9.487542152404785
1711072524418678000,11.046677978515625,2.974278450012207,-1.5314065217971802,9.473184585571289
1711072524437636900,11.065636962890625,2.9515466690063477,-1.5254244804382324,9.399007797241211
1711072524456595700,11.084595703125,2.7732813358306885,-1.5230315923690796,9.354740142822266
1711072524475554800,11.103554931640625,2.7768707275390625,-1.612762451171875,9.17886734008789
1711072524494513700,11.122513671875,3.047259569168091,-1.6342978477478027,8.868997573852539
1711072524513472800,11.14147265625,3.0388846397399902,-1.612762451171875,8.774480819702148
1711072524532431600,11.160431640625,2.9012975692749023,-1.552941918373108,8.868997573852539
1711072524551390500,11.179390380859376,2.8354947566986084,-1.6067804098129272,8.951549530029297
1711072524570349300,11.198349365234375,2.717050075531006,-1.6666009426116943,9.005388259887695
1711072524589308400,11.217308349609375,2.5878376960754395,-1.765903115272522,9.145368576049805
1711072524608267300,11.236267333984374,2.495713949203491,-1.832902193069458,9.316454887390137
1711072524627226000,11.25522607421875,2.489732027053833,-1.7623138427734375,9.302098274230957
1711072524646185200,11.274185302734375,2.5292134284973145,-1.789831280708313,9.268598556518555
1711072524665144000,11.29314404296875,2.6560330390930176,-1.719243049621582,9.060422897338867
1711072524684103000,11.31210302734375,2.6596224308013916,-1.5996019840240479,8.959924697875977
1711072524703062000,11.33106201171875,2.5363919734954834,-1.5361921787261963,8.904889106750488
1711072524722020900,11.350020751953124,2.3198416233062744,-1.373480200767517,9.066405296325684
1711072524740979700,11.368979736328125,2.179861545562744,-1.2047861814498901,9.523433685302734
1711072524759938800,11.387938720703126,2.307877540588379,-1.00259268283844,10.17428207397461
1711072524778897700,11.406897705078125,2.4131617546081543,-0.833898663520813,10.681560516357422
1711072524797856500,11.4258564453125,2.495713949203491,-0.672383189201355,10.660024642944336
1711072524816815400,11.4448154296875,2.420340061187744,-0.4953143000602722,10.315458297729492
1711072524835774200,11.463774169921875,2.36291241645813,-0.44027936458587646,9.728020668029785
1711072524854733300,11.4827333984375,2.383251428604126,-0.37447673082351685,9.281759262084961
1711072524873692200,11.501692138671874,2.311466693878174,-0.2548356056213379,9.107083320617676
1711072524892651000,11.520651123046875,2.4610180854797363,-0.19980068504810333,9.176474571228027
1711072524911610000,11.539610107421876,2.8414769172668457,-0.2715853750705719,9.302098274230957
1711072524930569000,11.55856884765625,3.019742250442505,-0.4414757788181305,9.43489933013916
1711072524949527800,11.57752783203125,3.0065815448760986,-0.6544370055198669,9.556933403015137
1711072524968487000,11.59648681640625,2.915654420852661,-0.7812566161155701,9.572486877441406
1711072524987445800,11.61544580078125,2.778067111968994,-0.836291491985321,9.627521514892578
1711072525006404600,11.634404541015625,2.6835505962371826,-0.916451096534729,9.728020668029785
1711072525025363700,11.65336376953125,2.768495798110962,-1.057627558708191,9.737591743469238
1711072525044322600,11.672322509765625,2.779263496398926,-1.1353943347930908,9.632308006286621
1711072525063281400,11.691281494140625,2.6524438858032227,-1.1473584175109863,9.55214786529541
1711072525082240300,11.710240234375,2.620140790939331,-1.1736794710159302,9.4061861038208
1711072525101199000,11.72919921875,2.6368906497955322,-1.1198409795761108,9.282955169677734
1711072525120158200,11.748158203125,2.60339093208313,-1.0289137363433838,9.370293617248535
1711072525139117000,11.767116943359374,2.5076780319213867,-0.9726824164390564,9.474381446838379
1711072525158076000,11.786075927734375,2.517249345779419,-0.9978070259094238,9.518648147583008
1711072525177034800,11.80503466796875,2.56510591506958,-1.0145567655563354,9.462417602539062
1711072525195993900,11.823993896484374,2.5531418323516846,-1.0133603811264038,9.483952522277832
1711072525214952700,11.84295263671875,2.5076780319213867,-0.9882357716560364,9.546165466308594
1711072525233911600,11.86191162109375,2.5160529613494873,-0.9726824164390564,9.562915802001953
1711072525252870400,11.880870361328125,2.5112674236297607,-0.9631111025810242,9.506684303283691
1711072525271829500,11.89982958984375,2.480160713195801,-0.9343972206115723,9.506684303283691
1711072525290788400,11.918788330078126,2.475374937057495,-0.9475577473640442,9.54377269744873
1711072525309747200,11.937747314453125,2.4837498664855957,-0.9523434042930603,9.608379364013672
1711072525328706300,11.956706298828125,2.4705893993377686,-0.9439685344696045,9.670592308044434
1711072525347665200,11.9756650390625,2.495713949203491,-0.914058268070221,9.682557106018066
1711072525366624000,11.9946240234375,2.550748825073242,-0.9128618240356445,9.686145782470703
1711072525385582800,12.013582763671875,2.5567309856414795,-0.9320043921470642,9.65384292602539
1711072525404542000,12.0325419921875,2.5052852630615234,-0.885344386100769,9.619147300720215
1711072525423500800,12.051500732421875,2.489732027053833,-0.9176474809646606,9.634700775146484
1711072525442459600,12.070459716796876,2.5495524406433105,-0.9583254456520081,9.658628463745117
1711072525461418500,12.08941845703125,2.5184457302093506,-0.9212366938591003,9.695717811584473
1711072525480377300,12.10837744140625,2.4646072387695312,-0.8374879360198975,9.705288887023926
1711072525499336200,12.127336181640626,2.4526431560516357,-0.9104689955711365,9.680164337158203
1711072525518295300,12.14629541015625,2.455035924911499,-0.9882357716560364,9.565308570861816
1711072525537254100,12.165254150390625,2.4837498664855957,-1.0037890672683716,9.56052303314209
1711072525556213000,12.184212890625,2.482553482055664,-0.9846464991569519,9.602396965026855
1711072525575171800,12.203171875,2.5112674236297607,-0.9475577473640442,9.601201057434082
1711072525594130700,12.222130615234375,2.4993033409118652,-0.9391828775405884,9.638289451599121
1711072525613089800,12.24108984375,2.4705893993377686,-0.9415757060050964,9.718449592590332
1711072525632048600,12.260048583984375,2.5088746547698975,-0.9308080077171326,9.783055305480957
1711072525651007500,12.279007568359376,2.5495524406433105,-0.8961120843887329,9.835697174072266
1711072525669966300,12.29796630859375,2.554338216781616,-0.8889335989952087,9.857233047485352
1711072525688925200,12.31692529296875,2.6273193359375,-0.9690931439399719,9.723235130310059
1711072525707884300,12.33588427734375,2.6428725719451904,-0.9535398483276367,9.461220741271973
1711072525726843100,12.354843017578125,2.5603201389312744,-0.8267202377319336,9.336793899536133
1711072525745802000,12.373802001953125,2.5986053943634033,-0.7190431952476501,9.236295700073242
1711072525764760800,12.3927607421875,2.7529425621032715,-0.6496513485908508,9.273384094238281
1711072525783720000,12.411719970703125,2.8737800121307373,-0.7070791125297546,9.370293617248535
1711072525802678800,12.4306787109375,2.926422119140625,-0.6807580590248108,9.431310653686523
1711072525821637600,12.4496376953125,2.8522446155548096,-0.6687939167022705,9.509077072143555
1711072525840596500,12.468596435546875,2.847458839416504,-0.6795616149902344,9.492327690124512
1711072525859555300,12.487555419921875,2.8498518466949463,-0.7034898400306702,9.456435203552246
1711072525878514200,12.50651416015625,2.8414769172668457,-0.7800601720809937,9.519845008850098
1711072525897473300,12.525473388671875,2.89172625541687,-0.865005373954773,9.498309135437012
1711072525916432100,12.54443212890625,2.8498518466949463,-0.9559326171875,9.414560317993164
1711072525935391000,12.563390869140624,2.8450660705566406,-1.0145567655563354,9.369096755981445
1711072525954349800,12.582349853515625,2.799602508544922,-1.0612168312072754,9.369096755981445
1711072525973308700,12.60130859375,2.7732813358306885,-1.0959128141403198,9.376275062561035
1711072525992267800,12.620267822265625,2.7768707275390625,-1.1126625537872314,9.355937004089355
1711072526011226600,12.6392265625,2.740978240966797,-1.0947163105010986,9.353543281555176
1711072526030185500,12.658185546875,2.750549554824829,-1.0863415002822876,9.391828536987305
1711072526049144300,12.677144287109375,2.688336133956909,-1.077966570854187,9.438488960266113
1711072526068103200,12.696103271484375,2.664407968521118,-1.0707881450653076,9.456435203552246
1711072526087062000,12.71506201171875,2.7349963188171387,-1.1018948554992676,9.442078590393066
1711072526106020900,12.734020751953125,2.737389087677002,-1.089930772781372,9.492327690124512
1711072526124980000,12.75297998046875,2.7661030292510986,-1.196411371231079,9.433703422546387
1711072526143938800,12.771938720703124,2.827120065689087,-1.2550355195999146,9.30329418182373
1711072526162897700,12.790897705078125,2.7768707275390625,-1.2191431522369385,9.207581520080566
1711072526181856500,12.8098564453125,2.7361927032470703,-1.2131611108779907,9.236295700073242
1711072526200815400,12.8288154296875,2.8522446155548096,-1.222732424736023,9.349954605102539
1711072526219774200,12.847774169921875,2.812762975692749,-1.1258230209350586,9.42772102355957
1711072526238733000,12.866733154296876,2.6452653408050537,-0.9810572862625122,9.610772132873535
1711072526257692200,12.885692138671875,2.486142635345459,-1.0372886657714844,9.829715728759766
1711072526276651000,12.904651123046875,2.4526431560516357,-0.9690931439399719,9.605986595153809
1711072526295609900,12.92360986328125,2.4705893993377686,-0.6173482537269592,9.127422332763672
1711072526314568700,12.942568603515625,2.3784656524658203,-0.4295116662979126,9.023334503173828
1711072526333527600,12.961527587890625,2.495713949203491,-0.30628129839897156,9.278169631958008
1711072526352486400,12.980486328125,2.885744094848633,-0.27756741642951965,9.531808853149414
1711072526371445200,12.9994453125,3.019742250442505,-0.33499518036842346,9.80817985534668
1711072526390404000,13.018404052734375,2.8905298709869385,-0.2105683982372284,10.200602531433105
1711072526409363200,13.03736328125,3.1142587661743164,-0.02751746028661728,10.459028244018555
1711072526428322000,13.056322021484375,3.4432718753814697,-0.31824541091918945,10.403992652893066
1711072526447281000,13.075281005859376,3.5988051891326904,-0.7585247755050659,10.161121368408203
1711072526466239700,13.09423974609375,3.5126636028289795,-1.0085747241973877,9.810572624206543
1711072526485198600,13.113198486328125,3.3200414180755615,-1.29810631275177,9.312865257263184
1711072526504157400,13.132157470703126,2.9001009464263916,-1.6354942321777344,8.949156761169434
1711072526523116300,13.1511162109375,2.526820659637451,-1.7324036359786987,8.82114028930664
1711072526542075100,13.1700751953125,2.2983062267303467,-1.7742780447006226,8.898907661437988
1711072526561034000,13.189033935546876,2.344966173171997,-1.8939191102981567,9.001798629760742
1711072526579993000,13.2079931640625,2.6368906497955322,-2.062613010406494,9.043673515319824
1711072526598952000,13.226951904296875,2.86061954498291,-2.115255117416382,8.877371788024902
1711072526617910800,13.245910888671874,2.702693223953247,-1.9800606966018677,8.827122688293457
1711072526636869600,13.26486962890625,2.5256242752075195,-1.683350682258606,8.988637924194336
1711072526655828500,13.283828369140625,2.748156785964966,-1.6247265338897705,9.036494255065918
1711072526674787300,13.302787353515624,2.940778970718384,-1.5098711252212524,9.090332984924316
1711072526693746200,13.32174609375,2.9252257347106934,-1.3435698747634888,9.169296264648438
1711072526712705000,13.340705078125,2.8103702068328857,-1.2263215780258179,9.332008361816406
1711072526731664000,13.359663818359374,2.730210542678833,-1.1748759746551514,9.44447135925293
1711072526750622700,13.378622802734375,2.66560435295105,-1.1425727605819702,9.460023880004883
1711072526769581600,13.39758154296875,2.6668007373809814,-1.100698471069336,9.408578872680664
1711072526788540400,13.41654052734375,2.6560330390930176,-0.9667003750801086,9.442078590393066
1711072526807499300,13.435499267578125,2.6368906497955322,-0.9702895879745483,9.481559753417969
1711072526826458400,13.454458251953126,2.5639095306396484,-1.054038405418396,9.52941608428955
1711072526845417200,13.473417236328125,2.5088746547698975,-0.8171489238739014,9.678967475891113
1711072526864376000,13.4923759765625,2.5184457302093506,-1.0971091985702515,9.9469633102417
1711072526883335000,13.5113349609375,2.6596224308013916,-0.9284151792526245,10.1216402053833
1711072526902293800,13.530293701171875,2.6608188152313232,-0.8889335989952087,10.191031455993652
1711072526921252600,13.549252685546875,2.6488547325134277,-0.8997012972831726,10.022337913513184
1711072526940211500,13.56821142578125,2.5734808444976807,-0.9020941257476807,9.871589660644531
1711072526959170300,13.58717041015625,2.531606435775757,-1.0157532691955566,9.664610862731934
1711072526978129200,13.606129150390625,2.5435705184936523,-1.0863415002822876,9.455238342285156
1711072526997088000,13.625087890625,2.5399811267852783,-1.1210373640060425,9.355937004089355
1711072527016046800,13.644046875,2.4394826889038086,-1.1700903177261353,9.343972206115723
1711072527035005700,13.663005615234376,2.4681966304779053,-1.2083754539489746,9.425328254699707
1711072527053964500,13.681964599609374,2.551945447921753,-1.337587833404541,9.528220176696777
1711072527072923400,13.70092333984375,2.6213371753692627,-1.2526426315307617,9.492327690124512
1711072527091882200,13.71988232421875,2.6596224308013916,-1.2035897970199585,9.42891788482666
1711072527110841000,13.738841064453124,2.7074787616729736,-1.1700903177261353,9.433703422546387
1711072527129800000,13.757800048828125,2.8522446155548096,-1.1856436729431152,9.4061861038208
1711072527148758800,13.7767587890625,2.926422119140625,-1.1581261157989502,9.415757179260254
1711072527167718000,13.7957177734375,2.9072794914245605,-1.1425727605819702,9.456435203552246
1711072527186676700,13.8146767578125,2.9072794914245605,-1.124626636505127,9.56052303314209
1711072527205635600,13.833635498046876,2.9599215984344482,-1.1653046607971191,9.54496955871582
1711072527224594400,13.852594482421875,2.998206853866577,-1.2370892763137817,9.487542152404785
1711072527243553300,13.87155322265625,2.926422119140625,-1.3363914489746094,9.426525115966797
1711072527262512000,13.89051220703125,2.785245656967163,-1.262213945388794,9.31047248840332
1711072527281471000,13.909470947265625,2.7278177738189697,-1.2610175609588623,9.244669914245605
1711072527300429800,13.928429931640625,2.7349963188171387,-1.3411771059036255,9.244669914245605
1711072527319388700,13.947388671875,2.794816732406616,-1.2634103298187256,9.291330337524414
1711072527338347500,13.966347412109375,2.803191661834717,-1.2957134246826172,9.425328254699707
1711072527357306400,13.985306396484376,2.7828526496887207,-1.3088740110397339,9.511469841003418
1711072527376265200,14.00426513671875,2.8319056034088135,-1.215553879737854,9.56889820098877
1711072527395224000,14.02322412109375,2.861815929412842,-1.1856436729431152,9.510273933410645
1711072527414183000,14.042182861328126,2.8582265377044678,-1.1868400573730469,9.53659439086914
1711072527433141800,14.061141845703125,2.816352367401123,-1.231107234954834,9.506684303283691
1711072527452100600,14.0801005859375,2.7864420413970947,-1.1748759746551514,9.468399047851562
1711072527471059500,14.0990595703125,2.774477958679199,-1.184447169303894,9.448060035705566
1711072527490018300,14.118018310546875,2.7326035499572754,-1.2167502641677856,9.481559753417969
1711072527508977200,14.13697705078125,2.713460922241211,-1.2418749332427979,9.476774215698242
1711072527527936000,14.15593603515625,2.700300455093384,-1.3124631643295288,9.448060035705566
1711072527546894800,14.174894775390625,2.6356940269470215,-1.353141188621521,9.448060035705566
1711072527565853700,14.193853759765625,2.5591237545013428,-1.3483555316925049,9.45882797241211
1711072527584812500,14.2128125,2.589034080505371,-1.368694543838501,9.403793334960938
1711072527603771400,14.231771484375,2.640479803085327,-1.4009976387023926,9.34277629852295
1711072527622730200,14.250730224609375,2.724228620529175,-1.3495519161224365,9.286544799804688
1711072527641689000,14.269689208984374,2.779263496398926,-1.2610175609588623,9.262616157531738
1711072527660648000,14.28864794921875,2.8342983722686768,-1.2167502641677856,9.358329772949219
1711072527679606800,14.307606689453126,2.8833513259887695,-1.1724830865859985,9.507881164550781
1711072527698565600,14.326565673828124,2.9479575157165527,-1.1545369625091553,9.54377269744873
1711072527717524500,14.3455244140625,3.014956474304199,-1.2634103298187256,9.562915802001953
1711072527736483300,14.3644833984375,3.0173492431640625,-1.3268201351165771,9.53061294555664
1711072527755442200,14.383442138671874,2.940778970718384,-1.2586246728897095,9.510273933410645
1711072527774401000,14.402401123046875,2.8211379051208496,-1.2167502641677856,9.523433685302734
1711072527793360000,14.42135986328125,2.6967110633850098,-1.337587833404541,9.518648147583008
1711072527812318700,14.440318603515625,2.6847469806671143,-1.3794622421264648,9.475577354431152
1711072527831277600,14.459277587890625,2.7038896083831787,-1.384247899055481,9.41336441040039
1711072527850236400,14.478236328125,2.667997360229492,-1.3507484197616577,9.377471923828125
1711072527869195300,14.4971953125,2.6608188152313232,-1.3112667798995972,9.352347373962402
1711072527888154000,14.516154052734375,2.7314071655273438,-1.2693923711776733,9.329615592956543
1711072527907113000,14.535113037109374,2.796013355255127,-1.31365966796875,9.317651748657227
1711072527926071800,14.55407177734375,2.7840490341186523,-1.2370892763137817,9.378668785095215
1711072527945030700,14.57303076171875,2.8223342895507812,-1.176072359085083,9.403793334960938
1711072527963989200,14.5919892578125,2.89890456199646,-1.23589289188385,9.470791816711426
1711072527982948000,14.610947998046875,2.957528829574585,-1.200000524520874,9.504291534423828
1711072528001907000,14.629906982421875,3.0305099487304688,-1.1593226194381714,9.442078590393066
1711072528020865800,14.64886572265625,3.0340991020202637,-1.153340458869934,9.418149948120117
1711072528039824600,14.66782470703125,2.8965117931365967,-1.1665010452270508,9.506684303283691
1711072528058783500,14.686783447265626,2.572284460067749,-1.2251251935958862,9.780662536621094
1711072528077742300,14.705742431640624,2.4466612339019775,-1.3196417093276978,9.988838195800781
1711072528096701200,14.724701171875,2.6632115840911865,-1.5397813320159912,9.750752449035645
1711072528115660000,14.743659912109376,2.7672994136810303,-1.643869161605835,9.259027481079102
1711072528134619000,14.762618896484375,2.7278177738189697,-1.3459627628326416,8.858229637145996
1711072528153577700,14.78157763671875,2.7349963188171387,-1.022931694984436,8.742177963256836
1711072528172536600,14.80053662109375,2.8462624549865723,-0.836291491985321,8.933603286743164
1711072528191495400,14.819495361328125,3.0891339778900146,-0.8219345808029175,9.236295700073242
1711072528210454300,14.838454345703125,3.2817561626434326,-1.0683952569961548,9.416953086853027
1711072528229413000,14.8574130859375,3.249453067779541,-1.301695466041565,9.533005714416504
1711072528248372000,14.8763720703125,3.0269205570220947,-1.3914263248443604,9.725627899169922
1711072528267330600,14.89533056640625,2.8007988929748535,-1.5002998113632202,10.012765884399414
1711072528286289400,14.914289306640624,2.6249263286590576,-1.6378871202468872,10.262816429138184
1711072528305248500,14.93324853515625,2.6261229515075684,-1.7443677186965942,9.926624298095703
1711072528324207400,14.952207275390625,2.6249263286590576,-1.7383856773376465,9.221938133239746
1711072528343166000,14.971166015625,2.444268226623535,-1.5481562614440918,8.711071014404297
1711072528362124800,14.990124755859375,2.383251428604126,-1.3423734903335571,8.565108299255371
1711072528381083600,15.009083740234376,2.5363919734954834,-1.179661512374878,8.7445707321167
1711072528400042500,15.02804248046875,2.7864420413970947,-1.0995019674301147,9.139386177062988
1711072528419001300,15.04700146484375,2.998206853866577,-1.1509476900100708,9.446864128112793
1711072528437960200,15.065960205078126,3.0376882553100586,-1.207179069519043,9.579665184020996
1711072528456919000,15.0849189453125,2.9898319244384766,-1.2167502641677856,9.610772132873535
1711072528475878000,15.1038779296875,2.9072794914245605,-1.2610175609588623,9.68494987487793
1711072528494836700,15.122836669921876,2.8103702068328857,-1.3100703954696655,9.765109062194824
1711072528513795600,15.141795654296875,2.7912275791168213,-1.3088740110397339,9.757930755615234
1711072528532754400,15.16075439453125,2.719442844390869,-1.384247899055481,9.541379928588867
1711072528551713300,15.17971337890625,2.572284460067749,-1.3746765851974487,9.290133476257324
1711072528570671900,15.198671875,2.493321180343628,-1.3698909282684326,9.18843936920166
1711072528589630700,15.217630615234375,2.5399811267852783,-1.32921302318573,9.250652313232422
1711072528608589600,15.236589599609376,2.6811578273773193,-1.2693923711776733,9.377471923828125
1711072528627548400,15.25554833984375,2.8043880462646484,-1.2263215780258179,9.471988677978516
1711072528646507300,15.27450732421875,2.8522446155548096,-1.1748759746551514,9.469595909118652
1711072528665466000,15.293466064453124,2.837887763977051,-1.1736794710159302,9.448060035705566
1711072528684425000,15.312425048828125,2.853440999984741,-1.1736794710159302,9.487542152404785
1711072528703383800,15.3313837890625,2.8666014671325684,-1.1629117727279663,9.515059471130371
1711072528722342700,15.3503427734375,2.895315408706665,-1.2083754539489746,9.585647583007812
1711072528741301500,15.369301513671875,2.888136863708496,-1.2323036193847656,9.65503978729248
1711072528760260000,15.388260009765625,2.7433712482452393,-1.2526426315307617,9.705288887023926
1711072528779219000,15.407218994140624,2.6668007373809814,-1.2885349988937378,9.651450157165527
1711072528798177800,15.426177734375,2.6368906497955322,-1.353141188621521,9.487542152404785
1711072528817136600,15.44513671875,2.589034080505371,-1.353141188621521,9.346364974975586
1711072528836095500,15.464095458984374,2.5591237545013428,-1.2957134246826172,9.291330337524414
1711072528855054300,15.483054443359375,2.6117658615112305,-1.31365966796875,9.339186668395996
1711072528874013200,15.50201318359375,2.7278177738189697,-1.3627125024795532,9.418149948120117
1711072528892972000,15.520971923828125,2.7696921825408936,-1.3316057920455933,9.519845008850098
1711072528911931000,15.539930908203125,2.80558443069458,-1.2239288091659546,9.56052303314209
1711072528930889500,15.558889404296876,2.80558443069458,-1.1868400573730469,9.523433685302734
1711072528949848300,15.577848388671875,2.801995277404785,-1.1832507848739624,9.487542152404785
1711072528968807200,15.59680712890625,2.8115665912628174,-1.2490534782409668,9.468399047851562
1711072528987766000,15.61576611328125,2.761317253112793,-1.306481122970581,9.541379928588867
1711072529006724900,15.634724853515625,2.651247501373291,-1.3148560523986816,9.610772132873535
1711072529025683700,15.65368359375,2.6225335597991943,-1.3615161180496216,9.610772132873535
1711072529044642600,15.672642578125,2.6141586303710938,-1.4584254026412964,9.475577354431152
1711072529063601400,15.691601318359375,2.5423741340637207,-1.5086746215820312,9.354740142822266
1711072529082560000,15.71056005859375,2.400001049041748,-1.5074782371520996,9.422935485839844
1711072529101518800,15.729518798828124,2.311466693878174,-1.4608181715011597,9.644271850585938
1711072529120477700,15.748477783203125,2.4191436767578125,-1.2502498626708984,9.77109146118164
1711072529139436500,15.7674365234375,2.864208698272705,-1.0049854516983032,9.766305923461914
1711072529158395400,15.7863955078125,3.4648072719573975,-0.5946164131164551,9.594022750854492
1711072529177354200,15.805354248046875,3.59043025970459,-0.3601198196411133,9.468399047851562
1711072529196313000,15.82431298828125,3.5365917682647705,-0.08015955984592438,9.050851821899414
1711072529215272000,15.84327197265625,3.4947173595428467,-0.534795880317688,8.687142372131348
1711072529234230500,15.86223046875,3.102294445037842,-1.3411771059036255,9.221938133239746
1711072529253189400,15.881189453125,2.606980323791504,-2.273181438446045,10.15155029296875
1711072529272148200,15.900148193359374,2.4011974334716797,-2.837887763977051,10.535597801208496
1711072529291107000,15.919107177734375,2.2755744457244873,-2.6057839393615723,10.000802040100098
1711072529310066000,15.93806591796875,2.1272194385528564,-2.128415822982788,9.111868858337402
1711072529329024500,15.9570244140625,2.169093608856201,-1.566102385520935,8.34138011932373
1711072529347983600,15.975983642578125,2.3736801147460938,-1.1497513055801392,8.017151832580566
1711072529366942200,15.994942138671876,2.7517459392547607,-0.8075776696205139,8.154739379882812
1711072529385901000,16.013901123046875,3.1178479194641113,-0.7034898400306702,8.565108299255371
1711072529404860000,16.03285986328125,3.4121651649475098,-0.8973084688186646,9.037691116333008
1711072529423818800,16.05181884765625,3.566502094268799,-0.9607182741165161,9.548559188842773
1711072529442777600,16.070777587890625,3.544966697692871,-0.9535398483276367,9.968499183654785
1711072529461736400,16.089736328125,3.5066816806793213,-0.9906286001205444,10.152746200561523
1711072529480695000,16.108695068359374,3.473181962966919,-1.0707881450653076,10.18026351928711
1711072529499654000,16.12765380859375,3.2721848487854004,-1.3543375730514526,10.183853149414062
1711072529518613000,16.146613037109375,2.9108686447143555,-1.6737794876098633,10.047462463378906
1711072529537571600,16.165571533203124,2.36291241645813,-1.8388842344284058,9.934999465942383
1711072529556530400,16.184530517578125,1.970489501953125,-1.872383713722229,9.7938232421875
1711072529575489300,16.2034892578125,1.9453648328781128,-1.8616160154342651,9.33440113067627
1711072529594448100,16.2224482421875,2.173879384994507,-1.8616160154342651,8.6967134475708
1711072529613407000,16.241406982421875,2.3270199298858643,-1.5194423198699951,8.25523853302002
1711072529632365600,16.260365478515624,2.5328028202056885,-1.2323036193847656,8.132007598876953
1711072529651324400,16.279324462890624,2.7517459392547607,-1.0013962984085083,8.401200294494629
1711072529670283300,16.298283203125,2.9730820655822754,-0.8865407705307007,9.053244590759277
1711072529689242400,16.317242431640626,3.3571300506591797,-0.8291130661964417,9.681360244750977
1711072529708201000,16.336200927734374,3.6598222255706787,-0.914058268070221,10.031908988952637
1711072529727159800,16.355159912109375,3.6957144737243652,-1.0205388069152832,10.107282638549805
1711072529746118700,16.37411865234375,3.397808074951172,-1.0767701864242554,10.14437198638916
1711072529765077500,16.393077392578125,3.0209386348724365,-1.2251251935958862,10.130014419555664
1711072529784036400,16.412036376953125,2.788834810256958,-1.3902299404144287,9.970891952514648
1711072529802995200,16.4309951171875,2.6500511169433594,-1.4787644147872925,9.67777156829834
1711072529821954000,16.4499541015625,2.50289249420166,-1.4859428405761719,9.337990760803223
1711072529840912600,16.46891259765625,2.3772692680358887,-1.4644074440002441,9.110671997070312
1711072529859871700,16.487871826171876,2.337787628173828,-1.444068431854248,8.9850492477417
1711072529878830600,16.50683056640625,2.4131617546081543,-1.389033555984497,9.05563735961914
1711072529897789400,16.52578955078125,2.5710878372192383,-1.317248821258545,9.256634712219238
1711072529916748000,16.544748046875,2.7086751461029053,-1.2849457263946533,9.438488960266113
1711072529935707000,16.563706787109375,2.847458839416504,-1.2287144660949707,9.602396965026855
1711072529954665700,16.582665771484375,2.908475875854492,-1.1868400573730469,9.663414001464844
1711072529973624600,16.60162451171875,2.963510751724243,-1.1665010452270508,9.604789733886719
1711072529992583400,16.62058349609375,2.944368362426758,-1.1868400573730469,9.504291534423828
1711072530011542300,16.639542236328126,2.8426733016967773,-1.1820544004440308,9.525827407836914
1711072530030501000,16.658501220703126,2.8139593601226807,-1.2394821643829346,9.585647583007812
1711072530049460000,16.6774599609375,2.847458839416504,-1.3316057920455933,9.601201057434082
1711072530068418800,16.696418701171876,2.761317253112793,-1.3184453248977661,9.495916366577148
1711072530087377700,16.715377685546876,2.6668007373809814,-1.3076776266098022,9.42173957824707
1711072530106336500,16.73433642578125,2.647658348083496,-1.397408366203308,9.415757179260254
1711072530125295400,16.75329541015625,2.528017044067383,-1.415354609489441,9.56770133972168
1711072530144254200,16.772254150390626,2.39401912689209,-1.495514154434204,9.8871431350708
1711072530163213000,16.791213134765623,2.5639095306396484,-1.683350682258606,9.730413436889648
1711072530182171600,16.810171630859376,2.796013355255127,-1.714457392692566,9.232706069946289
1711072530201130500,16.829130615234376,2.8115665912628174,-1.4213366508483887,8.877371788024902
1711072530220089300,16.84808935546875,2.801995277404785,-1.062413215637207,8.772088050842285
1711072530239048200,16.867048095703126,2.9144580364227295,-0.6089733839035034,8.918049812316895
1711072530258007000,16.886007080078127,3.1968109607696533,-0.4582255482673645,9.151350021362305
1711072530276966000,16.9049658203125,3.497110366821289,-0.7381857633590698,9.376275062561035
1711072530295924700,16.9239248046875,3.476771354675293,-0.9966106414794922,9.723235130310059
1711072530314883600,16.942883544921877,3.284149169921875,-1.3878371715545654,10.046265602111816
1711072530333842400,16.961842529296874,2.8737800121307373,-1.7623138427734375,10.278369903564453
1711072530352801300,16.98080126953125,2.544766902923584,-1.8376877307891846,10.1276216506958
1711072530371760000,16.999760009765627,2.5052852630615234,-1.8687944412231445,9.415757179260254
1711072530390719000,17.018718994140624,2.423929452896118,-1.659422516822815,8.742177963256836
1711072530409677800,17.037677734375,2.3748764991760254,-1.3483555316925049,8.428717613220215
1711072530428636700,17.05663671875,2.5160529613494873,-1.2801600694656372,8.568697929382324
1711072530447595500,17.075595458984374,2.6907291412353516,-1.222732424736023,8.971888542175293
1711072530466554400,17.094554443359375,2.9862427711486816,-1.2993026971817017,9.365508079528809
1711072530485513200,17.11351318359375,3.1381869316101074,-1.2897313833236694,9.541379928588867
1711072530504472000,17.13247216796875,3.201596736907959,-1.0911271572113037,9.65384292602539
1711072530523431000,17.151430908203125,3.242274761199951,-0.8769695162773132,9.78544807434082
1711072530542389800,17.1703896484375,3.2757742404937744,-0.8697910308837891,9.926624298095703
1711072530561348600,17.1893486328125,3.1932218074798584,-1.0815558433532715,10.0343017578125
1711072530580307500,17.208307373046875,2.819941520690918,-1.2215359210968018,10.114460945129395
1711072530599266300,17.227266357421875,2.6285157203674316,-1.420140266418457,9.906285285949707
1711072530618225200,17.24622509765625,2.548356056213379,-1.5696916580200195,9.393025398254395
1711072530637184000,17.26518408203125,2.4227328300476074,-1.4297115802764893,9.004191398620605
1711072530656142800,17.284142822265625,2.3844478130340576,-1.262213945388794,8.877371788024902
1711072530675101700,17.303101806640626,2.548356056213379,-1.2502498626708984,8.85224723815918
1711072530694060800,17.322060791015623,2.7038896083831787,-1.2717852592468262,9.001798629760742
1711072530713019600,17.34101953125,2.8247270584106445,-1.3244273662567139,9.278169631958008
1711072530731978500,17.359978515625,2.9515466690063477,-1.2526426315307617,9.476774215698242
1711072530750937300,17.378937255859373,2.988635540008545,-1.176072359085083,9.509077072143555
1711072530769896200,17.397896240234374,2.9790642261505127,-1.2598211765289307,9.595218658447266
1711072530788855000,17.41685498046875,2.9802606105804443,-1.2299108505249023,9.7998046875
1711072530807814000,17.43581396484375,2.9862427711486816,-1.2167502641677856,9.862018585205078
1711072530826772700,17.454772705078124,2.9718856811523438,-1.2083754539489746,9.747162818908691
1711072530845731600,17.473731689453125,2.7565317153930664,-1.2490534782409668,9.609575271606445
1711072530864690400,17.4926904296875,2.581855535507202,-1.2550355195999146,9.448060035705566
1711072530883649300,17.511649169921874,2.520838737487793,-1.301695466041565,9.367900848388672
1711072530902608100,17.530608154296875,2.568695068359375,-1.2885349988937378,9.375079154968262
1711072530921567000,17.54956689453125,2.6213371753692627,-1.2861422300338745,9.358329772949219
1711072530940525800,17.56852587890625,2.6632115840911865,-1.3483555316925049,9.337990760803223
1711072530959484700,17.587484619140625,2.671586513519287,-1.1617153882980347,9.330811500549316
1711072530978443500,17.606443603515626,2.7122645378112793,-1.1665010452270508,9.387042999267578
1711072530997402400,17.62540234375,2.7804598808288574,-1.1341979503631592,9.419346809387207
1711072531016361200,17.644361328125,2.7672994136810303,-1.2418749332427979,9.528220176696777
1711072531035320000,17.663320068359376,2.809173822402954,-1.2167502641677856,9.597611427307129
1711072531054279000,17.68227880859375,2.8115665912628174,-1.2179467678070068,9.550951957702637
1711072531073237800,17.70123779296875,2.8187451362609863,-1.3052847385406494,9.511469841003418
1711072531092196600,17.720196533203126,2.7397818565368652,-1.2729816436767578,9.446864128112793
1711072531111155500,17.739155517578126,2.7290141582489014,-1.2526426315307617,9.414560317993164
1711072531130114300,17.7581142578125,2.6811578273773193,-1.2849457263946533,9.44447135925293
1711072531149073200,17.7770732421875,2.715853691101074,-1.2873386144638062,9.471988677978516
1711072531168032000,17.796031982421876,2.774477958679199,-1.3028919696807861,9.445667266845703
1711072531186991000,17.8149912109375,2.7828526496887207,-1.3148560523986816,9.446864128112793
1711072531205950000,17.833949951171874,2.7074787616729736,-1.290927767753601,9.422935485839844
1711072531224908800,17.85290869140625,2.746960401535034,-1.2478569746017456,9.422935485839844
1711072531243867600,17.87186767578125,2.794816732406616,-1.2849457263946533,9.393025398254395
1711072531262826500,17.890826416015624,2.748156785964966,-1.3423734903335571,9.437292098999023
1711072531281785300,17.909785400390625,2.7385854721069336,-1.322034478187561,9.440881729125977
1711072531300744200,17.928744140625,2.768495798110962,-1.2765709161758423,9.409774780273438
1711072531319703000,17.947703125,2.7589244842529297,-1.3280165195465088,9.400203704833984
1711072531338662000,17.966661865234375,2.7661030292510986,-1.2849457263946533,9.381061553955078
1711072531357620700,17.985620849609376,2.7529425621032715,-1.2454642057418823,9.347561836242676
1711072531376579600,18.00457958984375,2.7517459392547607,-1.3100703954696655,9.45164966583252
1711072531395538400,18.023538330078125,2.717050075531006,-1.3674981594085693,9.577272415161133
1711072531414497300,18.042497314453126,2.5878376960754395,-1.428515076637268,9.824930191040039
1711072531433456000,18.0614560546875,2.392822742462158,-1.5326029062271118,10.04267692565918
1711072531452415000,18.0804150390625,2.3126630783081055,-1.6737794876098633,9.996016502380371
1711072531471373800,18.099373779296876,2.389233350753784,-1.7024933099746704,9.511469841003418
1711072531490332700,18.118332763671877,2.5770699977874756,-1.6426727771759033,8.872586250305176
1711072531509291500,18.13729150390625,2.781656265258789,-1.4177473783493042,8.325826644897461
1711072531528250400,18.15625048828125,2.8929226398468018,-1.1186445951461792,8.153543472290039
1711072531547209200,18.175209228515627,3.1034910678863525,-0.8877372145652771,8.557929992675781
1711072531566168000,18.19416796875,3.3846476078033447,-0.6580262184143066,9.207581520080566
1711072531585127000,18.213126953125,3.792623996734619,-0.5132604837417603,9.682557106018066
1711072531604085800,18.232085693359377,3.9768712520599365,-0.672383189201355,9.719645500183105
1711072531623044600,18.251044677734374,3.70767879486084,-0.8733802437782288,9.66819953918457
1711072531642003500,18.27000341796875,3.414557933807373,-1.1018948554992676,9.643074989318848
1711072531660962300,18.28896240234375,3.2004003524780273,-1.290927767753601,9.670592308044434
1711072531679921200,18.307921142578124,3.014956474304199,-1.4105689525604248,9.797411918640137
1711072531698880000,18.3268798828125,2.778067111968994,-1.5960127115249634,10.017552375793457
1711072531717838800,18.3458388671875,2.557927370071411,-1.7479569911956787,10.103693962097168
1711072531736797700,18.364797607421874,2.5148565769195557,-1.794616937637329,10.023533821105957
1711072531755756500,18.383756591796875,2.4191436767578125,-1.7718851566314697,9.745966911315918
1711072531774715400,18.40271533203125,2.352144718170166,-1.5984054803848267,9.399007797241211
1711072531793674200,18.42167431640625,2.3018953800201416,-1.521835207939148,9.154939651489258
1711072531812633000,18.440633056640625,2.3126630783081055,-1.456032633781433,9.079565048217773
1711072531831592000,18.459592041015625,2.4837498664855957,-1.4488540887832642,9.245866775512695
1711072531850550800,18.47855078125,2.6225335597991943,-1.423729419708252,9.379864692687988
1711072531869509600,18.497509521484375,2.6763720512390137,-1.4679967164993286,9.487542152404785
1711072531888468500,18.516468505859375,2.524427890777588,-1.5314065217971802,9.549755096435547
1711072531907427300,18.53542724609375,2.3784656524658203,-1.6151553392410278,9.626325607299805
1711072531926386200,18.55438623046875,2.358126640319824,-1.6103696823120117,9.671789169311523
1711072531945345300,18.57334521484375,2.4335005283355713,-1.6103696823120117,9.66102123260498
1711072531964304100,18.59230419921875,2.4921247959136963,-1.6498512029647827,9.667003631591797
1711072531983263000,18.611262939453123,2.5363919734954834,-1.6079767942428589,9.507881164550781
1711072532002221800,18.630221923828124,2.548356056213379,-1.5074782371520996,9.257830619812012
1711072532021180700,18.6491806640625,2.530410051345825,-1.3698909282684326,9.084351539611816
1711072532040139500,18.668139404296873,2.5986053943634033,-1.317248821258545,9.001798629760742
1711072532059098400,18.687098388671874,2.7314071655273438,-1.3519448041915894,9.007781028747559
1711072532078057200,18.70605712890625,2.878565549850464,-1.3268201351165771,9.105886459350586
1711072532097016000,18.72501611328125,3.0305099487304688,-1.2801600694656372,9.192028045654297
1711072532115975000,18.743974853515624,3.1274192333221436,-1.195214867591858,9.305686950683594
1711072532134933800,18.762933837890625,3.2518460750579834,-1.1437692642211914,9.395418167114258
1711072532153892600,18.781892578125,3.346362352371216,-1.1258230209350586,9.384650230407715
1711072532172851500,18.8008515625,3.3511481285095215,-1.0887342691421509,9.33320426940918
1711072532191810300,18.819810302734375,3.345165967941284,-1.1162517070770264,9.305686950683594
1711072532210769200,18.83876904296875,3.3272199630737305,-1.1066805124282837,9.324830055236816
1711072532229728000,18.85772802734375,3.3655049800872803,-1.1270195245742798,9.401400566101074
1711072532248686800,18.876686767578125,3.3403804302215576,-1.1665010452270508,9.426525115966797
1711072532267645700,18.895645751953126,3.315255880355835,-1.1976077556610107,9.431310653686523
1711072532286604500,18.9146044921875,3.1956145763397217,-1.2215359210968018,9.426525115966797
1711072532305563400,18.9335634765625,3.1405797004699707,-1.2215359210968018,9.337990760803223
1711072532324522200,18.952522216796876,3.10109806060791,-1.2646067142486572,9.312865257263184
1711072532343481000,18.971481201171876,3.1238300800323486,-1.3316057920455933,9.305686950683594
1711072532362440000,18.99043994140625,3.1621150970458984,-1.3124631643295288,9.274580955505371
1711072532381398800,19.009398681640626,3.108276605606079,-1.31365966796875,9.279366493225098
1711072532400357600,19.028357666015626,3.0281169414520264,-1.2263215780258179,9.315258979797363
1711072532419316500,19.04731640625,3.036491870880127,-1.275374412536621,9.339186668395996
1711072532438275300,19.066275390625,3.067598581314087,-1.333998680114746,9.359525680541992
1711072532457234200,19.085234130859376,3.032902717590332,-1.353141188621521,9.404989242553711
1711072532476193000,19.104193115234374,3.0065815448760986,-1.3351950645446777,9.445667266845703
1711072532495151900,19.12315185546875,2.998206853866577,-1.3268201351165771,9.44447135925293
1711072532514110700,19.14211083984375,2.9826533794403076,-1.3196417093276978,9.367900848388672
1711072532533069600,19.161069580078124,2.9276185035705566,-1.333998680114746,9.29731273651123
1711072532552028200,19.180028076171876,2.806781053543091,-1.3674981594085693,9.321240425109863
1711072532570987300,19.1989873046875,2.796013355255127,-1.4524433612823486,9.378668785095215
1711072532589946000,19.217946044921874,2.799602508544922,-1.475175142288208,9.449256896972656
1711072532608905000,19.236905029296874,2.801995277404785,-1.550549030303955,9.473184585571289
1711072532627863800,19.25586376953125,2.746960401535034,-1.6223337650299072,9.462417602539062
1711072532646822700,19.27482275390625,2.693121910095215,-1.6091731786727905,9.4061861038208
1711072532665781500,19.293781494140624,2.644068956375122,-1.5517455339431763,9.351150512695312
1711072532684740400,19.312740234375,2.664407968521118,-1.5158531665802002,9.337990760803223
1711072532703699000,19.331698974609374,2.7589244842529297,-1.4931213855743408,9.498309135437012
1711072532722657800,19.35065771484375,2.8594231605529785,-1.470389485359192,9.558130264282227
1711072532741616600,19.36961669921875,2.8869404792785645,-1.4021940231323242,9.580862045288086
1711072532760575500,19.388575439453124,2.9216363430023193,-1.2550355195999146,9.510273933410645
1711072532779534300,19.407534423828125,2.9790642261505127,-1.2143574953079224,9.42054271697998
1711072532798493200,19.4264931640625,2.9359934329986572,-1.2490534782409668,9.332008361816406
1711072532817452000,19.4454521484375,2.8833513259887695,-1.3316057920455933,9.381061553955078
1711072532836411000,19.464410888671875,2.833101987838745,-1.3878371715545654,9.44447135925293
1711072532855369700,19.48336962890625,2.8558337688446045,-1.4811571836471558,9.509077072143555
1711072532874328600,19.50232861328125,2.761317253112793,-1.5948163270950317,9.57487964630127
1711072532893287400,19.521287353515625,2.699103832244873,-1.679761528968811,9.57607650756836
1711072532912246300,19.540246337890625,2.719442844390869,-1.6354942321777344,9.475577354431152
1711072532931205000,19.559205078125,2.6799614429473877,-1.542174220085144,9.31884765625
1711072532950164000,19.5781640625,2.6608188152313232,-1.5433706045150757,9.18724250793457
1711072532969122800,19.597122802734376,2.7050859928131104,-1.4739787578582764,9.166903495788574
1711072532988081700,19.61608154296875,2.799602508544922,-1.3088740110397339,9.238688468933105
1711072533007040500,19.63504052734375,2.8462624549865723,-1.2430713176727295,9.274580955505371
1711072533025999400,19.653999267578126,2.8809585571289062,-1.25144624710083,9.220742225646973
1711072533044958000,19.6729580078125,2.9312076568603516,-1.195214867591858,9.253045082092285
1711072533063917000,19.6919169921875,3.0077781677246094,-1.160519003868103,9.358329772949219
1711072533082876000,19.7108759765625,3.0628130435943604,-1.1258230209350586,9.43609619140625
1711072533101834800,19.729834716796876,3.142972469329834,-1.1258230209350586,9.541379928588867
1711072533120793300,19.74879345703125,3.1920254230499268,-1.196411371231079,9.601201057434082
1711072533139752200,19.767752197265626,3.2004003524780273,-1.2047861814498901,9.578469276428223
1711072533158711000,19.7867109375,3.0376882553100586,-1.1700903177261353,9.437292098999023
1711072533177670000,19.805669921875,3.001796007156372,-1.2143574953079224,9.337990760803223
1711072533196628700,19.824628662109376,2.9659037590026855,-1.337587833404541,9.343972206115723
1711072533215587600,19.843587646484377,2.915654420852661,-1.3100703954696655,9.369096755981445
1711072533234546400,19.86254638671875,2.9288148880004883,-1.2490534782409668,9.340383529663086
1711072533253505300,19.88150537109375,2.9012975692749023,-1.3387842178344727,9.340383529663086
1711072533272464100,19.900464111328127,2.8965117931365967,-1.3938192129135132,9.373882293701172
1711072533291423000,19.919423095703124,2.9048867225646973,-1.333998680114746,9.382257461547852
1711072533310381800,19.9383818359375,2.9347970485687256,-1.2849457263946533,9.381061553955078
1711072533329340700,19.957340576171877,2.9479575157165527,-1.332802176475525,9.379864692687988
1711072533348299500,19.976299560546874,2.913261651992798,-1.3411771059036255,9.390632629394531
1711072533367258000,19.995258056640626,2.933600664138794,-1.2538390159606934,9.401400566101074
1711072533386217000,20.014217041015623,2.9766714572906494,-1.2598211765289307,9.425328254699707
1711072533405175800,20.03317578125,2.9527430534362793,-1.2538390159606934,9.42054271697998
1711072533424134700,20.052134765625,2.953939437866211,-1.2693923711776733,9.384650230407715
1711072533443093500,20.071093505859373,2.888136863708496,-1.301695466041565,9.329615592956543
1711072533462052400,20.09005224609375,2.8462624549865723,-1.1665010452270508,9.275776863098145
1711072533481011200,20.10901123046875,2.8486554622650146,-1.2275179624557495,9.29731273651123
1711072533499970000,20.127969970703123,2.7984061241149902,-1.3088740110397339,9.42054271697998
1711072533518929000,20.146928955078124,2.7768707275390625,-1.439282774925232,9.501898765563965
1711072533537887700,20.1658876953125,2.8175487518310547,-1.3758729696273804,9.586843490600586
1711072533556846600,20.1848466796875,2.888136863708496,-1.3746765851974487,9.538987159729004
1711072533575805200,20.20380517578125,2.9036903381347656,-1.4536397457122803,9.44447135925293
1711072533594764000,20.222763916015627,2.861815929412842,-1.3938192129135132,9.34875774383545
1711072533613723000,20.241722900390624,2.8390841484069824,-1.332802176475525,9.293723106384277
1711072533632681700,20.260681640625,2.9204399585723877,-1.4380863904953003,9.28893756866455
1711072533651640600,20.279640625,2.9587252140045166,-1.4787644147872925,9.463613510131836
1711072533670599400,20.298599365234374,2.985046148300171,-1.4189438819885254,9.509077072143555
1711072533689558300,20.317558349609374,2.963510751724243,-1.4069796800613403,9.378668785095215
1711072533708517000,20.33651708984375,2.9168508052825928,-1.4871392250061035,9.263813018798828
1711072533727476000,20.35547607421875,2.871387243270874,-1.4883357286453247,9.235098838806152
1711072533746434600,20.3744345703125,2.8247270584106445,-1.4416756629943848,9.286544799804688
1711072533765393400,20.393393310546877,2.8139593601226807,-1.466800332069397,9.347561836242676
1711072533784352300,20.412352294921874,2.8965117931365967,-1.4452649354934692,9.454042434692383
1711072533803311000,20.43131103515625,2.8905298709869385,-1.4380863904953003,9.499505996704102
1711072533822270000,20.45027001953125,2.878565549850464,-1.435693621635437,9.486345291137695
1711072533841228800,20.469228759765624,2.909672260284424,-1.337587833404541,9.419346809387207
1711072533860187600,20.488187744140625,2.9276185035705566,-1.3052847385406494,9.29731273651123
1711072533879146500,20.507146484375,2.909672260284424,-1.4225330352783203,9.340383529663086
1711072533898105000,20.52610498046875,2.9276185035705566,-1.3746765851974487,9.463613510131836
1711072533917064000,20.54506396484375,2.9599215984344482,-1.246660590171814,9.473184585571289
1711072533936022800,20.564022705078123,3.0005996227264404,-1.2239288091659546,9.467203140258789
1711072533954981600,20.582981689453124,2.9359934329986572,-1.3184453248977661,9.479166984558105
1711072533973940500,20.6019404296875,2.86061954498291,-1.2681959867477417,9.422935485839844
1711072533992899300,20.6208994140625,2.895315408706665,-1.195214867591858,9.418149948120117
1711072534011858200,20.639858154296874,2.994617462158203,-1.2586246728897095,9.384650230407715
1711072534030817000,20.658817138671875,3.0065815448760986,-1.1856436729431152,9.44327449798584
1711072534049775600,20.677775634765624,2.9970104694366455,-1.1904292106628418,9.491130828857422
1711072534068734500,20.696734375,2.933600664138794,-1.2323036193847656,9.512666702270508
1711072534087693300,20.715693359375,2.82951283454895,-1.2658032178878784,9.475577354431152
1711072534106652200,20.734652099609374,2.641676187515259,-1.3854442834854126,9.433703422546387
1711072534125611000,20.753611083984374,2.365305185317993,-1.6295121908187866,9.43489933013916
1711072534144569900,20.77256982421875,2.2157537937164307,-1.8388842344284058,9.254241943359375
1711072534163528700,20.79152880859375,2.2444677352905273,-1.8221344947814941,8.956335067749023
1711072534182487600,20.810487548828124,2.3808584213256836,-1.6857435703277588,8.847461700439453
1711072534201446100,20.829446044921873,2.510071039199829,-1.511067509651184,8.96112060546875
1711072534220405000,20.848405029296874,2.5842485427856445,-1.2323036193847656,9.177671432495117
1711072534239363800,20.86736376953125,2.785245656967163,-1.1042876243591309,9.379864692687988
1711072534258322700,20.88632275390625,3.1561331748962402,-1.1222338676452637,9.531808853149414
1711072534277281500,20.905281494140624,3.463610887527466,-0.9176474809646606,9.783055305480957
1711072534296240400,20.924240478515625,3.4277184009552,-0.6771687865257263,9.963713645935059
1711072534315199200,20.94319921875,3.263810157775879,-0.7357929348945618,10.107282638549805
1711072534334157800,20.96215771484375,3.25663161277771,-1.0360921621322632,10.060623168945312
1711072534353116700,20.98111669921875,3.373879909515381,-1.3399807214736938,9.701699256896973
1711072534372075500,21.000075439453123,3.1992039680480957,-1.4261223077774048,9.345169067382812
1711072534391034400,21.019034423828124,2.915654420852661,-1.3770694732666016,9.156135559082031
1711072534409993200,21.0379931640625,2.691925525665283,-1.3088740110397339,9.083154678344727
1711072534428951800,21.056951904296874,2.654836654663086,-1.322034478187561,9.151350021362305
1711072534447910700,21.07591064453125,2.7421748638153076,-1.4715858697891235,9.272188186645508
1711072534466869800,21.094869873046875,2.7601208686828613,-1.683350682258606,9.409774780273438
1711072534485828400,21.113828369140624,2.6500511169433594,-1.7742780447006226,9.541379928588867
1711072534504787200,21.132787109375,2.6225335597991943,-1.8687944412231445,9.617950439453125
1711072534523746000,21.15174609375,2.6703901290893555,-1.8711873292922974,9.503094673156738
1711072534542705000,21.170704833984374,2.520838737487793,-1.8041882514953613,9.379864692687988
1711072534561663700,21.189663818359374,2.348555326461792,-1.8317056894302368,9.31047248840332
1711072534580622300,21.208622314453127,2.2959132194519043,-1.8436698913574219,9.255437850952148
1711072534599581200,21.227581298828124,2.307877540588379,-1.7910277843475342,9.192028045654297
1711072534618540000,21.2465400390625,2.335394859313965,-1.7802600860595703,9.17288589477539
1711072534637499000,21.265498779296873,2.3676979541778564,-1.7802600860595703,9.156135559082031
1711072534656457700,21.284457763671874,2.4406790733337402,-1.6259230375289917,9.18843936920166
1711072534675416600,21.30341650390625,2.451446771621704,-1.475175142288208,9.19442081451416
1711072534694375400,21.32237548828125,2.392822742462158,-1.3902299404144287,9.30329418182373
1711072534713334300,21.341334228515624,2.4047868251800537,-1.4249259233474731,9.492327690124512
1711072534732293000,21.360293212890625,2.517249345779419,-1.633101463317871,9.597611427307129
1711072534751251700,21.379251708984373,2.589034080505371,-1.8843477964401245,9.487542152404785
1711072534770210600,21.39821044921875,2.4813570976257324,-1.9884356260299683,9.340383529663086
1711072534789169400,21.41716943359375,2.3401806354522705,-1.8340985774993896,9.42772102355957
1711072534808128300,21.436128173828124,2.4526431560516357,-1.6019947528839111,9.555737495422363
1711072534827087000,21.455087158203124,2.5663022994995117,-1.373480200767517,9.678967475891113
1711072534846046000,21.4740458984375,2.6117658615112305,-1.3399807214736938,9.659825325012207
1711072534865004800,21.4930048828125,2.531606435775757,-1.2873386144638062,9.633503913879395
1711072534883963600,21.511963623046874,2.551945447921753,-1.144965648651123,9.598808288574219
1711072534902922500,21.530922607421875,2.623729944229126,-1.2263215780258179,9.672985076904297
1711072534921881300,21.54988134765625,2.7661030292510986,-1.4967105388641357,9.926624298095703
1711072534940840000,21.56883984375,2.2959132194519043,-1.7790635824203491,10.016355514526367
1711072534959798800,21.587798828125,1.8987047672271729,-1.8939191102981567,10.243673324584961
1711072534978758000,21.6067578125,2.014756679534912,-1.322034478187561,9.7938232421875
1711072534997716700,21.625716796875,2.231307029724121,-1.5864413976669312,9.528220176696777
1711072535016675300,21.64467529296875,2.297109842300415,-1.9178473949432373,9.603593826293945
1711072535035634200,21.66363427734375,2.0709879398345947,-1.7694923877716064,9.647860527038574
1711072535054593000,21.682593017578125,2.0267207622528076,-1.6606189012527466,9.56650447845459
1711072535073552000,21.7015517578125,2.1260228157043457,-1.714457392692566,9.634700775146484
1711072535092510700,21.7205107421875,2.3844478130340576,-1.828116536140442,9.872786521911621
1711072535111469600,21.739469482421875,2.421536445617676,-1.8293129205703735,9.897911071777344
1711072535130428400,21.758428466796875,2.390429735183716,-1.7371892929077148,9.663414001464844
1711072535149387300,21.77738720703125,2.255235433578491,-1.7431713342666626,9.639486312866211
1711072535168346000,21.79634619140625,2.251646041870117,-1.8077775239944458,9.506684303283691
1711072535187305000,21.815304931640625,2.444268226623535,-1.765903115272522,9.4121675491333
1711072535206263800,21.834263916015626,2.6727828979492188,-1.8400806188583374,9.489934921264648
1711072535225222700,21.85322265625,2.96111798286438,-1.841277003288269,9.744770050048828
1711072535244181500,21.872181396484375,3.0137600898742676,-1.6462619304656982,9.913464546203613
1711072535263140400,21.891140380859376,2.8103702068328857,-1.4847464561462402,9.656235694885254
1711072535282099200,21.91009912109375,2.7074787616729736,-1.5960127115249634,9.159725189208984
1711072535301058000,21.92905810546875,2.675175666809082,-1.7563318014144897,8.81396198272705
1711072535320016600,21.9480166015625,2.60339093208313,-2.087737798690796,8.854640007019043
1711072535338975500,21.9669755859375,2.304288148880005,-2.6153552532196045,9.123832702636719
1711072535357934300,21.985934326171876,2.1415762901306152,-2.913261651992798,9.464810371398926
1711072535376893200,22.00489306640625,2.1750757694244385,-2.6261229515075684,9.471988677978516
1711072535395852000,22.02385205078125,2.3641088008880615,-2.3162522315979004,9.206384658813477
1711072535414811000,22.042810791015626,2.4670002460479736,-1.994417667388916,8.987442016601562
1711072535433769700,22.061769775390626,2.6775684356689453,-1.5984054803848267,8.96112060546875
1711072535452728600,22.080728515625,2.825923442840576,-1.848455548286438,9.011369705200195
1711072535471687700,22.099687744140624,2.7014968395233154,-2.528017044067383,9.06999397277832
1711072535490646500,22.118646484375,2.4083759784698486,-2.833101987838745,9.244669914245605
1711072535509605000,22.137605224609374,2.1068804264068604,-2.8115665912628174,9.376275062561035
1711072535528564000,22.15656396484375,2.2947168350219727,-2.352144718170166,9.44327449798584
1711072535547522800,22.175522705078127,2.6763720512390137,-1.8305093050003052,9.445667266845703
1711072535566481700,22.194481689453124,2.8223342895507812,-2.1918256282806396,9.175278663635254
1711072535585440500,22.2134404296875,2.520838737487793,-2.943171739578247,8.848658561706543
1711072535604399400,22.2323994140625,2.1655044555664062,-2.9551360607147217,8.760123252868652
1711072535623358200,22.251358154296874,2.2169501781463623,-2.4634108543395996,8.827122688293457
1711072535642317000,22.270317138671874,2.609373092651367,-2.2612173557281494,9.146564483642578
1711072535661276000,22.28927587890625,2.9276185035705566,-2.2947168350219727,9.486345291137695
1711072535680234800,22.30823486328125,2.9072794914245605,-2.293520450592041,9.589237213134766
1711072535699193600,22.327193603515624,2.6979074478149414,-2.196611166000366,9.501898765563965
1711072535718152400,22.34615234375,2.6488547325134277,-2.1272194385528564,9.263813018798828
1711072535737111300,22.365111328125,2.678765058517456,-2.17627215385437,9.060422897338867
1711072535756070100,22.384070068359375,2.7086751461029053,-2.1379871368408203,8.957531929016113
1711072535775029000,22.403029052734375,2.654836654663086,-2.0829520225524902,8.965906143188477
1711072535793988000,22.421988037109376,2.586641311645508,-2.0757737159729004,9.081958770751953
1711072535812947000,22.440947021484376,2.599801778793335,-2.0279171466827393,9.260223388671875
1711072535831905800,22.45990576171875,2.675175666809082,-1.954936146736145,9.422935485839844
1711072535850864600,22.47886474609375,2.7912275791168213,-1.95852530002594,9.518648147583008
1711072535869823500,22.497823486328127,2.7122645378112793,-1.8939191102981567,9.533005714416504
1711072535888782300,22.5167822265625,2.6464617252349854,-1.8352949619293213,9.45763111114502
1711072535907741200,22.5357412109375,2.68953275680542,-1.8233308792114258,9.43609619140625
1711072535926700000,22.554699951171877,2.691925525665283,-1.750349760055542,9.439684867858887
1711072535945659000,22.573658935546874,2.7038896083831787,-1.750349760055542,9.45164966583252
1711072535964617700,22.59261767578125,2.6572296619415283,-1.8424733877182007,9.439684867858887
1711072535983576600,22.61157666015625,2.572284460067749,-1.8975083827972412,9.437292098999023
1711072536002535400,22.630535400390624,2.537588357925415,-1.9441684484481812,9.460023880004883
1711072536021494300,22.649494384765624,2.528017044067383,-1.9357935190200806,9.523433685302734
1711072536040453000,22.668453125,2.5663022994995117,-1.8747764825820923,9.5533447265625
1711072536059412000,22.687411865234374,2.555534601211548,-1.8891334533691406,9.540184020996094
1711072536078370800,22.706370849609375,2.5710878372192383,-1.9357935190200806,9.523433685302734
1711072536097329700,22.72532958984375,2.4849462509155273,-2.001596212387085,9.499505996704102
1711072536116288500,22.74428857421875,2.3988046646118164,-2.011167526245117,9.549755096435547
1711072536135247400,22.763247314453125,2.36291241645813,-2.032702922821045,9.594022750854492
1711072536154206200,22.782206298828125,2.4227328300476074,-2.007578134536743,9.517452239990234
1711072536173165000,22.8011650390625,2.4083759784698486,-2.0063817501068115,9.510273933410645
1711072536192124000,22.8201240234375,2.3641088008880615,-1.9980069398880005,9.579665184020996
1711072536211082800,22.839082763671875,2.4011974334716797,-1.9824535846710205,9.54496955871582
1711072536230041600,22.85804150390625,2.4394826889038086,-1.8939191102981567,9.498309135437012
1711072536249000400,22.87700048828125,2.4562325477600098,-2.0099709033966064,9.430113792419434
1711072536267959300,22.895959228515625,2.4765713214874268,-2.062613010406494,9.42173957824707
1711072536286918100,22.914918212890626,2.431107759475708,-1.9956140518188477,9.400203704833984
1711072536305877000,22.933876953125,2.383251428604126,-1.9621145725250244,9.345169067382812
1711072536324835800,22.9528359375,2.366501569747925,-2.0685951709747314,9.238688468933105
1711072536343794700,22.971794677734376,2.3605196475982666,-2.115255117416382,9.183652877807617
1711072536362753500,22.99075341796875,2.3461625576019287,-2.1367905139923096,9.237491607666016
1711072536381712400,23.00971240234375,2.3461625576019287,-2.155933141708374,9.253045082092285
1711072536400671200,23.028671142578126,2.366501569747925,-2.038684844970703,9.280562400817871
1711072536419630000,23.047630126953123,2.3473589420318604,-2.0709879398345947,9.352347373962402
1711072536438589200,23.066589111328124,2.352144718170166,-2.043470621109009,9.45763111114502
1711072536457547800,23.0855478515625,2.355733871459961,-1.97407865524292,9.592825889587402
1711072536476507000,23.1045068359375,2.390429735183716,-1.8687944412231445,9.614361763000488
1711072536495465700,23.1234658203125,2.389233350753784,-1.9381862878799438,9.591629981994629
1711072536514424600,23.142424560546875,2.365305185317993,-1.9262222051620483,9.533005714416504
1711072536533383400,23.161383544921875,2.3461625576019287,-1.8687944412231445,9.452845573425293
1711072536552342300,23.18034228515625,2.379662036895752,-1.8340985774993896,9.498309135437012
1711072536571301000,23.199301025390625,2.407179594039917,-1.820937991142273,9.481559753417969
1711072536590260000,23.218260009765626,2.366501569747925,-1.7922241687774658,9.460023880004883
1711072536609218800,23.23721875,2.3509483337402344,-1.7886348962783813,9.476774215698242
1711072536628177700,23.256177734375,2.3988046646118164,-1.8508483171463013,9.523433685302734
1711072536647136500,23.275136474609376,2.4358935356140137,-1.8819550275802612,9.535398483276367
1711072536666095400,23.294095458984376,2.4406790733337402,-1.848455548286438,9.485149383544922
1711072536685054200,23.31305419921875,2.4131617546081543,-1.892722725868225,9.471988677978516
1711072536704013000,23.332012939453126,2.3054845333099365,-1.9106688499450684,9.488738059997559
1711072536722972000,23.350971923828126,2.2779672145843506,-2.0159530639648438,9.461220741271973
1711072536741930800,23.3699306640625,2.337787628173828,-2.0865414142608643,9.476774215698242
1711072536760889600,23.3888896484375,2.4023938179016113,-2.121237277984619,9.495916366577148
1711072536779848400,23.407848388671876,2.358126640319824,-2.076970100402832,9.431310653686523
1711072536798807300,23.426807373046874,2.3126630783081055,-2.1020946502685547,9.396614074707031
1711072536817766100,23.44576611328125,2.2983062267303467,-2.1260228157043457,9.442078590393066
1711072536836725000,23.46472509765625,2.3150558471679688,-2.0889341831207275,9.395418167114258
1711072536855683800,23.483683837890624,2.3509483337402344,-1.9896320104599,9.340383529663086
1711072536874642700,23.502642578125,2.3150558471679688,-1.9860427379608154,9.328418731689453
1711072536893601500,23.5216015625,2.311466693878174,-1.9956140518188477,9.397810935974121
1711072536912560400,23.540560302734374,2.307877540588379,-1.9968105554580688,9.449256896972656
1711072536931519200,23.559519287109374,2.3509483337402344,-1.923829436302185,9.474381446838379
1711072536950478000,23.57847802734375,2.3952155113220215,-1.911865234375,9.426525115966797
1711072536969437000,23.59743701171875,2.4155545234680176,-1.892722725868225,9.394221305847168
1711072536988395800,23.616395751953124,2.379662036895752,-1.9489539861679077,9.395418167114258
1711072537007354600,23.635354736328125,2.348555326461792,-1.9776679277420044,9.44447135925293
1711072537026313500,23.6543134765625,2.4095723628997803,-1.954936146736145,9.461220741271973
1711072537045272300,23.673272216796875,2.4574289321899414,-1.939382791519165,9.425328254699707
1711072537064231200,23.692231201171875,2.3748764991760254,-1.9896320104599,9.42173957824707
1711072537083190000,23.71118994140625,2.2947168350219727,-2.042274236679077,9.41336441040039
1711072537102148900,23.73014892578125,2.310270309448242,-2.0159530639648438,9.407382011413574
1711072537121107700,23.749107666015625,2.3306093215942383,-2.087737798690796,9.387042999267578
1711072537140066600,23.768066650390626,2.3497519493103027,-2.021935224533081,9.401400566101074
1711072537159025400,23.787025390625,2.338984251022339,-1.994417667388916,9.488738059997559
1711072537177984300,23.805984375,2.3162522315979004,-2.008774518966675,9.454042434692383
1711072537196943000,23.824943115234376,2.3330020904541016,-2.008774518966675,9.42054271697998
1711072537215902000,23.84390185546875,2.3856441974639893,-2.0410776138305664,9.394221305847168
1711072537234860800,23.86286083984375,2.4023938179016113,-1.9621145725250244,9.42054271697998
1711072537253819600,23.881819580078126,2.410768747329712,-2.0195422172546387,9.391828536987305
1711072537272778500,23.900778564453127,2.3820550441741943,-1.9609181880950928,9.418149948120117
1711072537291737300,23.9197373046875,2.3820550441741943,-1.9896320104599,9.433703422546387
1711072537310696200,23.9386962890625,2.3090739250183105,-2.0243279933929443,9.485149383544922
1711072537329655000,23.957655029296873,2.3234307765960693,-2.0207388401031494,9.510273933410645
1711072537348614000,23.97661376953125,2.376072883605957,-1.9716858863830566,9.438488960266113
1711072537367572700,23.99557275390625,2.3605196475982666,-2.012363910675049,9.396614074707031
1711072537386531600,24.014531494140623,2.306680917739868,-2.056631088256836,9.369096755981445
1711072537405490400,24.033490478515624,2.348555326461792,-2.045863389968872,9.433703422546387
1711072537424449300,24.05244921875,2.368894338607788,-2.0446670055389404,9.442078590393066
1711072537443408100,24.071408203125,2.3150558471679688,-2.059023857116699,9.404989242553711
1711072537462367000,24.090366943359374,2.3222343921661377,-2.018345832824707,9.389435768127441
1711072537481325800,24.109325927734375,2.3198416233062744,-2.0279171466827393,9.446864128112793
1711072537500284700,24.12828466796875,2.368894338607788,-1.9872392416000366,9.44327449798584
1711072537519243500,24.147243408203124,2.379662036895752,-2.011167526245117,9.473184585571289
1711072537538202400,24.166202392578125,2.392822742462158,-1.9836499691009521,9.471988677978516
1711072537557161200,24.1851611328125,2.358126640319824,-2.03629207611084,9.433703422546387
1711072537576120000,24.2041201171875,2.3234307765960693,-2.0614166259765625,9.42891788482666
1711072537595079000,24.223078857421875,2.341377019882202,-1.9896320104599,9.424132347106934
1711072537614037800,24.242037841796876,2.355733871459961,-2.0315065383911133,9.473184585571289
1711072537632996600,24.26099658203125,2.335394859313965,-1.9992033243179321,9.456435203552246
1711072537651955500,24.27995556640625,2.3437697887420654,-1.9525432586669922,9.461220741271973
1711072537670914300,24.298914306640626,2.3186452388763428,-1.94297194480896,9.456435203552246
1711072537689873000,24.317872802734374,2.348555326461792,-2.0159530639648438,9.456435203552246
1711072537708831700,24.336831787109375,2.3736801147460938,-1.95852530002594,9.499505996704102
1711072537727790600,24.35579052734375,2.389233350753784,-1.9130617380142212,9.4660062789917
1711072537746749400,24.37474951171875,2.3748764991760254,-1.954936146736145,9.475577354431152
1711072537765708300,24.393708251953125,2.3126630783081055,-1.963310956954956,9.503094673156738
1711072537784667100,24.412667236328126,2.337787628173828,-1.9262222051620483,9.485149383544922
1711072537803626000,24.4316259765625,2.390429735183716,-2.0003998279571533,9.42173957824707
1711072537822584800,24.450584716796875,2.403590440750122,-2.0853450298309326,9.43489933013916
1711072537841543700,24.469543701171876,2.348555326461792,-1.978864312171936,9.415757179260254
1711072537860502500,24.48850244140625,2.2707886695861816,-1.9657038450241089,9.42891788482666
1711072537879461400,24.50746142578125,2.2995026111602783,-2.122433662414551,9.471988677978516
