time,seconds_elapsed,z,y,x
1711072513440425000,0.068425048828125,0,0,0
1711072513459383800,0.0873837890625,-0.0721275806427002,-0.06975650787353516,-0.03311586380004883
1711072513478342400,0.10634228515625,-0.22399425506591797,-0.06187629699707031,-0.18250274658203125
1711072513497301000,0.125301025390625,-0.2249772548675537,0.18351268768310547,-0.2093677520751953
1711072513516259800,0.144259765625,-0.027994155883789062,0.2081155776977539,-0.046483516693115234
1711072513535218400,0.163218505859375,0.14415478706359863,0.11444473266601562,0.18799304962158203
1711072513554177000,0.182177001953125,0.22351527214050293,0.22479915618896484,0.2739129066467285
1711072513573136000,0.201135986328125,0.2401885986328125,0.2452077865600586,0.26671838760375977
1711072513592094500,0.220094482421875,0.17106127738952637,-0.044678688049316406,0.1915583610534668
1711072513611053000,0.239052978515625,-0.1534867286682129,0.0030155181884765625,0.03392648696899414
1711072513630012000,0.258011962890625,-0.16335678100585938,0.05483055114746094,-0.21054935455322266
1711072513648970500,0.276970458984375,-0.16721320152282715,-0.040078163146972656,-0.34697413444519043
1711072513667929300,0.295929443359375,-0.1657731533050537,-0.09125614166259766,-0.2018728256225586
1711072513686888000,0.314887939453125,-0.09564685821533203,-0.06648921966552734,-0.05861806869506836
1711072513705846500,0.333846435546875,-0.043920040130615234,-0.022487640380859375,0.0011219978332519531
1711072513724805400,0.352805419921875,-0.028561830520629883,-0.06822490692138672,-0.06662416458129883
1711072513743764000,0.371763916015625,-0.05349421501159668,-0.031922340393066406,-0.10637378692626953
1711072513762722800,0.390722900390625,-0.07136321067810059,-0.056705474853515625,-0.09839963912963867
1711072513781681400,0.409681396484375,-0.07259607315063477,-0.061946868896484375,-0.10567903518676758
1711072513800640000,0.428639892578125,-0.04386448860168457,0.008861541748046875,-0.05148172378540039
1711072513819598800,0.447598876953125,0.00603795051574707,0.022321701049804688,0.009964466094970703
1711072513838557400,0.466557373046875,0.05189847946166992,0.013030052185058594,0.0025391578674316406
1711072513857516300,0.485516357421875,-0.08046913146972656,-0.058007240295410156,0.12055253982543945
1711072513876475000,0.504474853515625,0.05159163475036621,0.1223287582397461,0.43932247161865234
1711072513895433500,0.52343359375,0.25311875343322754,-0.018529891967773438,0.6006340980529785
1711072513914392300,0.542392333984375,0.014467954635620117,-0.39391231536865234,0.5484805107116699
1711072513933351000,0.561350830078125,-0.36614537239074707,-0.43460512161254883,0.06007862091064453
1711072513952309800,0.580309814453125,-0.6588501930236816,-0.23699474334716797,-0.7903842926025391
1711072513971268400,0.599268310546875,-0.5155067443847656,-0.06296825408935547,-0.9870586395263672
1711072513990227000,0.61822705078125,-0.08992409706115723,0.21012020111083984,-0.5432031154632568
1711072514009185800,0.637185791015625,0.3133089542388916,0.30203819274902344,-0.21420955657958984
1711072514028144400,0.656144287109375,0.5029749870300293,0.3480539321899414,0.07079935073852539
1711072514047103000,0.67510302734375,0.4819817543029785,0.20772171020507812,0.4870262145996094
1711072514066061800,0.694061767578125,0.22040271759033203,0.17158031463623047,0.785588264465332
1711072514085020400,0.7130205078125,0.13826513290405273,0.2739696502685547,0.7406125068664551
1711072514103979300,0.731979248046875,0.044626474380493164,-0.06466293334960938,0.6937379837036133
1711072514122937900,0.750937744140625,-0.2744731903076172,-0.17894744873046875,0.2917342185974121
1711072514141896700,0.769896728515625,-0.5563137531280518,-0.2561206817626953,-0.44714999198913574
1711072514160855300,0.788855224609375,-0.545360803604126,-0.16490459442138672,-0.6515200138092041
1711072514179814000,0.80781396484375,-0.29636621475219727,-0.007817268371582031,-0.16841983795166016
1711072514198772700,0.826772705078125,0.005171060562133789,0.13762664794921875,0.3950991630554199
1711072514217731300,0.8457314453125,0.1812458038330078,0.2554454803466797,0.4707469940185547
1711072514236690200,0.864690185546875,0.21045422554016113,0.35068225860595703,0.5188517570495605
1711072514255648800,0.883648681640625,-0.07734799385070801,-0.04881477355957031,0.3366823196411133
1711072514274607400,0.902607421875,-0.3058159351348877,-0.22344207763671875,0.048645973205566406
1711072514293566200,0.921566162109375,-0.2675588130950928,-0.10972213745117188,0.0520176887512207
1711072514312524800,0.94052490234375,-0.2238469123840332,-0.07107782363891602,0.020831584930419922
1711072514331483600,0.959483642578125,-0.11519980430603027,-0.04712533950805664,-0.26508188247680664
1711072514350442200,0.978442138671875,0.02446579933166504,-0.022077560424804688,-0.3795127868652344
1711072514369401000,0.997401123046875,-0.14983773231506348,-0.25604772567749023,-0.33141231536865234
1711072514388359700,1.016359619140625,-0.3643524646759033,-0.4886622428894043,-0.2037196159362793
1711072514407318300,1.035318359375,-0.5247538089752197,-0.5833048820495605,-0.38147401809692383
1711072514426277000,1.054277099609375,-0.5658764839172363,-0.3375720977783203,-0.3777756690979004
1711072514445235700,1.073235595703125,-0.4845268726348877,-0.15908384323120117,-0.16660356521606445
1711072514464194600,1.092194580078125,-0.3026885986328125,-0.09342813491821289,0.03670024871826172
1711072514483153200,1.111153076171875,-0.1355431079864502,0.036180973052978516,0.2391223907470703
1711072514502112000,1.130112060546875,-0.07468891143798828,0.29285669326782227,0.33914852142333984
1711072514521070600,1.149070556640625,-0.0005255937576293945,0.37021636962890625,0.3169264793395996
1711072514540029400,1.168029541015625,0.016692399978637695,0.48519229888916016,0.17544937133789062
1711072514558988000,1.186988037109375,-0.10901260375976562,0.6040287017822266,0.1619277000427246
1711072514577946600,1.205946533203125,-0.09445643424987793,0.6581754684448242,-0.020490169525146484
1711072514596905500,1.224905517578125,0.13496601581573486,0.6450176239013672,-0.5145659446716309
1711072514615864000,1.243864013671875,0.30304574966430664,0.5789914131164551,-1.108729362487793
1711072514634822700,1.26282275390625,0.26743388175964355,1.1665692329406738,-1.1453099250793457
1711072514653781500,1.281781494140625,0.32406437397003174,-0.06926155090332031,-0.32213258743286133
1711072514672740400,1.300740234375,0.2862776517868042,-0.4403848648071289,0.6206455230712891
1711072514691699000,1.319698974609375,-0.005227565765380859,-0.49031829833984375,0.6057100296020508
1711072514710657500,1.338657470703125,-0.3522462844848633,-0.23574542999267578,0.1867055892944336
1711072514729616400,1.357616455078125,-0.35193932056427,0.01241922378540039,-0.17484760284423828
1711072514748575000,1.376574951171875,0.11385416984558105,0.16935348510742188,-0.17037057876586914
1711072514767533800,1.395533935546875,0.41375207901000977,0.5169215202331543,-0.13151121139526367
1711072514786492400,1.414492431640625,0.5103386640548706,0.6773743629455566,-0.4867067337036133
1711072514805451300,1.433451171875,0.2485884428024292,0.41283178329467773,-0.8198285102844238
1711072514824409900,1.452409912109375,-0.13857543468475342,-0.2652926445007324,-0.748598575592041
1711072514843368700,1.47136865234375,-0.4646925926208496,-0.8351755142211914,-0.33655548095703125
1711072514862327300,1.490327392578125,-0.5331951379776001,-0.7963504791259766,0.263887882232666
1711072514881286000,1.509285888671875,-0.31852662563323975,0.23078107833862305,0.45824432373046875
1711072514900244700,1.52824462890625,0.10804331302642822,0.6451964378356934,-0.17722845077514648
1711072514919203300,1.547203369140625,0.07009100914001465,0.38902854919433594,-0.42864370346069336
1711072514938162200,1.566162109375,-0.0030597448348999023,0.8954300880432129,-0.6488146781921387
1711072514957120800,1.585120849609375,-0.3125722408294678,-0.39258718490600586,-0.965336799621582
1711072514976079600,1.60407958984375,-0.5233070850372314,-0.9203581809997559,-0.5344257354736328
1711072514995038200,1.6230380859375,-0.2913466691970825,0.03332328796386719,-0.1879558563232422
1711072515013997000,1.6419970703125,0.1539924144744873,0.6380167007446289,-0.023470401763916016
1711072515032955600,1.66095556640625,0.4398510456085205,0.8101801872253418,0.06926965713500977
1711072515051914500,1.67991455078125,0.49083614349365234,0.7925820350646973,0.037493228912353516
1711072515070873000,1.698873046875,0.3082960844039917,0.5478181838989258,-0.2314600944519043
1711072515089832000,1.71783203125,0.07893121242523193,0.06571245193481445,-0.8619937896728516
1711072515108790500,1.73679052734375,-0.14476776123046875,-0.12359380722045898,-1.0481886863708496
1711072515127749400,1.755749267578125,-0.147497296333313,-0.21770238876342773,-0.5461912155151367
1711072515146708000,1.7747080078125,0.058234453201293945,-0.4300661087036133,0.09566974639892578
1711072515165666800,1.793666748046875,0.24820828437805176,-0.26367616653442383,0.35966968536376953
1711072515184625400,1.81262548828125,0.010099649429321289,-0.11049270629882812,0.8001556396484375
1711072515203584000,1.831583984375,-0.14809024333953857,-0.024080753326416016,0.9508600234985352
1711072515222542800,1.85054296875,0.0419769287109375,0.04227876663208008,0.6918325424194336
1711072515241501700,1.869501708984375,-0.17213380336761475,-0.31354761123657227,0.5016937255859375
1711072515260460300,1.888460205078125,-0.12859022617340088,-0.1996150016784668,0.274991512298584
1711072515279419100,1.907419189453125,0.0525437593460083,-0.22535037994384766,-0.03856706619262695
1711072515298377700,1.926377685546875,0.284543514251709,-0.18762969970703125,-0.06648445129394531
1711072515317336300,1.94533642578125,0.2043222188949585,-0.12124300003051758,0.11846113204956055
1711072515336295200,1.964295166015625,0.12817084789276123,0.07323837280273438,0.12248086929321289
1711072515355254000,1.98325390625,0.15326035022735596,0.24566888809204102,-0.2283778190612793
1711072515374212600,2.002212646484375,0.32318806648254395,0.25285768508911133,-0.44446468353271484
1711072515393171200,2.021171142578125,0.1545964479446411,-0.17951297760009766,0.09057140350341797
1711072515412130000,2.040130126953125,-0.024689316749572754,-0.16745281219482422,0.5341043472290039
1711072515431089000,2.0590888671875,-0.006983041763305664,0.032217979431152344,0.17077112197875977
1711072515450047500,2.078047607421875,0.007951736450195312,0.16301441192626953,-0.2643141746520996
1711072515469006000,2.097006103515625,-0.07384955883026123,-0.02603912353515625,-0.13098478317260742
1711072515487965000,2.11596484375,0.012027859687805176,-0.22884416580200195,0.0839242935180664
1711072515506923800,2.134923828125,0.25094401836395264,-0.07300806045532227,0.20392370223999023
1711072515525882400,2.15388232421875,0.28159499168395996,-0.08880138397216797,0.22327661514282227
1711072515544841200,2.17284130859375,0.09416496753692627,-0.13189220428466797,0.19164371490478516
1711072515563799800,2.1917998046875,-0.10260486602783203,-0.10840225219726562,0.11500787734985352
1711072515582758700,2.210758544921875,-0.18923747539520264,-0.17006731033325195,-0.03255653381347656
1711072515601717200,2.22971728515625,-0.13728606700897217,-0.3126544952392578,-0.1397242546081543
1711072515620676000,2.248676025390625,-0.06415998935699463,-0.3874683380126953,-0.18186569213867188
1711072515639634700,2.267634765625,0.03340744972229004,0.10350465774536133,-0.1905674934387207
1711072515658593500,2.286593505859375,0.007979154586791992,0.23760271072387695,-0.48675012588500977
1711072515677552000,2.30555224609375,0.005669832229614258,-0.19690179824829102,-0.5665683746337891
1711072515696511000,2.324510986328125,0.03624916076660156,-0.052290916442871094,-0.0941171646118164
1711072515715469600,2.343469482421875,0.3397425413131714,0.4188714027404785,0.34842920303344727
1711072515734428400,2.362428466796875,0.5733277797698975,0.6010465621948242,0.1082143783569336
1711072515753387300,2.38138720703125,0.5341829061508179,0.5004301071166992,-0.607335090637207
1711072515772345900,2.400345947265625,0.37024497985839844,0.4081707000732422,-1.1153359413146973
1711072515791304400,2.419304443359375,0.12330746650695801,0.5074057579040527,-1.1121907234191895
1711072515810263300,2.43826318359375,0.09236776828765869,0.5177178382873535,-0.6920762062072754
1711072515829222100,2.45722216796875,0.056815505027770996,0.35622692108154297,-0.2293696403503418
1711072515848180700,2.4761806640625,0.04487276077270508,0.5980658531188965,0.06693029403686523
1711072515867139300,2.495139404296875,0.39371752738952637,0.3769111633300781,0.4820857048034668
1711072515886098200,2.51409814453125,0.6563934087753296,0.3650522232055664,0.9545855522155762
1711072515905057000,2.53305712890625,0.7694979906082153,0.25827693939208984,0.9020705223083496
1711072515924015600,2.552015625,0.5195856094360352,-0.16773509979248047,0.7354345321655273
1711072515942974500,2.570974365234375,0.19824063777923584,-0.44278907775878906,0.6879315376281738
1711072515961933000,2.58993310546875,-0.1277146339416504,-0.6683759689331055,0.6871113777160645
1711072515980892000,2.608891845703125,-0.29857850074768066,-0.9375543594360352,0.7796721458435059
1711072515999850500,2.6278505859375,-0.36689257621765137,-1.0820550918579102,0.7893519401550293
1711072516018809300,2.646809326171875,-0.215124249458313,-1.092874526977539,1.0786900520324707
1711072516037768200,2.665768310546875,-0.15471410751342773,-1.2714004516601562,1.3633856773376465
1711072516056726800,2.684726806640625,-0.0517117977142334,-1.472116470336914,1.4212512969970703
1711072516075685600,2.703685546875,0.03024435043334961,-1.3787117004394531,1.4411101341247559
1711072516094644200,2.722644287109375,-0.08635425567626953,-1.3514866828918457,1.2956438064575195
1711072516113603000,2.74160302734375,-0.24576640129089355,-1.4237775802612305,1.04032564163208
1711072516132561700,2.760561767578125,-0.29808735847473145,-1.344423770904541,0.6773924827575684
1711072516151520500,2.7795205078125,-0.20738530158996582,-1.1399908065795898,0.4068593978881836
1711072516170479000,2.79847900390625,-0.10310530662536621,-0.9605016708374023,0.28403139114379883
1711072516189438000,2.81743798828125,0.13238739967346191,-0.5274477005004883,0.28040122985839844
1711072516208396800,2.836396728515625,0.48701953887939453,0.12201976776123047,0.4205164909362793
1711072516227355400,2.85535546875,0.5235121250152588,0.32365989685058594,0.019519329071044922
1711072516246314200,2.874314208984375,0.5458159446716309,0.17860698699951172,-0.1325850486755371
1711072516265272800,2.89327294921875,0.2992701530456543,0.13485050201416016,-0.8552730083465576
1711072516284231700,2.912231689453125,-0.0038747787475585938,0.524104118347168,-1.141148567199707
1711072516303190300,2.931190185546875,0.302722692489624,0.7735614776611328,-0.7398762702941895
1711072516322149000,2.950149169921875,1.0027647018432617,0.6209936141967773,0.40385866165161133
1711072516341108000,2.96910791015625,1.3369507789611816,0.3759164810180664,1.2849464416503906
1711072516360066600,2.988066650390625,0.8740413188934326,0.29169464111328125,0.9183626174926758
1711072516379025200,3.007025146484375,0.09539365768432617,0.35381412506103516,0.005324363708496094
1711072516397984000,3.02598388671875,-0.3992598056793213,0.32314586639404297,-0.4179506301879883
1711072516416942800,3.04494287109375,-0.6771907806396484,0.2613716125488281,-0.5677299499511719
1711072516435901400,3.0639013671875,-0.6159886121749878,0.17123889923095703,-0.7134761810302734
1711072516454860300,3.0828603515625,-0.5591385364532471,-0.16027164459228516,-0.6389472484588623
1711072516473819100,3.101819091796875,-0.4052450656890869,-0.40897226333618164,-0.4807891845703125
1711072516492777700,3.12077783203125,-0.2659459114074707,-0.31744861602783203,-0.3721599578857422
1711072516511736300,3.139736328125,-0.3059539794921875,-0.2317800521850586,-0.22766351699829102
1711072516530695200,3.158695068359375,-0.2494826316833496,-0.1356973648071289,-0.004066944122314453
1711072516549654000,3.177654052734375,-0.10788655281066895,-0.13654422760009766,-0.00640106201171875
1711072516568612600,3.196612548828125,0.024150371551513672,-0.04401588439941406,-0.1391744613647461
1711072516587571500,3.215571533203125,-0.034250497817993164,0.2704038619995117,-0.10612201690673828
1711072516606530000,3.234530029296875,-0.13507604598999023,0.47538280487060547,0.1518092155456543
1711072516625489000,3.253489013671875,-0.008800506591796875,0.5035486221313477,0.443422794342041
1711072516644447700,3.27244775390625,0.30007362365722656,0.38947010040283203,0.6072907447814941
1711072516663406300,3.29140625,0.4089329242706299,0.15392684936523438,0.5216984748840332
1711072516682365200,3.310365234375,-0.03638815879821777,-0.23270320892333984,0.40119075775146484
1711072516701324000,3.329323974609375,-0.3850247859954834,-0.4748497009277344,0.32000255584716797
1711072516720282600,3.34828271484375,-0.260847806930542,-0.47946643829345703,0.2702655792236328
1711072516739241200,3.3672412109375,-0.08559417724609375,-0.567265510559082,0.2392878532409668
1711072516758200000,3.386199951171875,-0.12125134468078613,-0.6238713264465332,0.256439208984375
1711072516777159000,3.405158935546875,-0.16722369194030762,-0.5698728561401367,0.14739131927490234
1711072516796117500,3.424117431640625,-0.15037918090820312,-0.4846940040588379,0.20310115814208984
1711072516815076400,3.443076416015625,-0.1701200008392334,-0.37242889404296875,0.359494686126709
1711072516834035000,3.462034912109375,-0.052358388900756836,-0.4100790023803711,0.4922189712524414
1711072516852993800,3.480993896484375,0.12426996231079102,-0.4459981918334961,0.4002084732055664
1711072516871952600,3.49995263671875,-0.028237581253051758,-0.5231833457946777,0.11980104446411133
1711072516890911200,3.5189111328125,-0.30691075325012207,-0.47257137298583984,-0.10347270965576172
1711072516909870000,3.5378701171875,-0.3862539529800415,-0.5891170501708984,-0.06635618209838867
1711072516928829000,3.556828857421875,-0.2726891040802002,-0.6433591842651367,0.16395282745361328
1711072516947787500,3.57578759765625,-0.28939294815063477,-0.31394195556640625,0.22426509857177734
1711072516966746000,3.59474609375,-0.5671966075897217,0.1103973388671875,0.1788005828857422
1711072516985705000,3.613705078125,-0.7949843406677246,0.4144096374511719,0.277982234954834
1711072517004663800,3.632663818359375,-0.6791363954544067,0.5773849487304688,0.5864043235778809
1711072517023622400,3.651622314453125,-0.28359436988830566,0.44793701171875,0.842005729675293
1711072517042581200,3.670581298828125,-0.2680014371871948,0.31523704528808594,0.8196215629577637
1711072517061539800,3.689539794921875,-0.3961530923843384,0.3267087936401367,0.8030734062194824
1711072517080498700,3.708498779296875,-0.35352933406829834,0.2873697280883789,0.7536935806274414
1711072517099457500,3.72745751953125,-0.19786417484283447,0.06829643249511719,0.750971794128418
1711072517118416100,3.746416015625,-0.2645012140274048,-0.033629417419433594,0.6405611038208008
1711072517137375000,3.765375,-0.5466597676277161,-0.0065784454345703125,0.36408424377441406
1711072517156333800,3.784333740234375,-0.6248809695243835,0.12352466583251953,0.10041522979736328
1711072517175292400,3.80329248046875,-0.5154539942741394,0.1902751922607422,-0.12486648559570312
1711072517194251300,3.822251220703125,-0.3865739107131958,0.16773128509521484,-0.10400199890136719
1711072517213209900,3.8412099609375,-0.3002244234085083,0.4160175323486328,0.1688847541809082
1711072517232168700,3.860168701171875,-0.17751634120941162,0.5736856460571289,0.14316272735595703
1711072517251127600,3.87912744140625,-0.16152215003967285,0.5808124542236328,-0.02900552749633789
1711072517270086100,3.898086181640625,-0.2470792531967163,0.5524225234985352,-0.25553131103515625
1711072517289045000,3.917044921875,-0.3181716203689575,0.6111478805541992,-0.15276622772216797
1711072517308003600,3.936003662109375,-0.3397566080093384,0.3896913528442383,-0.2552332878112793
1711072517326962400,3.95496240234375,-0.46561670303344727,0.11440563201904297,-0.2224569320678711
1711072517345921000,3.973921142578125,-0.7681065797805786,-0.02617359161376953,0.2336421012878418
1711072517364880000,3.9928798828125,-0.9924191832542419,-0.08046913146972656,0.5906858444213867
1711072517383838700,4.011838623046875,-1.0923271179199219,-0.280853271484375,1.0243792533874512
1711072517402797300,4.03079736328125,-1.07522714138031,-0.6114253997802734,1.3873343467712402
1711072517421756200,4.049756103515625,-0.7644965648651123,-0.9630908966064453,1.5667223930358887
1711072517440714800,4.06871484375,-0.6555510759353638,-1.2885451316833496,1.5154409408569336
1711072517459673600,4.087673583984375,-0.7256531715393066,-1.5124502182006836,1.2466974258422852
1711072517478632400,4.106632568359375,-0.9016451835632324,-1.3539834022521973,0.9988541603088379
1711072517497591000,4.125591064453125,-0.945260763168335,-0.7760396003723145,0.6123600006103516
1711072517516550000,4.1445498046875,-1.0239486694335938,-0.25014543533325195,0.26906442642211914
1711072517535508500,4.163508544921875,-0.9248030185699463,0.019092082977294922,0.4110755920410156
1711072517554467300,4.18246728515625,-0.5160121917724609,0.19046831130981445,0.5883932113647461
1711072517573426200,4.20142626953125,-0.3169746398925781,0.44237327575683594,1.0703926086425781
1711072517592384800,4.220384765625,-0.0060274600982666016,0.5078854560852051,1.6309814453125
1711072517611343600,4.239343505859375,0.24804139137268066,-0.10323810577392578,1.7195148468017578
1711072517630302500,4.258302490234375,0.37397313117980957,-0.7834792137145996,1.2938380241394043
1711072517649261000,4.277260986328125,0.40674853324890137,-0.6315617561340332,0.6443543434143066
1711072517668220000,4.296219970703125,0.17292070388793945,-0.13987016677856445,0.027748584747314453
1711072517687178500,4.315178466796875,-0.008392572402954102,0.3724079132080078,-0.7762465476989746
1711072517706137300,4.334137451171875,-0.28992414474487305,0.7992868423461914,-1.4912023544311523
1711072517725096200,4.35309619140625,-0.25267791748046875,0.926581859588623,-1.6663384437561035
1711072517744054800,4.3720546875,0.00397038459777832,0.9763598442077637,-1.3159022331237793
1711072517763013600,4.391013671875,0.454287052154541,0.8502159118652344,-0.5451059341430664
1711072517781972200,4.40997216796875,1.1604857444763184,0.8044514656066895,0.1511363983154297
1711072517800931000,4.42893115234375,1.5404410362243652,0.5254759788513184,0.2821054458618164
1711072517819890000,4.447889892578125,1.5971543788909912,0.30661487579345703,-0.044582366943359375
1711072517838848500,4.4668486328125,1.3928537368774414,0.35093116760253906,-0.2764472961425781
1711072517857807400,4.485807373046875,1.153160810470581,0.3791837692260742,-0.44371700286865234
1711072517876766200,4.50476611328125,1.105161428451538,0.2543373107910156,-0.5946359634399414
1711072517895724800,4.523724853515625,1.0605690479278564,0.16399383544921875,-0.4819965362548828
1711072517914683600,4.54268359375,1.1590745449066162,0.08707475662231445,-0.24448680877685547
1711072517933642200,4.561642333984375,1.986886739730835,0.8600201606750488,-0.7033987045288086
1711072517952601000,4.58060107421875,1.556105613708496,0.9513704776763916,-2.255702495574951
1711072517971560000,4.599559814453125,1.3980588912963867,0.6969354152679443,-2.5330581665039062
1711072517990518500,4.6185185546875,0.9360733032226562,0.24308204650878906,-0.80267333984375
1711072518009477400,4.637477294921875,0.04860210418701172,-0.3478233814239502,0.14462947845458984
1711072518028436000,4.65643603515625,-0.15454888343811035,-0.658897876739502,0.43537044525146484
1711072518047394800,4.675394775390625,0.445009708404541,-0.9728810787200928,0.7394256591796875
1711072518066353700,4.694353759765625,0.9380857944488525,-1.37892484664917,0.19457530975341797
1711072518085312300,4.713312255859375,0.3916285037994385,-1.2993898391723633,-0.6001496315002441
1711072518104271000,4.73227099609375,0.07137441635131836,-0.5072531700134277,-1.4929609298706055
1711072518123230000,4.75122998046875,0.35360050201416016,0.2778441905975342,-1.6573123931884766
1711072518142188500,4.7701884765625,0.6559216976165771,0.5798578262329102,-1.3485045433044434
1711072518161147400,4.7891474609375,0.9731559753417969,0.775773286819458,-1.2353286743164062
1711072518180106000,4.80810595703125,1.4248614311218262,1.0876927375793457,-0.8727149963378906
1711072518199064800,4.82706494140625,1.413062334060669,1.1314842700958252,-0.4899616241455078
1711072518218023700,4.846023681640625,1.2627952098846436,0.9228694438934326,-0.33411502838134766
1711072518236982300,4.864982177734375,0.9752509593963623,0.6091604232788086,-0.42900943756103516
1711072518255941000,4.883941162109375,0.5742533206939697,0.06973457336425781,-0.6806707382202148
1711072518274900000,4.90289990234375,0.2522885799407959,-0.28212594985961914,-0.7368764877319336
1711072518293858600,4.921858642578125,0.0648496150970459,-0.2602047920227051,-0.5284137725830078
1711072518312817400,4.9408173828125,-0.06652235984802246,-0.04917430877685547,-0.14208221435546875
1711072518331776000,4.95977587890625,0.10460615158081055,-0.0928192138671875,0.09696483612060547
1711072518350734800,4.97873486328125,0.38022541999816895,-0.28890395164489746,0.0846700668334961
1711072518369693700,4.997693603515625,0.4016599655151367,-0.12065434455871582,-0.10298919677734375
1711072518388652300,5.01665234375,0.35036778450012207,0.0169374942779541,-0.2528982162475586
1711072518407611100,5.035611083984375,0.2971324920654297,-0.011156082153320312,-0.2669553756713867
1711072518426569700,5.05456982421875,0.38470935821533203,0.06706476211547852,-0.13354206085205078
1711072518445528600,5.073528564453125,0.6603267192840576,0.21570920944213867,0.26757049560546875
1711072518464487400,5.0924873046875,0.6941969394683838,0.30721163749694824,0.6620883941650391
1711072518483446000,5.111446044921875,0.37447047233581543,0.2068009376525879,0.4528188705444336
1711072518502404900,5.13040478515625,0.29178690910339355,0.10722899436950684,0.17113399505615234
1711072518521363700,5.14936376953125,0.17032241821289062,0.0744166374206543,-0.05746269226074219
1711072518540322300,5.168322265625,-0.00007605552673339844,0.06853294372558594,-0.1114053726196289
1711072518559281200,5.18728125,-0.15403509140014648,-0.035044193267822266,-0.07734870910644531
1711072518578239700,5.20623974609375,-0.12880921363830566,-0.04603886604309082,0.06788063049316406
1711072518597198600,5.225198486328125,0.0922544002532959,-0.0036666393280029297,0.1833047866821289
1711072518616157400,5.244157470703125,0.044797658920288086,0.0442047119140625,0.17764663696289062
1711072518635116000,5.263115966796875,-0.07033586502075195,-0.01523280143737793,0.01587677001953125
1711072518654075000,5.282074951171875,0.1257462501525879,-0.0708308219909668,-0.08457660675048828
1711072518673033500,5.301033447265625,0.11370587348937988,-0.020568132400512695,-0.0954437255859375
1711072518691992300,5.319992431640625,0.29422640800476074,0.06255292892456055,-0.015625
1711072518710951200,5.338951171875,0.4045557975769043,0.0006144046783447266,0.0657033920288086
1711072518729909800,5.35790966796875,0.3052985668182373,-0.013889789581298828,0.014433860778808594
1711072518748868600,5.37686865234375,0.18447637557983398,-0.09371519088745117,0.05342292785644531
1711072518767827500,5.395827392578125,0.24734807014465332,-0.25374794006347656,-0.06532669067382812
1711072518786786000,5.4147861328125,0.337479829788208,-0.40133094787597656,-0.16875171661376953
1711072518805745000,5.433744873046875,0.33388471603393555,-0.37888026237487793,-0.1884002685546875
1711072518824703500,5.452703369140625,0.356095552444458,-0.1708989143371582,-0.3029928207397461
1711072518843662300,5.471662353515625,0.12950468063354492,-0.11803889274597168,-0.4121379852294922
1711072518862621200,5.49062109375,0.07934451103210449,0.16892051696777344,-0.30774497985839844
1711072518881579800,5.509579833984375,0.1992015838623047,0.1510162353515625,-0.15196990966796875
1711072518900538600,5.52853857421875,0.2695300579071045,-0.10239338874816895,-0.03631401062011719
1711072518919497500,5.54749755859375,0.1423943042755127,0.055364131927490234,0.09215259552001953
1711072518938456000,5.5664560546875,-0.06893682479858398,0.034448862075805664,-0.09162425994873047
1711072518957415000,5.585414794921875,-0.1993577480316162,-0.1508939266204834,-0.4158339500427246
1711072518976373500,5.60437353515625,-0.0011227130889892578,-0.25963449478149414,-0.39659881591796875
1711072518995332400,5.623332275390625,-0.09157323837280273,-0.22134089469909668,-0.27695560455322266
1711072519014291200,5.642291259765625,-0.16745853424072266,-0.06949782371520996,-0.23601913452148438
1711072519033249800,5.661249755859375,-0.10388660430908203,0.018141508102416992,-0.2229604721069336
1711072519052208400,5.68020849609375,-0.003222227096557617,0.13335728645324707,-0.025411605834960938
1711072519071167200,5.699167236328125,0.042710304260253906,0.17510128021240234,0.1603069305419922
1711072519090126000,5.7181259765625,0.11263442039489746,0.1200404167175293,0.1578531265258789
1711072519109085000,5.7370849609375,0.27756214141845703,0.02594447135925293,0.18747901916503906
1711072519128043500,5.75604345703125,0.3222839832305908,-0.03840756416320801,0.28400707244873047
1711072519147002400,5.77500244140625,0.16347026824951172,-0.12291121482849121,0.36012744903564453
1711072519165961200,5.793961181640625,0.09398722648620605,-0.23015117645263672,0.46666526794433594
1711072519184919800,5.812919921875,0.09347391128540039,-0.23498868942260742,0.4801063537597656
1711072519203878700,5.831878662109375,0.08559799194335938,-0.22205853462219238,0.43787097930908203
1711072519222837200,5.850837158203125,0.05920839309692383,-0.20708131790161133,0.3341064453125
1711072519241796000,5.869796142578125,0.17729401588439941,-0.18937039375305176,0.1615734100341797
1711072519260755000,5.8887548828125,0.28769636154174805,-0.04758119583129883,0.06930160522460938
1711072519279713500,5.907713623046875,0.24684929847717285,0.12241363525390625,0.2492227554321289
1711072519298672400,5.92667236328125,-0.18454432487487793,-0.12122297286987305,0.11837577819824219
1711072519317631000,5.945630859375,-0.1559467315673828,-0.32927370071411133,-0.2360210418701172
1711072519336589800,5.96458984375,0.6080951690673828,-0.09035277366638184,-0.28281688690185547
1711072519355548700,5.983548583984375,0.8698813915252686,0.39149999618530273,0.42901134490966797
1711072519374507300,6.00250732421875,0.2767765522003174,0.49353790283203125,0.5992355346679688
1711072519393466000,6.021466064453125,-0.17248797416687012,0.12624883651733398,0.06334686279296875
1711072519412425000,6.040425048828125,-0.16392159461975098,-0.2565345764160156,-0.26616573333740234
1711072519431383600,6.059383544921875,-0.239457368850708,-0.4374582767486572,-0.2529573440551758
1711072519450342400,6.07834228515625,-0.37360501289367676,-0.3054661750793457,-0.3785543441772461
1711072519469301200,6.09730126953125,-0.21038818359375,-0.12273883819580078,-0.4870486259460449
1711072519488259800,6.116259765625,0.11049842834472656,-0.028995275497436523,-0.4179506301879883
1711072519507218700,6.13521875,0.1397106647491455,0.13530778884887695,-0.3361549377441406
1711072519526177500,6.154177490234375,0.19358015060424805,0.25420618057250977,-0.20629501342773438
1711072519545136000,6.17313623046875,0.2844724655151367,0.29090213775634766,0.15294456481933594
1711072519564095000,6.192094970703125,0.28583312034606934,0.15005159378051758,0.5771923065185547
1711072519583053800,6.2110537109375,0.21201157569885254,0.033699750900268555,0.7364673614501953
1711072519602012700,6.2300126953125,0.19130325317382812,0.11161160469055176,0.8975305557250977
1711072519620971300,6.24897119140625,0.025696277618408203,0.1741023063659668,1.1194486618041992
1711072519639930000,6.26793017578125,0.3790304660797119,0.13255071640014648,1.0093765258789062
1711072519658888700,6.286888671875,0.5548717975616455,0.3417515754699707,1.6288738250732422
1711072519677847600,6.30584765625,0.5757725238800049,1.1835055351257324,3.145200729370117
1711072519696806400,6.324806396484375,0.7743704319000244,1.4550566673278809,3.8349075317382812
1711072519715765200,6.34376513671875,1.871652603149414,1.0477323532104492,3.8193540573120117
1711072519734723800,6.362723876953125,1.337320327758789,1.1463532447814941,3.5698423385620117
1711072519753682700,6.3816826171875,0.14769625663757324,1.171724796295166,2.4922103881835938
1711072519772641300,6.400641357421875,-0.03218364715576172,0.9482955932617188,2.2444162368774414
1711072519791600400,6.419600341796875,-0.30686211585998535,0.6829376220703125,2.1645469665527344
1711072519810559000,6.43855908203125,-0.3992781639099121,0.6297364234924316,1.7991142272949219
1711072519829517800,6.457517822265625,-0.6423654556274414,0.2661929130554199,1.4500102996826172
1711072519848476400,6.476476318359375,-0.5254192352294922,-0.8759970664978027,0.5091066360473633
1711072519867435300,6.495435302734375,-0.10652899742126465,-1.6859464645385742,-0.5791049003601074
1711072519886394000,6.51439404296875,-0.7441692352294922,-1.4590964317321777,-0.975738525390625
1711072519905353000,6.53335302734375,-0.4174760580062866,-0.1932220458984375,-0.08345460891723633
1711072519924311800,6.552311767578125,-0.22428393363952637,-0.06624031066894531,0.568016529083252
1711072519943270400,6.5712705078125,0.13827025890350342,-0.9322657585144043,0.13310003280639648
1711072519962229200,6.590229248046875,-0.14532160758972168,-1.2727699279785156,-0.4468560218811035
1711072519981188000,6.60918798828125,-0.8524707555770874,-0.8570423126220703,-0.7083892822265625
1711072520000147000,6.62814697265625,-0.779065728187561,-0.6739926338195801,-0.6892147064208984
1711072520019105500,6.64710546875,-0.306585431098938,-0.7824530601501465,-0.21623706817626953
1711072520038064400,6.666064453125,0.22499918937683105,-0.9673047065734863,-0.012090206146240234
1711072520057023200,6.685023193359375,-0.10276305675506592,-1.1925220489501953,-0.06310462951660156
1711072520075981800,6.70398193359375,-0.5461905002593994,-1.0071368217468262,-0.21146202087402344
1711072520094940700,6.722940673828125,-0.6726977825164795,-0.6457858085632324,-0.19971418380737305
1711072520113899500,6.7418994140625,-0.4820669889450073,-0.670865535736084,-0.25683164596557617
1711072520132858400,6.7608583984375,-0.4584813117980957,-0.8159999847412109,-0.38732385635375977
1711072520151817200,6.779817138671875,-0.39881372451782227,-1.1931495666503906,-0.453885555267334
1711072520170776000,6.798776123046875,-0.4663729667663574,-1.4297399520874023,-0.5524311065673828
1711072520189734700,6.817734619140625,-0.2734065055847168,-1.2737388610839844,-1.0918941497802734
1711072520208693500,6.836693603515625,-0.34898805618286133,-1.3977174758911133,-1.7206497192382812
1711072520227652400,6.85565234375,-0.6762335300445557,-1.6110854148864746,-2.252969741821289
1711072520246611200,6.874611083984375,-0.18616843223571777,-1.4390931129455566,-2.2824909687042236
1711072520265570000,6.893570068359375,-0.08330249786376953,-1.4178495407104492,-2.16361665725708
1711072520284528600,6.912528564453125,-0.15590977668762207,-1.6553592681884766,-2.239793062210083
1711072520303487500,6.931487548828125,-0.24595141410827637,-1.6903362274169922,-2.0566720962524414
1711072520322446300,6.9504462890625,-0.20854568481445312,-1.6941184997558594,-2.1442203521728516
1711072520341405200,6.9694052734375,-0.6077301502227783,-1.2345085144042969,-1.737431526184082
1711072520360364000,6.988364013671875,-0.40323615074157715,-0.42578601837158203,-0.48052167892456055
1711072520379323000,7.007322998046875,0.9984891414642334,0.8875541687011719,1.1165556907653809
1711072520398281700,7.02628173828125,1.543304204940796,1.4591026306152344,1.833883285522461
1711072520417240300,7.045240234375,1.1233820915222168,1.3372573852539062,1.629063606262207
1711072520436199200,7.06419921875,0.8478884696960449,1.034219741821289,1.3283863067626953
1711072520455158000,7.083157958984375,0.5713131427764893,0.6391105651855469,1.6093463897705078
1711072520474116900,7.102116943359375,0.15532827377319336,-0.9191179275512695,2.327026844024658
1711072520493075700,7.12107568359375,-0.10577273368835449,-1.9869670867919922,2.0834145545959473
1711072520512034300,7.140034423828125,-0.5451297760009766,-2.324458599090576,0.6474413871765137
1711072520530993400,7.158993408203125,-0.49694228172302246,-1.8057408332824707,-0.4627370834350586
1711072520549952000,7.177951904296875,-0.4621601104736328,-2.0128254890441895,-2.381483554840088
1711072520568910800,7.196910888671875,-1.725429654121399,-3.0882019996643066,-2.5093278884887695
1711072520587869700,7.21586962890625,-2.2784600257873535,-2.700751781463623,-0.43671560287475586
1711072520606828500,7.23482861328125,-1.66378915309906,-1.4175124168395996,1.448838710784912
1711072520625787400,7.253787353515625,-0.39247560501098633,0.05830574035644531,2.4676570892333984
1711072520644746200,7.272746337890625,1.233182430267334,0.9848122596740723,3.267563819885254
1711072520663705000,7.291705078125,2.6446585655212402,1.2137746810913086,3.0264339447021484
1711072520682663700,7.31066357421875,2.9977078437805176,1.3698210716247559,2.5634870529174805
1711072520701622800,7.329622802734375,2.8261072635650635,1.7209320068359375,2.1593799591064453
1711072520720581600,7.34858154296875,1.9916454553604126,2.6149532794952393,1.5993804931640625
1711072520739540500,7.36754052734375,1.018749713897705,2.952174663543701,0.5699243545532227
1711072520758499000,7.3864990234375,0.25982165336608887,2.390052318572998,-0.6544561386108398
1711072520777458000,7.4054580078125,-0.3807622194290161,2.2829763889312744,-1.2891654968261719
1711072520796416800,7.424416748046875,-0.7973659038543701,2.670496940612793,-1.2203760147094727
1711072520815375600,7.443375732421875,-0.8086163997650146,3.0951995849609375,-1.6034526824951172
1711072520834334500,7.46233447265625,-0.5786292552947998,2.4218673706054688,-1.8822383880615234
1711072520853293300,7.481293212890625,-0.12894082069396973,1.8360635042190552,-1.5762042999267578
1711072520872252200,7.500252197265625,0.2536594867706299,1.4313980340957642,-1.597280502319336
1711072520891211000,7.5192109375,0.4172050952911377,1.3655126094818115,-1.6571664810180664
1711072520910169900,7.538169921875,0.46439528465270996,1.2872073650360107,-1.10400390625
1711072520929128700,7.557128662109375,0.47233009338378906,0.8486005663871765,-1.2991266250610352
1711072520948087600,7.576087646484375,0.07768821716308594,0.6875975131988525,-1.8350067138671875
1711072520967046400,7.59504638671875,0.03277730941772461,0.9357504844665527,-2.025451183319092
1711072520986005200,7.614005126953125,0.331362247467041,1.430130124092102,-2.8779640197753906
1711072521004964000,7.632964111328125,0.23225760459899902,1.2658250331878662,-3.058706283569336
1711072521023923000,7.6519228515625,0.38768625259399414,1.0012483596801758,-1.8596301078796387
1711072521042881800,7.6708818359375,0.4797811508178711,1.3311505317687988,0.4930906295776367
1711072521061840600,7.689840576171875,0.2254641056060791,0.9347666501998901,1.450331687927246
1711072521080799500,7.708799560546875,0.33638691902160645,0.29109835624694824,1.87255859375
1711072521099758300,7.72775830078125,0.39763402938842773,0.0006254911422729492,2.119875907897949
1711072521118717200,7.74671728515625,0.19115066528320312,-0.12144625186920166,1.7085189819335938
1711072521137676000,7.765676025390625,-0.38033246994018555,-0.3797198534011841,0.2460174560546875
1711072521156635000,7.784634765625,-1.806881308555603,-0.3031198978424072,-1.4604148864746094
1711072521175593700,7.80359375,-2.8853349685668945,-0.46959388256073,-2.3295764923095703
1711072521194552600,7.822552490234375,-2.333343267440796,-0.47132837772369385,-3.1517996788024902
1711072521213511400,7.841511474609375,-0.6736712455749512,0.24492645263671875,-2.429196357727051
1711072521232470300,7.86047021484375,0.9518654346466064,0.9281148910522461,0.08506965637207031
1711072521251429000,7.87942919921875,2.137773036956787,1.2177190780639648,2.3367862701416016
1711072521270388000,7.898387939453125,2.207636594772339,0.7088370323181152,3.2132339477539062
1711072521289346800,7.917346923828125,1.7579302787780762,0.6660662889480591,2.3701181411743164
1711072521308305700,7.9363056640625,0.799714207649231,0.7016100883483887,0.4120159149169922
1711072521327264500,7.955264404296875,-0.08146309852600098,0.5416300296783447,-1.3936395645141602
1711072521346223600,7.9742236328125,-0.4968675374984741,0.6283168792724609,-1.8897662162780762
1711072521365182500,7.993182373046875,0.043775320053100586,0.6207563877105713,-0.901789665222168
1711072521384141300,8.012141357421875,0.5860445499420166,0.44678473472595215,0.1010751724243164
1711072521403100200,8.03110009765625,0.5431652069091797,-0.3974912166595459,0.6486406326293945
1711072521422059000,8.05005908203125,-0.23347997665405273,-0.6583101749420166,0.8037834167480469
1711072521441017900,8.069017822265625,-0.7031147480010986,-0.30245304107666016,0.5235528945922852
1711072521459976700,8.087976806640626,0.14864182472229004,-0.4163830280303955,0.6151905059814453
1711072521478935600,8.106935546875,0.05790376663208008,-0.7673485279083252,1.6670856475830078
1711072521497894700,8.125894775390625,-1.3454868793487549,-0.847119927406311,1.5607175827026367
1711072521516853500,8.144853515625,-1.8157660961151123,-0.8759653568267822,-1.4971237182617188
1711072521535812400,8.163812255859375,-0.9680759906768799,-0.6593037843704224,-3.650601387023926
1711072521554771200,8.182771240234375,-0.2300269603729248,-0.3233147859573364,-1.8178272247314453
1711072521573730000,8.20172998046875,0.48122286796569824,-0.2326871156692505,0.5214405059814453
1711072521592689000,8.22068896484375,0.568554162979126,-0.09375154972076416,1.4133119583129883
1711072521611647700,8.239647705078125,-0.07131457328796387,-0.18141746520996094,1.363739013671875
1711072521630606800,8.25860693359375,-0.5545732975006104,-0.42864692211151123,0.12917613983154297
1711072521649565700,8.277565673828125,-0.9292817115783691,-0.3259791135787964,-0.8819065093994141
1711072521668524500,8.296524658203126,-0.9044678211212158,-0.08991873264312744,-0.8562917709350586
1711072521687483400,8.3154833984375,-0.6717400550842285,-0.04950082302093506,-0.6166000366210938
1711072521706442200,8.334442138671875,-0.23591327667236328,-0.04929041862487793,-0.3604278564453125
1711072521725401300,8.3534013671875,0.43520426750183105,-0.14697420597076416,0.20947551727294922
1711072521744360200,8.372360107421875,0.2728536128997803,-0.09101128578186035,0.52606201171875
1711072521763319000,8.391319091796875,0.43134140968322754,0.12055182456970215,0.6917915344238281
1711072521782278000,8.41027783203125,-0.2011408805847168,-0.16566359996795654,1.0402774810791016
1711072521801236700,8.42923681640625,0.6446964740753174,-0.2669318914413452,1.9308586120605469
1711072521820195800,8.44819580078125,1.4478874206542969,0.42771661281585693,1.2822723388671875
1711072521839154700,8.46715478515625,1.3191173076629639,1.3771698474884033,0.3806772232055664
1711072521858113500,8.486113525390625,0.23856449127197266,1.5069961547851562,-0.5100374221801758
1711072521877072400,8.505072265625,0.16647100448608398,0.9983887672424316,-1.00738525390625
1711072521896031500,8.524031494140624,0.9827053546905518,0.6975502967834473,-0.0786895751953125
1711072521914990300,8.542990234375,1.448302984237671,0.409984827041626,0.6944618225097656
1711072521933949200,8.56194921875,1.0802221298217773,0.431459903717041,0.6370134353637695
1711072521952908300,8.580908203125,0.21298432350158691,0.19001555442810059,0.008170127868652344
1711072521971867100,8.5998671875,-0.22092962265014648,-0.015152931213378906,-0.40627384185791016
1711072521990826000,8.618825927734376,-0.35016369819641113,0.10772848129272461,-0.4583768844604492
1711072522009784800,8.637784912109375,-0.34730982780456543,0.18210339546203613,-0.11601543426513672
1711072522028743700,8.65674365234375,-0.3866257667541504,0.08272194862365723,0.0016241073608398438
1711072522047702800,8.675702880859374,-0.6219987869262695,0.03385782241821289,-0.5499944686889648
1711072522066661600,8.69466162109375,-0.6920244693756104,0.3121168613433838,-1.1472854614257812
1711072522085620500,8.713620361328125,-0.17081356048583984,0.5600223541259766,-0.9184169769287109
1711072522104579600,8.73257958984375,0.632321834564209,0.5813823938369751,-0.12528419494628906
1711072522123538400,8.751538330078125,0.8514533042907715,0.8214541673660278,0.4057903289794922
1711072522142497300,8.770497314453126,0.8567602634429932,1.2174471616744995,0.6247091293334961
1711072522161456400,8.789456298828124,1.105820655822754,1.520333170890808,0.8194036483764648
1711072522180415200,8.808415283203125,1.497387409210205,0.7749457359313965,0.7264261245727539
1711072522199374000,8.8273740234375,1.3494963645935059,-0.11089396476745605,0.3306264877319336
1711072522218333200,8.846333251953125,0.3177213668823242,-0.5586605072021484,0.5094518661499023
1711072522237292000,8.8652919921875,-0.7484538555145264,-0.9676928520202637,0.8583269119262695
1711072522256251000,8.8842509765625,-0.921689510345459,-0.7949590682983398,0.4799480438232422
1711072522275209700,8.903209716796875,-0.42641162872314453,-0.18137788772583008,-0.4868173599243164
1711072522294168800,8.9221689453125,-0.28821706771850586,-0.26820850372314453,-1.2813892364501953
1711072522313127700,8.941127685546874,-0.7803349494934082,-0.7411180734634399,-1.5330467224121094
1711072522332086800,8.960086669921875,-1.2132091522216797,-1.0091770887374878,-1.3609046936035156
1711072522351045600,8.979045654296876,-1.9422893524169922,-1.7440111637115479,-1.199514389038086
1711072522370004500,8.99800439453125,-2.3597805500030518,-2.032228946685791,-0.6752710342407227
1711072522388963600,9.016963623046875,-1.2515188455581665,-1.0200202465057373,-0.05088233947753906
1711072522407922400,9.03592236328125,0.1661818027496338,0.012085318565368652,0.06234264373779297
1711072522426881300,9.05488134765625,0.3739769458770752,0.12937867641448975,0.6570959091186523
1711072522445840400,9.07384033203125,-0.02055513858795166,-0.024729490280151367,0.74090576171875
1711072522464799200,9.09279931640625,0.5711017847061157,0.009810566902160645,0.45874881744384766
1711072522483758300,9.11175830078125,1.15897536277771,0.43710899353027344,0.26587963104248047
1711072522502717200,9.13071728515625,0.9698008298873901,0.7654388546943665,0.10009956359863281
1711072522521676000,9.149676025390624,0.8749710321426392,0.40700554847717285,-0.15258407592773438
1711072522540635100,9.16863525390625,0.7108689546585083,0.18252289295196533,-0.18319129943847656
1711072522559594000,9.187593994140625,0.33415937423706055,0.6011087894439697,-0.02619171142578125
1711072522578553000,9.206552978515624,0.15463292598724365,0.6902896165847778,0.439300537109375
1711072522597512000,9.225511962890625,0.11801302433013916,0.35289692878723145,0.544743537902832
1711072522616470800,9.244470703125,0.1826324462890625,0.18090343475341797,0.3347282409667969
1711072522635430000,9.263429931640625,0.15965795516967773,0.13714468479156494,-0.02909088134765625
1711072522654388700,9.282388671875,0.06011950969696045,-0.03444182872772217,-0.3214387893676758
1711072522673347800,9.301347900390626,-0.09329438209533691,-0.05925929546356201,-0.03738975524902344
1711072522692306700,9.320306640625,-0.01211249828338623,-0.08562755584716797,0.1989583969116211
1711072522711265500,9.339265625,0.14422190189361572,-0.1139378547668457,0.3328876495361328
1711072522730224600,9.358224609375,0.012940526008605957,-0.2834198474884033,-0.02077770233154297
1711072522749183500,9.37718359375,-0.2656821012496948,-0.4446040391921997,-0.6071691513061523
1711072522768142300,9.396142333984375,-0.4355226755142212,-0.45001220703125,-0.8241281509399414
1711072522787101400,9.415101318359374,-0.49104344844818115,-0.3600410223007202,-0.7308444976806641
1711072522806060300,9.434060302734375,-0.38989317417144775,-0.2601604461669922,-0.6151666641235352
1711072522825019400,9.453019287109376,-0.3947153091430664,-0.14861512184143066,-0.49293994903564453
1711072522843978200,9.471978271484375,-0.206689715385437,-0.06307268142700195,-0.1471996307373047
1711072522862937300,9.490937255859375,-0.0744861364364624,-0.12972521781921387,0.5040245056152344
1711072522881896200,9.509896240234376,0.03387773036956787,0.1510559320449829,1.1709938049316406
1711072522900855000,9.52885498046875,0.3906710147857666,0.5174697637557983,1.3754634857177734
1711072522919814100,9.547814208984375,0.8114771842956543,0.5675012469291687,1.1595897674560547
1711072522938773000,9.56677294921875,0.8217283487319946,0.3902130126953125,0.8144245147705078
1711072522957732000,9.585732177734375,0.25041234493255615,0.3096052408218384,0.4373149871826172
1711072522976691000,9.60469091796875,-0.29701995849609375,0.2732234597206116,-0.02072429656982422
1711072522995650000,9.623650146484374,-0.36475497484207153,0.020706772804260254,-0.6832265853881836
1711072523014609000,9.64260888671875,-0.28241217136383057,-0.15827590227127075,-0.8571090698242188
1711072523033567700,9.661567626953126,-0.4132426977157593,-0.41602516174316406,-0.5773763656616211
1711072523052526800,9.68052685546875,-0.4799327850341797,-0.49801886081695557,-0.28345680236816406
1711072523071485700,9.699485595703125,-0.35449010133743286,-0.1633700132369995,-0.1767416000366211
1711072523090444800,9.71844482421875,-0.12652170658111572,0.0434420108795166,-0.04151630401611328
1711072523109403600,9.737403564453125,-0.11595618724822998,0.21068274974822998,-0.021085739135742188
1711072523128362800,9.75636279296875,0.36589789390563965,0.14472681283950806,0.029099464416503906
1711072523147321600,9.775321533203124,0.6427450180053711,0.0004138946533203125,0.06261444091796875
1711072523166280400,9.794280517578125,0.4320865869522095,-0.05776393413543701,-0.1914501190185547
1711072523185239600,9.813239501953126,0.33345746994018555,-0.036734938621520996,-0.23178482055664062
1711072523204198400,9.832198486328124,0.17434489727020264,-0.0425950288772583,-0.12127876281738281
1711072523223157200,9.8511572265625,0.06883096694946289,0.005188584327697754,0.02817249298095703
1711072523242116400,9.870116455078126,0.0719214677810669,-0.009970426559448242,0.21579360961914062
1711072523261075200,9.8890751953125,0.0832223892211914,-0.18241095542907715,0.3900289535522461
1711072523280034300,9.908034423828125,-0.0054874420166015625,-0.1697998046875,0.37171459197998047
1711072523298993200,9.9269931640625,0.011480093002319336,0.0337064266204834,0.47327613830566406
1711072523317952300,9.9459521484375,0.2164245843887329,0.23648881912231445,0.3543386459350586
1711072523336911000,9.9649111328125,0.19896423816680908,0.3505213260650635,0.15787601470947266
1711072523355870000,9.983869873046874,0.06093418598175049,0.37464433908462524,0.10662555694580078
1711072523374829000,10.0028291015625,0.06917202472686768,0.39295661449432373,0.09411907196044922
1711072523393788000,10.021787841796876,0.03768718242645264,0.34225326776504517,0.0872488021850586
1711072523412747000,10.0407470703125,-0.09246957302093506,0.38205236196517944,0.07793617248535156
1711072523431705900,10.059705810546875,-0.0932997465133667,0.4890787601470947,0.05911827087402344
1711072523450665000,10.0786650390625,-0.059007883071899414,0.58835369348526,0.113616943359375
1711072523469623800,10.097623779296875,-0.05993092060089111,0.5834539532661438,0.208892822265625
1711072523488582700,10.116582763671875,0.0019358396530151367,0.3291844129562378,0.25078678131103516
1711072523507541800,10.135541748046874,0.13804304599761963,0.017703652381896973,0.07614421844482422
1711072523526500600,10.15450048828125,0.14725589752197266,-0.18207669258117676,-0.15662670135498047
1711072523545459700,10.173459716796875,0.02944624423980713,-0.3013964891433716,-0.4294319152832031
1711072523564418600,10.19241845703125,-0.04265773296356201,-0.2851177453994751,-0.4981060028076172
1711072523583377700,10.211377685546875,-0.12561607360839844,-0.21759772300720215,-0.44063663482666016
1711072523602336500,10.23033642578125,-0.014922022819519043,-0.16436827182769775,-0.27411937713623047
1711072523621295400,10.24929541015625,0.060927391052246094,-0.10227566957473755,-0.15312862396240234
1711072523640254200,10.268254150390625,0.1260298490524292,-0.017882943153381348,-0.013998031616210938
1711072523659213300,10.28721337890625,0.2278575897216797,0.03002876043319702,0.08466720581054688
1711072523678172200,10.306172119140625,0.20450830459594727,0.060141921043395996,0.11445236206054688
1711072523697131300,10.32513134765625,0.19262909889221191,0.08836501836776733,0.1126108169555664
1711072523716090000,10.344090087890624,0.32518434524536133,0.060145556926727295,-0.012986183166503906
1711072523735049200,10.36304931640625,0.2972961664199829,0.009477615356445312,-0.14908695220947266
1711072523754008000,10.382008056640625,0.23473048210144043,0.04581087827682495,-0.12742137908935547
1711072523772967000,10.400966796875,0.20769667625427246,0.09926104545593262,-0.04589366912841797
1711072523791926000,10.419926025390625,0.08105599880218506,0.16701948642730713,0.10581111907958984
1711072523810884900,10.438884765625,0.11140847206115723,0.1911197304725647,0.07283782958984375
1711072523829843700,10.45784375,0.059775710105895996,0.10110950469970703,-0.014162063598632812
1711072523848802800,10.476802734375,-0.0027337074279785156,0.10594409704208374,-0.03868389129638672
1711072523867761700,10.49576171875,-0.1171194314956665,0.14562541246414185,0.09402942657470703
1711072523886720800,10.514720703125,-0.1491636037826538,0.1482558250427246,0.30997562408447266
1711072523905679600,10.5336796875,-0.0999070405960083,-0.01790761947631836,0.2952146530151367
1711072523924638700,10.552638671875,-0.0906294584274292,-0.0887194275856018,0.2185840606689453
1711072523943597600,10.57159765625,-0.16132783889770508,-0.06961452960968018,0.14198017120361328
1711072523962556400,10.590556396484375,-0.17409658432006836,-0.04736173152923584,0.028494834899902344
1711072523981515300,10.609515380859374,-0.1525334119796753,-0.05535304546356201,0.0357208251953125
1711072524000474400,10.628474365234375,-0.051514267921447754,-0.04253584146499634,0.08882904052734375
1711072524019433200,10.64743310546875,0.04142475128173828,0.08576488494873047,0.24364757537841797
1711072524038392300,10.666392333984374,0.04819607734680176,0.15007293224334717,0.3297691345214844
1711072524057351200,10.68535107421875,0.03450489044189453,0.12083232402801514,0.3735017776489258
1711072524076310300,10.704310302734376,0.1099863052368164,0.11590999364852905,0.2949638366699219
1711072524095269000,10.72326904296875,0.11943435668945312,-0.0112839937210083,0.0794992446899414
1711072524114228000,10.74222802734375,-0.04491257667541504,-0.04502183198928833,-0.10899829864501953
1711072524133186800,10.761186767578126,-0.1406702995300293,-0.019008517265319824,-0.21835613250732422
1711072524152146000,10.78014599609375,-0.12079906463623047,0.03201150894165039,-0.16048431396484375
1711072524171104800,10.799104736328125,-0.2239387035369873,-0.06222337484359741,0.24760055541992188
1711072524190063900,10.81806396484375,-0.17191076278686523,-0.03267216682434082,0.7562370300292969
1711072524209022700,10.837022705078125,0.006888389587402344,0.286127507686615,0.6845235824584961
1711072524227981600,10.855981689453126,0.021907567977905273,0.5316070318222046,0.11025428771972656
1711072524246940700,10.874940673828124,-0.2942686080932617,0.5427284240722656,-0.2424631118774414
1711072524265899500,10.8938994140625,-0.585294246673584,0.3369983434677124,-0.5017681121826172
1711072524284858400,10.9128583984375,-0.5766322612762451,0.11820805072784424,-0.5943698883056641
1711072524303817500,10.9318173828125,-0.4182472229003906,0.06069374084472656,-0.3512001037597656
1711072524322776300,10.9507763671875,-0.32157349586486816,-0.04523956775665283,-0.02121734619140625
1711072524341735200,10.969735107421876,-0.3464071750640869,-0.07861173152923584,0.10565471649169922
1711072524360694300,10.9886943359375,-0.3254373073577881,-0.16233205795288086,0.12075138092041016
1711072524379653000,11.007653076171875,-0.18580079078674316,-0.3457297682762146,0.07471084594726562
1711072524398612000,11.026612060546874,0.019530296325683594,-0.4968533515930176,-0.016229629516601562
1711072524417571000,11.045571044921875,0.17380905151367188,-0.5797447562217712,-0.04326152801513672
1711072524436530000,11.064530029296876,0.2818939685821533,-0.5952730774879456,-0.0914154052734375
1711072524455488800,11.08348876953125,0.13059234619140625,-0.5782413482666016,-0.14432144165039062
1711072524474448000,11.10244775390625,-0.06443262100219727,-0.599138617515564,-0.18379688262939453
1711072524493406700,11.12140673828125,0.12738752365112305,-0.6308743357658386,-0.4598426818847656
1711072524512365600,11.140365478515625,0.2752070426940918,-0.6177197694778442,-0.6760339736938477
1711072524531324400,11.159324462890625,0.137892484664917,-0.544474720954895,-0.6367216110229492
1711072524550283500,11.178283447265626,0.03449201583862305,-0.5126525163650513,-0.4958839416503906
1711072524569242400,11.197242431640625,-0.06591510772705078,-0.5724220275878906,-0.4479846954345703
1711072524588201500,11.216201416015625,-0.16467714309692383,-0.6451339721679688,-0.3550701141357422
1711072524607160300,11.235160400390624,-0.2969956398010254,-0.7274867296218872,-0.18381977081298828
1711072524626119200,11.254119140625,-0.3171381950378418,-0.6927776336669922,-0.09211158752441406
1711072524645078300,11.273078369140626,-0.32411909103393555,-0.6648046970367432,-0.13247013092041016
1711072524664037000,11.292037109375,-0.20706582069396973,-0.6549273729324341,-0.23002052307128906
1711072524682996000,11.310995849609375,-0.10567641258239746,-0.5291837453842163,-0.4195842742919922
1711072524701955000,11.329955078125,-0.10648965835571289,-0.45723438262939453,-0.49213314056396484
1711072524720914000,11.348913818359375,-0.24315714836120605,-0.32555508613586426,-0.45352935791015625
1711072524739872800,11.367872802734375,-0.42041730880737305,-0.1345728635787964,-0.1534290313720703
1711072524758831600,11.38683154296875,-0.32488155364990234,-0.008610963821411133,0.38916683197021484
1711072524777790500,11.40579052734375,-0.13089990615844727,0.21012604236602783,1.014181137084961
1711072524796749600,11.42474951171875,-0.01769542694091797,0.3200039863586426,1.2032499313354492
1711072524815708400,11.44370849609375,-0.01975083351135254,0.4568670988082886,0.9368448257446289
1711072524834667300,11.462667236328125,-0.1304645538330078,0.5391086339950562,0.4586944580078125
1711072524853626400,11.48162646484375,-0.16675901412963867,0.5448834300041199,-0.0944375991821289
1711072524872585200,11.500585205078124,-0.2283775806427002,0.6323655843734741,-0.4067554473876953
1711072524891544000,11.5195439453125,-0.20087695121765137,0.7232152223587036,-0.43956661224365234
1711072524910503200,11.538503173828126,0.12431621551513672,0.7074021100997925,-0.34923744201660156
1711072524929462000,11.5574619140625,0.40793609619140625,0.5938917994499207,-0.20576190948486328
1711072524948420900,11.5764208984375,0.5084195137023926,0.3698657155036926,-0.07409954071044922
1711072524967380000,11.5953798828125,0.44489550590515137,0.22883820533752441,-0.027123451232910156
1711072524986338800,11.6143388671875,0.3356032371520996,0.14666897058486938,0.021828651428222656
1711072525005297700,11.633297607421875,0.20124149322509766,0.06037253141403198,0.09414482116699219
1711072525024256500,11.652256591796874,0.20055294036865234,-0.010257303714752197,0.16081619262695312
1711072525043215400,11.67121533203125,0.28254151344299316,-0.15353482961654663,0.10564804077148438
1711072525062174500,11.690174560546875,0.20391345024108887,-0.1774458885192871,0.02433013916015625
1711072525081133300,11.70913330078125,0.10193753242492676,-0.18295645713806152,-0.08585262298583984
1711072525100092200,11.728092041015625,0.10519909858703613,-0.18963497877120972,-0.2362527847290039
1711072525119051300,11.74705126953125,0.10564088821411133,-0.09089285135269165,-0.2668628692626953
1711072525138010000,11.766010009765624,0.028348922729492188,-0.004858732223510742,-0.14004039764404297
1711072525156969000,11.784968994140625,-0.026754140853881836,0.00519871711730957,-0.04597187042236328
1711072525175927800,11.803927734375,0.028837203979492188,-0.029324114322662354,-0.10248947143554688
1711072525194887000,11.822886962890625,0.06228017807006836,-0.019833803176879883,-0.1032876968383789
1711072525213845800,11.841845703125,0.035830020904541016,-0.024054527282714844,-0.059815406799316406
1711072525232804600,11.8608046875,0.01903700828552246,0.018515825271606445,0.006670951843261719
1711072525251763500,11.879763427734375,0.035282135009765625,0.04432833194732666,-0.02429485321044922
1711072525270722600,11.89872265625,0.027379751205444336,0.06122875213623047,-0.06635189056396484
1711072525289681400,11.917681396484374,0.010876178741455078,0.08675909042358398,-0.03761863708496094
1711072525308640300,11.93664013671875,0.03905606269836426,0.07642865180969238,0.005808830261230469
1711072525327599000,11.95559912109375,0.03799009323120117,0.05486595630645752,0.0709991455078125
1711072525346558000,11.974557861328124,0.04602384567260742,0.11132574081420898,0.1050424575805664
1711072525365517000,11.99351708984375,0.09168195724487305,0.1107250452041626,0.1033945083618164
1711072525384476000,12.012475830078126,0.1409919261932373,0.10275781154632568,0.08248615264892578
1711072525403434800,12.031434814453124,0.09432244300842285,0.12689322233200073,0.03170204162597656
1711072525422393600,12.0503935546875,0.04511666297912598,0.14702951908111572,0.031136512756347656
1711072525441352700,12.069352783203126,0.10336971282958984,0.07679128646850586,0.0680379867553711
1711072525460311600,12.0883115234375,0.08341431617736816,0.07302737236022949,0.09156417846679688
1711072525479270400,12.1072705078125,0.040299415588378906,0.1404862403869629,0.1019287109375
1711072525498229200,12.126229248046876,-0.030916690826416016,0.15335297584533691,0.1070852279663086
1711072525517188400,12.145188232421875,-0.004297733306884766,0.03333115577697754,0.034317970275878906
1711072525536147200,12.164147216796875,-0.00011754035949707031,-0.008151531219482422,-0.03937339782714844
1711072525555106000,12.18310595703125,-0.002206087112426758,0.017545461654663086,-0.010272979736328125
1711072525574065000,12.20206494140625,-0.0007545948028564453,0.034515380859375,0.014039039611816406
1711072525593023700,12.221023681640625,-0.0034263134002685547,0.0677950382232666,0.05152130126953125
1711072525611982800,12.23998291015625,-0.0527493953704834,0.04983121156692505,0.0985422134399414
1711072525630941700,12.258941650390625,-0.05868864059448242,0.0494382381439209,0.17946243286132812
1711072525649900500,12.277900634765626,-0.03330373764038086,0.04564756155014038,0.21054744720458984
1711072525668859400,12.296859375,-0.03043389320373535,0.07641470432281494,0.25590038299560547
1711072525687818200,12.315818359375,-0.005595684051513672,0.01245027780532837,0.21461105346679688
1711072525706777300,12.33477734375,-0.003795623779296875,-0.06698334217071533,-0.013225555419921875
1711072525725736200,12.353736083984375,-0.06186509132385254,0.00633084774017334,-0.18627166748046875
1711072525744695000,12.372695068359375,-0.11314916610717773,0.13026517629623413,-0.28165531158447266
1711072525763654000,12.39165380859375,-0.01749563217163086,0.17538833618164062,-0.31089115142822266
1711072525782613000,12.410613037109375,0.11069321632385254,0.1926366686820984,-0.21358203887939453
1711072525801571800,12.42957177734375,0.19591021537780762,0.12036639451980591,-0.12875843048095703
1711072525820530700,12.44853076171875,0.16493582725524902,0.1787475347518921,-0.049907684326171875
1711072525839489500,12.467489501953125,0.10658717155456543,0.1517212986946106,-0.015109062194824219
1711072525858448400,12.486448486328126,0.11292719841003418,0.14326101541519165,-0.055411338806152344
1711072525877407200,12.5054072265625,0.07641077041625977,0.0879218578338623,-0.031932830810546875
1711072525896366000,12.524365966796875,0.08701014518737793,0.010864973068237305,0.008698463439941406
1711072525915325000,12.543324951171876,0.08570551872253418,-0.08660888671875,-0.055245399475097656
1711072525934284000,12.562283935546875,0.049164533615112305,-0.15097016096115112,-0.11530590057373047
1711072525953243000,12.581242919921875,0.016163110733032227,-0.19057244062423706,-0.13409423828125
1711072525972201700,12.60020166015625,-0.035459280014038086,-0.2056063413619995,-0.11242866516113281
1711072525991160600,12.61916064453125,-0.04178667068481445,-0.20753341913223267,-0.1097249984741211
1711072526010119400,12.638119384765625,-0.07884764671325684,-0.2102501392364502,-0.14353179931640625
1711072526029078300,12.657078369140624,-0.07099556922912598,-0.18490976095199585,-0.09919452667236328
1711072526048037400,12.676037353515625,-0.12344598770141602,-0.1608096957206726,-0.062218666076660156
1711072526066996200,12.694996337890625,-0.15740227699279785,-0.14040350914001465,-0.011837959289550781
1711072526085955000,12.713955078125,-0.15509676933288574,-0.16435950994491577,-0.028885841369628906
1711072526104914000,12.732913818359375,-0.08922910690307617,-0.15853142738342285,-0.007856369018554688
1711072526123872800,12.751872802734376,-0.09567141532897949,-0.16573792695999146,0.02030181884765625
1711072526142831600,12.77083154296875,-0.02084636688232422,-0.2688029408454895,-0.09282779693603516
1711072526161790500,12.78979052734375,-0.02455759048461914,-0.23764222860336304,-0.191558837890625
1711072526180749600,12.80874951171875,-0.09245157241821289,-0.22954457998275757,-0.22513389587402344
1711072526199708400,12.82770849609375,-0.05876278877258301,-0.22541725635528564,-0.11859416961669922
1711072526218667300,12.846667236328125,0.055385589599609375,-0.1643517017364502,-0.052730560302734375
1711072526237626000,12.865626220703126,-0.07462620735168457,-0.03369700908660889,0.052964210510253906
1711072526256585000,12.8845849609375,-0.251065731048584,0.05103874206542969,0.3096332550048828
1711072526275543800,12.903543701171875,-0.3269195556640625,-0.05235600471496582,0.3285388946533203
1711072526294502700,12.922502685546876,-0.3234119415283203,0.2108135223388672,-0.12873458862304688
1711072526313461800,12.941461669921875,-0.31267881393432617,0.4957910478115082,-0.4240865707397461
1711072526332420600,12.960420654296875,-0.2833704948425293,0.5864298939704895,-0.3660163879394531
1711072526351379500,12.97937939453125,0.08823513984680176,0.6877156496047974,-0.05307292938232422
1711072526370338300,12.99833837890625,0.4325129985809326,0.6082474589347839,0.17361831665039062
1711072526389297200,13.017297119140625,0.3888552188873291,0.5839391946792603,0.46518516540527344
1711072526408256000,13.036256103515624,0.4525175094604492,0.7985994815826416,0.7904586791992188
1711072526427214800,13.05521484375,0.7607195377349854,0.7470179796218872,0.8916091918945312
1711072526446173700,13.074173583984376,0.976823091506958,0.29990458488464355,0.6858396530151367
1711072526465132500,13.093132568359374,0.9155700206756592,0.015787601470947266,0.39914512634277344
1711072526484091600,13.112091552734375,0.6865048408508301,-0.21451103687286377,-0.02670764923095703
1711072526503050500,13.131050537109376,0.2916233539581299,-0.5034882426261902,-0.43264007568359375
1711072526522009300,13.15000927734375,-0.2241377830505371,-0.6813937425613403,-0.6374702453613281
1711072526540968200,13.16896826171875,-0.5866506099700928,-0.6895849704742432,-0.6359653472900391
1711072526559927000,13.187927001953126,-0.740941047668457,-0.7160009145736694,-0.48113155364990234
1711072526578886000,13.206885986328125,-0.5606069564819336,-0.8495993614196777,-0.3880739212036133
1711072526597844700,13.2258447265625,-0.2752056121826172,-0.9934145212173462,-0.45125389099121094
1711072526616803600,13.244803466796874,-0.24450397491455078,-0.9489518404006958,-0.6218967437744141
1711072526635762400,13.263762451171875,-0.44501590728759766,-0.700380802154541,-0.5360889434814453
1711072526654721300,13.28272119140625,-0.4323844909667969,-0.5285556316375732,-0.4018726348876953
1711072526673680400,13.301680419921874,-0.11441278457641602,-0.48077714443206787,-0.38132476806640625
1711072526692639200,13.32063916015625,-0.009214162826538086,-0.32205748558044434,-0.3310976028442383
1711072526711598000,13.33959814453125,-0.04499316215515137,-0.15541541576385498,-0.21918106079101562
1711072526730557000,13.358556884765624,-0.12270736694335938,-0.1021721363067627,-0.04041481018066406
1711072526749515800,13.377515869140625,-0.18132281303405762,-0.04095160961151123,-0.005260467529296875
1711072526768474600,13.396474609375,-0.18333745002746582,-0.03504300117492676,-0.06389236450195312
1711072526787433500,13.41543359375,-0.14011406898498535,0.08712482452392578,-0.09313011169433594
1711072526806392300,13.434392333984375,-0.14175629615783691,0.16176676750183105,-0.027540206909179688
1711072526825351400,13.453351318359376,-0.14597034454345703,0.10380542278289795,-0.03618431091308594
1711072526844310300,13.472310302734375,-0.14928364753723145,0.19523489475250244,0.07784652709960938
1711072526863269000,13.49126904296875,-0.19008827209472656,0.22765684127807617,0.29541015625
1711072526882228000,13.51022802734375,-0.018447399139404297,0.0740499496459961,0.4750528335571289
1711072526901186800,13.529186767578125,-0.0013115406036376953,0.2617069482803345,0.6483182907104492
1711072526920145700,13.548145751953125,0.037947893142700195,0.2641053795814514,0.5535640716552734
1711072526939104500,13.5671044921875,-0.06311464309692383,0.23493880033493042,0.4070625305175781
1711072526958063400,13.5860634765625,-0.10856127738952637,0.19134336709976196,0.2150421142578125
1711072526977022200,13.605022216796876,-0.1836390495300293,0.08920204639434814,-0.022208213806152344
1711072526995981000,13.62398095703125,-0.1751267910003662,0.026399731636047363,-0.15309906005859375
1711072527014940000,13.64293994140625,-0.2523458003997803,0.008349418640136719,-0.19379520416259766
1711072527033898800,13.661898681640626,-0.32987499237060547,-0.034578800201416016,-0.15549468994140625
1711072527052857600,13.680857666015624,-0.2401409149169922,-0.13768744468688965,-0.04133415222167969
1711072527071816400,13.69981640625,-0.15981507301330566,-0.11735320091247559,0.018054962158203125
1711072527090775300,13.718775390625,-0.12392735481262207,-0.080147385597229,-0.03785133361816406
1711072527109734100,13.737734130859375,-0.08316254615783691,-0.03182697296142578,-0.07947063446044922
1711072527128693000,13.75669287109375,0.011073589324951172,-0.02990090847015381,-0.08232593536376953
1711072527147651800,13.77565185546875,0.13067269325256348,-0.03604018688201904,-0.09514331817626953
1711072527166610700,13.794610595703125,0.12854623794555664,0.03295910358428955,-0.07256317138671875
1711072527185569500,13.813569580078125,0.11411285400390625,0.028435945510864258,0.0044097900390625
1711072527204528400,13.8325283203125,0.1342167854309082,-0.0009866952896118164,0.08119964599609375
1711072527223487200,13.8514873046875,0.1835784912109375,-0.01780879497528076,0.014192581176757812
1711072527242446000,13.870446044921875,0.1451249122619629,-0.13595521450042725,-0.03814411163330078
1711072527261405000,13.889405029296874,0.022320032119750977,-0.14574503898620605,-0.10480022430419922
1711072527280364000,13.908364013671875,-0.08941936492919922,-0.06984508037567139,-0.21870803833007812
1711072527299323000,13.927322998046876,-0.12171506881713867,-0.11944544315338135,-0.22797012329101562
1711072527318281700,13.94628173828125,-0.06353139877319336,-0.11725175380706787,-0.20620059967041016
1711072527337240600,13.965240478515625,-0.0303955078125,-0.07084333896636963,-0.0927267074584961
1711072527356199400,13.984199462890626,-0.029517412185668945,-0.12044763565063477,0.010445594787597656
1711072527375158300,14.003158203125,-0.008362770080566406,-0.0781320333480835,0.08466053009033203
1711072527394117000,14.0221171875,0.03958010673522949,0.02771306037902832,0.06775760650634766
1711072527413076000,14.041075927734376,0.0589597225189209,0.02468883991241455,0.04473304748535156
1711072527432034800,14.060034912109375,0.03541254997253418,0.002658843994140625,0.057891845703125
1711072527450993700,14.07899365234375,0.001556396484375,-0.006867647171020508,0.021463394165039062
1711072527469952500,14.097952392578126,-0.017434358596801758,0.02151167392730713,-0.028588294982910156
1711072527488911400,14.116911376953125,-0.059072017669677734,0.010286688804626465,0.0038690567016601562
1711072527507870200,14.1358701171875,-0.07482004165649414,0.006269931793212891,0.018890380859375
1711072527526829000,14.1548291015625,-0.08106493949890137,-0.03890657424926758,-0.0070056915283203125
1711072527545788000,14.173787841796875,-0.1255054473876953,-0.10206329822540283,-0.01139068603515625
1711072527564746800,14.192746826171875,-0.2165372371673584,-0.09945523738861084,-0.023491859436035156
1711072527583705600,14.21170556640625,-0.2508101463317871,-0.09663522243499756,-0.021552085876464844
1711072527602664400,14.23066455078125,-0.18307185173034668,-0.14239585399627686,-0.08429527282714844
1711072527621623300,14.249623291015626,-0.12951278686523438,-0.13533401489257812,-0.1350870132446289
1711072527640582100,14.26858203125,-0.04270505905151367,-0.03229951858520508,-0.1729593276977539
1711072527659541000,14.287541015625,0.026708602905273438,0.02010822296142578,-0.14989376068115234
1711072527678499800,14.306499755859376,0.10022234916687012,0.039238572120666504,-0.013672828674316406
1711072527697458700,14.325458740234374,0.15325665473937988,0.10049819946289062,0.06925106048583984
1711072527716417500,14.34441748046875,0.22949647903442383,0.03620874881744385,0.10451126098632812
1711072527735376400,14.36337646484375,0.24252915382385254,-0.04871773719787598,0.10459709167480469
1711072527754335200,14.382335205078125,0.20356249809265137,-0.04656410217285156,0.0730447769165039
1711072527773294000,14.401294189453125,0.08041810989379883,0.04558515548706055,0.037224769592285156
1711072527792253000,14.4202529296875,-0.042792320251464844,-0.014794588088989258,0.052490234375
1711072527811211800,14.439211669921875,-0.1392076015472412,-0.10579574108123779,0.05887126922607422
1711072527830170400,14.45817041015625,-0.11839771270751953,-0.11031746864318848,-0.006138801574707031
1711072527849129200,14.477129150390626,-0.1415414810180664,-0.09539246559143066,-0.059134483337402344
1711072527868088000,14.496088134765625,-0.17789506912231445,-0.055477142333984375,-0.0844888687133789
1711072527887047000,14.515046875,-0.132218599319458,-0.014194488525390625,-0.09934329986572266
1711072527906005800,14.534005859375,-0.06274032592773438,-0.018116116523742676,-0.11199665069580078
1711072527924964900,14.55296484375,-0.026533126831054688,-0.030443191528320312,-0.08504486083984375
1711072527943923700,14.571923828125,-0.03296780586242676,0.06043744087219238,-0.031182289123535156
1711072527962882300,14.59088232421875,0.043256521224975586,0.07858359813690186,-0.0027370452880859375
1711072527981841200,14.609841064453125,0.10993552207946777,0.0372006893157959,0.06224632263183594
1711072528000800000,14.628800048828126,0.17124223709106445,0.10118591785430908,0.041640281677246094
1711072528019758800,14.6477587890625,0.244185209274292,0.12143683433532715,-0.014055252075195312
1711072528038717700,14.6667177734375,0.16531896591186523,0.09518599510192871,0.00885009765625
1711072528057676500,14.685676513671876,-0.07695531845092773,0.057182908058166504,0.1838245391845703
1711072528076635400,14.704635498046875,-0.3810575008392334,0.001901388168334961,0.4547920227050781
1711072528095594200,14.72359423828125,-0.3009681701660156,-0.14762544631958008,0.46878623962402344
1711072528114553000,14.742552978515626,-0.13634848594665527,-0.339932918548584,0.06094837188720703
1711072528133512000,14.761511962890625,-0.14090442657470703,-0.26395249366760254,-0.39571475982666016
1711072528152470800,14.780470703125,-0.16578125953674316,0.09845423698425293,-0.6652069091796875
1711072528171429600,14.7994296875,-0.06885242462158203,0.3296257257461548,-0.5935220718383789
1711072528190388500,14.818388427734375,0.15445470809936523,0.44080018997192383,-0.3234844207763672
1711072528209347300,14.837347412109375,0.40868210792541504,0.2916133403778076,-0.06301116943359375
1711072528228306200,14.85630615234375,0.5208311080932617,0.0160444974899292,0.05668830871582031
1711072528247265000,14.87526513671875,0.3689243793487549,-0.1016545295715332,0.1948223114013672
1711072528266223600,14.8942236328125,0.1320943832397461,-0.18099141120910645,0.4100675582885742
1711072528285182500,14.913182373046874,-0.12862515449523926,-0.3048042058944702,0.7197027206420898
1711072528304141300,14.932141357421875,-0.24831032752990723,-0.3858734369277954,0.7171287536621094
1711072528323100200,14.95110009765625,-0.22889232635498047,-0.4517037868499756,0.12494659423828125
1711072528342059000,14.97005908203125,-0.36525750160217285,-0.33634519577026367,-0.5267124176025391
1711072528361017900,14.989017822265625,-0.5156688690185547,-0.13410139083862305,-0.8238258361816406
1711072528379976700,15.007976806640626,-0.4386744499206543,0.035712599754333496,-0.7730503082275391
1711072528398935600,15.026935546875,-0.15488195419311523,0.14364778995513916,-0.44515132904052734
1711072528417894400,15.045894287109375,0.11131525039672852,0.16371655464172363,-0.06013298034667969
1711072528436853200,15.064853271484376,0.2607700824737549,0.09413707256317139,0.12792301177978516
1711072528455812000,15.08381201171875,0.25254201889038086,0.07068049907684326,0.17896461486816406
1711072528474771000,15.10277099609375,0.19148802757263184,0.0434798002243042,0.21567440032958984
1711072528493729500,15.1217294921875,0.09221696853637695,-0.00914144515991211,0.2951793670654297
1711072528512688400,15.1406884765625,0.006268739700317383,0.003394603729248047,0.3665437698364258
1711072528531647200,15.159647216796875,-0.02334880828857422,-0.035727500915527344,0.20964622497558594
1711072528550606000,15.178606201171876,-0.14867639541625977,-0.07407641410827637,-0.03425312042236328
1711072528569565000,15.19756494140625,-0.28757452964782715,-0.06903254985809326,-0.2190990447998047
1711072528588523800,15.216523681640625,-0.2866373062133789,-0.04985976219177246,-0.2235860824584961
1711072528607482600,15.235482666015624,-0.15254664421081543,0.00295412540435791,-0.10491275787353516
1711072528626441500,15.25444140625,0.014889955520629883,0.06178021430969238,-0.0030755996704101562
1711072528645400300,15.273400390625,0.10463476181030273,0.10196685791015625,0.021849632263183594
1711072528664359200,15.292359130859374,0.12604546546936035,0.13368189334869385,0.009867668151855469
1711072528683318000,15.311318115234375,0.1232151985168457,0.09238779544830322,0.03029155731201172
1711072528702276600,15.330276611328125,0.157548189163208,0.11025059223175049,0.04237556457519531
1711072528721235500,15.3492353515625,0.1857435703277588,0.09456515312194824,0.09535789489746094
1711072528740194300,15.3681943359375,0.1960926055908203,0.06983256340026855,0.14757537841796875
1711072528759153200,15.387153076171876,0.11100625991821289,0.040810346603393555,0.20356273651123047
1711072528778112000,15.406112060546874,-0.0011987686157226562,0.014583706855773926,0.22317981719970703
1711072528797070800,15.42507080078125,-0.06795358657836914,-0.02522897720336914,0.10864543914794922
1711072528816029700,15.44402978515625,-0.10052776336669922,-0.049697160720825195,-0.06034278869628906
1711072528834988500,15.462988525390625,-0.14378571510314941,-0.034314632415771484,-0.1588573455810547
1711072528853947400,15.481947509765625,-0.13669228553771973,0.028990745544433594,-0.15388965606689453
1711072528872906000,15.500906005859376,-0.05916714668273926,-0.04764759540557861,-0.09994029998779297
1711072528891864800,15.51986474609375,0.04705047607421875,-0.04885518550872803,0.01916790008544922
1711072528910823700,15.53882373046875,0.09271550178527832,0.008543252944946289,0.07715034484863281
1711072528929782500,15.557782470703126,0.11666107177734375,0.10225450992584229,0.0825948715209961
1711072528948741400,15.576741455078125,0.08874368667602539,0.09381270408630371,0.02819347381591797
1711072528967700200,15.5957001953125,0.09472441673278809,0.07964003086090088,0.00040435791015625
1711072528986659000,15.6146591796875,0.09159231185913086,0.006631255149841309,0.03406238555908203
1711072529005618000,15.633617919921875,-0.019291400909423828,-0.000567317008972168,0.09066295623779297
1711072529024576500,15.652576416015625,-0.11341404914855957,-0.026395678520202637,0.15460205078125
1711072529043535400,15.671535400390624,-0.1214747428894043,-0.0896906852722168,0.09964656829833984
1711072529062494200,15.690494140625,-0.16881752014160156,-0.18144023418426514,-0.05565643310546875
1711072529081453000,15.709453125,-0.2799868583679199,-0.2017735242843628,-0.08815670013427734
1711072529100412000,15.728411865234374,-0.406721830368042,-0.1633927822113037,0.0871267318725586
1711072529119370800,15.747370849609375,-0.4310014247894287,-0.05172920227050781,0.26276111602783203
1711072529138329600,15.76632958984375,-0.14672517776489258,0.12455594539642334,0.28916263580322266
1711072529157288400,15.785288330078124,0.46872711181640625,0.5066820979118347,0.20400333404541016
1711072529176247000,15.8042470703125,0.8828833103179932,0.6971718072891235,0.025033950805664062
1711072529195206000,15.823205810546876,0.8943676948547363,1.0038583278656006,-0.22892093658447266
1711072529214164700,15.842164794921874,0.8552768230438232,0.889583945274353,-0.74420166015625
1711072529233123600,15.86112353515625,0.6706411838531494,0.2579650282859802,-0.6255836486816406
1711072529252082400,15.88008251953125,0.0780174732208252,-0.6634377241134644,0.24144363403320312
1711072529271041300,15.899041259765625,-0.36330676078796387,-1.343937635421753,1.0197210311889648
1711072529290000100,15.918000244140625,-0.5906069278717041,-1.543170690536499,0.9193563461303711
1711072529308959000,15.936958984375,-0.8668777942657471,-1.0760221481323242,0.19431400299072266
1711072529327917600,15.95591748046875,-0.980170726776123,-0.5729209184646606,-0.7067489624023438
1711072529346876400,15.97487646484375,-0.8491873741149902,-0.10680162906646729,-1.2592105865478516
1711072529365835300,15.993835205078126,-0.487689733505249,0.27536094188690186,-1.3539257049560547
1711072529384794000,16.012794189453125,-0.038176536560058594,0.5099273324012756,-1.0741729736328125
1711072529403753000,16.0317529296875,0.3488020896911621,0.43084049224853516,-0.6256856918334961
1711072529422711800,16.0507119140625,0.6364240646362305,0.279386043548584,-0.12500667572021484
1711072529441670700,16.069670654296875,0.7461428642272949,0.265037477016449,0.3305215835571289
1711072529460629500,16.08862939453125,0.7230014801025391,0.2727782726287842,0.6233186721801758
1711072529479588000,16.107588134765624,0.7318434715270996,0.21871185302734375,0.7055931091308594
1711072529498547000,16.126546875,0.6061041355133057,0.09607899188995361,0.7318906784057617
1711072529517505800,16.145505859375,0.29913854598999023,-0.2592970132827759,0.6523752212524414
1711072529536464600,16.164464599609374,-0.20371532440185547,-0.4972175359725952,0.5184535980224609
1711072529555423500,16.183423583984375,-0.7910780906677246,-0.5828261375427246,0.4490318298339844
1711072529574382300,16.20238232421875,-1.056969165802002,-0.5494365692138672,0.1914834976196289
1711072529593341200,16.221341064453124,-0.9867720603942871,-0.617891788482666,-0.3809356689453125
1711072529612300000,16.240300048828125,-0.820331335067749,-0.43981027603149414,-0.9389867782592773
1711072529631258600,16.259258544921874,-0.6359851360321045,-0.10274219512939453,-1.2275867462158203
1711072529650217500,16.278217529296874,-0.370208740234375,0.14628267288208008,-1.1727056503295898
1711072529669176300,16.29717626953125,-0.08641910552978516,0.3001209497451782,-0.7222833633422852
1711072529688135200,16.31613525390625,0.2984631061553955,0.3831363320350647,-0.05095481872558594
1711072529707094000,16.335093994140625,0.7450985908508301,0.36417078971862793,0.42878055572509766
1711072529726052900,16.354052978515625,0.9701297283172607,0.26471978425979614,0.6072120666503906
1711072529745011700,16.37301171875,0.8373153209686279,0.20765411853790283,0.6371555328369141
1711072529763970600,16.391970458984375,0.4356353282928467,0.09887468814849854,0.6490879058837891
1711072529782929400,16.410929443359375,0.08624863624572754,-0.048105835914611816,0.6068000793457031
1711072529801888300,16.42988818359375,-0.09936809539794922,-0.1886277198791504,0.3791770935058594
1711072529820847000,16.44884716796875,-0.24892449378967285,-0.195021390914917,0.046288490295410156
1711072529839805700,16.4678056640625,-0.45432138442993164,-0.20276296138763428,-0.23856258392333984
1711072529858764500,16.4867646484375,-0.5413253307342529,-0.1624453067779541,-0.41296863555908203
1711072529877723400,16.505723388671875,-0.525909423828125,-0.15077877044677734,-0.43776512145996094
1711072529896682200,16.52468212890625,-0.38506054878234863,-0.06285083293914795,-0.2853832244873047
1711072529915641000,16.54364111328125,-0.19080662727355957,-0.02946031093597412,-0.0821533203125
1711072529934600000,16.562599853515625,-0.03128385543823242,0.0016189813613891602,0.07260704040527344
1711072529953558800,16.581558837890626,0.07011771202087402,0.08563995361328125,0.19986915588378906
1711072529972517600,16.600517578125,0.13982200622558594,0.10053527355194092,0.19031047821044922
1711072529991476500,16.6194765625,0.16536426544189453,0.08866643905639648,0.07546138763427734
1711072530010435300,16.638435302734376,0.06682562828063965,0.09247052669525146,0.04248809814453125
1711072530029394200,16.657394287109376,0.009808063507080078,0.07149684429168701,0.09012126922607422
1711072530048353000,16.67635302734375,0.013033628463745117,-0.013884663581848145,0.14984512329101562
1711072530067311600,16.6953115234375,0.0052492618560791016,-0.06283712387084961,0.10296154022216797
1711072530086270500,16.7142705078125,-0.13031411170959473,-0.025573253631591797,0.00048542022705078125
1711072530105229300,16.733229248046875,-0.17824006080627441,-0.05714154243469238,-0.04305839538574219
1711072530124188200,16.752188232421876,-0.22136425971984863,-0.16459381580352783,-0.001708984375
1711072530143147300,16.771147216796876,-0.39627933502197266,-0.1699744462966919,0.27864933013916016
1711072530162106000,16.790106201171874,-0.4007441997528076,-0.29943788051605225,0.4306526184082031
1711072530181064700,16.809064697265626,-0.19945716857910156,-0.45313429832458496,0.024129867553710938
1711072530200023600,16.8280234375,-0.070831298828125,-0.28028810024261475,-0.4209918975830078
1711072530218982400,16.846982421875,-0.12890005111694336,0.016186833381652832,-0.6106557846069336
1711072530237941200,16.865941162109376,-0.049773216247558594,0.4321447014808655,-0.5718202590942383
1711072530256900000,16.884900146484377,0.15168118476867676,0.765785813331604,-0.37579345703125
1711072530275859000,16.90385888671875,0.5543901920318604,0.6345134973526001,-0.1262826919555664
1711072530294817800,16.92281787109375,0.7095699310302734,0.30233919620513916,0.10994815826416016
1711072530313776600,16.941776611328127,0.6168262958526611,0.05186784267425537,0.4762229919433594
1711072530332735500,16.960735595703124,0.24368548393249512,-0.39783644676208496,0.7096614837646484
1711072530351694300,16.9796943359375,-0.20247673988342285,-0.5830907821655273,0.8260765075683594
1711072530370653200,16.998653076171873,-0.40735888481140137,-0.5969444513320923,0.36349010467529297
1711072530389612000,17.017612060546874,-0.4758427143096924,-0.524573564529419,-0.4114799499511719
1711072530408571000,17.03657080078125,-0.5845627784729004,-0.19793987274169922,-0.8632144927978516
1711072530427529700,17.05552978515625,-0.49851250648498535,-0.014224886894226074,-0.9317245483398438
1711072530446488600,17.074488525390624,-0.2660503387451172,0.053137898445129395,-0.6206035614013672
1711072530465447400,17.093447509765625,-0.0005822181701660156,0.037029385566711426,-0.17873096466064453
1711072530484406300,17.11240625,0.272475004196167,-0.03197681903839111,0.05516242980957031
1711072530503365000,17.131365234375,0.41269922256469727,0.08990764617919922,0.2109699249267578
1711072530522324000,17.150323974609375,0.4750049114227295,0.2825976610183716,0.27960968017578125
1711072530541282800,17.16928271484375,0.5507853031158447,0.41976648569107056,0.4296731948852539
1711072530560241700,17.18824169921875,0.550654411315918,0.28375452756881714,0.5310173034667969
1711072530579200500,17.207200439453125,0.25916194915771484,0.11451661586761475,0.6468820571899414
1711072530598159400,17.226159423828125,-0.07236146926879883,-0.014763355255126953,0.6331377029418945
1711072530617118200,17.2451181640625,-0.20743370056152344,-0.24927401542663574,0.23955059051513672
1711072530636077000,17.2640771484375,-0.36040234565734863,-0.2581599950790405,-0.24763202667236328
1711072530655036000,17.283035888671876,-0.4707815647125244,-0.0558089017868042,-0.4704618453979492
1711072530673994800,17.301994873046876,-0.37829041481018066,0.03229045867919922,-0.5536947250366211
1711072530692953600,17.32095361328125,-0.19128656387329102,0.02569448947906494,-0.49545955657958984
1711072530711912400,17.339912353515626,-0.025883913040161133,-0.045319557189941406,-0.2767200469970703
1711072530730871300,17.358871337890626,0.10903644561767578,-0.03121209144592285,-0.014166831970214844
1711072530749830100,17.377830078125,0.2271113395690918,0.0899125337600708,0.08160209655761719
1711072530768789000,17.3967890625,0.2509729862213135,0.08122813701629639,0.10134410858154297
1711072530787748000,17.415748046875,0.2395162582397461,-0.012653946876525879,0.25841808319091797
1711072530806707000,17.43470703125,0.23653554916381836,0.08499431610107422,0.39959239959716797
1711072530825665800,17.453665771484374,0.2403392791748047,0.04321146011352539,0.3483543395996094
1711072530844624600,17.472624755859375,0.10914182662963867,0.05143928527832031,0.19779109954833984
1711072530863583500,17.49158349609375,-0.14021754264831543,0.027853012084960938,0.043625831604003906
1711072530882542300,17.510542236328124,-0.24830389022827148,-0.007984757423400879,-0.06479835510253906
1711072530901501200,17.529501220703125,-0.24841690063476562,-0.037023305892944336,-0.10703849792480469
1711072530920460000,17.5484599609375,-0.18484878540039062,-0.01785433292388916,-0.08995342254638672
1711072530939419000,17.5674189453125,-0.13616585731506348,-0.06000089645385742,-0.09225273132324219
1711072530958377700,17.586377685546875,-0.12092804908752441,0.034288644790649414,-0.09700489044189453
1711072530977336600,17.605336669921876,-0.08469200134277344,0.11397457122802734,-0.09123611450195312
1711072530996295400,17.62429541015625,0.011313438415527344,0.12896668910980225,-0.0482177734375
1711072531015254300,17.643254150390625,0.013189077377319336,0.0779198408126831,0.0010576248168945312
1711072531034213000,17.662213134765626,0.05930066108703613,0.018736720085144043,0.13458824157714844
1711072531053172000,17.681171875,0.034177541732788086,0.10466277599334717,0.11299610137939453
1711072531072130800,17.700130859375,0.07546424865722656,0.007024884223937988,0.08035659790039062
1711072531091089700,17.719089599609376,0.010469436645507812,-0.009602785110473633,0.011774063110351562
1711072531110048500,17.738048583984376,-0.04765653610229492,0.02154099941253662,-0.011517524719238281
1711072531129007400,17.75700732421875,-0.05940437316894531,0.023196697235107422,-0.023525238037109375
1711072531147966200,17.77596630859375,-0.10837364196777344,-0.0021376609802246094,0.016851425170898438
1711072531166925000,17.794925048828127,-0.002052783966064453,-0.019199013710021973,0.01795673370361328
1711072531185884000,17.8138837890625,-0.0001819133758544922,-0.030074477195739746,0.011212348937988281
1711072531204842800,17.8328427734375,-0.035990238189697266,-0.047985196113586426,-0.015013694763183594
1711072531223801600,17.851801513671877,-0.07473969459533691,0.03942525386810303,-0.01695537567138672
1711072531242760400,17.870760498046874,0.009082794189453125,0.019332408905029297,-0.031982421875
1711072531261719600,17.889719482421874,-0.005453824996948242,-0.019656658172607422,-0.03929424285888672
1711072531280678400,17.908678466796875,-0.05826616287231445,-0.05896556377410889,0.0067348480224609375
1711072531299637200,17.92763720703125,-0.024932146072387695,-0.0013178586959838867,-0.006983757019042969
1711072531318596000,17.94659619140625,-0.019041061401367188,-0.00479578971862793,-0.05519390106201172
1711072531337555000,17.965554931640625,-0.03606295585632324,-0.025417685508728027,-0.031246185302734375
1711072531356513800,17.984513671875,-0.042389631271362305,0.048885226249694824,-0.08115482330322266
1711072531375472600,18.00347265625,-0.03871011734008789,0.02490997314453125,-0.029129981994628906
1711072531394431500,18.022431396484375,-0.055283308029174805,-0.04442274570465088,0.07732772827148438
1711072531413390300,18.041390380859376,-0.11542820930480957,-0.07669389247894287,0.24340438842773438
1711072531432349200,18.06034912109375,-0.3269839286804199,-0.1889820098876953,0.5244417190551758
1711072531451308000,18.07930810546875,-0.4779503345489502,-0.3121359348297119,0.5991840362548828
1711072531470267000,18.098266845703126,-0.5314216613769531,-0.39227843284606934,0.3446645736694336
1711072531489225700,18.117225830078127,-0.41438770294189453,-0.3710280656814575,-0.24754047393798828
1711072531508184600,18.1361845703125,-0.21197867393493652,-0.23147034645080566,-0.847076416015625
1711072531527143400,18.155143310546876,-0.027985572814941406,0.051159024238586426,-1.196939468383789
1711072531546102300,18.174102294921877,0.1435246467590332,0.3061370849609375,-1.0425453186035156
1711072531565061000,18.19306103515625,0.44922924041748047,0.4781172275543213,-0.48978614807128906
1711072531584020000,18.21202001953125,0.8796792030334473,0.7179248332977295,0.1201314926147461
1711072531602978800,18.230978759765627,1.281095266342163,0.6484619379043579,0.30788707733154297
1711072531621937700,18.249937744140624,1.205211877822876,0.4542832374572754,0.2655649185180664
1711072531640896500,18.268896484375,0.8971226215362549,0.2448258399963379,0.21420955657958984
1711072531659855400,18.28785546875,0.6538486480712891,0.06686091423034668,0.21047401428222656
1711072531678814200,18.306814208984374,0.4791386127471924,-0.03246629238128662,0.26235198974609375
1711072531697773000,18.32577294921875,0.26938939094543457,-0.14843344688415527,0.46319103240966797
1711072531716732000,18.34473193359375,-0.016690731048583984,-0.30630791187286377,0.6514434814453125
1711072531735690800,18.363690673828124,-0.15074825286865234,-0.39502382278442383,0.6468343734741211
1711072531754649600,18.382649658203125,-0.22402262687683105,-0.4059840440750122,0.48351383209228516
1711072531773608400,18.4016083984375,-0.32654476165771484,-0.270524263381958,0.16694355010986328
1711072531792567300,18.4205673828125,-0.4044158458709717,-0.17019128799438477,-0.1548328399658203
1711072531811526100,18.439526123046875,-0.4485170841217041,-0.09930908679962158,-0.32012176513671875
1711072531830485000,18.458485107421875,-0.3363981246948242,-0.02641594409942627,-0.26057910919189453
1711072531849443800,18.47744384765625,-0.18343210220336914,-0.04880809783935547,-0.11587238311767578
1711072531868402700,18.496402587890625,-0.10831117630004883,-0.04510319232940674,0.04136848449707031
1711072531887361500,18.515361572265626,-0.18474340438842773,-0.12158775329589844,0.12054920196533203
1711072531906320400,18.5343203125,-0.41315484046936035,-0.2025216817855835,0.22745704650878906
1711072531925279200,18.553279296875,-0.5159757137298584,-0.2276754379272461,0.27362728118896484
1711072531944238000,18.572238037109376,-0.5110208988189697,-0.2313162088394165,0.32853126525878906
1711072531963197000,18.591197021484376,-0.47528696060180664,-0.2543337345123291,0.3226289749145508
1711072531982155800,18.61015576171875,-0.45055222511291504,-0.28780293464660645,0.2554960250854492
1711072532001114600,18.629114501953126,-0.48589324951171875,-0.21152234077453613,0.02951812744140625
1711072532020073500,18.648073486328126,-0.513787031173706,-0.11953318119049072,-0.16698932647705078
1711072532039032600,18.667032470703123,-0.5227386951446533,-0.025551676750183105,-0.2606172561645508
1711072532057991400,18.685991455078124,-0.4276106357574463,-0.047418951988220215,-0.30539417266845703
1711072532076950300,18.7049501953125,-0.30039358139038086,-0.05794715881347656,-0.22906494140625
1711072532095909000,18.7239091796875,-0.12138772010803223,-0.01855170726776123,-0.12944507598876953
1711072532114868000,18.742867919921874,-0.011664628982543945,0.03820514678955078,-0.04177379608154297
1711072532133826800,18.761826904296875,0.08829164505004883,0.12263631820678711,0.05869102478027344
1711072532152785700,18.78078564453125,0.21613597869873047,0.11327755451202393,0.1161346435546875
1711072532171744500,18.79974462890625,0.24451828002929688,0.14456677436828613,0.07998371124267578
1711072532190703400,18.818703369140625,0.24381422996520996,0.13929235935211182,0.034397125244140625
1711072532209662200,18.837662109375,0.21555733680725098,0.13815128803253174,0.0309906005859375
1711072532228621000,18.85662109375,0.2334296703338623,0.11677324771881104,0.061959266662597656
1711072532247580000,18.875579833984375,0.24387669563293457,0.10383069515228271,0.12954998016357422
1711072532266538800,18.894538818359376,0.2171924114227295,0.07898032665252686,0.1121063232421875
1711072532285497600,18.91349755859375,0.1395583152770996,0.032067060470581055,0.12839889526367188
1711072532304456400,18.93245654296875,0.049263715744018555,0.03240680694580078,0.0644388198852539
1711072532323415000,18.9514150390625,-0.005883455276489258,0.029472827911376953,0.012804985046386719
1711072532342374000,18.970373779296875,0.01417851448059082,-0.056629300117492676,-0.011549949645996094
1711072532361333000,18.9893330078125,0.0569765567779541,-0.052115797996520996,-0.023359298706054688
1711072532380291800,19.008291748046876,0.07363510131835938,-0.06400847434997559,-0.05018901824951172
1711072532399250700,19.027250732421876,-0.000797271728515625,0.0023102760314941406,-0.032921791076660156
1711072532418209500,19.04620947265625,-0.029271602630615234,0.03475308418273926,0.00004482269287109375
1711072532437168400,19.06516845703125,0.02358841896057129,-0.0451430082321167,0.00395965576171875
1711072532456127200,19.084127197265627,0.02812337875366211,-0.07093632221221924,0.046296119689941406
1711072532475086000,19.103086181640624,0.029753446578979492,-0.061824679374694824,0.07191085815429688
1711072532494045000,19.122044921875,0.006387233734130859,-0.03317713737487793,0.10336494445800781
1711072532513003800,19.141003662109377,0.008138895034790039,-0.025974273681640625,0.06303977966308594
1711072532531962600,19.159962646484374,-0.021750450134277344,-0.027862191200256348,-0.024658203125
1711072532550921200,19.178921142578126,-0.11832141876220703,-0.021503448486328125,-0.059065818786621094
1711072532569880000,19.197880126953127,-0.17355680465698242,-0.08423614501953125,0.00214385986328125
1711072532588839000,19.2168388671875,-0.1299886703491211,-0.12039947509765625,0.05401897430419922
1711072532607797800,19.2357978515625,-0.1262834072113037,-0.15162420272827148,0.0946664810180664
1711072532626756600,19.254756591796873,-0.1444556713104248,-0.2222663164138794,0.10583972930908203
1711072532645715500,19.273715576171874,-0.20042109489440918,-0.2510114908218384,0.05879402160644531
1711072532664674300,19.29267431640625,-0.22569918632507324,-0.18856549263000488,0.011820793151855469
1711072532683633400,19.31163330078125,-0.24203872680664062,-0.1534501314163208,-0.04806041717529297
1711072532702592000,19.330592041015624,-0.18725037574768066,-0.09201085567474365,0.028867721557617188
1711072532721550800,19.34955078125,-0.03343033790588379,-0.09193038940429688,0.14524078369140625
1711072532740509700,19.368509765625,0.028928756713867188,-0.07425570487976074,0.17971134185791016
1711072532759468500,19.387468505859374,0.04762554168701172,0.05824017524719238,0.14139842987060547
1711072532778427400,19.406427490234375,0.09098315238952637,0.14030027389526367,0.06134510040283203
1711072532797386200,19.42538623046875,0.10459709167480469,0.13219892978668213,-0.05057811737060547
1711072532816345000,19.444344970703124,0.03544259071350098,0.0672234296798706,-0.053684234619140625
1711072532835304000,19.463303955078125,-0.015131235122680664,-0.026718497276306152,0.018088340759277344
1711072532854262800,19.4822626953125,-0.0360867977142334,-0.07896816730499268,0.07284164428710938
1711072532873221600,19.5012216796875,-0.0809783935546875,-0.15757334232330322,0.1387472152709961
1711072532892180500,19.520180419921875,-0.20168161392211914,-0.2630035877227783,0.1753072738647461
1711072532911139300,19.539139404296876,-0.19757986068725586,-0.28326451778411865,0.14814472198486328
1711072532930098200,19.55809814453125,-0.22146153450012207,-0.19415342807769775,0.003688812255859375
1711072532949057000,19.57705712890625,-0.27603745460510254,-0.14566099643707275,-0.158935546875
1711072532968016000,19.596015869140626,-0.2612001895904541,-0.15761125087738037,-0.20010757446289062
1711072532986974700,19.614974609375,-0.17908763885498047,-0.010201811790466309,-0.1746063232421875
1711072533005933600,19.63393359375,-0.11721253395080566,0.10177767276763916,-0.10555362701416016
1711072533024892400,19.652892333984376,-0.061551809310913086,0.11224102973937988,-0.10950851440429688
1711072533043851000,19.67185107421875,-0.0250093936920166,0.12289905548095703,-0.1405477523803711
1711072533062809900,19.690809814453125,0.06778907775878906,0.16575217247009277,-0.05005359649658203
1711072533081768700,19.709768798828126,0.12665987014770508,0.17223501205444336,0.03797721862792969
1711072533100727600,19.7287275390625,0.1975877285003662,0.20592045783996582,0.10970687866210938
1711072533119686400,19.747686279296875,0.26394224166870117,0.15331923961639404,0.1996173858642578
1711072533138645200,19.766645263671876,0.30466628074645996,0.09917378425598145,0.21084308624267578
1711072533157604000,19.78560400390625,0.18242478370666504,0.12853050231933594,0.12715530395507812
1711072533176563000,19.80456298828125,0.0807485580444336,0.11709535121917725,-0.006596565246582031
1711072533195521800,19.823521728515626,0.05900120735168457,0.008489251136779785,-0.07203102111816406
1711072533214480600,19.842480712890627,0.005127429962158203,-0.058234214782714844,-0.03932952880859375
1711072533233439500,19.861439453125,-0.0076045989990234375,0.04251277446746826,-0.043114662170410156
1711072533252398300,19.8803984375,-0.02553105354309082,0.02381610870361328,-0.04189586639404297
1711072533271357200,19.899357177734377,-0.033753156661987305,-0.08924567699432373,-0.03855609893798828
1711072533290315800,19.918315673828126,-0.040134429931640625,-0.07174301147460938,0.014864921569824219
1711072533309274600,19.937274658203126,-0.017971515655517578,0.021729707717895508,-0.010548591613769531
1711072533328233500,19.9562333984375,0.01993584632873535,-0.007153630256652832,-0.009847640991210938
1711072533347192600,19.975192626953124,-0.002736806869506836,-0.04753553867340088,-0.019788742065429688
1711072533366151200,19.994151123046876,0.0023097991943359375,-0.00041937828063964844,0.0018587112426757812
1711072533385110000,20.013110107421873,0.03954625129699707,0.05113720893859863,0.029268264770507812
1711072533404068900,20.03206884765625,0.05800604820251465,0.0342177152633667,0.023476600646972656
1711072533423027700,20.05102783203125,0.043913841247558594,0.0462498664855957,0.007475852966308594
1711072533441986600,20.069986572265623,-0.010118961334228516,0.0030497312545776367,-0.04220867156982422
1711072533460945400,20.0889453125,-0.05024313926696777,0.0739591121673584,-0.0912008285522461
1711072533479904300,20.107904296875,-0.08590888977050781,0.13570070266723633,-0.09271621704101562
1711072533498862800,20.12686279296875,-0.10380959510803223,0.05416274070739746,-0.04241657257080078
1711072533517822000,20.145822021484374,-0.12807488441467285,-0.04841744899749756,0.08397865295410156
1711072533536780800,20.16478076171875,-0.11356377601623535,-0.08124101161956787,0.16728687286376953
1711072533555739600,20.18373974609375,-0.05495929718017578,0.0041904449462890625,0.19353389739990234
1711072533574698200,20.2026982421875,0.0003676414489746094,-0.08561384677886963,0.10320663452148438
1711072533593657000,20.221656982421877,-0.02605891227722168,-0.10120892524719238,0.01114654541015625
1711072533612616000,20.240615966796874,-0.07351827621459961,0.0015773773193359375,-0.08015727996826172
1711072533631574800,20.25957470703125,-0.03154706954956055,-0.030123114585876465,-0.11741161346435547
1711072533650533600,20.27853369140625,0.04549288749694824,-0.11836743354797363,-0.008256912231445312
1711072533669492500,20.297492431640624,0.0772554874420166,-0.07641088962554932,0.13024425506591797
1711072533688451000,20.316451171875,0.06690216064453125,-0.033257484436035156,0.06106853485107422
1711072533707410200,20.33541015625,0.04856061935424805,-0.08055663108825684,-0.0765371322631836
1711072533726369000,20.354369140625,-0.02215433120727539,-0.1369335651397705,-0.16034793853759766
1711072533745327600,20.37332763671875,-0.06234002113342285,-0.08982980251312256,-0.1312427520751953
1711072533764286500,20.392286376953123,-0.09760546684265137,-0.07461464405059814,-0.07063770294189453
1711072533783245300,20.411245361328124,-0.02788233757019043,-0.07951295375823975,0.011822700500488281
1711072533802204200,20.4302041015625,0.020802021026611328,-0.04278206825256348,0.10631275177001953
1711072533821163000,20.4491630859375,-0.002126932144165039,-0.07589185237884521,0.12004566192626953
1711072533840121900,20.468121826171874,0.02345132827758789,-0.0031946897506713867,0.07437705993652344
1711072533859080400,20.48708056640625,0.02549600601196289,0.07074606418609619,-0.04786109924316406
1711072533878039600,20.50603955078125,0.04163098335266113,0.026512861251831055,-0.12161540985107422
1711072533896998100,20.524998046875,0.02720928192138672,-0.0833815336227417,0.02940845489501953
1711072533915957000,20.54395703125,0.06183147430419922,0.06166505813598633,0.07495784759521484
1711072533934915800,20.562915771484374,0.10231971740722656,0.11303520202636719,0.07220745086669922
1711072533953874700,20.581874755859374,0.07335638999938965,0.07770931720733643,0.06624412536621094
1711072533972833500,20.60083349609375,-0.020628929138183594,0.03410971164703369,0.04416942596435547
1711072533991792400,20.61979248046875,-0.029793977737426758,0.11972129344940186,0.02964496612548828
1711072534010751000,20.6387509765625,0.04946589469909668,0.10330629348754883,-0.0067272186279296875
1711072534029709800,20.657709716796877,0.10954856872558594,0.07294011116027832,0.009914398193359375
1711072534048668700,20.676668701171874,0.09750032424926758,0.16545915603637695,0.06462955474853516
1711072534067627500,20.69562744140625,0.05090069770812988,0.09592592716217041,0.10072708129882812
1711072534086586400,20.71458642578125,-0.02997422218322754,0.0627901554107666,0.09891891479492188
1711072534105545200,20.733545166015624,-0.18254995346069336,0.0020655393600463867,0.029379844665527344
1711072534124504000,20.752504150390624,-0.42168164253234863,-0.17835259437561035,0.042926788330078125
1711072534143462700,20.771462646484373,-0.6636252403259277,-0.3953733444213867,-0.03669166564941406
1711072534162421500,20.79042138671875,-0.7048361301422119,-0.4621083736419678,-0.2747049331665039
1711072534181380400,20.80938037109375,-0.6004552841186523,-0.3575172424316406,-0.5041036605834961
1711072534200339200,20.828339111328123,-0.3943521976470947,-0.18349194526672363,-0.4783945083618164
1711072534219298000,20.847298095703124,-0.28616857528686523,0.04320931434631348,-0.2818927764892578
1711072534238257000,20.8662568359375,-0.09363460540771484,0.2615717649459839,-0.07793617248535156
1711072534257215700,20.8852158203125,0.2449781894683838,0.2743561267852783,0.06851959228515625
1711072534276174600,20.904174560546874,0.6401684284210205,0.32689666748046875,0.2633209228515625
1711072534295133200,20.92313330078125,0.8221025466918945,0.6002593636512756,0.43513965606689453
1711072534314092000,20.942092041015623,0.7018506526947021,0.6769160032272339,0.5766239166259766
1711072534333051000,20.96105078125,0.570213794708252,0.459395170211792,0.6532983779907227
1711072534352009700,20.980009765625,0.6745388507843018,0.1126786470413208,0.4032611846923828
1711072534370968600,20.998968505859374,0.623586893081665,-0.04340529441833496,0.011261940002441406
1711072534389927400,21.017927490234374,0.2867426872253418,-0.060321688652038574,-0.224334716796875
1711072534408886300,21.03688623046875,0.0319371223449707,-0.0031827688217163086,-0.3563823699951172
1711072534427844900,21.055844970703124,-0.13329291343688965,0.047009825706481934,-0.3605937957763672
1711072534446803700,21.0748037109375,-0.04011964797973633,0.006214141845703125,-0.24016475677490234
1711072534465762600,21.093762451171877,0.02234959602355957,-0.19850587844848633,-0.11189556121826172
1711072534484721400,21.112721435546874,-0.00980687141418457,-0.3325868844985962,0.0450592041015625
1711072534503680300,21.13168017578125,-0.09564948081970215,-0.3998810052871704,0.15746784210205078
1711072534522639000,21.15063916015625,-0.07330584526062012,-0.4290194511413574,0.13752460479736328
1711072534541598000,21.169597900390624,-0.10834455490112305,-0.3699859380722046,0.0022878646850585938
1711072534560556800,21.188556884765624,-0.3045175075531006,-0.3398813009262085,-0.1038970947265625
1711072534579515400,21.207515380859373,-0.41860437393188477,-0.35244762897491455,-0.15911102294921875
1711072534598474200,21.22647412109375,-0.43344569206237793,-0.3269176483154297,-0.20475292205810547
1711072534617433000,21.24543310546875,-0.40700364112854004,-0.25485265254974365,-0.21557998657226562
1711072534636392000,21.264391845703123,-0.3481895923614502,-0.2585468292236328,-0.25080299377441406
1711072534655350800,21.283350830078124,-0.28002309799194336,-0.20147240161895752,-0.21795654296875
1711072534674309600,21.3023095703125,-0.20089507102966309,-0.014695405960083008,-0.21730709075927734
1711072534693268500,21.3212685546875,-0.20306015014648438,0.10701298713684082,-0.16846561431884766
1711072534712227300,21.340227294921874,-0.18914389610290527,0.13788068294525146,0.013928413391113281
1711072534731186200,21.359186279296875,-0.12124252319335938,0.027686715126037598,0.1452627182006836
1711072534750144800,21.378144775390624,0.04394936561584473,-0.2060621976852417,0.14160823822021484
1711072534769103600,21.397103515625,0.0753331184387207,-0.36967146396636963,0.009163856506347656
1711072534788062500,21.4160625,-0.07711982727050781,-0.3205275535583496,-0.11072254180908203
1711072534807021300,21.435021240234374,-0.005014657974243164,-0.06912398338317871,0.09337997436523438
1711072534825980200,21.453980224609374,0.14419054985046387,0.176300048828125,0.15227127075195312
1711072534844939000,21.47293896484375,0.3044896125793457,0.2873433828353882,0.18094158172607422
1711072534863897900,21.49189794921875,0.32160115242004395,0.2965114116668701,0.14389419555664062
1711072534882856700,21.510856689453124,0.31653904914855957,0.3970440626144409,0.1174020767211914
1711072534901815600,21.529815673828125,0.37505102157592773,0.48321056365966797,0.06190013885498047
1711072534920774400,21.5487744140625,0.5931551456451416,0.23937654495239258,0.282318115234375
1711072534939733000,21.56773291015625,0.5204746723175049,0.022034168243408203,0.37366199493408203
1711072534958691800,21.58669189453125,-0.11758589744567871,-0.27834296226501465,0.6741914749145508
1711072534977650700,21.605650634765624,-0.18513429164886475,0.12309777736663818,0.44048500061035156
1711072534996609500,21.624609619140625,0.07589173316955566,0.3779923915863037,0.014889717102050781
1711072535015568400,21.643568359375,0.20772194862365723,-0.06501126289367676,-0.06256389617919922
1711072535034527200,21.66252734375,0.1186211109161377,-0.04262137413024902,0.08387947082519531
1711072535053486000,21.681486083984375,-0.037726640701293945,0.13769996166229248,0.03143310546875
1711072535072445000,21.70044482421875,-0.026416778564453125,0.19159197807312012,-0.016472816467285156
1711072535091403800,21.71940380859375,0.1735372543334961,0.12563467025756836,0.14623546600341797
1711072535110362600,21.738362548828125,0.3538813591003418,0.10171127319335938,0.3663482666015625
1711072535129321500,21.757321533203125,0.2753126621246338,0.1537696123123169,0.18775367736816406
1711072535148280300,21.7762802734375,0.17139935493469238,0.2919362783432007,0.06671524047851562
1711072535167239200,21.7952392578125,0.0564420223236084,0.24123930931091309,0.07190227508544922
1711072535186197800,21.81419775390625,0.12611794471740723,0.2694706916809082,-0.13064956665039062
1711072535205156600,21.833156494140624,0.3687152862548828,0.29531025886535645,-0.07656383514404297
1711072535224115500,21.852115478515625,0.541461706161499,0.2911875247955322,0.10001468658447266
1711072535243074300,21.87107421875,0.7265238761901855,0.4089771509170532,0.38379764556884766
1711072535262033400,21.890033447265626,0.4949958324432373,0.6621063947677612,0.3680534362792969
1711072535280992300,21.9089921875,0.2663004398345947,0.7017462253570557,-0.03769683837890625
1711072535299951000,21.927951171875,0.10568642616271973,0.5347137451171875,-0.46489429473876953
1711072535318909700,21.94690966796875,0.05141639709472656,0.29569125175476074,-0.5796327590942383
1711072535337868500,21.96586865234375,-0.19928669929504395,-0.12759137153625488,-0.3784599304199219
1711072535356827400,21.984827392578126,-0.44735145568847656,-0.6226320266723633,-0.050583839416503906
1711072535375786200,22.0037861328125,-0.5455865859985352,-0.5472350120544434,0.19747161865234375
1711072535394745000,22.0227451171875,-0.4036135673522949,-0.21811866760253906,0.0033197402954101562
1711072535413704000,22.041703857421876,-0.28694915771484375,0.07558226585388184,-0.2556123733520508
1711072535432662800,22.060662841796876,-0.1534430980682373,0.4428441524505615,-0.37060546875
1711072535451621600,22.07962158203125,0.08130788803100586,0.5738029479980469,-0.3384513854980469
1711072535470580500,22.09858056640625,0.01246953010559082,-0.059037208557128906,-0.2584819793701172
1711072535489539300,22.117539306640627,-0.20835208892822266,-0.5896584987640381,-0.14154529571533203
1711072535508498200,22.136498291015624,-0.571016788482666,-0.6836771965026855,0.05359840393066406
1711072535527457000,22.15545703125,-0.612401008605957,-0.43503451347351074,0.13733673095703125
1711072535546415900,22.174415771484377,-0.2688872814178467,0.18683552742004395,0.176361083984375
1711072535565374700,22.193374755859374,0.01589345932006836,0.30793190002441406,0.07422256469726562
1711072535584333600,22.21233349609375,-0.1130058765411377,-0.4372429847717285,-0.2590341567993164
1711072535603292400,22.23129248046875,-0.5242834091186523,-0.9016666412353516,-0.4786844253540039
1711072535622251300,22.250251220703124,-0.7017672061920166,-0.5305051803588867,-0.4675111770629883
1711072535641210000,22.269210205078124,-0.3713967800140381,-0.14269113540649414,-0.28845977783203125
1711072535660169000,22.2881689453125,0.05689549446105957,-0.11015558242797852,0.08061027526855469
1711072535679127800,22.3071279296875,0.2501547336578369,-0.17194747924804688,0.31826210021972656
1711072535698086700,22.326086669921875,0.03694748878479004,-0.15068578720092773,0.27640342712402344
1711072535717045500,22.34504541015625,-0.03645467758178711,-0.0512852668762207,0.09630107879638672
1711072535736004400,22.36400439453125,-0.0473332405090332,-0.09336328506469727,-0.1401987075805664
1711072535754963200,22.382963134765625,0.002142667770385742,-0.10438728332519531,-0.2933645248413086
1711072535773922000,22.401922119140625,-0.016479969024658203,-0.06726217269897461,-0.34476184844970703
1711072535792881000,22.420880859375,-0.05869412422180176,-0.05614972114562988,-0.27476024627685547
1711072535811839700,22.43983984375,-0.0633852481842041,-0.05928611755371094,-0.11571311950683594
1711072535830798600,22.458798583984375,0.007077693939208984,0.050128817558288574,0.058279991149902344
1711072535849757400,22.47775732421875,0.16031455993652344,0.03350484371185303,0.14424991607666016
1711072535868716300,22.49671630859375,0.1859426498413086,0.0628136396408081,0.19322490692138672
1711072535887675100,22.515675048828125,0.11418628692626953,0.13878929615020752,0.18300247192382812
1711072535906634200,22.53463427734375,0.11146903038024902,0.13225340843200684,0.07344722747802734
1711072535925593000,22.553593017578127,0.17379450798034668,0.1775226593017578,0.06149482727050781
1711072535944552000,22.572552001953124,0.1817314624786377,0.22813022136688232,0.078094482421875
1711072535963510800,22.5915107421875,0.19376444816589355,0.150543212890625,0.04960441589355469
1711072535982469600,22.6104697265625,0.12040996551513672,0.08447122573852539,0.054347991943359375
1711072536001428500,22.629428466796874,0.04846382141113281,-0.011259794235229492,0.04729938507080078
1711072536020387300,22.64838720703125,0.06260371208190918,0.03356361389160156,0.09165382385253906
1711072536039346200,22.66734619140625,0.08566570281982422,0.0581434965133667,0.14952945709228516
1711072536058305000,22.686304931640624,0.11149907112121582,0.09278762340545654,0.12865352630615234
1711072536077264000,22.705263916015625,0.15412235260009766,0.04321110248565674,0.11767292022705078
1711072536096222700,22.72422265625,0.07388925552368164,-0.004390716552734375,0.09312248229980469
1711072536115181600,22.743181640625,0.012049198150634766,-0.0388643741607666,0.0912771224975586
1711072536134140400,22.762140380859375,-0.0674448013305664,-0.07619094848632812,0.16753578186035156
1711072536153099300,22.781099365234375,-0.03749847412109375,-0.039786458015441895,0.10766124725341797
1711072536172058000,22.80005810546875,0.01991438865661621,-0.026900291442871094,0.07174015045166016
1711072536191017000,22.819016845703125,-0.04876542091369629,-0.025929570198059082,0.10060405731201172
1711072536209975800,22.837975830078125,-0.057822465896606445,-0.005174517631530762,0.14815807342529297
1711072536228934700,22.8569345703125,-0.013457059860229492,0.04910933971405029,0.07765579223632812
1711072536247893500,22.8758935546875,0.01226353645324707,0.04445910453796387,0.012285232543945312
1711072536266852400,22.894852294921876,0.01761031150817871,-0.08405196666717529,-0.009449958801269531
1711072536285811200,22.913811279296876,-0.009678125381469727,-0.03491044044494629,-0.029821395874023438
1711072536304770000,22.93277001953125,-0.07815289497375488,0.042870283126831055,-0.0715322494506836
1711072536323729000,22.95172900390625,-0.08718276023864746,-0.046886324882507324,-0.14275360107421875
1711072536342687700,22.970687744140626,-0.11406660079956055,-0.09560775756835938,-0.22596263885498047
1711072536361646600,22.989646484375,-0.10242009162902832,-0.14677643775939941,-0.21047496795654297
1711072536380605400,23.00860546875,-0.11390852928161621,-0.1489773988723755,-0.1679534912109375
1711072536399564300,23.027564208984376,-0.08449530601501465,-0.09174704551696777,-0.14748001098632812
1711072536418523100,23.046523193359373,-0.0918276309967041,-0.03349936008453369,-0.10434150695800781
1711072536437482200,23.065482177734374,-0.07398128509521484,-0.06126224994659424,-0.014285087585449219
1711072536456440800,23.08444091796875,-0.03846025466918945,-0.04438292980194092,0.11150455474853516
1711072536475400000,23.10339990234375,0.0043637752532958984,0.07550692558288574,0.18777942657470703
1711072536494358800,23.12235888671875,0.015831470489501953,0.06806695461273193,0.18098163604736328
1711072536513317600,23.141317626953125,0.0005285739898681641,0.035622477531433105,0.11453819274902344
1711072536532276500,23.1602763671875,-0.008259773254394531,0.08959484100341797,0.030282020568847656
1711072536551235300,23.1792353515625,0.009368896484375,0.09859538078308105,0.034132957458496094
1711072536570194200,23.198194091796875,0.0455472469329834,0.14385175704956055,0.029793739318847656
1711072536589153000,23.217153076171876,0.04777932167053223,0.12347924709320068,0.0216522216796875
1711072536608111900,23.23611181640625,0.024975299835205078,0.18166613578796387,0.0018157958984375
