time,seconds_elapsed,z,y,x
1711072513459383800,0.0873837890625,-0.1003345400094986,0.1802051067352295,0.25442516803741455
1711072513478342400,0.10634228515625,-0.07895427197217941,0.14782927930355072,0.2629773020744324
1711072513497301000,0.125301025390625,-0.056657709181308746,0.029016077518463135,0.21166464686393738
1711072513516259800,0.144259765625,-0.049021899700164795,-0.06627883017063141,0.15515965223312378
1711072513535218400,0.163218505859375,-0.02519817277789116,-0.07391463965177536,0.11392628401517868
1711072513554177000,0.182177001953125,0.005345067009329796,-0.056810423731803894,0.05039634555578232
1711072513573136000,0.201135986328125,0.024281874299049377,-0.032681263983249664,0.003359756199643016
1711072513592094500,0.220094482421875,0.052076224237680435,0.04276053607463837,0.004581485874950886
1711072513611053000,0.239052978515625,0.05238165333867073,0.04459312930703163,-0.021685699000954628
1711072513630012000,0.258011962890625,0.049021899700164795,-0.006414080038666725,-0.040317077189683914
1711072513648970500,0.276970458984375,0.06246092543005943,-0.05436696484684944,-0.044898562133312225
1711072513667929300,0.295929443359375,0.07834340631961823,-0.08521563559770584,-0.03481929376721382
1711072513686888000,0.314887939453125,0.07345648854970932,-0.08032871782779694,-0.015271619893610477
1711072513705846500,0.333846435546875,0.0487164668738842,-0.05589412897825241,-0.000305432389723137
1711072513724805400,0.352805419921875,0.02977965772151947,-0.026878049597144127,0.015271619893610477
1711072513743764000,0.371763916015625,0.01359174121171236,-0.008552107028663158,0.032070402055978775
1711072513762722800,0.390722900390625,0.0032070400193333626,-0.002443459117785096,0.05497783049941063
1711072513781681400,0.409681396484375,0.009010255336761475,-0.004276053514331579,0.07635809481143951
1711072513800640000,0.428639892578125,0.020311253145337105,-0.009773836471140385,0.08857539296150208
1711072513819598800,0.447598876953125,0.027947064489126205,-0.003665188793092966,0.09407317638397217
1711072513838557400,0.466557373046875,0.0334448479115963,0.010690134018659592,0.10629047453403473
1711072513857516300,0.485516357421875,0.06551524996757507,0.01649334840476513,0.06444623321294785
1711072513876475000,0.504474853515625,0.10308343172073364,0.05039634555578232,-0.020769402384757996
1711072513895433500,0.52343359375,0.06856957077980042,0.22785256803035736,0.01954767294228077
1711072513914392300,0.542392333984375,0.03711003437638283,0.4416552484035492,0.15546508133411407
1711072513933351000,0.561350830078125,0.0007635809597559273,0.48991355299949646,0.2831358313560486
1711072513952309800,0.580309814453125,-0.008399390615522861,0.3222311735153198,0.323452889919281
1711072513971268400,0.599268310546875,0.0102319847792387,0.08277218043804169,0.28038692474365234
1711072513990227000,0.61822705078125,-0.010537417605519295,-0.04886918142437935,0.21197007596492767
1711072514009185800,0.637185791015625,-0.05299251899123192,-0.07880155742168427,0.15271618962287903
1711072514028144400,0.656144287109375,-0.03222311660647392,-0.05589412897825241,0.07971785217523575
1711072514047103000,0.67510302734375,0.04780016839504242,0.02718348242342472,0.02718348242342472
1711072514066061800,0.694061767578125,0.1571449637413025,0.07941242307424545,-0.06017018109560013
1711072514085020400,0.7130205078125,0.24999640882015228,0.12370011955499649,-0.1127045527100563
1711072514103979300,0.731979248046875,0.28328853845596313,0.2730565667152405,-0.03390299528837204
1711072514122937900,0.750937744140625,0.2753472924232483,0.3442223072052002,0.09285144507884979
1711072514141896700,0.769896728515625,0.3266599476337433,0.2415970265865326,0.16859868168830872
1711072514160855300,0.788855224609375,0.4350884258747101,0.053756099194288254,0.15607595443725586
1711072514179814000,0.80781396484375,0.5309942364692688,-0.05833758786320686,0.12247838824987411
1711072514198772700,0.826772705078125,0.5713112950325012,-0.022907428443431854,0.1288924664258957
1711072514217731300,0.8457314453125,0.616209864616394,0.11087195575237274,0.20127993822097778
1711072514236690200,0.864690185546875,0.6214022040367126,0.2406807243824005,0.3283398151397705
1711072514255648800,0.883648681640625,0.651029109954834,0.31184646487236023,0.4269944727420807
1711072514274607400,0.902607421875,0.7142536640167236,0.3228420317173004,0.4938841760158539
1711072514293566200,0.921566162109375,0.7420479655265808,0.38209593296051025,0.5778780579566956
1711072514312524800,0.94052490234375,0.716086208820343,0.4773908257484436,0.6411026120185852
1711072514331483600,0.959483642578125,0.6226239204406738,0.5778780579566956,0.6860011219978333
1711072514350442200,0.978442138671875,0.5059487819671631,0.7043271064758301,0.7980948090553284
1711072514369401000,0.997401123046875,0.4289797842502594,0.8429933786392212,0.9428697824478149
1711072514388359700,1.016359619140625,0.4091266989707947,0.9358448386192322,1.0769546031951904
1711072514407318300,1.035318359375,0.43020153045654297,0.9676098227500916,1.1701115369796753
1711072514426277000,1.054277099609375,0.43692103028297424,0.9401208758354187,1.237612009048462
1711072514445235700,1.073235595703125,0.4240928590297699,0.9043853282928467,1.2809834480285645
1711072514464194600,1.092194580078125,0.4488328993320465,0.8836159110069275,1.283732295036316
1711072514483153200,1.111153076171875,0.49984011054039,0.8888082504272461,1.2623521089553833
1711072514502112000,1.130112060546875,0.5459604263305664,0.9022472500801086,1.2092068195343018
1711072514521070600,1.149070556640625,0.5633700489997864,0.9111047983169556,1.1426225900650024
1711072514540029400,1.168029541015625,0.5450441241264343,0.926376461982727,1.0494656562805176
1711072514558988000,1.186988037109375,0.4659371078014374,0.9184352159500122,0.9315688014030457
1711072514577946600,1.205946533203125,0.3727802336215973,0.8475748896598816,0.8265000581741333
1711072514596905500,1.224905517578125,0.2942841053009033,0.6988292932510376,0.6609556674957275
1711072514615864000,1.243864013671875,0.20173808932304382,0.48502662777900696,0.44501498341560364
1711072514634822700,1.26282275390625,0.08292489498853683,0.2883281707763672,0.24526220560073853
1711072514653781500,1.281781494140625,0.05849030241370201,0.318871408700943,0.2214384824037552
1711072514672740400,1.300740234375,0.10583232343196869,0.4523453712463379,0.1951712965965271
1711072514691699000,1.319698974609375,0.15012001991271973,0.5510000586509705,0.25350889563560486
1711072514710657500,1.338657470703125,0.20906847715377808,0.4981602132320404,0.2565632164478302
1711072514729616400,1.357616455078125,0.25091269612312317,0.3601047992706299,0.205861434340477
1711072514748575000,1.376574951171875,0.23228132724761963,0.3035998046398163,0.15577052533626556
1711072514767533800,1.395533935546875,0.13301581144332886,0.3530798554420471,0.11392628401517868
1711072514786492400,1.414492431640625,0.016340631991624832,0.3659079968929291,0.05039634555578232
1711072514805451300,1.433451171875,-0.04230238497257233,0.2889390289783478,-0.0009162971982732415
1711072514824409900,1.452409912109375,0.00045814859913662076,0.15485422313213348,-0.023823726922273636
1711072514843368700,1.47136865234375,0.11774418503046036,0.03176496922969818,0.013439024798572063
1711072514862327300,1.490327392578125,0.26099199056625366,-0.000610864779446274,0.021991131827235222
1711072514881286000,1.509285888671875,0.29825472831726074,-0.02932151034474373,-0.06444623321294785
1711072514900244700,1.52824462890625,0.2286161482334137,-0.018325943499803543,-0.07024945318698883
1711072514919203300,1.547203369140625,0.2585485279560089,-0.05955931544303894,-0.09407317638397217
1711072514938162200,1.566162109375,0.20570871233940125,-0.13255766034126282,-0.16310089826583862
1711072514957120800,1.585120849609375,0.24694208800792694,-0.2458730787038803,-0.08491020649671555
1711072514976079600,1.60407958984375,0.3575085997581482,-0.3903425931930542,-0.016798781231045723
1711072514995038200,1.6230380859375,0.3681987524032593,-0.46944957971572876,-0.054672397673130035
1711072515013997000,1.6419970703125,0.27168211340904236,-0.472198486328125,-0.09346231073141098
1711072515032955600,1.66095556640625,0.18096868693828583,-0.34666576981544495,-0.0818558782339096
1711072515051914500,1.67991455078125,0.1107192412018776,-0.16584978997707367,-0.04520399495959282
1711072515070873000,1.698873046875,0.02367101050913334,-0.049480047076940536,-0.006414080038666725
1711072515089832000,1.71783203125,-0.017256930470466614,-0.049480047076940536,0.01893680728971958
1711072515108790500,1.73679052734375,-0.003512472379952669,-0.12217295914888382,0.06291907280683517
1711072515127749400,1.755749267578125,-0.008399390615522861,-0.1441640853881836,0.07788526266813278
1711072515146708000,1.7747080078125,-0.009315688163042068,-0.0665842592716217,0.09040798991918564
1711072515165666800,1.793666748046875,0.016646064817905426,0.04001164436340332,0.12492185086011887
1711072515184625400,1.81262548828125,0.020922118797898293,0.14660754799842834,0.18356487154960632
1711072515203584000,1.831583984375,0.04321868345141411,0.21502439677715302,0.20402882993221283
1711072515222542800,1.85054296875,0.031001387163996696,0.2922987937927246,0.22449280321598053
1711072515241501700,1.869501708984375,0.04321868345141411,0.3133736252784729,0.2788597643375397
1711072515260460300,1.888460205078125,0.03711003437638283,0.29474225640296936,0.277332603931427
1711072515279419100,1.907419189453125,0.01359174121171236,0.2611446976661682,0.24495677649974823
1711072515298377700,1.926377685546875,-0.013897174037992954,0.25961753726005554,0.23487751185894012
1711072515317336300,1.94533642578125,-0.025809036567807198,0.2620609998703003,0.21899501979351044
1711072515336295200,1.964295166015625,-0.049632761627435684,0.22815799713134766,0.16707152128219604
1711072515355254000,1.98325390625,-0.08933897316455841,0.1484401375055313,0.07574722915887833
1711072515374212600,2.002212646484375,-0.11988221108913422,0.07971785217523575,0.05406153202056885
1711072515393171200,2.021171142578125,-0.08231402933597565,0.09468404203653336,0.09834922850131989
1711072515412130000,2.040130126953125,-0.0435241162776947,0.15027274191379547,0.09926552325487137
1711072515431089000,2.0590888671875,-0.0334448479115963,0.1380554437637329,0.06230820715427399
1711072515450047500,2.078047607421875,-0.06215549260377884,0.07757982611656189,0.047036588191986084
1711072515469006000,2.097006103515625,-0.052076224237680435,0.016187917441129684,0.04367683082818985
1711072515487965000,2.11596484375,-0.005345067009329796,-0.016187917441129684,0.030543239787220955
1711072515506923800,2.134923828125,0.007788525894284248,0.018631376326084137,0.005803215317428112
1711072515525882400,2.15388232421875,0.018173227086663246,0.05925388261675835,0.001221729558892548
1711072515544841200,2.17284130859375,0.03497200831770897,0.08032871782779694,0.018325943499803543
1711072515563799800,2.1917998046875,0.05177079141139984,0.05894844979047775,0.018631376326084137
1711072515582758700,2.210758544921875,0.06673697382211685,-0.010384701192378998,0.03176496922969818
1711072515601717200,2.22971728515625,0.07834340631961823,-0.0824667438864708,0.04917461425065994
1711072515620676000,2.248676025390625,0.11316270381212234,-0.14508038759231567,0.0769689604640007
1711072515639634700,2.267634765625,0.09728021919727325,-0.18631376326084137,0.06291907280683517
1711072515658593500,2.286593505859375,0.03588830679655075,-0.25320345163345337,0.07422006875276566
1711072515677552000,2.30555224609375,0.054214250296354294,-0.3191768527030945,0.10659590363502502
1711072515696511000,2.324510986328125,0.06520981341600418,-0.3139844834804535,0.10476330667734146
1711072515715469600,2.343469482421875,-0.018784092739224434,-0.22693626582622528,0.035124726593494415
1711072515734428400,2.362428466796875,-0.15531237423419952,-0.13958260416984558,-0.019242240116000175
1711072515753387300,2.38138720703125,-0.3162752389907837,-0.11362084746360779,-0.047036588191986084
1711072515772345900,2.400345947265625,-0.47845983505249023,-0.1078176349401474,-0.048563748598098755
1711072515791304400,2.419304443359375,-0.6033816933631897,-0.19700388610363007,-0.13041962683200836
1711072515810263300,2.43826318359375,-0.7157807946205139,-0.32192572951316833,-0.2159406989812851
1711072515829222100,2.45722216796875,-0.8177952170372009,-0.4166097939014435,-0.27488914132118225
1711072515848180700,2.4761806640625,-0.9155336022377014,-0.5201513767242432,-0.38698282837867737
1711072515867139300,2.495139404296875,-0.9579886794090271,-0.41294458508491516,-0.38331764936447144
1711072515886098200,2.51409814453125,-0.9036217331886292,-0.22418737411499023,-0.4981602132320404
1711072515905057000,2.53305712890625,-0.8749110698699951,-0.000610864779446274,-0.6249146461486816
1711072515924015600,2.552015625,-0.780837893486023,0.16126830875873566,-0.6777544617652893
1711072515942974500,2.570974365234375,-0.651639997959137,0.24984370172023773,-0.68386310338974
1711072515961933000,2.58993310546875,-0.5154171586036682,0.2971857190132141,-0.6368265151977539
1711072515980892000,2.608891845703125,-0.35414886474609375,0.2987128794193268,-0.5445859432220459
1711072515999850500,2.6278505859375,-0.18096868693828583,0.32559093832969666,-0.4373791813850403
1711072516018809300,2.646809326171875,-0.07498364895582199,0.4477638900279999,-0.2919933497905731
1711072516037768200,2.665768310546875,-0.02306014485657215,0.6108647584915161,-0.12767073512077332
1711072516056726800,2.684726806640625,0.036804601550102234,0.8362739086151123,0.04245510324835777
1711072516075685600,2.703685546875,0.09789107739925385,1.0674861669540405,0.21746785938739777
1711072516094644200,2.722644287109375,0.13912445306777954,1.2409718036651611,0.4013381600379944
1711072516113603000,2.74160302734375,0.1562286615371704,1.3548980951309204,0.5748237371444702
1711072516132561700,2.760561767578125,0.15012001991271973,1.3585633039474487,0.7357866168022156
1711072516151520500,2.7795205078125,0.15042544901371002,1.3151918649673462,0.8616247773170471
1711072516170479000,2.79847900390625,0.1715002804994583,1.2608249187469482,0.953559935092926
1711072516189438000,2.81743798828125,0.20021092891693115,1.2318087816238403,0.9850194454193115
1711072516208396800,2.836396728515625,0.1672242283821106,1.2370011806488037,0.980132520198822
1711072516227355400,2.85535546875,0.13240493834018707,1.1985167264938354,0.9306524991989136
1711072516246314200,2.874314208984375,0.06673697382211685,1.1087195873260498,0.9117156863212585
1711072516265272800,2.89327294921875,0.07345648854970932,0.9037744402885437,0.8454368710517883
1711072516284231700,2.912231689453125,0.060933761298656464,0.5198459029197693,0.6288852691650391
1711072516303190300,2.931190185546875,0.1204930767416954,0.15271618962287903,0.3176496922969818
1711072516322149000,2.950149169921875,0.25671592354774475,0.12614357471466064,0.05864302068948746
1711072516341108000,2.96910791015625,0.34834563732147217,0.39278605580329895,-0.07330377399921417
1711072516360066600,2.988066650390625,0.3572031855583191,0.5928442478179932,-0.13744457066059113
1711072516379025200,3.007025146484375,0.34956738352775574,0.5900954008102417,-0.17806708812713623
1711072516397984000,3.02598388671875,0.33337944746017456,0.4886918365955353,-0.15821397304534912
1711072516416942800,3.04494287109375,0.28787001967430115,0.33750277757644653,-0.10231985151767731
1711072516435901400,3.0639013671875,0.2237292230129242,0.22357651591300964,-0.019242240116000175
1711072516454860300,3.0828603515625,0.18646647036075592,0.15485422313213348,0.05100720748305321
1711072516473819100,3.101819091796875,0.1623373180627823,0.12583814561367035,0.08888082206249237
1711072516492777700,3.12077783203125,0.11438442766666412,0.11881320178508759,0.13072505593299866
1711072516511736300,3.139736328125,0.0743727833032608,0.12003492563962936,0.19608759880065918
1711072516530695200,3.158695068359375,0.030390523374080658,0.1441640853881836,0.2767217457294464
1711072516549654000,3.177654052734375,-0.008093958720564842,0.17104214429855347,0.3533852696418762
1711072516568612600,3.196612548828125,-0.01695149764418602,0.17287473380565643,0.3894262909889221
1711072516587571500,3.215571533203125,-0.0062613640911877155,0.1490510106086731,0.37171122431755066
1711072516606530000,3.234530029296875,0.0062613640911877155,0.08491020649671555,0.2828303873538971
1711072516625489000,3.253489013671875,0.0001527161948615685,0.039706211537122726,0.13072505593299866
1711072516644447700,3.27244775390625,0.008093958720564842,0.056810423731803894,-0.012522728182375431
1711072516663406300,3.29140625,0.03252854943275452,0.16340632736682892,-0.03695731982588768
1711072516682365200,3.310365234375,0.05971203371882439,0.22449280321598053,0.002443459117785096
1711072516701324000,3.329323974609375,0.064598947763443,0.20830489695072174,0.04367683082818985
1711072516720282600,3.34828271484375,0.04627300798892975,0.18906265497207642,0.10018182545900345
1711072516739241200,3.3672412109375,0.030085090547800064,0.1954767256975174,0.17256930470466614
1711072516758200000,3.386199951171875,0.027030766010284424,0.20830489695072174,0.21685700118541718
1711072516777159000,3.405158935546875,0.012980876490473747,0.20891575515270233,0.23365578055381775
1711072516796117500,3.424117431640625,-0.01359174121171236,0.21991132199764252,0.26511532068252563
1711072516815076400,3.443076416015625,-0.04108065739274025,0.2367101013660431,0.3042106628417969
1711072516834035000,3.462034912109375,-0.07131846249103546,0.26908594369888306,0.3393353819847107
1711072516852993800,3.480993896484375,-0.12018764764070511,0.33139413595199585,0.3857611119747162
1711072516871952600,3.49995263671875,-0.16966769099235535,0.3399462401866913,0.4251618981361389
1711072516890911200,3.5189111328125,-0.19165882468223572,0.28405213356018066,0.4159989058971405
1711072516909870000,3.5378701171875,-0.18310672044754028,0.22754712402820587,0.383928507566452
1711072516928829000,3.556828857421875,-0.14248420298099518,0.24740023910999298,0.35613417625427246
1711072516947787500,3.57578759765625,-0.10766492038965225,0.33078327775001526,0.3594939112663269
1711072516966746000,3.59474609375,-0.064598947763443,0.3588830530643463,0.3814850449562073
1711072516985705000,3.613705078125,-0.012980876490473747,0.3179551064968109,0.39400777220726013
1711072517004663800,3.632663818359375,0.05024362727999687,0.29138249158859253,0.4056142270565033
1711072517023622400,3.651622314453125,0.08903354406356812,0.34055712819099426,0.4153880476951599
1711072517042581200,3.670581298828125,0.12140937149524689,0.39248061180114746,0.39217519760131836
1711072517061539800,3.689539794921875,0.13179408013820648,0.39278605580329895,0.31642794609069824
1711072517080498700,3.708498779296875,0.11988221108913422,0.36193737387657166,0.2360992431640625
1711072517099457500,3.72745751953125,0.11652245372533798,0.3802633285522461,0.1902843713760376
1711072517118416100,3.746416015625,0.11133010685443878,0.430659681558609,0.17104214429855347
1711072517137375000,3.765375,0.10399972647428513,0.4373791813850403,0.1649334877729416
1711072517156333800,3.784333740234375,0.08903354406356812,0.38881543278694153,0.16340632736682892
1711072517175292400,3.80329248046875,0.07559451460838318,0.3176496922969818,0.17287473380565643
1711072517194251300,3.822251220703125,0.06520981341600418,0.2464839369058609,0.1585194170475006
1711072517213209900,3.8412099609375,0.003512472379952669,0.17684535682201385,0.09651663154363632
1711072517232168700,3.860168701171875,-0.08078686892986298,0.11239911615848541,-0.000610864779446274
1711072517251127600,3.87912744140625,-0.15592323243618011,-0.01588248461484909,-0.14080433547496796
1711072517270086100,3.898086181640625,-0.22189663350582123,-0.18631376326084137,-0.33658650517463684
1711072517289045000,3.917044921875,-0.28725916147232056,-0.41386088728904724,-0.5830704569816589
1711072517308003600,3.936003662109375,-0.3000873327255249,-0.6655371785163879,-0.842382550239563
1711072517326962400,3.95496240234375,-0.21212279796600342,-0.9034690260887146,-1.0674861669540405
1711072517345921000,3.973921142578125,-0.061850059777498245,-1.107803225517273,-1.2412772178649902
1711072517364880000,3.9928798828125,0.12018764764070511,-1.2791508436203003,-1.341153621673584
1711072517383838700,4.011838623046875,0.27809619903564453,-1.369253396987915,-1.368947982788086
1711072517402797300,4.03079736328125,0.4482220411300659,-1.4062107801437378,-1.3490948677062988
1711072517421756200,4.049756103515625,0.6000219583511353,-1.311832070350647,-1.2568542957305908
1711072517440714800,4.06871484375,0.7518218159675598,-1.1450660228729248,-1.1218531131744385
1711072517459673600,4.087673583984375,0.947909414768219,-0.9700532555580139,-0.9993748068809509
1711072517478632400,4.106632568359375,1.1268928050994873,-0.8539889454841614,-0.9077450633049011
1711072517497591000,4.125591064453125,1.256090760231018,-0.8197805285453796,-0.8170316219329834
1711072517516550000,4.1445498046875,1.3516910076141357,-0.8274163603782654,-0.7351757884025574
1711072517535508500,4.163508544921875,1.430798053741455,-0.8420770764350891,-0.6496546864509583
1711072517554467300,4.18246728515625,1.5218168497085571,-0.8066469430923462,-0.5103775262832642
1711072517573426200,4.20142626953125,1.5453351736068726,-0.6808087825775146,-0.3906480371952057
1711072517592384800,4.220384765625,1.4662281274795532,-0.4868592321872711,-0.2767217457294464
1711072517611343600,4.239343505859375,1.3596322536468506,-0.2254091054201126,-0.20280711352825165
1711072517630302500,4.258302490234375,1.299462080001831,0.01954767294228077,-0.1750127524137497
1711072517649261000,4.277260986328125,1.2603667974472046,0.2315177470445633,-0.15271618962287903
1711072517668220000,4.296219970703125,1.2188279628753662,0.4266890585422516,-0.1328630894422531
1711072517687178500,4.315178466796875,1.218217134475708,0.47097674012184143,-0.10903936624526978
1711072517706137300,4.334137451171875,1.2270746231079102,0.35582873225212097,-0.09315688163042068
1711072517725096200,4.35309619140625,1.235015869140625,0.129197895526886,-0.0668896958231926
1711072517744054800,4.3720546875,1.2163845300674438,-0.08857539296150208,-0.016187917441129684
1711072517763013600,4.391013671875,1.1452187299728394,-0.17715078592300415,0.03940077871084213
1711072517781972200,4.40997216796875,1.022434949874878,-0.14813470840454102,0.1288924664258957
1711072517800931000,4.42893115234375,0.8846849203109741,-0.012217295356094837,0.17806708812713623
1711072517819890000,4.447889892578125,0.8162680864334106,0.13561198115348816,0.1747073233127594
1711072517838848500,4.4668486328125,0.7786998748779297,0.23976442217826843,0.10323614627122879
1711072517857807400,4.485807373046875,0.7194460034370422,0.2678641974925995,0.014049889519810677
1711072517876766200,4.50476611328125,0.6794343590736389,0.29474225640296936,-0.08124501258134842
1711072517895724800,4.523724853515625,0.6632464528083801,0.34177884459495544,-0.1744018942117691
1711072517914683600,4.54268359375,0.6601921319961548,0.41447174549102783,-0.24740023910999298
1711072517933642200,4.561642333984375,0.5899426341056824,0.5464185476303101,-0.3686569035053253
1711072517952601000,4.58060107421875,0.37094762921333313,0.5235111117362976,-0.5290089249610901
1711072517971560000,4.599559814453125,0.258853942155838,0.44318240880966187,-0.5870410799980164
1711072517990518500,4.6185185546875,0.29245150089263916,0.43890634179115295,-0.4923570156097412
1711072518009477400,4.637477294921875,0.44791659712791443,0.2009745091199875,-0.42791077494621277
1711072518028436000,4.65643603515625,0.4958694875240326,0.037262752652168274,-0.36132651567459106
1711072518047394800,4.675394775390625,0.34193155169487,0.15638138353824615,-0.2009745091199875
1711072518066353700,4.694353759765625,0.22036947309970856,0.4263836145401001,-0.01588248461484909
1711072518085312300,4.713312255859375,0.2188423126935959,0.4944950342178345,0.11728604137897491
1711072518104271000,4.73227099609375,0.2383899837732315,0.31642794609069824,0.13133592903614044
1711072518123230000,4.75122998046875,0.19960007071495056,0.056810423731803894,0.15760311484336853
1711072518142188500,4.7701884765625,0.1715002804994583,-0.11942406743764877,0.17898337543010712
1711072518161147400,4.7891474609375,0.17394374310970306,-0.21899501979351044,0.13713914155960083
1711072518180106000,4.80810595703125,0.15256348252296448,-0.14172062277793884,0.06322450190782547
1711072518199064800,4.82706494140625,0.10369429737329483,-0.0616973415017128,-0.030543239787220955
1711072518218023700,4.846023681640625,0.06979130208492279,-0.007330377586185932,-0.11636973917484283
1711072518236982300,4.864982177734375,0.04505127668380737,0.01649334840476513,-0.1637117564678192
1711072518255941000,4.883941162109375,0.04108065739274025,-0.009773836471140385,-0.1750127524137497
1711072518274900000,4.90289990234375,0.05787943676114082,-0.07819069176912308,-0.16249002516269684
1711072518293858600,4.921858642578125,0.05299251899123192,-0.14660754799842834,-0.09529490768909454
1711072518312817400,4.9408173828125,0.012980876490473747,-0.20861032605171204,-0.028405211865901947
1711072518331776000,4.95977587890625,-0.03894263133406639,-0.22174391150474548,0.02871064469218254
1711072518350734800,4.97873486328125,-0.036193739622831345,-0.16707152128219604,0.06627883017063141
1711072518369693700,4.997693603515625,0.0025961752980947495,-0.13041962683200836,0.07971785217523575
1711072518388652300,5.01665234375,0.02306014485657215,-0.1383608728647232,0.08643736690282822
1711072518407611100,5.035611083984375,0.03649916872382164,-0.21197007596492767,0.09682206809520721
1711072518426569700,5.05456982421875,0.05482511222362518,-0.2660316228866577,0.0717766135931015
1711072518445528600,5.073528564453125,0.05787943676114082,-0.20830489695072174,0.032681263983249664
1711072518464487400,5.0924873046875,0.012675444595515728,-0.06597339361906052,0.013744457624852657
1711072518483446000,5.111446044921875,-0.040775224566459656,0.03543015569448471,-0.033597562462091446
1711072518502404900,5.13040478515625,-0.07254019379615784,0.06719512492418289,-0.07360920310020447
1711072518521363700,5.14936376953125,-0.10186170041561127,0.049480047076940536,-0.09590577334165573
1711072518540322300,5.168322265625,-0.141262486577034,0.0021380267571657896,-0.10445787757635117
1711072518559281200,5.18728125,-0.16783510148525238,-0.03481929376721382,-0.11453714966773987
1711072518578239700,5.20623974609375,-0.16478078067302704,-0.041844237595796585,-0.12553271651268005
1711072518597198600,5.225198486328125,-0.15012001991271973,-0.003970621153712273,-0.11575887352228165
1711072518616157400,5.244157470703125,-0.15928299725055695,0.04550942778587341,-0.10170898586511612
1711072518635116000,5.263115966796875,-0.17302745580673218,0.05711585655808449,-0.11362084746360779
1711072518654075000,5.282074951171875,-0.1611155867576599,0.07635809481143951,-0.10445787757635117
1711072518673033500,5.301033447265625,-0.1516471803188324,0.07605266571044922,-0.11087195575237274
1711072518691992300,5.319992431640625,-0.15347976982593536,0.09437860548496246,-0.10751219838857651
1711072518710951200,5.338951171875,-0.1513417512178421,0.11881320178508759,-0.07452550530433655
1711072518729909800,5.35790966796875,-0.13332124054431915,0.14813470840454102,-0.06597339361906052
1711072518748868600,5.37686865234375,-0.11285726726055145,0.16615521907806396,-0.07513637095689774
1711072518767827500,5.395827392578125,-0.08292489498853683,0.15485422313213348,-0.08888082206249237
1711072518786786000,5.4147861328125,-0.04780016839504242,0.13744457066059113,-0.10109812021255493
1711072518805745000,5.433744873046875,-0.02519817277789116,0.11759147047996521,-0.12644900381565094
1711072518824703500,5.452703369140625,-0.02611446939408779,0.13194678723812103,-0.13103049993515015
1711072518843662300,5.471662353515625,-0.02764163166284561,0.11575887352228165,-0.12370011955499649
1711072518862621200,5.49062109375,-0.036804601550102234,0.09621120244264603,-0.11087195575237274
1711072518881579800,5.509579833984375,-0.05299251899123192,0.07819069176912308,-0.07299833744764328
1711072518900538600,5.52853857421875,-0.028863361105322838,0.07910698652267456,-0.03176496922969818
1711072518919497500,5.54749755859375,-0.0154243353754282,0.09437860548496246,-0.010384701192378998
1711072518938456000,5.5664560546875,-0.02000582218170166,0.09651663154363632,-0.01649334840476513
1711072518957415000,5.585414794921875,-0.006872228812426329,0.04276053607463837,-0.03390299528837204
1711072518976373500,5.60437353515625,0.010842849500477314,0.02107483521103859,-0.02412915788590908
1711072518995332400,5.623332275390625,0.0154243353754282,-0.000610864779446274,-0.007024944759905338
1711072519014291200,5.642291259765625,0.002901607658714056,-0.03145953640341759,0.007635809946805239
1711072519033249800,5.661249755859375,-0.012675444595515728,-0.07635809481143951,0.02626718580722809
1711072519052208400,5.68020849609375,-0.01908952370285988,-0.09437860548496246,0.047036588191986084
1711072519071167200,5.699167236328125,-0.044440411031246185,-0.08460476994514465,0.054672397673130035
1711072519090126000,5.7181259765625,-0.05635227635502815,-0.08429934084415436,0.043371398001909256
1711072519109085000,5.7370849609375,-0.03588830679655075,-0.10109812021255493,0.033597562462091446
1711072519128043500,5.75604345703125,-0.001679878099821508,-0.11362084746360779,0.04062250629067421
1711072519147002400,5.77500244140625,0.016340631991624832,-0.11759147047996521,0.024434590712189674
1711072519165961200,5.793961181640625,0.016646064817905426,-0.09896009415388107,-0.006108647678047419
1711072519184919800,5.812919921875,-0.00045814859913662076,-0.0769689604640007,-0.026878049597144127
1711072519203878700,5.831878662109375,-0.03252854943275452,-0.039706211537122726,-0.027488915249705315
1711072519222837200,5.850837158203125,-0.07070759683847427,-0.0021380267571657896,-0.005803215317428112
1711072519241796000,5.869796142578125,-0.10888664424419403,0.04673115536570549,0.03298669680953026
1711072519260755000,5.8887548828125,-0.15531237423419952,0.04978547990322113,0.08277218043804169
1711072519279713500,5.907713623046875,-0.23594652116298676,0.011606430634856224,0.12247838824987411
1711072519298672400,5.92667236328125,-0.2860374450683594,-0.09712749719619751,0.16340632736682892
1711072519317631000,5.945630859375,-0.2283107042312622,-0.25320345163345337,0.12461641430854797
1711072519336589800,5.96458984375,-0.09728021919727325,-0.2657261788845062,0.08063415437936783
1711072519355548700,5.983548583984375,-0.04657844081521034,-0.13958260416984558,0.09896009415388107
1711072519374507300,6.00250732421875,-0.09392046183347702,-0.0565049909055233,0.06780599057674408
1711072519393466000,6.021466064453125,-0.12873975932598114,-0.029016077518463135,-0.02871064469218254
1711072519412425000,6.040425048828125,-0.11743875592947006,0.01435532234609127,-0.11545344442129135
1711072519431383600,6.059383544921875,-0.1052214577794075,0.043982263654470444,-0.13133592903614044
1711072519450342400,6.07834228515625,-0.11988221108913422,0.01649334840476513,-0.13469567894935608
1711072519469301200,6.09730126953125,-0.10674861818552017,-0.047952886670827866,-0.11178825795650482
1711072519488259800,6.116259765625,-0.08200860023498535,-0.07483093440532684,-0.043982263654470444
1711072519507218700,6.13521875,-0.05604684352874756,-0.12370011955499649,0.004886918235570192
1711072519526177500,6.154177490234375,-0.04016435891389847,-0.16646064817905426,0.024740023538470268
1711072519545136000,6.17313623046875,-0.03191768378019333,-0.19364413619041443,0.05192350596189499
1711072519564095000,6.192094970703125,-0.04108065739274025,-0.23762640357017517,0.09071341902017593
1711072519583053800,6.2110537109375,-0.07742711156606674,-0.2926042377948761,0.1649334877729416
1711072519602012700,6.2300126953125,-0.1766926348209381,-0.3500255048274994,0.25931209325790405
1711072519620971300,6.24897119140625,-0.30283620953559875,-0.4828886091709137,0.3090975880622864
1711072519639930000,6.26793017578125,-0.35811948776245117,-0.5940660238265991,0.3173442482948303
1711072519658888700,6.286888671875,-0.3926333487033844,-0.7043271064758301,0.30146175622940063
1711072519677847600,6.30584765625,-0.6174315810203552,-0.7559451460838318,0.18600831925868988
1711072519696806400,6.324806396484375,-0.8666644096374512,-0.6206386089324951,0.028099779039621353
1711072519715765200,6.34376513671875,-1.029459834098816,-0.481361448764801,0.07299833744764328
1711072519734723800,6.362723876953125,-1.159879446029663,-0.6032289862632751,0.14141519367694855
1711072519753682700,6.3816826171875,-1.1409426927566528,-0.7788525819778442,0.03481929376721382
1711072519772641300,6.400641357421875,-1.1601849794387817,-0.8750637769699097,-0.030543239787220955
1711072519791600400,6.419600341796875,-1.2472331523895264,-0.796262264251709,-0.05406153202056885
1711072519810559000,6.43855908203125,-1.3773473501205444,-0.5338957905769348,-0.013744457624852657
1711072519829517800,6.457517822265625,-1.4595086574554443,-0.3790415823459625,-0.018631376326084137
1711072519848476400,6.476476318359375,-1.3981167078018188,-0.31062474846839905,-0.1081230640411377
1711072519867435300,6.495435302734375,-1.3611594438552856,-0.25931209325790405,-0.10965022444725037
1711072519886394000,6.51439404296875,-1.3278672695159912,-0.42088583111763,-0.06780599057674408
1711072519905353000,6.53335302734375,-1.279608964920044,-0.46395179629325867,0.004276053514331579
1711072519924311800,6.552311767578125,-1.2658644914627075,-0.29993459582328796,-0.007330377586185932
1711072519943270400,6.5712705078125,-1.197142243385315,-0.07971785217523575,-0.10354158282279968
1711072519962229200,6.590229248046875,-1.095127820968628,-0.012522728182375431,-0.14294235408306122
1711072519981188000,6.60918798828125,-1.0343468189239502,-0.1182023361325264,-0.12034036219120026
1711072520000147000,6.62814697265625,-1.0374010801315308,-0.21197007596492767,-0.12522727251052856
1711072520019105500,6.64710546875,-1.0667226314544678,-0.19700388610363007,-0.17592905461788177
1711072520038064400,6.666064453125,-1.0661118030548096,-0.07635809481143951,-0.23426663875579834
1711072520057023200,6.685023193359375,-1.032208800315857,-0.044898562133312225,-0.2868010103702545
1711072520075981800,6.70398193359375,-0.9619593024253845,-0.07910698652267456,-0.3139844834804535
1711072520094940700,6.722940673828125,-0.9060651659965515,-0.04214967042207718,-0.2910770773887634
1711072520113899500,6.7418994140625,-0.8877392411231995,-0.021991131827235222,-0.282524973154068
1711072520132858400,6.7608583984375,-0.9066760540008545,-0.017715077847242355,-0.32589635252952576
1711072520151817200,6.779817138671875,-0.8877392411231995,-0.026572618633508682,-0.35094180703163147
1711072520170776000,6.798776123046875,-0.8516982197761536,-0.028099779039621353,-0.36163195967674255
1711072520189734700,6.817734619140625,-0.7881683111190796,0.009162971749901772,-0.42302384972572327
1711072520208693500,6.836693603515625,-0.7866411209106445,-0.0461202897131443,-0.457843154668808
1711072520227652400,6.85565234375,-0.7527381181716919,-0.2260199636220932,-0.4633409380912781
1711072520246611200,6.874611083984375,-0.6846266984939575,-0.35124725103378296,-0.4169152081012726
1711072520265570000,6.893570068359375,-0.6110175251960754,-0.43463030457496643,-0.347582072019577
1711072520284528600,6.912528564453125,-0.5572614073753357,-0.48563748598098755,-0.3451386094093323
1711072520303487500,6.931487548828125,-0.5514581799507141,-0.5787943601608276,-0.3851502537727356
1711072520322446300,6.9504462890625,-0.48823368549346924,-0.6151408553123474,-0.4819723069667816
1711072520341405200,6.9694052734375,-0.47174033522605896,-0.7965676784515381,-0.5152644515037537
1711072520360364000,6.988364013671875,-0.4592176079750061,-0.9495893120765686,-0.5238165259361267
1711072520379323000,7.007322998046875,-0.36025750637054443,-0.7553343176841736,-0.47097674012184143
1711072520398281700,7.02628173828125,-0.16478078067302704,-0.3491092324256897,-0.46608981490135193
1711072520417240300,7.045240234375,0.10827577859163284,-0.10506874322891235,-0.6349939107894897
1711072520436199200,7.06419921875,0.34437501430511475,-0.13591741025447845,-0.8307760953903198
1711072520455158000,7.083157958984375,0.4247037470340729,-0.2730565667152405,-0.9599739909172058
1711072520474116900,7.102116943359375,0.42134398221969604,-0.10934479534626007,-0.943786084651947
1711072520493075700,7.12107568359375,0.5581777095794678,0.1853974610567093,-0.850934624671936
1711072520512034300,7.140034423828125,0.7912226319313049,0.3597993552684784,-0.7003564834594727
1711072520530993400,7.158993408203125,1.075885534286499,0.0974329337477684,-0.629496157169342
1711072520549952000,7.177951904296875,1.3229804039001465,-0.28527384996414185,-0.36743515729904175
1711072520568910800,7.196910888671875,1.8229732513427734,-0.8158099055290222,-0.12278381735086441
1711072520587869700,7.21586962890625,2.502865791320801,-1.4957023859024048,0.06719512492418289
1711072520606828500,7.23482861328125,3.0248496532440186,-2.036317825317383,0.28008151054382324
1711072520625787400,7.253787353515625,3.202305793762207,-2.1914772987365723,0.4990765154361725
1711072520644746200,7.272746337890625,3.1873397827148438,-1.8854341506958008,0.6976075768470764
1711072520663705000,7.291705078125,3.316537618637085,-1.2849540710449219,0.8252783417701721
1711072520682663700,7.31066357421875,3.5724899768829346,-0.5076286196708679,0.7828232049942017
1711072520701622800,7.329622802734375,3.78873610496521,0.21380266547203064,0.6585122346878052
1711072520720581600,7.34858154296875,3.79179048538208,0.6847794055938721,0.4667007029056549
1711072520739540500,7.36754052734375,3.6506805419921875,0.8588758707046509,0.2886336147785187
1711072520758499000,7.3864990234375,3.5165958404541016,0.8466585874557495,0.21930044889450073
1711072520777458000,7.4054580078125,3.3489134311676025,0.7883210182189941,0.20830489695072174
1711072520796416800,7.424416748046875,3.132056474685669,0.6163625717163086,0.21197007596492767
1711072520815375600,7.443375732421875,2.842200994491577,0.3814850449562073,0.2309068888425827
1711072520834334500,7.46233447265625,2.5126395225524902,0.27091851830482483,0.3017672002315521
1711072520853293300,7.481293212890625,2.2093451023101807,0.15271618962287903,0.40927940607070923
1711072520872252200,7.500252197265625,1.9775220155715942,0.12247838824987411,0.46975502371788025
1711072520891211000,7.5192109375,1.7710497379302979,0.1536324918270111,0.4199695289134979
1711072520910169900,7.538169921875,1.5028800964355469,0.27091851830482483,0.39858928322792053
1711072520929128700,7.557128662109375,1.2231040000915527,0.3802633285522461,0.37293294072151184
1711072520948087600,7.576087646484375,1.0089958906173706,0.34086254239082336,0.24984370172023773
1711072520967046400,7.59504638671875,0.8199332356452942,0.20677772164344788,0.06719512492418289
1711072520986005200,7.614005126953125,0.5291616320610046,-0.026572618633508682,-0.07330377399921417
1711072521004964000,7.632964111328125,0.2133445292711258,-0.2101374864578247,-0.2516762912273407
1711072521023923000,7.6519228515625,0.11621702462434769,-0.37354379892349243,-0.324063777923584
1711072521042881800,7.6708818359375,0.15439607203006744,-0.22724169492721558,-0.2880227565765381
1711072521061840600,7.689840576171875,0.27748534083366394,-0.20158538222312927,-0.24740023910999298
1711072521080799500,7.708799560546875,0.4072940945625305,-0.061391908675432205,-0.22937972843647003
1711072521099758300,7.72775830078125,0.4182896614074707,0.3081812858581543,-0.20677772164344788
1711072521118717200,7.74671728515625,0.37369653582572937,0.6133082509040833,-0.09468404203653336
1711072521137676000,7.765676025390625,0.32330018281936646,0.6814196705818176,0.18112140893936157
1711072521156635000,7.784634765625,0.37949973344802856,0.40958482027053833,0.44959646463394165
1711072521175593700,7.80359375,0.4292852282524109,-0.28924447298049927,0.5589412450790405
1711072521194552600,7.822552490234375,0.4961749315261841,-1.2336413860321045,0.5253437161445618
1711072521213511400,7.841511474609375,0.5539016127586365,-1.811824917793274,0.43432486057281494
1711072521232470300,7.86047021484375,0.5456549525260925,-1.7339396476745605,0.32100942730903625
1711072521251429000,7.87942919921875,0.4225656986236572,-1.0888664722442627,0.29443681240081787
1711072521270388000,7.898387939453125,0.38438665866851807,-0.36285367608070374,0.24526220560073853
1711072521289346800,7.917346923828125,0.34345871210098267,0.2562577724456787,0.13072505593299866
1711072521308305700,7.9363056640625,0.25732678174972534,0.5271763205528259,0.05589412897825241
1711072521327264500,7.955264404296875,0.17058399319648743,0.39675667881965637,0.017104214057326317
1711072521346223600,7.9742236328125,0.10308343172073364,0.10598503798246384,-0.053756099194288254
1711072521365182500,7.993182373046875,0.0102319847792387,0.014660755172371864,-0.10048725455999374
1711072521384141300,8.012141357421875,-0.10705405473709106,0.1948658674955368,-0.04459312930703163
1711072521403100200,8.03110009765625,-0.20723587274551392,0.37690356373786926,0.20250166952610016
1711072521422059000,8.05005908203125,-0.30802857875823975,0.29077163338661194,0.3863719701766968
1711072521441017900,8.069017822265625,-0.38438665866851807,0.0873536616563797,0.268169641494751
1711072521459976700,8.087976806640626,-0.38041603565216064,0.3185659945011139,0.10659590363502502
1711072521478935600,8.106935546875,-0.4341721534729004,0.831997811794281,0.22815799713134766
1711072521497894700,8.125894775390625,-0.3969093859195709,1.0467168092727661,0.38240134716033936
1711072521516853500,8.144853515625,-0.25579962134361267,0.6133082509040833,0.364991694688797
1711072521535812400,8.163812255859375,-0.21487168967723846,-0.035124726593494415,0.20891575515270233
1711072521554771200,8.182771240234375,-0.21670427918434143,-0.3277289569377899,-0.005803215317428112
1711072521573730000,8.20172998046875,-0.20540328323841095,-0.15760311484336853,-0.2101374864578247
1711072521592689000,8.22068896484375,-0.22769984602928162,0.24220788478851318,-0.3631591200828552
1711072521611647700,8.239647705078125,-0.2842048406600952,0.5109884142875671,-0.44348782300949097
1711072521630606800,8.25860693359375,-0.3068068325519562,0.5342012643814087,-0.47036588191986084
1711072521649565700,8.277565673828125,-0.29886558651924133,0.3347539007663727,-0.49113526940345764
1711072521668524500,8.296524658203126,-0.30375251173973083,0.05558869615197182,-0.5057960152626038
1711072521687483400,8.3154833984375,-0.2738201320171356,-0.21716243028640747,-0.5421425104141235
1711072521706442200,8.334442138671875,-0.11927134543657303,-0.4615083336830139,-0.5516108870506287
1711072521725401300,8.3534013671875,0.011453714221715927,-0.5088503360748291,-0.42302384972572327
1711072521744360200,8.372360107421875,0.09666935354471207,-0.5674933791160583,-0.3032943606376648
1711072521763319000,8.391319091796875,0.1308777779340744,-0.516791582107544,-0.14233149588108063
1711072521782278000,8.41027783203125,0.24266603589057922,-0.5439751148223877,-0.0717766135931015
1711072521801236700,8.42923681640625,0.41218101978302,-0.45448338985443115,-0.25045454502105713
1711072521820195800,8.44819580078125,0.5199986696243286,-0.06963858753442764,-0.36193737387657166
1711072521839154700,8.46715478515625,0.48670652508735657,0.2935205399990082,-0.3072649836540222
1711072521858113500,8.486113525390625,0.34926193952560425,0.34055712819099426,-0.27366742491722107
1711072521877072400,8.505072265625,0.20967933535575867,0.07452550530433655,-0.2568686306476593
1711072521896031500,8.524031494140624,0.1516471803188324,0.12644900381565094,-0.2461785078048706
1711072521914990300,8.542990234375,0.18921536207199097,0.4156934916973114,-0.2669478952884674
1711072521933949200,8.56194921875,0.16783510148525238,0.5803215503692627,-0.2770271897315979
1711072521952908300,8.580908203125,0.16569706797599792,0.5479456782341003,-0.29138249158859253
1711072521971867100,8.5998671875,0.22586725652217865,0.3546070158481598,-0.2614501118659973
1711072521990826000,8.618825927734376,0.24633121490478516,0.22907429933547974,-0.21930044889450073
1711072522009784800,8.637784912109375,0.2341139316558838,0.20738859474658966,-0.14477495849132538
1711072522028743700,8.65674365234375,0.1715002804994583,0.18723005056381226,-0.03298669680953026
1711072522047702800,8.675702880859374,0.08078686892986298,0.0204639695584774,0.05803215503692627
1711072522066661600,8.69466162109375,0.012370011769235134,-0.24281874299049377,0.08796452730894089
1711072522085620500,8.713620361328125,-0.005039634648710489,-0.4248564541339874,0.16157373785972595
1711072522104579600,8.73257958984375,-0.0001527161948615685,-0.4770853817462921,0.29016077518463135
1711072522123538400,8.751538330078125,-0.029474224895238876,-0.5656607747077942,0.4159989058971405
1711072522142497300,8.770497314453126,-0.17791436612606049,-0.6533198952674866,0.4468475878238678
1711072522161456400,8.789456298828124,-0.35537058115005493,-0.4526508152484894,0.34147340059280396
1711072522180415200,8.808415283203125,-0.4454731345176697,-0.10873392969369888,0.2098320573568344
1711072522199374000,8.8273740234375,-0.43753188848495483,0.15118902921676636,0.11484257876873016
1711072522218333200,8.846333251953125,-0.34956738352775574,0.18112140893936157,0.11911863088607788
1711072522237292000,8.8652919921875,-0.17088942229747772,0.0922405794262886,0.19181154668331146
1711072522256251000,8.8842509765625,-0.030695954337716103,0.08063415437936783,0.2419024556875229
1711072522275209700,8.903209716796875,-0.11743875592947006,0.13591741025447845,0.19639302790164948
1711072522294168800,8.9221689453125,-0.29794928431510925,0.19333870708942413,0.1438586562871933
1711072522313127700,8.941127685546874,-0.3782780170440674,0.14721840620040894,0.11667517572641373
1711072522332086800,8.960086669921875,-0.4289797842502594,0.023518294095993042,0.164322629570961
1711072522351045600,8.979045654296876,-0.37491825222969055,-0.28069236874580383,0.27030766010284424
1711072522370004500,8.99800439453125,-0.1357647031545639,-0.7400626540184021,0.4318813979625702
1711072522388963600,9.016963623046875,-0.012675444595515728,-0.9636391997337341,0.4938841760158539
1711072522407922400,9.03592236328125,-0.09575305134057999,-0.8112284541130066,0.38850998878479004
1711072522426881300,9.05488134765625,-0.21426081657409668,-0.6588176488876343,0.3121519088745117
1711072522445840400,9.07384033203125,-0.2078467458486557,-0.546113133430481,0.22999058663845062
1711072522464799200,9.09279931640625,-0.12843431532382965,-0.3897317349910736,0.1591302752494812
1711072522483758300,9.11175830078125,-0.06337722390890121,-0.235793799161911,0.09621120244264603
1711072522502717200,9.13071728515625,-0.05085449293255806,-0.1078176349401474,-0.0015271619195118546
1711072522521676000,9.149676025390624,-0.04321868345141411,-0.08155044913291931,-0.03695731982588768
1711072522540635100,9.16863525390625,0.0038179049734026194,-0.11636973917484283,-0.02871064469218254
1711072522559594000,9.187593994140625,0.030085090547800064,-0.14752385020256042,-0.05497783049941063
1711072522578553000,9.206552978515624,-0.0102319847792387,-0.1185077652335167,-0.043371398001909256
1711072522597512000,9.225511962890625,-0.03222311660647392,-0.050090912729501724,0.006414080038666725
1711072522616470800,9.244470703125,-0.04841103404760361,0.02260199747979641,0.060781046748161316
1711072522635430000,9.263429931640625,-0.08567378669977188,0.034208428114652634,0.0925460159778595
1711072522654388700,9.282388671875,-0.09575305134057999,-0.030543239787220955,0.10323614627122879
1711072522673347800,9.301347900390626,-0.09666935354471207,-0.13103049993515015,0.1288924664258957
1711072522692306700,9.320306640625,-0.1104138121008873,-0.16798780858516693,0.16829325258731842
1711072522711265500,9.339265625,-0.1562286615371704,-0.11911863088607788,0.2006690800189972
1711072522730224600,9.358224609375,-0.1977674663066864,-0.06841685622930527,0.21746785938739777
1711072522749183500,9.37718359375,-0.19440771639347076,-0.08338304609060287,0.2364046722650528
1711072522768142300,9.396142333984375,-0.1724165827035904,-0.18387030065059662,0.28069236874580383
1711072522787101400,9.415101318359374,-0.14492766559123993,-0.3194822669029236,0.33017241954803467
1711072522806060300,9.434060302734375,-0.12965604662895203,-0.4010327160358429,0.3900371491909027
1711072522825019400,9.453019287109376,-0.11713331937789917,-0.4825831651687622,0.4315759539604187
1711072522843978200,9.471978271484375,-0.08811724185943604,-0.5375609993934631,0.4663952589035034
1711072522862937300,9.490937255859375,-0.021227551624178886,-0.56382817029953,0.4969384968280792
1711072522881896200,9.509896240234376,0.011148282326757908,-0.5149590373039246,0.45509424805641174
1711072522900855000,9.52885498046875,-0.04932733252644539,-0.3344484567642212,0.33567020297050476
1711072522919814100,9.547814208984375,-0.13942988216876984,-0.05345066636800766,0.21441353857517242
1711072522938773000,9.56677294921875,-0.19135339558124542,0.17256930470466614,0.1233946830034256
1711072522957732000,9.585732177734375,-0.19837833940982819,0.23762640357017517,0.020158538594841957
1711072522976691000,9.60469091796875,-0.13912445306777954,0.2055560052394867,-0.11545344442129135
1711072522995650000,9.623650146484374,-0.03711003437638283,0.13713914155960083,-0.22479823231697083
1711072523014609000,9.64260888671875,-0.004428769461810589,0.0308486707508564,-0.2519817352294922
1711072523033567700,9.661567626953126,-0.034666575491428375,-0.04520399495959282,-0.20372340083122253
1711072523052526800,9.68052685546875,-0.03497200831770897,-0.06597339361906052,-0.15668681263923645
1711072523071485700,9.699485595703125,-0.017256930470466614,-0.07116574794054031,-0.13713914155960083
1711072523090444800,9.71844482421875,-0.005345067009329796,-0.061391908675432205,-0.12644900381565094
1711072523109403600,9.737403564453125,0.03649916872382164,-0.07574722915887833,-0.17562362551689148
1711072523128362800,9.75636279296875,0.07681624591350555,-0.047036588191986084,-0.20708316564559937
1711072523147321600,9.775321533203124,0.06765327602624893,0.031154103577136993,-0.1805105358362198
1711072523166280400,9.794280517578125,0.07009673118591309,0.06291907280683517,-0.205861434340477
1711072523185239600,9.813239501953126,0.09239330142736435,0.040317077189683914,-0.23243404924869537
1711072523204198400,9.832198486328124,0.11285726726055145,-0.015577051788568497,-0.2260199636220932
1711072523223157200,9.8511572265625,0.10430516302585602,-0.06841685622930527,-0.21807873249053955
1711072523242116400,9.870116455078126,0.06368265300989151,-0.09896009415388107,-0.2098320573568344
1711072523261075200,9.8890751953125,0.012370011769235134,-0.06475166976451874,-0.1945604383945465
1711072523280034300,9.908034423828125,-0.007177661173045635,-0.022296564653515816,-0.20250166952610016
1711072523298993200,9.9269931640625,-0.01847865991294384,0.010690134018659592,-0.19089524447917938
1711072523317952300,9.9459521484375,-0.052687086164951324,0.07605266571044922,-0.17684535682201385
1711072523336911000,9.9649111328125,-0.08048143237829208,0.11667517572641373,-0.1853974610567093
1711072523355870000,9.983869873046874,-0.09666935354471207,0.14782927930355072,-0.20463970303535461
1711072523374829000,10.0028291015625,-0.1101083755493164,0.1902843713760376,-0.2260199636220932
1711072523393788000,10.021787841796876,-0.12171480804681778,0.22693626582622528,-0.2461785078048706
1711072523412747000,10.0407470703125,-0.11438442766666412,0.22785256803035736,-0.25870123505592346
1711072523431705900,10.059705810546875,-0.0951421856880188,0.22174391150474548,-0.2360992431640625
1711072523450665000,10.0786650390625,-0.09880737960338593,0.19211697578430176,-0.18325942754745483
1711072523469623800,10.097623779296875,-0.12385283410549164,0.16584978997707367,-0.1279761642217636
1711072523488582700,10.116582763671875,-0.15286891162395477,0.15760311484336853,-0.07299833744764328
1711072523507541800,10.135541748046874,-0.15836669504642487,0.19272783398628235,-0.01954767294228077
1711072523526500600,10.15450048828125,-0.15500694513320923,0.22357651591300964,0.029932374134659767
1711072523545459700,10.173459716796875,-0.13820815086364746,0.21807873249053955,0.06536252796649933
1711072523564418600,10.19241845703125,-0.12476912885904312,0.1591302752494812,0.08918625861406326
1711072523583377700,10.211377685546875,-0.11102467030286789,0.07483093440532684,0.10995566099882126
1711072523602336500,10.23033642578125,-0.09361502528190613,0.009773836471140385,0.13683371245861053
1711072523621295400,10.24929541015625,-0.07101303339004517,-0.010995565913617611,0.15088360011577606
1711072523640254200,10.268254150390625,-0.049632761627435684,-0.015577051788568497,0.1649334877729416
1711072523659213300,10.28721337890625,-0.033139415085315704,-0.001221729558892548,0.1902843713760376
1711072523678172200,10.306172119140625,-0.01908952370285988,0.007024944759905338,0.20433427393436432
1711072523697131300,10.32513134765625,-0.01847865991294384,0.014660755172371864,0.19730933010578156
1711072523716090000,10.344090087890624,-0.007483093533664942,0.047952886670827866,0.1893680840730667
1711072523735049200,10.36304931640625,0.0154243353754282,0.07055488228797913,0.17104214429855347
1711072523754008000,10.382008056640625,0.03741546720266342,0.06902772188186646,0.13500112295150757
1711072523772967000,10.400966796875,0.0639880821108818,0.05528326332569122,0.10903936624526978
1711072523791926000,10.419926025390625,0.07803797721862793,0.05192350596189499,0.08888082206249237
1711072523810884900,10.438884765625,0.08353576064109802,0.07788526266813278,0.07605266571044922
1711072523829843700,10.45784375,0.09605848789215088,0.09437860548496246,0.07299833744764328
1711072523848802800,10.476802734375,0.10430516302585602,0.07513637095689774,0.0873536616563797
1711072523867761700,10.49576171875,0.10216713696718216,0.038789913058280945,0.10445787757635117
1711072523886720800,10.514720703125,0.08842267841100693,0.03543015569448471,0.10720676928758621
1711072523905679600,10.5336796875,0.07315105944871902,0.06994401663541794,0.09865466505289078
1711072523924638700,10.552638671875,0.06215549260377884,0.1182023361325264,0.08491020649671555
1711072523943597600,10.57159765625,0.046883873641490936,0.14233149588108063,0.06811141967773438
1711072523962556400,10.590556396484375,0.0383317656815052,0.15057817101478577,0.053145237267017365
1711072523981515300,10.609515380859374,0.039858926087617874,0.14813470840454102,0.029016077518463135
1711072524000474400,10.628474365234375,0.045967575162649155,0.12950333952903748,0.01435532234609127
1711072524019433200,10.64743310546875,0.03222311660647392,0.12736530601978302,0.0015271619195118546
1711072524038392300,10.666392333984374,0.008704823441803455,0.16035200655460358,-0.025045456364750862
1711072524057351200,10.68535107421875,-0.02458730712532997,0.21838416159152985,-0.07513637095689774
1711072524076310300,10.704310302734376,-0.033139415085315704,0.3130682110786438,-0.12461641430854797
1711072524095269000,10.72326904296875,-0.0154243353754282,0.39339691400527954,-0.14599667489528656
1711072524114228000,10.74222802734375,0.0010690133785828948,0.38850998878479004,-0.14721840620040894
1711072524133186800,10.761186767578126,0.017867794260382652,0.33597561717033386,-0.15179990231990814
1711072524152146000,10.78014599609375,0.04321868345141411,0.2861901521682739,-0.16310089826583862
1711072524171104800,10.799104736328125,0.030390523374080658,0.23793183267116547,-0.2055560052394867
1711072524190063900,10.81806396484375,-0.008704823441803455,0.2571740746498108,-0.27916520833969116
1711072524209022700,10.837022705078125,-0.014813470654189587,0.4068359434604645,-0.35216355323791504
1711072524227981600,10.855981689453126,0.007177661173045635,0.5571087002754211,-0.3952295184135437
1711072524246940700,10.874940673828124,0.02214384824037552,0.5702422857284546,-0.3912588953971863
1711072524265899500,10.8938994140625,0.04718930274248123,0.45448338985443115,-0.3295615613460541
1711072524284858400,10.9128583984375,0.060933761298656464,0.25809037685394287,-0.19914191961288452
1711072524303817500,10.9318173828125,0.054214250296354294,0.09376774728298187,-0.04306596517562866
1711072524322776300,10.9507763671875,0.04657844081521034,0.0204639695584774,0.08796452730894089
1711072524341735200,10.969735107421876,0.04780016839504242,0.024434590712189674,0.16554436087608337
1711072524360694300,10.9886943359375,0.04810560122132301,0.040317077189683914,0.19669845700263977
1711072524379653000,11.007653076171875,0.044440411031246185,0.053145237267017365,0.20799945294857025
1711072524398612000,11.026612060546874,0.04199695214629173,0.0668896958231926,0.21777328848838806
1711072524417571000,11.045571044921875,0.0334448479115963,0.06230820715427399,0.23182319104671478
1711072524436530000,11.064530029296876,0.031001387163996696,0.054672397673130035,0.24984370172023773
1711072524455488800,11.08348876953125,0.049632761627435684,0.09101885557174683,0.21685700118541718
1711072524474448000,11.10244775390625,0.06368265300989151,0.10048725455999374,0.14721840620040894
1711072524493406700,11.12140673828125,0.06276635825634003,0.10079269111156464,0.10598503798246384
1711072524512365600,11.140365478515625,0.06673697382211685,0.09376774728298187,0.09621120244264603
1711072524531324400,11.159324462890625,0.0795651376247406,0.05528326332569122,0.10048725455999374
1711072524550283500,11.178283447265626,0.0896444097161293,0.013439024798572063,0.10323614627122879
1711072524569242400,11.197242431640625,0.09605848789215088,-0.018325943499803543,0.09407317638397217
1711072524588201500,11.216201416015625,0.09239330142736435,-0.038789913058280945,0.07055488228797913
1711072524607160300,11.235160400390624,0.07040216773748398,-0.05100720748305321,0.04276053607463837
1711072524626119200,11.254119140625,0.03558287397027016,-0.056199558079242706,0.03329212963581085
1711072524645078300,11.273078369140626,0.009315688163042068,-0.05833758786320686,0.0412333719432354
1711072524664037000,11.292037109375,-0.008704823441803455,-0.07941242307424545,0.07269290834665298
1711072524682996000,11.310995849609375,-0.024892739951610565,-0.1337793916463852,0.1233946830034256
1711072524701955000,11.329955078125,-0.028557928279042244,-0.2159406989812851,0.16187916696071625
1711072524720914000,11.348913818359375,0.0013744457392022014,-0.2724456787109375,0.16554436087608337
1711072524739872800,11.367872802734375,0.018784092739224434,-0.3042106628417969,0.10934479534626007
1711072524758831600,11.38683154296875,-0.01695149764418602,-0.29901832342147827,0.03787361457943916
1711072524777790500,11.40579052734375,-0.08292489498853683,-0.2254091054201126,-0.02107483521103859
1711072524796749600,11.42474951171875,-0.13942988216876984,-0.09010255336761475,-0.06597339361906052
1711072524815708400,11.44370849609375,-0.1776089370250702,0.0665842592716217,-0.11087195575237274
1711072524834667300,11.462667236328125,-0.187382772564888,0.16615521907806396,-0.1533270627260208
1711072524853626400,11.48162646484375,-0.1669187992811203,0.18906265497207642,-0.1597411334514618
1711072524872585200,11.500585205078124,-0.13790272176265717,0.11942406743764877,-0.1380554437637329
1711072524891544000,11.5195439453125,-0.09544762223958969,0.001832594396546483,-0.11972949653863907
1711072524910503200,11.538503173828126,-0.039858926087617874,-0.06627883017063141,-0.09407317638397217
1711072524929462000,11.5574619140625,0.011148282326757908,-0.07635809481143951,-0.06047561392188072
1711072524948420900,11.5764208984375,0.029474224895238876,-0.06719512492418289,-0.02779434807598591
1711072524967380000,11.5953798828125,0.029474224895238876,-0.053145237267017365,-0.017715077847242355
1711072524986338800,11.6143388671875,0.03283398225903511,-0.032681263983249664,-0.03237583488225937
1711072525005297700,11.633297607421875,0.03283398225903511,-0.014966187067329884,-0.06200277432799339
1711072525024256500,11.652256591796874,0.022449281066656113,0.0054977829568088055,-0.08491020649671555
1711072525043215400,11.67121533203125,0.014508038759231567,0.03909534588456154,-0.0818558782339096
1711072525062174500,11.690174560546875,0.007483093533664942,0.05345066636800766,-0.06719512492418289
1711072525081133300,11.70913330078125,-0.007483093533664942,0.03848448023200035,-0.051618073135614395
1711072525100092200,11.728092041015625,-0.0102319847792387,0.007635809946805239,-0.02626718580722809
1711072525119051300,11.74705126953125,0.0013744457392022014,-0.025350889191031456,-0.003359756199643016
1711072525138010000,11.766010009765624,0.016035201027989388,-0.04306596517562866,0.004276053514331579
1711072525156969000,11.784968994140625,0.02458730712532997,-0.04153880476951599,-0.003665188793092966
1711072525175927800,11.803927734375,0.027947064489126205,-0.04673115536570549,-0.008552107028663158
1711072525194887000,11.822886962890625,0.02611446939408779,-0.05100720748305321,-0.008246674202382565
1711072525213845800,11.841845703125,0.03130681812763214,-0.05406153202056885,-0.011300998739898205
1711072525232804600,11.8608046875,0.03711003437638283,-0.053756099194288254,-0.01740964688360691
1711072525251763500,11.879763427734375,0.04016435891389847,-0.044898562133312225,-0.020158538594841957
1711072525270722600,11.89872265625,0.03894263133406639,-0.040317077189683914,-0.01740964688360691
1711072525289681400,11.917681396484374,0.03436114266514778,-0.05283980444073677,-0.009773836471140385
1711072525308640300,11.93664013671875,0.028863361105322838,-0.06383536756038666,0.003359756199643016
1711072525327599000,11.95559912109375,0.027030766010284424,-0.06017018109560013,0.008246674202382565
1711072525346558000,11.974557861328124,0.018784092739224434,-0.04978547990322113,0.0054977829568088055
1711072525365517000,11.99351708984375,0.0102319847792387,-0.03940077871084213,0.002443459117785096
1711072525384476000,12.012475830078126,0.010842849500477314,-0.021685699000954628,0.003665188793092966
1711072525403434800,12.031434814453124,0.016035201027989388,-0.0030543238390237093,-0.007024944759905338
1711072525422393600,12.0503935546875,0.012675444595515728,0.0054977829568088055,-0.021685699000954628
1711072525441352700,12.069352783203126,0.004123337101191282,0.012217295356094837,-0.026572618633508682
1711072525460311600,12.0883115234375,0.006872228812426329,0.024740023538470268,-0.023518294095993042
1711072525479270400,12.1072705078125,0.0038179049734026194,0.04459312930703163,-0.032070402055978775
1711072525498229200,12.126229248046876,-0.002901607658714056,0.06841685622930527,-0.04550942778587341
1711072525517188400,12.145188232421875,-0.009315688163042068,0.07849612087011337,-0.047952886670827866
1711072525536147200,12.164147216796875,-0.015729768201708794,0.06475166976451874,-0.038789913058280945
1711072525555106000,12.18310595703125,-0.022754713892936707,0.05192350596189499,-0.02626718580722809
1711072525574065000,12.20206494140625,-0.02764163166284561,0.05833758786320686,-0.024740023538470268
1711072525593023700,12.221023681640625,-0.029474224895238876,0.07391463965177536,-0.023518294095993042
1711072525611982800,12.23998291015625,-0.0383317656815052,0.07513637095689774,-0.020769402384757996
1711072525630941700,12.258941650390625,-0.05543597787618637,0.07360920310020447,-0.02107483521103859
1711072525649900500,12.277900634765626,-0.06795870512723923,0.09957095980644226,-0.024434590712189674
1711072525668859400,12.296859375,-0.08750637620687485,0.14080433547496796,-0.03329212963581085
1711072525687818200,12.315818359375,-0.11133010685443878,0.1750127524137497,-0.040317077189683914
1711072525706777300,12.33477734375,-0.11591159552335739,0.19394956529140472,-0.04306596517562866
1711072525725736200,12.353736083984375,-0.10186170041561127,0.1698204129934311,-0.041844237595796585
1711072525744695000,12.372695068359375,-0.08536835014820099,0.10659590363502502,-0.048563748598098755
1711072525763654000,12.39165380859375,-0.06582067906856537,0.04825831577181816,-0.05192350596189499
1711072525782613000,12.410613037109375,-0.04810560122132301,0.023518294095993042,-0.04734202101826668
1711072525801571800,12.42957177734375,-0.030695954337716103,0.032070402055978775,-0.03634645417332649
1711072525820530700,12.44853076171875,-0.01206457894295454,0.04764745384454727,-0.021991131827235222
1711072525839489500,12.467489501953125,-0.0001527161948615685,0.03298669680953026,-0.0009162971982732415
1711072525858448400,12.486448486328126,0.006566796451807022,0.021685699000954628,0.018325943499803543
1711072525877407200,12.5054072265625,0.012980876490473747,0.0256563201546669,0.023212861269712448
1711072525896366000,12.524365966796875,0.016646064817905426,0.05100720748305321,0.017715077847242355
1711072525915325000,12.543324951171876,0.022449281066656113,0.07819069176912308,0.006414080038666725
1711072525934284000,12.562283935546875,0.02306014485657215,0.07849612087011337,0
1711072525953243000,12.581242919921875,0.02672533318400383,0.06841685622930527,-0.0009162971982732415
1711072525972201700,12.60020166015625,0.033139415085315704,0.047036588191986084,0.0021380267571657896
1711072525991160600,12.61916064453125,0.03741546720266342,0.03543015569448471,0.004886918235570192
1711072526010119400,12.638119384765625,0.03894263133406639,0.030543239787220955,0.004276053514331579
1711072526029078300,12.657078369140624,0.039858926087617874,0.032070402055978775,0.005192350596189499
1711072526048037400,12.676037353515625,0.03802633285522461,0.029016077518463135,0.008857538923621178
1711072526066996200,12.694996337890625,0.03558287397027016,0.021991131827235222,0.010384701192378998
1711072526085955000,12.713955078125,0.03405570983886719,0.014966187067329884,0.011606430634856224
1711072526104914000,12.732913818359375,0.03405570983886719,0.015577051788568497,0.01802051067352295
1711072526123872800,12.751872802734376,0.030390523374080658,0.0204639695584774,0.01740964688360691
1711072526142831600,12.77083154296875,0.02916879393160343,0.032070402055978775,0.01435532234609127
1711072526161790500,12.78979052734375,0.020311253145337105,0.02626718580722809,0.01435532234609127
1711072526180749600,12.80874951171875,0.008704823441803455,-0.003665188793092966,0.00946840364485979
1711072526199708400,12.82770849609375,0.004734201822429895,-0.04276053607463837,0.014966187067329884
1711072526218667300,12.846667236328125,0.013286309316754341,-0.043982263654470444,0.022296564653515816
1711072526237626000,12.865626220703126,0.016646064817905426,-0.022907428443431854,0.001832594396546483
1711072526256585000,12.8845849609375,-0.009315688163042068,-0.01282816007733345,-0.03848448023200035
1711072526275543800,12.903543701171875,-0.030085090547800064,-0.021991131827235222,-0.05864302068948746
1711072526294502700,12.922502685546876,-0.008399390615522861,-0.08002328872680664,-0.004276053514331579
1711072526313461800,12.941461669921875,0.027947064489126205,-0.18784092366695404,0.10354158282279968
1711072526332420600,12.960420654296875,0.04657844081521034,-0.3274235129356384,0.2052505612373352
1711072526351379500,12.97937939453125,0.0383317656815052,-0.40286532044410706,0.2889390289783478
1711072526370338300,12.99833837890625,0.06643154472112656,-0.35582873225212097,0.3283398151397705
1711072526389297200,13.017297119140625,0.09941824525594711,-0.272751122713089,0.2813032269477844
1711072526408256000,13.036256103515624,0.09086613357067108,-0.168904110789299,0.1695149689912796
1711072526427214800,13.05521484375,0.08170316368341446,-0.019242240116000175,0.04825831577181816
1711072526446173700,13.074173583984376,0.10094540566205978,0.1692095398902893,-0.07635809481143951
1711072526465132500,13.093132568359374,0.11316270381212234,0.3381136655807495,-0.1795942485332489
1711072526484091600,13.112091552734375,0.10277800261974335,0.44929105043411255,-0.2458730787038803
1711072526503050500,13.131050537109376,0.09453132748603821,0.4920515716075897,-0.27580544352531433
1711072526522009300,13.15000927734375,0.10094540566205978,0.44379326701164246,-0.2767217457294464
1711072526540968200,13.16896826171875,0.0948367565870285,0.328645259141922,-0.23396120965480804
1711072526559927000,13.187927001953126,0.07773254066705704,0.1957821547985077,-0.16249002516269684
1711072526578886000,13.206885986328125,0.05971203371882439,0.10170898586511612,-0.06047561392188072
1711072526597844700,13.2258447265625,0.034666575491428375,0.04428769648075104,0.057726722210645676
1711072526616803600,13.244803466796874,0.007788525894284248,0.001832594396546483,0.14172062277793884
1711072526635762400,13.263762451171875,-0.015729768201708794,-0.07147117704153061,0.16676609218120575
1711072526654721300,13.28272119140625,-0.015729768201708794,-0.1490510106086731,0.1646280586719513
1711072526673680400,13.301680419921874,0.0154243353754282,-0.18784092366695404,0.17226386070251465
1711072526692639200,13.32063916015625,0.03955349326133728,-0.19120067358016968,0.16798780858516693
1711072526711598000,13.33959814453125,0.04169152304530144,-0.17165300250053406,0.13988803327083588
1711072526730557000,13.358556884765624,0.0383317656815052,-0.16340632736682892,0.12003492563962936
1711072526749515800,13.377515869140625,0.04108065739274025,-0.1637117564678192,0.11239911615848541
1711072526768474600,13.396474609375,0.050549060106277466,-0.18264856934547424,0.11972949653863907
1711072526787433500,13.41543359375,0.06520981341600418,-0.20311254262924194,0.1389717310667038
1711072526806392300,13.434392333984375,0.07498364895582199,-0.22235478460788727,0.16310089826583862
1711072526825351400,13.453351318359376,0.08689551800489426,-0.2257145345211029,0.16859868168830872
1711072526844310300,13.472310302734375,0.09544762223958969,-0.20616686344146729,0.14172062277793884
1711072526863269000,13.49126904296875,0.07498364895582199,-0.17073670029640198,0.0974329337477684
1711072526882228000,13.51022802734375,0.07589995115995407,-0.10995566099882126,0.05742128938436508
1711072526901186800,13.529186767578125,0.0386371985077858,-0.04367683082818985,0.02779434807598591
1711072526920145700,13.548145751953125,0.008093958720564842,0.03940077871084213,-0.01435532234609127
1711072526939104500,13.5671044921875,-0.005039634648710489,0.1081230640411377,-0.04886918142437935
1711072526958063400,13.5860634765625,-0.01847865991294384,0.15729768574237823,-0.08063415437936783
1711072526977022200,13.605022216796876,-0.016340631991624832,0.16859868168830872,-0.10445787757635117
1711072526995981000,13.62398095703125,-0.01359174121171236,0.1698204129934311,-0.11423171311616898
1711072527014940000,13.64293994140625,-0.011148282326757908,0.15210533142089844,-0.11728604137897491
1711072527033898800,13.661898681640626,-0.014202605932950974,0.11667517572641373,-0.12003492563962936
1711072527052857600,13.680857666015624,-0.01695149764418602,0.07849612087011337,-0.0977383628487587
1711072527071816400,13.69981640625,-0.017867794260382652,0.05070177838206291,-0.07055488228797913
1711072527090775300,13.718775390625,-0.027336198836565018,0.04306596517562866,-0.05253437161445618
1711072527109734100,13.737734130859375,-0.031001387163996696,0.032070402055978775,-0.04001164436340332
1711072527128693000,13.75669287109375,-0.028863361105322838,0.02107483521103859,-0.032681263983249664
1711072527147651800,13.77565185546875,-0.01908952370285988,0.022907428443431854,-0.025350889191031456
1711072527166610700,13.794610595703125,-0.011759147047996521,0.02107483521103859,-0.02718348242342472
1711072527185569500,13.813569580078125,-0.003512472379952669,0.022907428443431854,-0.040317077189683914
1711072527204528400,13.8325283203125,-0.0025961752980947495,0.033597562462091446,-0.05222893878817558
1711072527223487200,13.8514873046875,-0.009315688163042068,0.0513126403093338,-0.06230820715427399
1711072527242446000,13.870446044921875,-0.008704823441803455,0.06780599057674408,-0.0616973415017128
1711072527261405000,13.889405029296874,-0.0001527161948615685,0.06505709886550903,-0.06047561392188072
1711072527280364000,13.908364013671875,0.002901607658714056,0.04459312930703163,-0.06261363625526428
1711072527299323000,13.927322998046876,0.012980876490473747,0.003665188793092966,-0.043371398001909256
1711072527318281700,13.94628173828125,0.018784092739224434,-0.03298669680953026,-0.022296564653515816
1711072527337240600,13.965240478515625,0.008704823441803455,-0.04734202101826668,0.002443459117785096
1711072527356199400,13.984199462890626,0.008704823441803455,-0.04917461425065994,0.019242240116000175
1711072527375158300,14.003158203125,0.013286309316754341,-0.05192350596189499,0.025961752980947495
1711072527394117000,14.0221171875,0.0102319847792387,-0.03940077871084213,0.017715077847242355
1711072527413076000,14.041075927734376,0.011148282326757908,-0.023823726922273636,0.007635809946805239
1711072527432034800,14.060034912109375,0.014813470654189587,-0.007941242307424545,0.0009162971982732415
1711072527450993700,14.07899365234375,0.014202605932950974,0.003665188793092966,-0.01435532234609127
1711072527469952500,14.097952392578126,0.009010255336761475,0.014049889519810677,-0.023518294095993042
1711072527488911400,14.116911376953125,0.007788525894284248,0.015577051788568497,-0.025045456364750862
1711072527507870200,14.1358701171875,0.012370011769235134,0.018325943499803543,-0.02412915788590908
1711072527526829000,14.1548291015625,0.007483093533664942,0.029932374134659767,-0.025045456364750862
1711072527545788000,14.173787841796875,0.008399390615522861,0.043371398001909256,-0.032681263983249664
1711072527564746800,14.192746826171875,0.007483093533664942,0.04978547990322113,-0.0461202897131443
1711072527583705600,14.21170556640625,-0.0019853105768561363,0.05039634555578232,-0.05345066636800766
1711072527602664400,14.23066455078125,-0.009926552884280682,0.03298669680953026,-0.04764745384454727
1711072527621623300,14.249623291015626,-0.011759147047996521,-0.0021380267571657896,-0.030543239787220955
1711072527640582100,14.26858203125,-0.01511890348047018,-0.03237583488225937,-0.004886918235570192
1711072527659541000,14.287541015625,-0.007483093533664942,-0.054672397673130035,0.013744457624852657
1711072527678499800,14.306499755859376,0.011148282326757908,-0.060781046748161316,0.022296564653515816
1711072527697458700,14.325458740234374,0.01695149764418602,-0.04367683082818985,0.014049889519810677
1711072527716417500,14.34441748046875,0.0154243353754282,-0.01802051067352295,0.003665188793092966
1711072527735376400,14.36337646484375,0.016340631991624832,-0.001832594396546483,0.004581485874950886
1711072527754335200,14.382335205078125,0.0154243353754282,0.012217295356094837,0.004276053514331579
1711072527773294000,14.401294189453125,0.007788525894284248,0.030543239787220955,-0.00946840364485979
1711072527792253000,14.4202529296875,0.005650499369949102,0.05925388261675835,-0.02932151034474373
1711072527811211800,14.439211669921875,0.0025961752980947495,0.06750056147575378,-0.044898562133312225
1711072527830170400,14.45817041015625,-0.009010255336761475,0.06566796451807022,-0.04459312930703163
1711072527849129200,14.477129150390626,-0.0154243353754282,0.05528326332569122,-0.034208428114652634
1711072527868088000,14.496088134765625,-0.018784092739224434,0.0412333719432354,-0.026572618633508682
1711072527887047000,14.515046875,-0.0206166859716177,0.026572618633508682,-0.01649334840476513
1711072527906005800,14.534005859375,-0.0154243353754282,0.010995565913617611,0.000610864779446274
1711072527924964900,14.55296484375,-0.0013744457392022014,-0.010690134018659592,0.017104214057326317
1711072527943923700,14.571923828125,0.002290742937475443,-0.03298669680953026,0.021380268037319183
1711072527962882300,14.59088232421875,0.0025961752980947495,-0.03940077871084213,0.01740964688360691
1711072527981841200,14.609841064453125,0.008704823441803455,-0.029626941308379173,0.016187917441129684
1711072528000800000,14.628800048828126,0.010537417605519295,-0.017715077847242355,0.019853105768561363
1711072528019758800,14.6477587890625,0.010537417605519295,-0.02412915788590908,0.03756818547844887
1711072528038717700,14.6667177734375,0.014813470654189587,-0.02871064469218254,0.04581485688686371
1711072528057676500,14.685676513671876,0.022754713892936707,0.025350889191031456,0.005803215317428112
1711072528076635400,14.704635498046875,0.009926552884280682,0.12156209349632263,-0.09315688163042068
1711072528095594200,14.72359423828125,-0.037720900028944016,0.2049451321363449,-0.16798780858516693
1711072528114553000,14.742552978515626,-0.07101303339004517,0.22968515753746033,-0.15485422313213348
1711072528133512000,14.761511962890625,-0.07315105944871902,0.13103049993515015,-0.07971785217523575
1711072528152470800,14.780470703125,-0.060322895646095276,-0.05894844979047775,0.026878049597144127
1711072528171429600,14.7994296875,-0.0062613640911877155,-0.22479823231697083,0.12095122784376144
1711072528190388500,14.818388427734375,0.0539088174700737,-0.2831358313560486,0.16737695038318634
1711072528209347300,14.837347412109375,0.08628465235233307,-0.2364046722650528,0.17104214429855347
1711072528228306200,14.85630615234375,0.10063996911048889,-0.13561198115348816,0.14141519367694855
1711072528247265000,14.87526513671875,0.09330959618091583,-0.05283980444073677,0.07605266571044922
1711072528266223600,14.8942236328125,0.06123919412493706,0.034208428114652634,-0.01802051067352295
1711072528285182500,14.913182373046874,0.011759147047996521,0.15699224174022675,-0.12156209349632263
1711072528304141300,14.932141357421875,-0.04932733252644539,0.2733619809150696,-0.19333870708942413
1711072528323100200,14.95110009765625,-0.09392046183347702,0.3124573230743408,-0.1948658674955368
1711072528342059000,14.97005908203125,-0.10247256606817245,0.22418737411499023,-0.13439024984836578
1711072528361017900,14.989017822265625,-0.08048143237829208,0.027488915249705315,-0.03848448023200035
1711072528379976700,15.007976806640626,-0.030390523374080658,-0.16126830875873566,0.05283980444073677
1711072528398935600,15.026935546875,0.02000582218170166,-0.24556763470172882,0.11331541836261749
1711072528417894400,15.045894287109375,0.03894263133406639,-0.21899501979351044,0.12705987691879272
1711072528436853200,15.064853271484376,0.04169152304530144,-0.14202606678009033,0.11026109009981155
1711072528455812000,15.08381201171875,0.03955349326133728,-0.0821613147854805,0.0717766135931015
1711072528474771000,15.10277099609375,0.033139415085315704,-0.04062250629067421,0.018325943499803543
1711072528493729500,15.1217294921875,0.02367101050913334,0.008246674202382565,-0.04428769648075104
1711072528512688400,15.1406884765625,0.004734201822429895,0.06811141967773438,-0.09926552325487137
1711072528531647200,15.159647216796875,-0.01359174121171236,0.10995566099882126,-0.11636973917484283
1711072528550606000,15.178606201171876,-0.02153298258781433,0.0925460159778595,-0.10140355676412582
1711072528569565000,15.19756494140625,-0.020922118797898293,0.020158538594841957,-0.0720820426940918
1711072528588523800,15.216523681640625,-0.01511890348047018,-0.06536252796649933,-0.03298669680953026
1711072528607482600,15.235482666015624,-0.006566796451807022,-0.11178825795650482,0.004276053514331579
1711072528626441500,15.25444140625,-0.001679878099821508,-0.09987638890743256,0.029016077518463135
1711072528645400300,15.273400390625,-0.0013744457392022014,-0.06750056147575378,0.03909534588456154
1711072528664359200,15.292359130859374,0.0001527161948615685,-0.05406153202056885,0.03909534588456154
1711072528683318000,15.311318115234375,0.009315688163042068,-0.06230820715427399,0.03451386094093323
1711072528702276600,15.330276611328125,0.015729768201708794,-0.07147117704153061,0.021991131827235222
1711072528721235500,15.3492353515625,0.016340631991624832,-0.06108647957444191,0.007024944759905338
1711072528740194300,15.3681943359375,0.014508038759231567,-0.03145953640341759,-0.009773836471140385
1711072528759153200,15.387153076171876,0.01206457894295454,0.014660755172371864,-0.03176496922969818
1711072528778112000,15.406112060546874,0.001679878099821508,0.04886918142437935,-0.05283980444073677
1711072528797070800,15.42507080078125,-0.008399390615522861,0.05833758786320686,-0.0565049909055233
1711072528816029700,15.44402978515625,-0.006566796451807022,0.05070177838206291,-0.049480047076940536
1711072528834988500,15.462988525390625,0.00045814859913662076,0.03543015569448471,-0.039706211537122726
1711072528853947400,15.481947509765625,-0.0007635809597559273,0.005192350596189499,-0.02779434807598591
1711072528872906000,15.500906005859376,-0.0038179049734026194,-0.02871064469218254,-0.010690134018659592
1711072528891864800,15.51986474609375,-0.0010690133785828948,-0.040317077189683914,0.011606430634856224
1711072528910823700,15.53882373046875,0.0038179049734026194,-0.036651886999607086,0.01740964688360691
1711072528929782500,15.557782470703126,0.004428769461810589,-0.018325943499803543,0.016187917441129684
1711072528948741400,15.576741455078125,0.009926552884280682,-0.007635809946805239,0.007024944759905338
1711072528967700200,15.5957001953125,0.012675444595515728,-0.0021380267571657896,-0.005192350596189499
1711072528986659000,15.6146591796875,0.014813470654189587,0.012522728182375431,-0.016187917441129684
1711072529005618000,15.633617919921875,0.007788525894284248,0.0409279391169548,-0.04062250629067421
1711072529024576500,15.652576416015625,-0.009926552884280682,0.07116574794054031,-0.0665842592716217
1711072529043535400,15.671535400390624,-0.02519817277789116,0.09529490768909454,-0.07757982611656189
1711072529062494200,15.690494140625,-0.03436114266514778,0.09560033679008484,-0.08002328872680664
1711072529081453000,15.709453125,-0.04718930274248123,0.08888082206249237,-0.09285144507884979
1711072529100412000,15.728411865234374,-0.0639880821108818,0.07819069176912308,-0.12034036219120026
1711072529119370800,15.747370849609375,-0.0795651376247406,0.05558869615197182,-0.13439024984836578
1711072529138329600,15.76632958984375,-0.09117157012224197,-0.014966187067329884,-0.08155044913291931
1711072529157288400,15.785288330078124,-0.1052214577794075,-0.16157373785972595,0.048563748598098755
1711072529176247000,15.8042470703125,-0.08689551800489426,-0.3127627670764923,0.23304490745067596
1711072529195206000,15.823205810546876,-0.009315688163042068,-0.3402516841888428,0.3246746361255646
1711072529214164700,15.842164794921874,0.08659008145332336,-0.22174391150474548,0.28985533118247986
1711072529233123600,15.86112353515625,0.16081015765666962,0.02412915788590908,0.11514800786972046
1711072529252082400,15.88008251953125,0.14523309469223022,0.35643959045410156,-0.17898337543010712
1711072529271041300,15.899041259765625,0.03711003437638283,0.6328558921813965,-0.4425715208053589
1711072529290000100,15.918000244140625,-0.0746782198548317,0.7434224486351013,-0.5421425104141235
1711072529308959000,15.936958984375,-0.16814053058624268,0.6163625717163086,-0.4575377106666565
1711072529327917600,15.95591748046875,-0.18982623517513275,0.29504770040512085,-0.24953825771808624
1711072529346876400,15.97487646484375,-0.11316270381212234,-0.06352993845939636,0
1711072529365835300,15.993835205078126,-0.017256930470466614,-0.3231474757194519,0.20922118425369263
1711072529384794000,16.012794189453125,0.04993819445371628,-0.42791077494621277,0.347582072019577
1711072529403753000,16.0317529296875,0.09269873052835464,-0.4159989058971405,0.40347617864608765
1711072529422711800,16.0507119140625,0.13820815086364746,-0.3539961278438568,0.39309149980545044
1711072529441670700,16.069670654296875,0.16264274716377258,-0.27855435013771057,0.32620179653167725
1711072529460629500,16.08862939453125,0.15592323243618011,-0.2049451321363449,0.2257145345211029
1711072529479588000,16.107588134765624,0.12843431532382965,-0.11087195575237274,0.1282816082239151
1711072529498547000,16.126546875,0.07681624591350555,0.01435532234609127,0.032070402055978775
1711072529517505800,16.145505859375,0.03436114266514778,0.16157373785972595,-0.059864748269319534
1711072529536464600,16.164464599609374,-0.005650499369949102,0.31001389026641846,-0.14752385020256042
1711072529555423500,16.183423583984375,-0.05024362727999687,0.40866854786872864,-0.23823726177215576
1711072529574382300,16.20238232421875,-0.10063996911048889,0.41783151030540466,-0.2770271897315979
1711072529593341200,16.221341064453124,-0.12415826320648193,0.3335321843624115,-0.21991132199764252
1711072529612300000,16.240300048828125,-0.09728021919727325,0.1646280586719513,-0.07299833744764328
1711072529631258600,16.259258544921874,-0.058795735239982605,-0.07971785217523575,0.10170898586511612
1711072529650217500,16.278217529296874,-0.004123337101191282,-0.32650721073150635,0.2611446976661682
1711072529669176300,16.29717626953125,0.05085449293255806,-0.5009090900421143,0.3536907136440277
1711072529688135200,16.31613525390625,0.09239330142736435,-0.5277871489524841,0.35643959045410156
1711072529707094000,16.335093994140625,0.10888664424419403,-0.40408703684806824,0.3026835024356842
1711072529726052900,16.354052978515625,0.10766492038965225,-0.21471896767616272,0.20738859474658966
1711072529745011700,16.37301171875,0.0902552679181099,-0.029932374134659767,0.08857539296150208
1711072529763970600,16.391970458984375,0.061850059777498245,0.1081230640411377,-0.03940077871084213
1711072529782929400,16.410929443359375,0.03436114266514778,0.18600831925868988,-0.129197895526886
1711072529801888300,16.42988818359375,0.007788525894284248,0.21441353857517242,-0.15577052533626556
1711072529820847000,16.44884716796875,-0.01359174121171236,0.20708316564559937,-0.1282816082239151
1711072529839805700,16.4678056640625,-0.024892739951610565,0.15241076052188873,-0.07941242307424545
1711072529858764500,16.4867646484375,-0.020311253145337105,0.06719512492418289,-0.012522728182375431
1711072529877723400,16.505723388671875,-0.0032070400193333626,-0.03481929376721382,0.05253437161445618
1711072529896682200,16.52468212890625,0.011759147047996521,-0.10751219838857651,0.10201441496610641
1711072529915641000,16.54364111328125,0.014202605932950974,-0.13744457066059113,0.12064579129219055
1711072529934600000,16.562599853515625,0.011148282326757908,-0.12125665694475174,0.10231985151767731
1711072529953558800,16.581558837890626,0.004123337101191282,-0.07971785217523575,0.06597339361906052
1711072529972517600,16.600517578125,0.0019853105768561363,-0.039706211537122726,0.02412915788590908
1711072529991476500,16.6194765625,0.004123337101191282,-0.006108647678047419,-0.00946840364485979
1711072530010435300,16.638435302734376,0.008093958720564842,0.015577051788568497,-0.03909534588456154
1711072530029394200,16.657394287109376,0.0010690133785828948,0.026572618633508682,-0.05283980444073677
1711072530048353000,16.67635302734375,-0.004734201822429895,0.038789913058280945,-0.04764745384454727
1711072530067311600,16.6953115234375,-0.005650499369949102,0.05955931544303894,-0.03329212963581085
1711072530086270500,16.7142705078125,-0.01206457894295454,0.056199558079242706,-0.027488915249705315
1711072530105229300,16.733229248046875,-0.021227551624178886,0.038789913058280945,-0.02779434807598591
1711072530124188200,16.752188232421876,-0.03283398225903511,0.03940077871084213,-0.041844237595796585
1711072530143147300,16.771147216796876,-0.04993819445371628,0.10751219838857651,-0.10476330667734146
1711072530162106000,16.790106201171874,-0.08048143237829208,0.22235478460788727,-0.18570289015769958
1711072530181064700,16.809064697265626,-0.10766492038965225,0.2837466895580292,-0.21349723637104034
1711072530200023600,16.8280234375,-0.12996147572994232,0.22999058663845062,-0.16554436087608337
1711072530218982400,16.846982421875,-0.11591159552335739,0.05039634555578232,-0.06902772188186646
1711072530237941200,16.865941162109376,-0.06001746281981468,-0.1597411334514618,0.05253437161445618
1711072530256900000,16.884900146484377,0.005955931730568409,-0.3185659945011139,0.1487455666065216
1711072530275859000,16.90385888671875,0.0642935186624527,-0.34727662801742554,0.20311254262924194
1711072530294817800,16.92281787109375,0.09728021919727325,-0.2458730787038803,0.1847866028547287
1711072530313776600,16.941776611328127,0.08139773458242416,-0.08124501258134842,0.08368847519159317
1711072530332735500,16.960735595703124,0.03527744114398956,0.13958260416984558,-0.07819069176912308
1711072530351694300,16.9796943359375,-0.030695954337716103,0.3228420317173004,-0.2467893660068512
1711072530370653200,16.998653076171873,-0.08078686892986298,0.3814850449562073,-0.323452889919281
1711072530389612000,17.017612060546874,-0.08811724185943604,0.30512696504592896,-0.27855435013771057
1711072530408571000,17.03657080078125,-0.07162389904260635,0.09376774728298187,-0.1496618688106537
1711072530427529700,17.05552978515625,-0.02153298258781433,-0.12461641430854797,-0.004886918235570192
1711072530446488600,17.074488525390624,0.02153298258781433,-0.2510654330253601,0.10842850059270859
1711072530465447400,17.093447509765625,0.025809036567807198,-0.27550002932548523,0.1640172004699707
1711072530484406300,17.11240625,0.02519817277789116,-0.250149130821228,0.1847866028547287
1711072530503365000,17.131365234375,0.027947064489126205,-0.22876885533332825,0.18325942754745483
1711072530522324000,17.150323974609375,0.028863361105322838,-0.20463970303535461,0.15210533142089844
1711072530541282800,17.16928271484375,0.026419902220368385,-0.1588248461484909,0.0922405794262886
1711072530560241700,17.18824169921875,0.027947064489126205,-0.05436696484684944,0.00946840364485979
1711072530579200500,17.207200439453125,0.015729768201708794,0.1130099818110466,-0.09957095980644226
1711072530598159400,17.226159423828125,-0.021227551624178886,0.24831652641296387,-0.2000582218170166
1711072530617118200,17.2451181640625,-0.04657844081521034,0.2816086709499359,-0.21380266547203064
1711072530636077000,17.2640771484375,-0.03894263133406639,0.2006690800189972,-0.15607595443725586
1711072530655036000,17.283035888671876,-0.027947064489126205,0.0665842592716217,-0.07238747924566269
1711072530673994800,17.301994873046876,-0.02214384824037552,-0.05803215503692627,0.014049889519810677
1711072530692953600,17.32095361328125,-0.005955931730568409,-0.13439024984836578,0.0772743970155716
1711072530711912400,17.339912353515626,0.02153298258781433,-0.15729768574237823,0.10751219838857651
1711072530730871300,17.358871337890626,0.041386090219020844,-0.14508038759231567,0.11087195575237274
1711072530749830100,17.377830078125,0.03649916872382164,-0.11759147047996521,0.09346231073141098
1711072530768789000,17.3967890625,0.02977965772151947,-0.09804379940032959,0.06627883017063141
1711072530787748000,17.415748046875,0.0383317656815052,-0.07360920310020447,0.035124726593494415
1711072530806707000,17.43470703125,0.02214384824037552,-0.032070402055978775,0.005803215317428112
1711072530825665800,17.453665771484374,0.003512472379952669,0.031154103577136993,-0.013133592903614044
1711072530844624600,17.472624755859375,-0.009621120058000088,0.07910698652267456,-0.017715077847242355
1711072530863583500,17.49158349609375,-0.006566796451807022,0.08888082206249237,-0.03023780696094036
1711072530882542300,17.510542236328124,-0.008399390615522861,0.07024945318698883,-0.032681263983249664
1711072530901501200,17.529501220703125,-0.011759147047996521,0.039706211537122726,-0.03176496922969818
1711072530920460000,17.5484599609375,-0.01695149764418602,0.023518294095993042,-0.015577051788568497
1711072530939419000,17.5674189453125,-0.010842849500477314,0.01435532234609127,0.008857538923621178
1711072530958377700,17.586377685546875,0.004123337101191282,-0.004886918235570192,0.0256563201546669
1711072530977336600,17.605336669921876,0.009621120058000088,-0.036651886999607086,0.032681263983249664
1711072530996295400,17.62429541015625,0.015729768201708794,-0.040317077189683914,0.030543239787220955
1711072531015254300,17.643254150390625,0.025809036567807198,-0.03634645417332649,0.018631376326084137
1711072531034213000,17.662213134765626,0.03802633285522461,-0.018631376326084137,0.001221729558892548
1711072531053172000,17.681171875,0.026419902220368385,0.006108647678047419,-0.018325943499803543
1711072531072130800,17.700130859375,0.01359174121171236,0.025350889191031456,-0.021380268037319183
1711072531091089700,17.719089599609376,0.012675444595515728,0.032070402055978775,-0.011911863461136818
1711072531110048500,17.738048583984376,0.0062613640911877155,0.023823726922273636,-0.008857538923621178
1711072531129007400,17.75700732421875,0.007483093533664942,0.022296564653515816,0.002443459117785096
1711072531147966200,17.77596630859375,0.007483093533664942,0.01435532234609127,0.010079269297420979
1711072531166925000,17.794925048828127,-0.002290742937475443,0.010995565913617611,0.017715077847242355
1711072531185884000,17.8138837890625,-0.005039634648710489,0.01435532234609127,0.025350889191031456
1711072531204842800,17.8328427734375,0.002901607658714056,0.019242240116000175,0.02412915788590908
1711072531223801600,17.851801513671877,0.008399390615522861,0.012522728182375431,0.015271619893610477
1711072531242760400,17.870760498046874,0.0038179049734026194,0.013439024798572063,0.01740964688360691
1711072531261719600,17.889719482421874,0.007177661173045635,0.00946840364485979,0.019853105768561363
1711072531280678400,17.908678466796875,0.009621120058000088,0.007330377586185932,0.017715077847242355
1711072531299637200,17.92763720703125,0.007483093533664942,0.005803215317428112,0.013133592903614044
1711072531318596000,17.94659619140625,0.005039634648710489,0.010690134018659592,0.014049889519810677
1711072531337555000,17.965554931640625,0.012675444595515728,0.021380268037319183,0.018325943499803543
1711072531356513800,17.984513671875,0.0102319847792387,0.0256563201546669,0.019853105768561363
1711072531375472600,18.00347265625,0.005650499369949102,0.013133592903614044,0.024740023538470268
1711072531394431500,18.022431396484375,0.009010255336761475,0.004581485874950886,0.021991131827235222
1711072531413390300,18.041390380859376,0.0007635809597559273,0.040317077189683914,-0.018325943499803543
1711072531432349200,18.06034912109375,-0.029474224895238876,0.11575887352228165,-0.10720676928758621
1711072531451308000,18.07930810546875,-0.07162389904260635,0.21868959069252014,-0.21960589289665222
1711072531470267000,18.098266845703126,-0.10583232343196869,0.3017672002315521,-0.31093016266822815
1711072531489225700,18.117225830078127,-0.11713331937789917,0.2935205399990082,-0.31093016266822815
1711072531508184600,18.1361845703125,-0.10063996911048889,0.16126830875873566,-0.20372340083122253
1711072531527143400,18.155143310546876,-0.06123919412493706,-0.09101885557174683,-0.028405211865901947
1711072531546102300,18.174102294921877,-0.006566796451807022,-0.3582721948623657,0.14569124579429626
1711072531565061000,18.19306103515625,0.04780016839504242,-0.527481734752655,0.27488914132118225
1711072531584020000,18.21202001953125,0.07620538026094437,-0.5558869242668152,0.3396408259868622
1711072531602978800,18.230978759765627,0.11316270381212234,-0.42455101013183594,0.3451386094093323
1711072531621937700,18.249937744140624,0.1623373180627823,-0.25350889563560486,0.277332603931427
1711072531640896500,18.268896484375,0.1870773434638977,-0.129197895526886,0.16279546916484833
1711072531659855400,18.28785546875,0.19654574990272522,-0.06230820715427399,0.059864748269319534
1711072531678814200,18.306814208984374,0.1870773434638977,-0.02871064469218254,0.003665188793092966
1711072531697773000,18.32577294921875,0.1623373180627823,0.012217295356094837,-0.007330377586185932
1711072531716732000,18.34473193359375,0.1311832070350647,0.05589412897825241,0.0009162971982732415
1711072531735690800,18.363690673828124,0.0896444097161293,0.09957095980644226,0.0256563201546669
1711072531754649600,18.382649658203125,0.05451968312263489,0.1331685185432434,0.06230820715427399
1711072531773608400,18.4016083984375,0.02306014485657215,0.13041962683200836,0.09468404203653336
1711072531792567300,18.4205673828125,0.008704823441803455,0.09162971377372742,0.11026109009981155
1711072531811526100,18.439526123046875,0.01206457894295454,0.04367683082818985,0.10598503798246384
1711072531830485000,18.458485107421875,0.019394956529140472,0.024740023538470268,0.08368847519159317
1711072531849443800,18.47744384765625,0.02000582218170166,0.053756099194288254,0.06475166976451874
1711072531868402700,18.496402587890625,0.002290742937475443,0.11453714966773987,0.04428769648075104
1711072531887361500,18.515361572265626,-0.009315688163042068,0.1649334877729416,0.02412915788590908
1711072531906320400,18.5343203125,-0.019700389355421066,0.19822561740875244,-0.01435532234609127
1711072531925279200,18.553279296875,-0.03955349326133728,0.2101374864578247,-0.05070177838206291
1711072531944238000,18.572238037109376,-0.07803797721862793,0.21441353857517242,-0.07513637095689774
1711072531963197000,18.591197021484376,-0.10827577859163284,0.23518294095993042,-0.08521563559770584
1711072531982155800,18.61015576171875,-0.1262962967157364,0.25473061203956604,-0.08552107214927673
1711072532001114600,18.629114501953126,-0.12996147572994232,0.258395791053772,-0.08521563559770584
1711072532020073500,18.648073486328126,-0.11743875592947006,0.23823726177215576,-0.0870482325553894
1711072532039032600,18.667032470703123,-0.10797034949064255,0.1893680840730667,-0.09101885557174683
1711072532057991400,18.685991455078124,-0.09544762223958969,0.12950333952903748,-0.08857539296150208
1711072532076950300,18.7049501953125,-0.07040216773748398,0.07330377399921417,-0.07452550530433655
1711072532095909000,18.7239091796875,-0.046883873641490936,0.03298669680953026,-0.04764745384454727
1711072532114868000,18.742867919921874,-0.03558287397027016,-0.002443459117785096,-0.025045456364750862
1711072532133826800,18.761826904296875,-0.03497200831770897,-0.025045456364750862,-0.008857538923621178
1711072532152785700,18.78078564453125,-0.029474224895238876,-0.01893680728971958,-0.000610864779446274
1711072532171744500,18.79974462890625,-0.017867794260382652,-0.000610864779446274,-0.003970621153712273
1711072532190703400,18.818703369140625,-0.008704823441803455,0.005803215317428112,-0.010690134018659592
1711072532209662200,18.837662109375,0.001679878099821508,-0.006108647678047419,-0.021380268037319183
1711072532228621000,18.85662109375,0.012370011769235134,-0.021991131827235222,-0.024434590712189674
1711072532247580000,18.875579833984375,0.017562363296747208,-0.03237583488225937,-0.014660755172371864
1711072532266538800,18.894538818359376,0.022449281066656113,-0.03023780696094036,-0.004581485874950886
1711072532285497600,18.91349755859375,0.02977965772151947,-0.025961752980947495,0.008246674202382565
1711072532304456400,18.93245654296875,0.03405570983886719,-0.03390299528837204,0.01893680728971958
1711072532323415000,18.9514150390625,0.03252854943275452,-0.05100720748305321,0.03298669680953026
1711072532342374000,18.970373779296875,0.03649916872382164,-0.07116574794054031,0.04825831577181816
1711072532361333000,18.9893330078125,0.03375028073787689,-0.08613193035125732,0.0668896958231926
1711072532380291800,19.008291748046876,0.03711003437638283,-0.09346231073141098,0.07971785217523575
1711072532399250700,19.027250732421876,0.04566214233636856,-0.09315688163042068,0.07360920310020447
1711072532418209500,19.04620947265625,0.042913250625133514,-0.0925460159778595,0.06322450190782547
1711072532437168400,19.06516845703125,0.045967575162649155,-0.09285144507884979,0.06536252796649933
1711072532456127200,19.084127197265627,0.051159925758838654,-0.09896009415388107,0.07941242307424545
1711072532475086000,19.103086181640624,0.05451968312263489,-0.09834922850131989,0.0873536616563797
1711072532494045000,19.122044921875,0.05451968312263489,-0.07819069176912308,0.0870482325553894
1711072532513003800,19.141003662109377,0.055741410702466965,-0.04978547990322113,0.08124501258134842
1711072532531962600,19.159962646484374,0.0591011680662632,-0.03329212963581085,0.07971785217523575
1711072532550921200,19.178921142578126,0.06368265300989151,-0.0412333719432354,0.07360920310020447
1711072532569880000,19.197880126953127,0.06795870512723923,-0.0616973415017128,0.06383536756038666
1711072532588839000,19.2168388671875,0.06673697382211685,-0.06414080411195755,0.05436696484684944
1711072532607797800,19.2357978515625,0.05085449293255806,-0.05253437161445618,0.04550942778587341
1711072532626756600,19.254756591796873,0.03588830679655075,-0.02718348242342472,0.03817904740571976
1711072532645715500,19.273715576171874,0.02764163166284561,-0.017104214057326317,0.03329212963581085
1711072532664674300,19.29267431640625,0.015729768201708794,-0.024434590712189674,0.032681263983249664
1711072532683633400,19.31163330078125,0.0062613640911877155,-0.02779434807598591,0.03023780696094036
1711072532702592000,19.330592041015624,-0.004123337101191282,-0.04520399495959282,0.039706211537122726
1711072532721550800,19.34955078125,-0.018784092739224434,-0.060781046748161316,0.056810423731803894
1711072532740509700,19.368509765625,-0.027030766010284424,-0.05833758786320686,0.06200277432799339
1711072532759468500,19.387468505859374,-0.030390523374080658,-0.029932374134659767,0.0412333719432354
1711072532778427400,19.406427490234375,-0.024892739951610565,0.009773836471140385,0.013133592903614044
1711072532797386200,19.42538623046875,-0.017256930470466614,0.03543015569448471,-0.006719512399286032
1711072532816345000,19.444344970703124,-0.0038179049734026194,0.040317077189683914,-0.03329212963581085
1711072532835304000,19.463303955078125,0.002290742937475443,0.04459312930703163,-0.05528326332569122
1711072532854262800,19.4822626953125,-0.007177661173045635,0.0616973415017128,-0.08032871782779694
1711072532873221600,19.5012216796875,-0.02306014485657215,0.0977383628487587,-0.09498947113752365
1711072532892180500,19.520180419921875,-0.03711003437638283,0.11881320178508759,-0.11392628401517868
1711072532911139300,19.539139404296876,-0.04932733252644539,0.13133592903614044,-0.12370011955499649
1711072532930098200,19.55809814453125,-0.06795870512723923,0.12125665694475174,-0.1178968995809555
1711072532949057000,19.57705712890625,-0.0798705667257309,0.08765909820795059,-0.10140355676412582
1711072532968016000,19.596015869140626,-0.06582067906856537,0.043371398001909256,-0.08063415437936783
1711072532986974700,19.614974609375,-0.05329795181751251,0.01954767294228077,-0.05742128938436508
1711072533005933600,19.63393359375,-0.05543597787618637,0.009162971749901772,-0.03756818547844887
1711072533024892400,19.652892333984376,-0.054214250296354294,-0.003665188793092966,-0.022907428443431854
1711072533043851000,19.67185107421875,-0.041386090219020844,-0.028405211865901947,-0.016187917441129684
1711072533062809900,19.690809814453125,-0.025503603741526604,-0.047952886670827866,-0.011606430634856224
1711072533081768700,19.709768798828126,-0.0206166859716177,-0.05558869615197182,-0.010690134018659592
1711072533100727600,19.7287275390625,-0.01908952370285988,-0.043371398001909256,-0.01588248461484909
1711072533119686400,19.747686279296875,-0.017867794260382652,-0.023823726922273636,-0.011911863461136818
1711072533138645200,19.766645263671876,-0.007483093533664942,-0.0030543238390237093,-0.0021380267571657896
1711072533157604000,19.78560400390625,-0.0013744457392022014,0.014660755172371864,-0.000610864779446274
1711072533176563000,19.80456298828125,-0.005650499369949102,0.01649334840476513,-0.016798781231045723
1711072533195521800,19.823521728515626,-0.0007635809597559273,0.010079269297420979,-0.019242240116000175
1711072533214480600,19.842480712890627,0.010537417605519295,-0.004276053514331579,-0.01282816007733345
1711072533233439500,19.861439453125,0.005345067009329796,-0.003665188793092966,-0.007941242307424545
1711072533252398300,19.8803984375,-0.005039634648710489,-0.006414080038666725,0.007330377586185932
1711072533271357200,19.899357177734377,0.006872228812426329,-0.010384701192378998,0.01954767294228077
1711072533290315800,19.918315673828126,0.017256930470466614,-0.015271619893610477,0.021991131827235222
1711072533309274600,19.937274658203126,0.0102319847792387,-0.01588248461484909,0.017715077847242355
1711072533328233500,19.9562333984375,0.004428769461810589,-0.01649334840476513,0.01588248461484909
1711072533347192600,19.975192626953124,0.009926552884280682,-0.019853105768561363,0.022907428443431854
1711072533366151200,19.994151123046876,0.012675444595515728,-0.024740023538470268,0.019853105768561363
1711072533385110000,20.013110107421873,0.008399390615522861,-0.011911863461136818,0.017715077847242355
1711072533404068900,20.03206884765625,0.005650499369949102,-0.0009162971982732415,0.021380268037319183
1711072533423027700,20.05102783203125,0.0032070400193333626,0.001832594396546483,0.02412915788590908
1711072533441986600,20.069986572265623,0.022754713892936707,0.012522728182375431,0.020769402384757996
1711072533460945400,20.0889453125,0.045967575162649155,0.025350889191031456,0.013744457624852657
1711072533479904300,20.107904296875,0.04627300798892975,0.017104214057326317,0.011300998739898205
1711072533498862800,20.12686279296875,0.04505127668380737,0.004581485874950886,0.019242240116000175
1711072533517822000,20.145822021484374,0.046883873641490936,-0.017104214057326317,0.0256563201546669
1711072533536780800,20.16478076171875,0.04474584385752678,-0.029016077518463135,0.021991131827235222
1711072533555739600,20.18373974609375,0.015729768201708794,-0.017715077847242355,0.011300998739898205
1711072533574698200,20.2026982421875,0.001679878099821508,0.004886918235570192,0.004276053514331579
1711072533593657000,20.221656982421877,0.008704823441803455,0.01893680728971958,0.0015271619195118546
1711072533612616000,20.240615966796874,0.0062613640911877155,0.013133592903614044,-0.003665188793092966
1711072533631574800,20.25957470703125,0.0013744457392022014,-0.011911863461136818,0.0027488914784044027
1711072533650533600,20.27853369140625,0.008399390615522861,-0.0360410213470459,0.018325943499803543
1711072533669492500,20.297492431640624,0.007788525894284248,-0.02932151034474373,0.0256563201546669
1711072533688451000,20.316451171875,-0.005345067009329796,0.001221729558892548,0.017104214057326317
1711072533707410200,20.33541015625,-0.004428769461810589,0.019242240116000175,0.008857538923621178
1711072533726369000,20.354369140625,0.012370011769235134,0.01282816007733345,0.000305432389723137
1711072533745327600,20.37332763671875,0.014813470654189587,-0.003665188793092966,-0.0021380267571657896
1711072533764286500,20.392286376953123,0.009621120058000088,-0.025350889191031456,-0.0009162971982732415
1711072533783245300,20.411245361328124,0.002901607658714056,-0.03390299528837204,0.008246674202382565
1711072533802204200,20.4302041015625,-0.010537417605519295,-0.02779434807598591,0.01954767294228077
1711072533821163000,20.4491630859375,-0.010842849500477314,-0.021380268037319183,0.01954767294228077
1711072533840121900,20.468121826171874,-0.009926552884280682,-0.010690134018659592,0.015577051788568497
1711072533859080400,20.48708056640625,-0.02000582218170166,-0.0021380267571657896,-0.001832594396546483
1711072533878039600,20.50603955078125,-0.027030766010284424,-0.005803215317428112,-0.004581485874950886
1711072533896998100,20.524998046875,-0.006872228812426329,-0.021991131827235222,0.002443459117785096
1711072533915957000,20.54395703125,-0.007788525894284248,-0.014049889519810677,0.004581485874950886
1711072533934915800,20.562915771484374,-0.02153298258781433,0.010690134018659592,0.0009162971982732415
1711072533953874700,20.581874755859374,-0.02214384824037552,0.03543015569448471,0.0054977829568088055
1711072533972833500,20.60083349609375,-0.013897174037992954,0.032681263983249664,0.002443459117785096
1711072533991792400,20.61979248046875,-0.012675444595515728,0.01282816007733345,0
1711072534010751000,20.6387509765625,-0.013897174037992954,-0.0030543238390237093,0.006108647678047419
1711072534029709800,20.657709716796877,-0.002290742937475443,-0.000610864779446274,0.014966187067329884
1711072534048668700,20.676668701171874,-0.004428769461810589,0.008857538923621178,0.01740964688360691
1711072534067627500,20.69562744140625,0.0010690133785828948,0.021380268037319183,0.01649334840476513
1711072534086586400,20.71458642578125,0.0154243353754282,0.024740023538470268,0.003665188793092966
1711072534105545200,20.733545166015624,0.016646064817905426,0.049480047076940536,-0.048563748598098755
1711072534124504000,20.752504150390624,0.004734201822429895,0.10384701192378998,-0.1438586562871933
1711072534143462700,20.771462646484373,-0.012980876490473747,0.15149445831775665,-0.24220788478851318
1711072534162421500,20.79042138671875,-0.023365577682852745,0.13561198115348816,-0.2874118685722351
1711072534181380400,20.80938037109375,-0.03711003437638283,0.03329212963581085,-0.24984370172023773
1711072534200339200,20.828339111328123,-0.03649916872382164,-0.1182023361325264,-0.13622283935546875
1711072534219298000,20.847298095703124,-0.010842849500477314,-0.24801109731197357,-0.02779434807598591
1711072534238257000,20.8662568359375,0.007177661173045635,-0.27916520833969116,0.028405211865901947
1711072534257215700,20.8852158203125,0.012980876490473747,-0.2678641974925995,0.05436696484684944
1711072534276174600,20.904174560546874,0.009315688163042068,-0.27580544352531433,0.08399390429258347
1711072534295133200,20.92313330078125,0.011453714221715927,-0.29046618938446045,0.09865466505289078
1711072534314092000,20.942092041015623,0.02367101050913334,-0.23029601573944092,0.047036588191986084
1711072534333051000,20.96105078125,0.03405570983886719,-0.08826996386051178,-0.05833758786320686
1711072534352009700,20.980009765625,0.022449281066656113,0.06505709886550903,-0.1331685185432434
1711072534370968600,20.998968505859374,0.002901607658714056,0.16584978997707367,-0.13133592903614044
1711072534389927400,21.017927490234374,0.0019853105768561363,0.14630211889743805,-0.06963858753442764
1711072534408886300,21.03688623046875,0.025503603741526604,0.061391908675432205,0.008552107028663158
1711072534427844900,21.055844970703124,0.04932733252644539,-0.04734202101826668,0.06505709886550903
1711072534446803700,21.0748037109375,0.06734783947467804,-0.10965022444725037,0.09682206809520721
1711072534465762600,21.093762451171877,0.08139773458242416,-0.09651663154363632,0.08796452730894089
1711072534484721400,21.112721435546874,0.08139773458242416,-0.04276053607463837,0.04245510324835777
1711072534503680300,21.13168017578125,0.05757400393486023,0.01435532234609127,-0.02260199747979641
1711072534522639000,21.15063916015625,0.036193739622831345,0.04978547990322113,-0.06047561392188072
1711072534541598000,21.169597900390624,0.015729768201708794,0.08155044913291931,-0.07391463965177536
1711072534560556800,21.188556884765624,-0.007483093533664942,0.09071341902017593,-0.09957095980644226
1711072534579515400,21.207515380859373,-0.02519817277789116,0.07024945318698883,-0.1182023361325264
1711072534598474200,21.22647412109375,-0.030085090547800064,0.0461202897131443,-0.12217295914888382
1711072534617433000,21.24543310546875,-0.039248060435056686,0.03176496922969818,-0.11575887352228165
1711072534636392000,21.264391845703123,-0.04718930274248123,0.011300998739898205,-0.09804379940032959
1711072534655350800,21.283350830078124,-0.04810560122132301,-0.03634645417332649,-0.07452550530433655
1711072534674309600,21.3023095703125,-0.03436114266514778,-0.10231985151767731,-0.051618073135614395
1711072534693268500,21.3212685546875,-0.0007635809597559273,-0.16157373785972595,-0.06352993845939636
1711072534712227300,21.340227294921874,0.027947064489126205,-0.17623448371887207,-0.12583814561367035
1711072534731186200,21.359186279296875,0.04046979174017906,-0.13652828335762024,-0.2214384824037552
1711072534750144800,21.378144775390624,0.03741546720266342,-0.10598503798246384,-0.27855435013771057
1711072534769103600,21.397103515625,0.018173227086663246,-0.11636973917484283,-0.2764163017272949
1711072534788062500,21.4160625,0.0013744457392022014,-0.17592905461788177,-0.26022839546203613
1711072534807021300,21.435021240234374,-0.016340631991624832,-0.24984370172023773,-0.22296564280986786
1711072534825980200,21.453980224609374,-0.028557928279042244,-0.2868010103702545,-0.17134757339954376
1711072534844939000,21.47293896484375,-0.025809036567807198,-0.2971857190132141,-0.1185077652335167
1711072534863897900,21.49189794921875,-0.004123337101191282,-0.27977606654167175,-0.08918625861406326
1711072534882856700,21.510856689453124,0.0206166859716177,-0.29138249158859253,-0.08979712426662445
1711072534901815600,21.529815673828125,0.0386371985077858,-0.2977965772151947,-0.1331685185432434
1711072534920774400,21.5487744140625,0.050549060106277466,-0.2098320573568344,-0.17776164412498474
1711072534939733000,21.56773291015625,0.06246092543005943,-0.07299833744764328,-0.1496618688106537
1711072534958691800,21.58669189453125,0.13881902396678925,-0.02718348242342472,-0.07024945318698883
1711072534977650700,21.605650634765624,0.23197589814662933,-0.0922405794262886,-0.08918625861406326
1711072534996609500,21.624609619140625,0.20479241013526917,-0.11209368705749512,-0.11636973917484283
1711072535015568400,21.643568359375,0.15867212414741516,-0.044898562133312225,-0.11117739230394363
1711072535034527200,21.66252734375,0.1611155867576599,0.021991131827235222,-0.08888082206249237
1711072535053486000,21.681486083984375,0.15775582194328308,0.02412915788590908,-0.10323614627122879
1711072535072445000,21.70044482421875,0.1623373180627823,-0.013744457624852657,-0.129197895526886
1711072535091403800,21.71940380859375,0.17516547441482544,0.0027488914784044027,-0.15515965223312378
1711072535110362600,21.738362548828125,0.1727220118045807,0.08491020649671555,-0.15241076052188873
1711072535129321500,21.757321533203125,0.17516547441482544,0.1536324918270111,-0.1539379209280014
1711072535148280300,21.7762802734375,0.19349141418933868,0.189673513174057,-0.16310089826583862
1711072535167239200,21.7952392578125,0.20631958544254303,0.1646280586719513,-0.13500112295150757
1711072535186197800,21.81419775390625,0.228921577334404,0.10567960888147354,-0.1130099818110466
1711072535205156600,21.833156494140624,0.24510949850082397,0.10598503798246384,-0.10690133273601532
1711072535224115500,21.852115478515625,0.25610506534576416,0.1646280586719513,-0.09346231073141098
1711072535243074300,21.87107421875,0.23777911067008972,0.27000224590301514,-0.07819069176912308
1711072535262033400,21.890033447265626,0.18005239963531494,0.3787361681461334,-0.08796452730894089
1711072535280992300,21.9089921875,0.11713331937789917,0.43004879355430603,-0.12278381735086441
1711072535299951000,21.927951171875,0.07834340631961823,0.39339691400527954,-0.13775001466274261
1711072535318909700,21.94690966796875,0.03955349326133728,0.31520622968673706,-0.09101885557174683
1711072535337868500,21.96586865234375,0.01908952370285988,0.2052505612373352,0.0015271619195118546
1711072535356827400,21.984827392578126,0.05513054504990578,0.11331541836261749,0.11423171311616898
1711072535375786200,22.0037861328125,0.0844520553946495,0.06230820715427399,0.21410810947418213
1711072535394745000,22.0227451171875,0.0539088174700737,0.05100720748305321,0.2669478952884674
1711072535413704000,22.041703857421876,-0.008704823441803455,0.04306596517562866,0.2568686306476593
1711072535432662800,22.060662841796876,-0.05818486958742142,0.06627883017063141,0.1805105358362198
1711072535451621600,22.07962158203125,-0.11194097250699997,0.12400554865598679,0.0977383628487587
1711072535470580500,22.09858056640625,-0.09636391699314117,0.16523891687393188,0.0565049909055233
1711072535489539300,22.117539306640627,-0.01511890348047018,0.1484401375055313,0.0665842592716217
1711072535508498200,22.136498291015624,0.06490438431501389,0.06475166976451874,0.07849612087011337
1711072535527457000,22.15545703125,0.09422589093446732,-0.010384701192378998,0.05100720748305321
1711072535546415900,22.174415771484377,-0.0032070400193333626,0.03176496922969818,0.001832594396546483
1711072535565374700,22.193374755859374,-0.15042544901371002,0.17837251722812653,-0.05528326332569122
1711072535584333600,22.21233349609375,-0.1977674663066864,0.25961753726005554,-0.048563748598098755
1711072535603292400,22.23129248046875,-0.11835505068302155,0.1588248461484909,0.020769402384757996
1711072535622251300,22.250251220703124,-0.05024362727999687,-0.05222893878817558,0.08155044913291931
1711072535641210000,22.269210205078124,-0.052076224237680435,-0.1957821547985077,0.08888082206249237
1711072535660169000,22.2881689453125,-0.09056070446968079,-0.1951712965965271,0.09346231073141098
1711072535679127800,22.3071279296875,-0.12476912885904312,-0.10445787757635117,0.09285144507884979
1711072535698086700,22.326086669921875,-0.13362666964530945,-0.037262752652168274,0.06627883017063141
1711072535717045500,22.34504541015625,-0.1360701322555542,-0.010995565913617611,0.04214967042207718
1711072535736004400,22.36400439453125,-0.1262962967157364,-0.025045456364750862,0.018631376326084137
1711072535754963200,22.382963134765625,-0.10766492038965225,-0.05100720748305321,0.0204639695584774
1711072535773922000,22.401922119140625,-0.09300415962934494,-0.0922405794262886,0.02260199747979641
1711072535792881000,22.420880859375,-0.06795870512723923,-0.14508038759231567,0.034208428114652634
1711072535811839700,22.43983984375,-0.03558287397027016,-0.1798996776342392,0.04734202101826668
1711072535830798600,22.458798583984375,-0.01847865991294384,-0.18295399844646454,0.047036588191986084
1711072535849757400,22.47775732421875,-0.018173227086663246,-0.16340632736682892,0.051618073135614395
1711072535868716300,22.49671630859375,-0.016340631991624832,-0.14508038759231567,0.06505709886550903
1711072535887675100,22.515675048828125,-0.017256930470466614,-0.14019346237182617,0.0668896958231926
1711072535906634200,22.53463427734375,-0.013897174037992954,-0.13775001466274261,0.053756099194288254
1711072535925593000,22.553593017578127,0.0010690133785828948,-0.12156209349632263,0.05436696484684944
1711072535944552000,22.572552001953124,0.013897174037992954,-0.10598503798246384,0.05497783049941063
1711072535963510800,22.5915107421875,0.017562363296747208,-0.08552107214927673,0.05894844979047775
1711072535982469600,22.6104697265625,0.0206166859716177,-0.0769689604640007,0.06566796451807022
1711072536001428500,22.629428466796874,0.0334448479115963,-0.09132428467273712,0.07330377399921417
1711072536020387300,22.64838720703125,0.04474584385752678,-0.10445787757635117,0.08643736690282822
1711072536039346200,22.66734619140625,0.04657844081521034,-0.10720676928758621,0.08765909820795059
1711072536058305000,22.686304931640624,0.03711003437638283,-0.09346231073141098,0.08826996386051178
1711072536077264000,22.705263916015625,0.03558287397027016,-0.06536252796649933,0.08368847519159317
1711072536096222700,22.72422265625,0.0383317656815052,-0.04520399495959282,0.07971785217523575
1711072536115181600,22.743181640625,0.03802633285522461,-0.03298669680953026,0.06780599057674408
1711072536134140400,22.762140380859375,0.0334448479115963,-0.03298669680953026,0.05222893878817558
1711072536153099300,22.781099365234375,0.02153298258781433,-0.022907428443431854,0.04153880476951599
1711072536172058000,22.80005810546875,0.013897174037992954,-0.004276053514331579,0.035124726593494415
1711072536191017000,22.819016845703125,0.016035201027989388,0.0030543238390237093,0.03390299528837204
1711072536209975800,22.837975830078125,0.014813470654189587,0.012217295356094837,0.02779434807598591
1711072536228934700,22.8569345703125,0.017867794260382652,0.03329212963581085,0.00946840364485979
1711072536247893500,22.8758935546875,0.0102319847792387,0.054672397673130035,-0.011606430634856224
1711072536266852400,22.894852294921876,0.0102319847792387,0.05711585655808449,-0.010995565913617611
1711072536285811200,22.913811279296876,0.0102319847792387,0.04673115536570549,0.006414080038666725
1711072536304770000,22.93277001953125,0.004123337101191282,0.035124726593494415,0.010384701192378998
1711072536323729000,22.95172900390625,0.00045814859913662076,0.028099779039621353,0.014660755172371864
1711072536342687700,22.970687744140626,0.0038179049734026194,0.007941242307424545,0.018325943499803543
1711072536361646600,22.989646484375,0.004734201822429895,-0.018325943499803543,0.03634645417332649
1711072536380605400,23.00860546875,0.006566796451807022,-0.04428769648075104,0.05222893878817558
1711072536399564300,23.027564208984376,0.0038179049734026194,-0.06475166976451874,0.0665842592716217
