time,seconds_elapsed,z,y,x
1710889840219319000,0.129319091796875,-0.04245510324835777,0.4321868419647217,0.10231985151767731
1710889840238278100,0.148278076171875,-0.021380268037319183,0.4712821841239929,0.14263692498207092
1710889840257237200,0.1672373046875,-0.009162971749901772,0.4822777509689331,0.12400554865598679
1710889840276196400,0.1861962890625,-0.005803215317428112,0.430659681558609,0.10048725455999374
1710889840295155200,0.2051552734375,-0.05192350596189499,0.3039052188396454,0.06352993845939636
1710889840314114300,0.2241142578125,-0.10476330667734146,0.12614357471466064,0.020769402384757996
1710889840333073400,0.243073486328125,-0.15638138353824615,-0.11636973917484283,0.060781046748161316
1710889840352032500,0.262032470703125,-0.1493564397096634,-0.19150610268115997,0.06811141967773438
1710889840370991600,0.28099169921875,-0.12186752259731293,-0.2214384824037552,0.0772743970155716
1710889840389950700,0.29995068359375,-0.10995566099882126,-0.2214384824037552,0.05925388261675835
1710889840408909600,0.31890966796875,-0.10873392969369888,-0.16676609218120575,0.032070402055978775
1710889840427868700,0.33786865234375,-0.10354158282279968,-0.07391463965177536,0.02718348242342472
1710889840446827800,0.356827880859375,-0.09407317638397217,0.015271619893610477,0.04550942778587341
1710889840465787000,0.375786865234375,-0.0925460159778595,0.06047561392188072,0.05497783049941063
1710889840484746000,0.39474609375,-0.10109812021255493,0.05070177838206291,0.049480047076940536
1710889840503705000,0.413705078125,-0.10476330667734146,0.006108647678047419,0.047036588191986084
1710889840522664000,0.432663818359375,-0.08643736690282822,-0.041844237595796585,0.047036588191986084
1710889840541623000,0.451623046875,-0.06108647957444191,-0.08643736690282822,0.049480047076940536
1710889840560582100,0.47058203125,-0.040317077189683914,-0.10995566099882126,0.04367683082818985
1710889840579541200,0.489541259765625,-0.03634645417332649,-0.11392628401517868,0.038789913058280945
1710889840598500400,0.508500244140625,-0.03940077871084213,-0.10720676928758621,0.04825831577181816
1710889840617459500,0.52745947265625,-0.0461202897131443,-0.08765909820795059,0.06230820715427399
1710889840636418300,0.546418212890625,-0.05345066636800766,-0.06383536756038666,0.0772743970155716
1710889840655377400,0.56537744140625,-0.05406153202056885,-0.04306596517562866,0.08582650125026703
1710889840674336500,0.58433642578125,-0.06963858753442764,-0.03298669680953026,0.09437860548496246
1710889840693295600,0.603295654296875,-0.09315688163042068,-0.04001164436340332,0.09682206809520721
1710889840712254700,0.622254638671875,-0.11178825795650482,-0.05528326332569122,0.09468404203653336
1710889840731213800,0.6412138671875,-0.11056652665138245,-0.06505709886550903,0.08765909820795059
1710889840750173000,0.6601728515625,-0.08826996386051178,-0.04673115536570549,0.0769689604640007
1710889840769132000,0.679132080078125,-0.05925388261675835,-0.014966187067329884,0.04764745384454727
1710889840788091100,0.698091064453125,-0.04978547990322113,0,0.018325943499803543
1710889840807050000,0.717050048828125,-0.05222893878817558,0.0030543238390237093,0.005803215317428112
1710889840826009000,0.736009033203125,-0.057726722210645676,0.00946840364485979,0.004886918235570192
1710889840844968200,0.75496826171875,-0.0665842592716217,0.017715077847242355,0.020769402384757996
1710889840863927300,0.77392724609375,-0.07147117704153061,0.025045456364750862,0.03145953640341759
1710889840882886400,0.792886474609375,-0.06811141967773438,0.01893680728971958,0.02718348242342472
1710889840901845500,0.811845458984375,-0.061391908675432205,-0.007941242307424545,0.021380268037319183
1710889840920804600,0.8308046875,-0.07086031138896942,-0.04428769648075104,0.01649334840476513
1710889840939763700,0.849763671875,-0.08307760953903198,-0.06872228533029556,0.012522728182375431
1710889840958722800,0.868722900390625,-0.07941242307424545,-0.05833758786320686,0.007330377586185932
1710889840977682000,0.887681884765625,-0.05864302068948746,-0.040317077189683914,-0.0054977829568088055
1710889840996641000,0.90664111328125,-0.041844237595796585,-0.030543239787220955,-0.022907428443431854
1710889841015600000,0.92560009765625,-0.03543015569448471,-0.02107483521103859,-0.025350889191031456
1710889841034559200,0.944559326171875,-0.03298669680953026,-0.007024944759905338,-0.020769402384757996
1710889841053518300,0.963518310546875,-0.03543015569448471,-0.000305432389723137,-0.014049889519810677
1710889841072477400,0.9824775390625,-0.04153880476951599,-0.009162971749901772,-0.00946840364485979
1710889841091436500,1.0014365234375,-0.04245510324835777,-0.02107483521103859,0.0030543238390237093
1710889841110395400,1.0203955078125,-0.030543239787220955,-0.015271619893610477,0.016187917441129684
1710889841129354800,1.039354736328125,-0.01740964688360691,0.006719512399286032,0.023212861269712448
1710889841148313900,1.05831396484375,-0.012522728182375431,0.02412915788590908,0.023823726922273636
1710889841167273000,1.07727294921875,-0.016187917441129684,0.025045456364750862,0.021991131827235222
1710889841186232000,1.096232177734375,-0.016187917441129684,0.028405211865901947,0.013439024798572063
1710889841205191200,1.115191162109375,-0.007635809946805239,0.025961752980947495,0.000610864779446274
1710889841224150300,1.134150390625,-0.0030543238390237093,0.016798781231045723,-0.012217295356094837
1710889841243109400,1.153109375,0.000305432389723137,0.004886918235570192,-0.026878049597144127
1710889841262068500,1.172068359375,0.006414080038666725,0.002443459117785096,-0.04001164436340332
1710889841281027600,1.191027587890625,0.026572618633508682,0.01435532234609127,-0.048563748598098755
1710889841299986700,1.209986572265625,0.034208428114652634,0.013133592903614044,-0.06108647957444191
1710889841318945800,1.22894580078125,0.022907428443431854,-0.010079269297420979,-0.07238747924566269
1710889841337905000,1.24790478515625,0.003359756199643016,-0.037262752652168274,-0.07513637095689774
1710889841356864000,1.266864013671875,-0.011300998739898205,-0.053756099194288254,-0.07269290834665298
1710889841375823000,1.285822998046875,-0.016798781231045723,-0.044898562133312225,-0.06108647957444191
1710889841394782200,1.3047822265625,-0.0204639695584774,-0.016798781231045723,-0.04886918142437935
1710889841413741300,1.3237412109375,-0.026572618633508682,0.018325943499803543,-0.02871064469218254
1710889841432700400,1.342700439453125,-0.02932151034474373,0.05497783049941063,0.000305432389723137
1710889841451659500,1.361659423828125,-0.023212861269712448,0.09346231073141098,0.0412333719432354
1710889841470618600,1.38061865234375,-0.013133592903614044,0.129197895526886,0.07605266571044922
1710889841489578000,1.399577880859375,-0.020158538594841957,0.1432477980852127,0.09957095980644226
1710889841508537000,1.418537109375,-0.03451386094093323,0.14019346237182617,0.11636973917484283
1710889841527496200,1.43749609375,-0.03817904740571976,0.14110976457595825,0.12705987691879272
1710889841546455300,1.456455322265625,-0.03298669680953026,0.14813470840454102,0.13622283935546875
1710889841565414400,1.475414306640625,-0.028405211865901947,0.15668681263923645,0.15027274191379547
1710889841584373500,1.49437353515625,-0.029932374134659767,0.16187916696071625,0.17348559200763702
1710889841603332600,1.51333251953125,-0.04001164436340332,0.16859868168830872,0.2000582218170166
1710889841622291700,1.532291748046875,-0.056199558079242706,0.17318016290664673,0.22204934060573578
1710889841641250800,1.551250732421875,-0.08277218043804169,0.18325942754745483,0.22724169492721558
1710889841660210200,1.570210205078125,-0.13164135813713074,0.19150610268115997,0.21349723637104034
1710889841679169000,1.5891689453125,-0.18723005056381226,0.21655155718326569,0.19394956529140472
1710889841698128400,1.60812841796875,-0.22510367631912231,0.2767217457294464,0.17073670029640198
1710889841717087500,1.62708740234375,-0.24281874299049377,0.3756818473339081,0.14080433547496796
1710889841736046600,1.646046630859375,-0.26389357447624207,0.4938841760158539,0.11759147047996521
1710889841755005700,1.665005615234375,-0.2922987937927246,0.6078104376792908,0.11087195575237274
1710889841773964800,1.68396484375,-0.3090975880622864,0.6997455954551697,0.11514800786972046
1710889841792924200,1.702924072265625,-0.3084867000579834,0.7562506198883057,0.10170898586511612
1710889841811883300,1.72188330078125,-0.30634868144989014,0.7736602425575256,0.08063415437936783
1710889841830842400,1.74084228515625,-0.2971857190132141,0.7699950337409973,0.06994401663541794
1710889841849801500,1.759801513671875,-0.2910770773887634,0.7464767694473267,0.06933315098285675
1710889841868760600,1.778760498046875,-0.29443681240081787,0.7327322959899902,0.06566796451807022
1710889841887719700,1.7977197265625,-0.31581708788871765,0.7406735420227051,0.0513126403093338
1710889841906679000,1.816678955078125,-0.3494146466255188,0.7476984858512878,0.028405211865901947
1710889841925638100,1.83563818359375,-0.3790415823459625,0.748920202255249,0.001832594396546483
1710889841944597200,1.85459716796875,-0.3836230933666229,0.7476984858512878,-0.030543239787220955
1710889841963556400,1.873556396484375,-0.34574946761131287,0.7556397318840027,-0.07269290834665298
1710889841982515500,1.892515380859375,-0.25442516803741455,0.8072578310966492,-0.12400554865598679
1710889842001474600,1.911474609375,-0.12461641430854797,0.8747583627700806,-0.17715078592300415
1710889842020434000,1.930433837890625,0.006108647678047419,0.9300416111946106,-0.19181154668331146
1710889842039393000,1.94939306640625,0.1185077652335167,1.0012073516845703,-0.1585194170475006
1710889842058352000,1.96835205078125,0.2110537886619568,1.0858120918273926,-0.11759147047996521
1710889842077311200,1.987311279296875,0.2611446976661682,1.12765634059906,-0.1078176349401474
1710889842096270600,2.0062705078125,0.2730565667152405,1.0958913564682007,-0.1230892539024353
1710889842115229700,2.025229736328125,0.27916520833969116,1.0525200366973877,-0.1328630894422531
1710889842134188800,2.044188720703125,0.3197877109050751,1.0009019374847412,-0.11178825795650482
1710889842153148000,2.06314794921875,0.39309149980545044,0.9786053895950317,-0.07483093440532684
1710889842172107300,2.082107177734375,0.47525280714035034,0.9593631625175476,-0.056199558079242706
1710889842191066000,2.101066162109375,0.5442805290222168,0.9294307827949524,-0.06841685622930527
1710889842210025500,2.120025390625,0.5757400393486023,0.9169080257415771,-0.08949168771505356
1710889842228984600,2.138984619140625,0.5616901516914368,0.9239329695701599,-0.09132428467273712
1710889842247943700,2.157943603515625,0.5213730931282043,0.9321796298027039,-0.051618073135614395
1710889842266902800,2.17690283203125,0.47586366534233093,0.9230166673660278,-0.006719512399286032
1710889842285862100,2.195862060546875,0.4199695289134979,0.8958331942558289,0.0308486707508564
1710889842304821200,2.2148212890625,0.3442223072052002,0.833219587802887,0.03390299528837204
1710889842323780400,2.2337802734375,0.2764163017272949,0.7620537877082825,0.03817904740571976
1710889842342739500,2.252739501953125,0.24312418699264526,0.7235693335533142,0.036651886999607086
1710889842361698800,2.27169873046875,0.22724169492721558,0.7211259007453918,0.036651886999607086
1710889842380658000,2.290657958984375,0.2156352698802948,0.7092140316963196,0.023823726922273636
1710889842399617300,2.3096171875,0.20127993822097778,0.6737838387489319,0.026878049597144127
1710889842418576400,2.328576416015625,0.1597411334514618,0.6487383842468262,0.054672397673130035
1710889842437535500,2.347535400390625,0.09529490768909454,0.6010909676551819,0.11362084746360779
1710889842456494600,2.36649462890625,0.06933315098285675,0.5293143391609192,0.15057817101478577
1710889842475454000,2.385453857421875,0.10751219838857651,0.46456265449523926,0.15210533142089844
1710889842494413000,2.4044130859375,0.1637117564678192,0.4108065664768219,0.14080433547496796
1710889842513372200,2.4233720703125,0.18570289015769958,0.3543015718460083,0.13622283935546875
1710889842532331300,2.442331298828125,0.17348559200763702,0.31062474846839905,0.11942406743764877
1710889842551290600,2.46129052734375,0.15515965223312378,0.2724456787109375,0.07086031138896942
1710889842570249700,2.480249755859375,0.1340848207473755,0.19303326308727264,0.03543015569448471
1710889842589208800,2.499208740234375,0.1127045527100563,0.09926552325487137,0.03329212963581085
1710889842608168200,2.518168212890625,0.0922405794262886,-0.004886918235570192,0.04153880476951599
1710889842627127300,2.537127197265625,0.03695731982588768,-0.11575887352228165,0.041844237595796585
1710889842646086400,2.55608642578125,-0.06261363625526428,-0.21380266547203064,0.04917461425065994
1710889842665045500,2.57504541015625,-0.15546508133411407,-0.3329212963581085,0.05864302068948746
1710889842684004900,2.5940048828125,-0.21716243028640747,-0.46364638209342957,0.034208428114652634
1710889842702964000,2.6129638671875,-0.22479823231697083,-0.5732966065406799,-0.0015271619195118546
1710889842721923000,2.631923095703125,-0.18264856934547424,-0.6304124593734741,-0.01740964688360691
1710889842740882200,2.650882080078125,-0.13500112295150757,-0.675616443157196,-0.011300998739898205
1710889842759841500,2.669841552734375,-0.13133592903614044,-0.72173672914505,-0.0054977829568088055
1710889842778800600,2.688800537109375,-0.16279546916484833,-0.7715222239494324,-0.018631376326084137
1710889842797760000,2.707760009765625,-0.16707152128219604,-0.7754928469657898,-0.026572618633508682
1710889842816719000,2.726718994140625,-0.13530655205249786,-0.7370083332061768,-0.025350889191031456
1710889842835678200,2.74567822265625,-0.11087195575237274,-0.7031053900718689,-0.01893680728971958
1710889842854637600,2.764637451171875,-0.0818558782339096,-0.6609556674957275,0.004886918235570192
1710889842873596700,2.7835966796875,-0.07147117704153061,-0.6643154621124268,0.030543239787220955
1710889842892555800,2.8025556640625,-0.0513126403093338,-0.6896663308143616,0.06841685622930527
1710889842911515000,2.821514892578125,0.0054977829568088055,-0.6585122346878052,0.11423171311616898
1710889842930474200,2.84047412109375,0.08765909820795059,-0.5711585879325867,0.12675444781780243
1710889842949433300,2.859433349609375,0.17776164412498474,-0.4318813979625702,0.12370011955499649
1710889842968392700,2.878392822265625,0.19853104650974274,-0.3631591200828552,0.11117739230394363
1710889842987351800,2.897351806640625,0.15149445831775665,-0.42363473773002625,0.05100720748305321
1710889843006311000,2.916310791015625,0.09957095980644226,-0.5045742988586426,-0.047036588191986084
1710889843025270300,2.935270263671875,0.07238747924566269,-0.5427533388137817,-0.15302163362503052
1710889843044229400,2.9542294921875,0.06566796451807022,-0.581848680973053,-0.2513708472251892
1710889843063188500,2.9731884765625,0.06750056147575378,-0.6637045741081238,-0.31123560667037964
1710889843082147600,2.992147705078125,0.06994401663541794,-0.7312051653862,-0.314289927482605
1710889843101107000,3.01110693359375,0.07055488228797913,-0.7764091491699219,-0.3017672002315521
1710889843120066000,3.030066162109375,0.04734202101826668,-0.8466585874557495,-0.318871408700943
1710889843139025400,3.049025390625,-0.021685699000954628,-0.9306524991989136,-0.33505934476852417
1710889843157984500,3.067984619140625,-0.11362084746360779,-0.9935715794563293,-0.2968802750110626
1710889843176943600,3.086943603515625,-0.18723005056381226,-1.0357211828231812,-0.22235478460788727
1710889843195903000,3.105903076171875,-0.19792018830776215,-1.0836740732192993,-0.18081597983837128
1710889843214862000,3.124862060546875,-0.1744018942117691,-1.1713331937789917,-0.21197007596492767
1710889843233821400,3.143821533203125,-0.16310089826583862,-1.2815942764282227,-0.23548837006092072
1710889843252780500,3.162780517578125,-0.16065743565559387,-1.3322961330413818,-0.18723005056381226
1710889843271739600,3.18173974609375,-0.16554436087608337,-1.3274091482162476,-0.1334739476442337
1710889843290699000,3.200698974609375,-0.1331685185432434,-1.284037709236145,-0.1444695144891739
1710889843309658000,3.219658203125,-0.06230820715427399,-1.2263110876083374,-0.19822561740875244
1710889843328617200,3.2386171875,-0.02779434807598591,-1.1438442468643188,-0.24923282861709595
1710889843347576600,3.25757666015625,-0.04673115536570549,-1.0390809774398804,-0.2724456787109375
1710889843366535700,3.27653564453125,-0.06444623321294785,-0.9413426518440247,-0.27488914132118225
1710889843385494800,3.295494873046875,-0.07605266571044922,-0.8768963813781738,-0.2886336147785187
1710889843404454100,3.3144541015625,-0.10354158282279968,-0.8402445316314697,-0.31612253189086914
1710889843423413200,3.333413330078125,-0.15302163362503052,-0.8292489647865295,-0.323452889919281
1710889843442372600,3.35237255859375,-0.21258094906806946,-0.8371901512145996,-0.3197877109050751
1710889843461331700,3.371331787109375,-0.24220788478851318,-0.8585704565048218,-0.31520622968673706
1710889843480290800,3.390290771484375,-0.24709481000900269,-0.85918128490448,-0.30604326725006104
1710889843499250200,3.409250244140625,-0.25503605604171753,-0.8307760953903198,-0.28557929396629333
1710889843518209300,3.428209228515625,-0.2669478952884674,-0.7904590368270874,-0.25473061203956604
1710889843537168600,3.447168701171875,-0.2822195291519165,-0.7672461867332458,-0.2159406989812851
1710889843556127700,3.466127685546875,-0.3170388340950012,-0.7947350740432739,-0.18203771114349365
1710889843575086800,3.4850869140625,-0.35155269503593445,-0.8313869833946228,-0.15790854394435883
1710889843594046200,3.504046142578125,-0.35063639283180237,-0.8616247773170471,-0.1649334877729416
1710889843613005300,3.52300537109375,-0.3274235129356384,-0.8631519079208374,-0.205861434340477
1710889843631964700,3.541964599609375,-0.277332603931427,-0.7629700899124146,-0.23732095956802368
1710889843650923800,3.560923828125,-0.2464839369058609,-0.6160571575164795,-0.2562577724456787
1710889843669883000,3.5798828125,-0.23487751185894012,-0.5180133581161499,-0.2513708472251892
1710889843688842200,3.59884228515625,-0.21166464686393738,-0.517707884311676,-0.2315177470445633
1710889843707801300,3.61780126953125,-0.1737910360097885,-0.5790998339653015,-0.2003636509180069
1710889843726760700,3.6367607421875,-0.15302163362503052,-0.627968966960907,-0.16768237948417664
1710889843745719800,3.6557197265625,-0.14599667489528656,-0.6456840634346008,-0.13103049993515015
1710889843764679200,3.67467919921875,-0.1542433500289917,-0.6524035930633545,-0.10598503798246384
1710889843783638300,3.69363818359375,-0.2003636509180069,-0.7244856357574463,-0.10476330667734146
1710889843802597400,3.712597412109375,-0.22235478460788727,-0.767551600933075,-0.10567960888147354
1710889843821556700,3.731556640625,-0.23518294095993042,-0.8026763200759888,-0.10170898586511612
1710889843840515800,3.750515869140625,-0.2406807243824005,-0.8057306408882141,-0.1383608728647232
1710889843859475200,3.76947509765625,-0.19242240488529205,-0.7095194458961487,-0.16157373785972595
1710889843878434300,3.788434326171875,-0.1750127524137497,-0.6331613659858704,-0.1328630894422531
1710889843897393400,3.807393310546875,-0.22663083672523499,-0.6539307236671448,-0.12950333952903748
1710889843916352800,3.826352783203125,-0.3029889166355133,-0.7312051653862,-0.11972949653863907
1710889843935312000,3.845311767578125,-0.37720900774002075,-0.7935133576393127,-0.09590577334165573
1710889843954271200,3.864271240234375,-0.40958482027053833,-0.7342594861984253,-0.0824667438864708
1710889843973230300,3.883230224609375,-0.411722868680954,-0.5222893953323364,-0.04153880476951599
1710889843992189700,3.902189697265625,-0.47097674012184143,-0.3222311735153198,-0.012522728182375431
1710889844011148800,3.921148681640625,-0.5143481492996216,-0.16859868168830872,-0.11331541836261749
1710889844030108200,3.940108154296875,-0.41935867071151733,0.05192350596189499,-0.27030766010284424
1710889844049067300,3.9590673828125,-0.2315177470445633,0.2409861534833908,-0.389120876789093
1710889844068026600,3.978026611328125,-0.021685699000954628,0.3659079968929291,-0.46425724029541016
1710889844086985700,3.99698583984375,0.15057817101478577,0.3949240744113922,-0.4862483739852905
1710889844105945000,4.015945068359375,0.2559523284435272,0.23304490745067596,-0.4560105502605438
1710889844124904200,4.034904296875,0.21288637816905975,-0.12675444781780243,-0.41294458508491516
1710889844143863300,4.05386328125,0.04367683082818985,-0.4776962697505951,-0.3597993552684784
1710889844162822700,4.07282275390625,-0.15027274191379547,-0.6719512343406677,-0.28924447298049927
1710889844181781800,4.09178173828125,-0.28466299176216125,-0.6814196705818176,-0.21777328848838806
1710889844200741000,4.1107412109375,-0.3500255048274994,-0.5870410799980164,-0.14599667489528656
1710889844219700200,4.1297001953125,-0.3488037884235382,-0.46486809849739075,-0.09682206809520721
1710889844238659600,4.14865966796875,-0.3035998046398163,-0.37201663851737976,-0.08460476994514465
1710889844257618700,4.16761865234375,-0.24801109731197357,-0.324063777923584,-0.10537417232990265
1710889844276577800,4.186577880859375,-0.20463970303535461,-0.3020726442337036,-0.1230892539024353
1710889844295537200,4.205537109375,-0.16279546916484833,-0.2883281707763672,-0.12431098520755768
1710889844314496300,4.224496337890625,-0.11759147047996521,-0.2919933497905731,-0.10873392969369888
1710889844333455600,4.24345556640625,-0.07605266571044922,-0.35643959045410156,-0.08521563559770584
1710889844352415000,4.2624150390625,-0.04428769648075104,-0.4657844007015228,-0.04917461425065994
1710889844371374000,4.2813740234375,-0.027488915249705315,-0.5619956254959106,0.01282816007733345
1710889844390333400,4.30033349609375,-0.03023780696094036,-0.620333194732666,0.09162971377372742
1710889844409292500,4.31929248046875,-0.03787361457943916,-0.6637045741081238,0.14996729791164398
1710889844428251600,4.338251708984375,-0.041844237595796585,-0.7073814272880554,0.17287473380565643
1710889844447211000,4.3572109375,-0.03756818547844887,-0.7357866168022156,0.16157373785972595
1710889844466170000,4.376170166015625,-0.029932374134659767,-0.778241753578186,0.1493564397096634
1710889844485129500,4.39512939453125,-0.02626718580722809,-0.8258891701698303,0.14630211889743805
1710889844504088600,4.414088623046875,-0.04367683082818985,-0.8585704565048218,0.143553227186203
1710889844523048000,4.4330478515625,-0.0821613147854805,-0.8741474747657776,0.13683371245861053
1710889844542007000,4.452007080078125,-0.11545344442129135,-0.8808670043945312,0.12095122784376144
1710889844560966400,4.47096630859375,-0.13591741025447845,-0.8860593438148499,0.0870482325553894
1710889844579925500,4.489925537109375,-0.13530655205249786,-0.9010255336761475,0.0412333719432354
1710889844598884900,4.508884765625,-0.11423171311616898,-0.9141591191291809,0.007330377586185932
1710889844617844000,4.527843994140625,-0.0873536616563797,-0.9330959320068359,0.0009162971982732415
1710889844636803300,4.54680322265625,-0.07422006875276566,-0.9657772183418274,-0.001221729558892548
1710889844655762400,4.565762451171875,-0.08949168771505356,-1.0323615074157715,-0.027488915249705315
1710889844674721500,4.584721435546875,-0.11453714966773987,-1.1230748891830444,-0.06963858753442764
1710889844693681000,4.603680908203125,-0.13652828335762024,-1.1878265142440796,-0.09682206809520721
1710889844712640300,4.62264013671875,-0.14691297709941864,-1.2150100469589233,-0.11178825795650482
1710889844731599400,4.641599365234375,-0.15577052533626556,-1.1896591186523438,-0.13164135813713074
1710889844750558700,4.660558837890625,-0.18753549456596375,-1.1316269636154175,-0.16004657745361328
1710889844769517800,4.679517822265625,-0.24526220560073853,-1.08978271484375,-0.16737695038318634
1710889844788477200,4.698477294921875,-0.30085089802742004,-1.0509928464889526,-0.14569124579429626
1710889844807436300,4.717436279296875,-0.33689191937446594,-1.0574069023132324,-0.1383608728647232
1710889844826395400,4.7363955078125,-0.3481929302215576,-1.1029163599014282,-0.14660754799842834
1710889844845354800,4.755354736328125,-0.3503309488296509,-1.1600322723388672,-0.1441640853881836
1710889844864314000,4.774314208984375,-0.360410213470459,-1.2049307823181152,-0.13255766034126282
1710889844883273200,4.793273193359375,-0.36835145950317383,-1.2018764019012451,-0.12186752259731293
1710889844902232600,4.812232666015625,-0.3643808364868164,-1.145371437072754,-0.12553271651268005
1710889844921191700,4.831191650390625,-0.3585776388645172,-1.0680971145629883,-0.13164135813713074
1710889844940151000,4.850151123046875,-0.3341430425643921,-0.9721912741661072,-0.10690133273601532
1710889844959110100,4.869110107421875,-0.28435754776000977,-0.8735366463661194,-0.04886918142437935
1710889844978069200,4.8880693359375,-0.25411975383758545,-0.8060360550880432,0.011606430634856224
1710889844997028600,4.907028564453125,-0.2684750556945801,-0.7629700899124146,0.05589412897825241
1710889845015988000,4.925988037109375,-0.30146175622940063,-0.7211259007453918,0.0766635313630104
1710889845034947000,4.944947021484375,-0.3237583339214325,-0.7058542370796204,0.07513637095689774
1710889845053906400,4.963906494140625,-0.3249800503253937,-0.6957749724388123,0.06811141967773438
1710889845072865500,4.982865478515625,-0.32100942730903625,-0.6960803866386414,0.06261363625526428
1710889845091825000,5.001824951171875,-0.3283398151397705,-0.7422007322311401,0.05955931544303894
1710889845110784000,5.020783935546875,-0.3185659945011139,-0.832608699798584,0.035735588520765305
1710889845129743400,5.039743408203125,-0.29443681240081787,-0.9459241032600403,-0.017715077847242355
1710889845148702500,5.058702392578125,-0.2977965772151947,-1.0543526411056519,-0.06841685622930527
1710889845167661800,5.077661865234375,-0.31520622968673706,-1.0906990766525269,-0.09498947113752365
1710889845186621000,5.096620849609375,-0.33750277757644653,-1.0800089836120605,-0.09926552325487137
1710889845205580300,5.115580322265625,-0.3582721948623657,-1.0622938871383667,-0.12064579129219055
1710889845224539400,5.134539306640625,-0.3744601011276245,-1.0680971145629883,-0.1331685185432434
1710889845243498800,5.153498779296875,-0.4276053309440613,-1.0607666969299316,-0.11392628401517868
1710889845262457900,5.172457763671875,-0.5210676789283752,-1.0955859422683716,-0.12217295914888382
1710889845281417200,5.191417236328125,-0.5406153202056885,-1.1902700662612915,-0.17165300250053406
1710889845300376300,5.210376220703125,-0.3860665261745453,-1.2345577478408813,-0.21380266547203064
1710889845319335700,5.229335693359375,-0.18784092366695404,-1.1242966651916504,-0.23029601573944092
1710889845338294800,5.248294677734375,-0.12614357471466064,-0.9868520498275757,-0.2608392536640167
1710889845357254100,5.267254150390625,-0.22846342623233795,-0.9144645929336548,-0.19425499439239502
1710889845376213500,5.286213623046875,-0.3430005609989166,-0.8558215498924255,-0.03634645417332649
1710889845395172600,5.305172607421875,-0.3237583339214325,-0.7739656567573547,0.0873536616563797
1710889845414132000,5.324132080078125,-0.2156352698802948,-0.6817250847816467,0.09162971377372742
1710889845433091000,5.343091064453125,-0.14141519367694855,-0.6081159114837646,0.021991131827235222
1710889845452050200,5.36205029296875,-0.1792888194322586,-0.5891790986061096,0.021991131827235222
1710889845471009500,5.381009521484375,-0.2684750556945801,-0.6068941354751587,0.11881320178508759
1710889845489969000,5.399968994140625,-0.2510654330253601,-0.6557633280754089,0.1649334877729416
1710889845508928000,5.418927978515625,-0.143553227186203,-0.7348703145980835,0.08124501258134842
1710889845527887400,5.437887451171875,-0.049480047076940536,-0.7834340929985046,-0.001221729558892548
1710889845546846500,5.456846435546875,-0.04825831577181816,-0.8237511515617371,0.004886918235570192
1710889845565805800,5.475805908203125,-0.08338304609060287,-0.8915571570396423,0.05589412897825241
1710889845584765000,5.494764892578125,-0.043371398001909256,-0.9193515181541443,0.08582650125026703
1710889845603724300,5.513724365234375,0.04550942778587341,-0.9294307827949524,0.07360920310020447
1710889845622683600,5.53268359375,0.1233946830034256,-0.9456186890602112,0.03390299528837204
1710889845641642800,5.551642822265625,0.1853974610567093,-0.9089667797088623,-0.032070402055978775
1710889845660601900,5.570601806640625,0.2510654330253601,-0.7574723362922668,-0.0769689604640007
1710889845679561200,5.589561279296875,0.2971857190132141,-0.47525280714035034,-0.06994401663541794
1710889845698520600,5.6085205078125,0.27458372712135315,-0.11148282140493393,-0.03145953640341759
1710889845717479700,5.627479736328125,0.19120067358016968,0.24923282861709595,0.014660755172371864
1710889845736439000,5.64643896484375,0.10018182545900345,0.47067132592201233,0.046425722539424896
1710889845755398100,5.665398193359375,0.05436696484684944,0.5436696410179138,0.07086031138896942
1710889845774357500,5.684357421875,0.04062250629067421,0.5030471682548523,0.0925460159778595
1710889845793316600,5.703316650390625,0.03390299528837204,0.44501498341560364,0.12950333952903748
1710889845812276000,5.72227587890625,0.005803215317428112,0.4068359434604645,0.16646064817905426
1710889845831235000,5.741235107421875,-0.033597562462091446,0.36163195967674255,0.19822561740875244
1710889845850194400,5.7601943359375,-0.046425722539424896,0.29626941680908203,0.20250166952610016
1710889845869153500,5.779153564453125,-0.0204639695584774,0.23518294095993042,0.16523891687393188
1710889845888113000,5.79811279296875,0.03695731982588768,0.21258094906806946,0.09162971377372742
1710889845907072300,5.817072265625,0.09376774728298187,0.19242240488529205,0.008857538923621178
1710889845926031400,5.83603125,0.1288924664258957,0.16523891687393188,-0.07391463965177536
1710889845944990700,5.85499072265625,0.1591302752494812,0.2098320573568344,-0.1542433500289917
1710889845963949800,5.87394970703125,0.16676609218120575,0.34208428859710693,-0.2107483446598053
1710889845982909200,5.8929091796875,0.1637117564678192,0.5106829404830933,-0.22785256803035736
1710889846001868500,5.91186865234375,0.17104214429855347,0.6411026120185852,-0.23212862014770508
1710889846020827600,5.93082763671875,0.17684535682201385,0.6811142563819885,-0.24312418699264526
1710889846039786800,5.949786865234375,0.1744018942117691,0.6386591196060181,-0.24251331388950348
1710889846058746000,5.96874609375,0.18234314024448395,0.5641336441040039,-0.21868959069252014
1710889846077705500,5.98770556640625,0.19639302790164948,0.4929678738117218,-0.2006690800189972
1710889846096664600,6.00666455078125,0.20402882993221283,0.43951719999313354,-0.22418737411499023
1710889846115624000,6.0256240234375,0.2211330533027649,0.4114174246788025,-0.2516762912273407
1710889846134583300,6.044583251953125,0.2419024556875229,0.425467312335968,-0.2415970265865326
1710889846153542400,6.06354248046875,0.23426663875579834,0.4508182108402252,-0.2208276242017746
1710889846172501800,6.082501708984375,0.20433427393436432,0.45326167345046997,-0.20647229254245758
1710889846191460900,6.1014609375,0.1792888194322586,0.4321868419647217,-0.1844811588525772
1710889846210420200,6.120420166015625,0.1594357043504715,0.406530499458313,-0.14752385020256042
1710889846229379600,6.139379638671875,0.1432477980852127,0.3790415823459625,-0.08765909820795059
1710889846248338700,6.158338623046875,0.13133592903614044,0.3451386094093323,-0.03940077871084213
1710889846267298000,6.177298095703125,0.1282816082239151,0.3042106628417969,-0.03695731982588768
1710889846286257200,6.196257080078125,0.09865466505289078,0.25961753726005554,-0.02779434807598591
1710889846305216500,6.215216552734375,0.07391463965177536,0.24251331388950348,-0.01282816007733345
1710889846324176000,6.23417578125,0.06841685622930527,0.2162461280822754,-0.025045456364750862
1710889846343135000,6.253135009765625,0.06597339361906052,0.17562362551689148,-0.05528326332569122
1710889846362094300,6.27209423828125,0.07605266571044922,0.14294235408306122,-0.08429934084415436
1710889846381053700,6.2910537109375,0.08674279600381851,0.10720676928758621,-0.11972949653863907
1710889846400012800,6.3100126953125,0.09285144507884979,0.07391463965177536,-0.16157373785972595
1710889846418972200,6.32897216796875,0.1127045527100563,0.07757982611656189,-0.2052505612373352
1710889846437931500,6.347931640625,0.1334739476442337,0.12247838824987411,-0.24984370172023773
1710889846456890600,6.366890625,0.14813470840454102,0.185092031955719,-0.2926042377948761
1710889846475850000,6.38585009765625,0.1490510106086731,0.23182319104671478,-0.3231474757194519
1710889846494809300,6.404809326171875,0.12278381735086441,0.23976442217826843,-0.3533852696418762
1710889846513768400,6.4237685546875,0.0925460159778595,0.23243404924869537,-0.370184063911438
1710889846532727800,6.442727783203125,0.08338304609060287,0.21960589289665222,-0.36285367608070374
1710889846551687200,6.461687255859375,0.07544180005788803,0.19089524447917938,-0.36651885509490967
1710889846570646300,6.480646240234375,0.07147117704153061,0.17043127119541168,-0.37751442193984985
1710889846589605600,6.499605712890625,0.07238747924566269,0.15485422313213348,-0.38270679116249084
1710889846608565000,6.51856494140625,0.07422006875276566,0.15179990231990814,-0.3845393657684326
1710889846627524000,6.537524169921875,0.07238747924566269,0.1484401375055313,-0.37812530994415283
1710889846646483500,6.5564833984375,0.06872228533029556,0.14752385020256042,-0.3659079968929291
1710889846665442800,6.57544287109375,0.05589412897825241,0.1441640853881836,-0.34727662801742554
1710889846684402200,6.594402099609375,0.021991131827235222,0.1444695144891739,-0.3439168632030487
1710889846703361300,6.613361328125,-0.005192350596189499,0.15760311484336853,-0.33108872175216675
1710889846722320600,6.632320556640625,0.010079269297420979,0.210442915558815,-0.28557929396629333
1710889846741280000,6.651280029296875,0.05528326332569122,0.28405213356018066,-0.24740023910999298
1710889846760239000,6.670239013671875,0.09834922850131989,0.3430005609989166,-0.27519458532333374
1710889846779198500,6.689198486328125,0.12125665694475174,0.35216355323791504,-0.32681265473365784
1710889846798157800,6.70815771484375,0.12767073512077332,0.33200499415397644,-0.3637699782848358
1710889846817117200,6.7271171875,0.1337793916463852,0.32009315490722656,-0.38179048895835876
1710889846836076300,6.746076171875,0.13958260416984558,0.2971857190132141,-0.40897396206855774
1710889846855035600,6.76503564453125,0.12553271651268005,0.23945899307727814,-0.45448338985443115
1710889846873995000,6.7839951171875,0.11026109009981155,0.19730933010578156,-0.49052441120147705
1710889846892954400,6.802954345703125,0.13500112295150757,0.19669845700263977,-0.4969384968280792
1710889846911913500,6.82191357421875,0.1692095398902893,0.18387030065059662,-0.4841103255748749
1710889846930872800,6.840872802734375,0.19792018830776215,0.13958260416984558,-0.46486809849739075
1710889846949832200,6.859832275390625,0.21349723637104034,0.0769689604640007,-0.4159989058971405
1710889846968791600,6.87879150390625,0.18264856934547424,-0.014049889519810677,-0.34574946761131287
1710889846987750700,6.897750732421875,0.08674279600381851,-0.11636973917484283,-0.2712239623069763
1710889847006710000,6.9167099609375,-0.02412915788590908,-0.17837251722812653,-0.21197007596492767
1710889847025669400,6.93566943359375,-0.13652828335762024,-0.19608759880065918,-0.17592905461788177
1710889847044628700,6.954628662109375,-0.23029601573944092,-0.18112140893936157,-0.16707152128219604
1710889847063588000,6.973588134765625,-0.28008151054382324,-0.14294235408306122,-0.1692095398902893
1710889847082547200,6.992547119140625,-0.2779434621334076,-0.08002328872680664,-0.185092031955719
1710889847101506600,7.011506591796875,-0.22388194501399994,0.009162971749901772,-0.210442915558815
1710889847120466000,7.0304658203125,-0.14080433547496796,0.09437860548496246,-0.24281874299049377
1710889847139425300,7.04942529296875,-0.06444623321294785,0.13683371245861053,-0.25350889563560486
1710889847158384600,7.068384521484375,-0.015577051788568497,0.1444695144891739,-0.235793799161911
1710889847177343700,7.08734375,-0.0054977829568088055,0.11759147047996521,-0.21471896767616272
1710889847196303000,7.10630322265625,-0.044898562133312225,0.0461202897131443,-0.17806708812713623
1710889847215262500,7.125262451171875,-0.12156209349632263,-0.007635809946805239,-0.143553227186203
1710889847234221800,7.144221923828125,-0.20708316564559937,-0.004276053514331579,-0.1340848207473755
1710889847253181200,7.16318115234375,-0.2822195291519165,0.025961752980947495,-0.14782927930355072
1710889847272140500,7.182140625,-0.3130682110786438,0.08857539296150208,-0.14691297709941864
1710889847291099600,7.201099609375,-0.29443681240081787,0.16249002516269684,-0.14752385020256042
1710889847310059300,7.220059326171875,-0.2837466895580292,0.18356487154960632,-0.1646280586719513
1710889847329018400,7.239018310546875,-0.31551164388656616,0.15027274191379547,-0.17134757339954376
1710889847347977700,7.257977783203125,-0.36193737387657166,0.12034036219120026,-0.14721840620040894
1710889847366937000,7.27693701171875,-0.3814850449562073,0.09590577334165573,-0.12950333952903748
1710889847385896400,7.295896484375,-0.38759371638298035,0.06414080411195755,-0.13775001466274261
1710889847404855800,7.314855712890625,-0.4257727563381195,0.011300998739898205,-0.1597411334514618
1710889847423815200,7.333815185546875,-0.5024362802505493,-0.03176496922969818,-0.18173226714134216
1710889847442774500,7.3527744140625,-0.5919279456138611,-0.04673115536570549,-0.20372340083122253
1710889847461733600,7.371733642578125,-0.6575959324836731,-0.025961752980947495,-0.23396120965480804
1710889847480693000,7.39069287109375,-0.6441569328308105,0.04886918142437935,-0.24495677649974823
1710889847499652600,7.409652587890625,-0.5891790986061096,0.13133592903614044,-0.2516762912273407
1710889847518611700,7.42861181640625,-0.5589412450790405,0.1591302752494812,-0.2605338394641876
1710889847537571000,7.447571044921875,-0.5681042671203613,0.12614357471466064,-0.2767217457294464
1710889847556530400,7.466530517578125,-0.6123919486999512,0.05742128938436508,-0.29443681240081787
1710889847575489800,7.48548974609375,-0.6633991599082947,0.026878049597144127,-0.2938259541988373
1710889847594449200,7.50444921875,-0.6814196705818176,0.07299833744764328,-0.27458372712135315
1710889847613408500,7.523408447265625,-0.6832522749900818,0.13011419773101807,-0.2574795186519623
1710889847632367900,7.542367919921875,-0.684473991394043,0.16615521907806396,-0.2617555558681488
1710889847651327200,7.5613271484375,-0.6688969135284424,0.22754712402820587,-0.2574795186519623
1710889847670286600,7.58028662109375,-0.6160571575164795,0.3292561173439026,-0.23823726177215576
1710889847689246000,7.599245849609375,-0.5613847374916077,0.3912588953971863,-0.2162461280822754
1710889847708205300,7.618205322265625,-0.5296197533607483,0.3854556679725647,-0.2009745091199875
1710889847727164700,7.63716455078125,-0.5232056975364685,0.3698786199092865,-0.19700388610363007
1710889847746124000,7.6561240234375,-0.5384773015975952,0.3585776388645172,-0.21410810947418213
1710889847765083400,7.67508349609375,-0.537255585193634,0.37293294072151184,-0.23426663875579834
1710889847784042800,7.694042724609375,-0.5057960152626038,0.4211912751197815,-0.2507599890232086
1710889847803002000,7.713002197265625,-0.4789179861545563,0.47494736313819885,-0.27977606654167175
1710889847821961500,7.73196142578125,-0.45998117327690125,0.5308414697647095,-0.324063777923584
1710889847840920800,7.7509208984375,-0.48075059056282043,0.5635227560997009,-0.35766133666038513
1710889847859880200,7.769880126953125,-0.5225948095321655,0.5797106623649597,-0.36193737387657166
1710889847878839600,7.788839599609375,-0.5387827157974243,0.593149721622467,-0.38331764936447144
1710889847897799000,7.807798828125,-0.5320632457733154,0.6090322136878967,-0.4172206521034241
1710889847916758300,7.82675830078125,-0.4877755343914032,0.6508764028549194,-0.4257727563381195
1710889847935717600,7.845717529296875,-0.44379326701164246,0.6688969135284424,-0.4309650957584381
1710889847954677000,7.864677001953125,-0.43463030457496643,0.6010909676551819,-0.46425724029541016
1710889847973636400,7.88363623046875,-0.48502662777900696,0.4938841760158539,-0.4825831651687622
1710889847992595700,7.902595703125,-0.582459568977356,0.40775224566459656,-0.47097674012184143
1710889848011555000,7.92155517578125,-0.619722306728363,0.411722868680954,-0.4608974754810333
1710889848030514400,7.940514404296875,-0.5751292109489441,0.5045742988586426,-0.47372564673423767
1710889848049473800,7.959473876953125,-0.5042688846588135,0.6078104376792908,-0.47922343015670776
1710889848068433200,7.97843310546875,-0.4841103255748749,0.6459894776344299,-0.4535670876502991
1710889848087392500,7.997392578125,-0.5006036758422852,0.6398808360099792,-0.44348782300949097
1710889848106351900,8.016351806640625,-0.5192350745201111,0.6175842881202698,-0.47555822134017944
1710889848125311200,8.035311279296875,-0.5451968312263489,0.5632173418998718,-0.4969384968280792
1710889848144270600,8.0542705078125,-0.5601630210876465,0.47922343015670776,-0.47555822134017944
1710889848163230200,8.073230224609375,-0.5320632457733154,0.3949240744113922,-0.5048797130584717
1710889848182189600,8.092189453125,-0.5400044918060303,0.3228420317173004,-0.5745183229446411
1710889848201149000,8.11114892578125,-0.6123919486999512,0.27397283911705017,-0.6032289862632751
1710889848220108300,8.1301083984375,-0.6783653497695923,0.282524973154068,-0.6142245531082153
1710889848239067600,8.149067626953125,-0.7015781998634338,0.3237583339214325,-0.6239983439445496
1710889848258027000,8.168027099609375,-0.6890554428100586,0.35582873225212097,-0.6609556674957275
1710889848276986400,8.186986328125,-0.6957749724388123,0.3646862804889679,-0.7308996915817261
1710889848295945700,8.20594580078125,-0.7174606919288635,0.3704894781112671,-0.7886264324188232
1710889848314905000,8.224905029296876,-0.7043271064758301,0.39797839522361755,-0.8197805285453796
1710889848333864400,8.243864501953125,-0.6655371785163879,0.41844236850738525,-0.8628464937210083
1710889848352824000,8.262823974609375,-0.6181951761245728,0.4373791813850403,-0.8762855529785156
1710889848371783400,8.281783447265624,-0.526565432548523,0.4376846253871918,-0.9022472500801086
1710889848390742800,8.30074267578125,-0.4608974754810333,0.39797839522361755,-0.9599739909172058
1710889848409702100,8.3197021484375,-0.5024362802505493,0.30115634202957153,-1.0180062055587769
1710889848428661500,8.33866162109375,-0.5904008150100708,0.16615521907806396,-1.0424407720565796
1710889848447620900,8.357620849609376,-0.5424479246139526,0.07330377399921417,-1.0317505598068237
1710889848466580200,8.376580322265625,-0.40805765986442566,-0.053756099194288254,-0.9914335608482361
1710889848485539600,8.39553955078125,-0.27977606654167175,-0.24404047429561615,-0.961195707321167
1710889848504499000,8.4144990234375,-0.17684535682201385,-0.4266890585422516,-0.9037744402885437
1710889848523458300,8.433458251953125,-0.07513637095689774,-0.4789179861545563,-0.7776308655738831
1710889848542418000,8.45241796875,0.06536252796649933,-0.37293294072151184,-0.5891790986061096
1710889848561377300,8.471377197265625,0.22785256803035736,-0.26389357447624207,-0.43310311436653137
1710889848580336600,8.490336669921875,0.32192572951316833,-0.2565632164478302,-0.37140578031539917
1710889848599296000,8.5092958984375,0.34697118401527405,-0.36163195967674255,-0.3454440236091614
1710889848618255600,8.528255615234375,0.34788748621940613,-0.471587598323822,-0.28954991698265076
1710889848637215000,8.547215087890624,0.383928507566452,-0.5201513767242432,-0.2214384824037552
1710889848656174300,8.56617431640625,0.4938841760158539,-0.49663305282592773,-0.20372340083122253
1710889848675133700,8.5851337890625,0.6148353815078735,-0.4975493550300598,-0.1905898153781891
1710889848694093000,8.604093017578125,0.7174606919288635,-0.5158752799034119,-0.16279546916484833
1710889848713052400,8.623052490234375,0.7990111112594604,-0.45387253165245056,-0.10506874322891235
1710889848732011800,8.64201171875,0.8087849617004395,-0.39278605580329895,-0.000305432389723137
1710889848750971400,8.660971435546875,0.7791580557823181,-0.4221075773239136,0.14996729791164398
1710889848769930800,8.6799306640625,0.8347467184066772,-0.5381718873977661,0.2883281707763672
1710889848788890000,8.69889013671875,0.9279035925865173,-0.7672461867332458,0.401949018239975
1710889848807849500,8.717849365234375,1.0247256755828857,-1.0235038995742798,0.48013970255851746
1710889848826808800,8.736808837890624,1.0735948085784912,-1.2131774425506592,0.5287034511566162
1710889848845768200,8.755768310546875,1.0192278623580933,-1.3894119262695312,0.5980366468429565
1710889848864727800,8.774727783203126,0.8720094561576843,-1.5705333948135376,0.7281508445739746
1710889848883687200,8.793687255859375,0.8032872080802917,-1.581834316253662,0.8359684348106384
1710889848902646500,8.812646484375,0.850934624671936,-1.4272855520248413,0.8738420605659485
1710889848921606100,8.831606201171875,0.8790343999862671,-1.2626575231552124,0.9046907424926758
1710889848940565500,8.8505654296875,0.8891136646270752,-1.08978271484375,0.9312633275985718
1710889848959524900,8.86952490234375,0.9602794051170349,-0.8933897614479065,0.9584468603134155
1710889848978484200,8.888484130859375,1.0662645101547241,-0.7357866168022156,0.9657772183418274
1710889848997443600,8.907443603515626,1.1866048574447632,-0.6768381595611572,0.9538653492927551
1710889849016403200,8.9264033203125,1.3271037340164185,-0.6050615906715393,0.9300416111946106
1710889849035362600,8.945362548828125,1.4190388917922974,-0.5708531141281128,0.9495893120765686
1710889849054322000,8.964322021484374,1.4398082494735718,-0.5348120927810669,1.0589340925216675
1710889849073281300,8.98328125,1.3842196464538574,-0.3811796307563782,1.3041963577270508
1710889849092240600,9.00224072265625,1.1578941345214844,0.01649334840476513,1.7217223644256592
1710889849111200300,9.0212001953125,0.7250964641571045,0.4834994673728943,1.8243476152420044
1710889849130159600,9.04015966796875,0.47433650493621826,0.6798924803733826,1.505781650543213
1710889849149119000,9.059118896484375,0.5852084755897522,0.6575959324836731,1.0393863916397095
1710889849168078300,9.078078369140625,0.924849271774292,0.5232056975364685,0.5403099060058594
1710889849187038000,9.097037841796874,1.395520567893982,0.31001389026641846,0.07971785217523575
1710889849205997300,9.115997314453125,1.7595959901809692,0.05803215503692627,-0.17898337543010712
1710889849224956700,9.134956787109376,1.8719950914382935,-0.2315177470445633,-0.189673513174057
1710889849243916000,9.153916015625,1.719584345817566,-0.5662716627120972,-0.004886918235570192
1710889849262875400,9.17287548828125,1.3939933776855469,-0.8206968307495117,0.2880227565765381
1710889849281835000,9.1918349609375,1.0060943365097046,-0.8078686594963074,0.601396381855011
1710889849300794400,9.21079443359375,0.6924152374267578,-0.5690205693244934,0.8161153197288513
1710889849319753700,9.229753662109376,0.5381718873977661,-0.27550002932548523,0.9208786487579346
1710889849338713000,9.248713134765625,0.5458076596260071,-0.056810423731803894,0.9410371780395508
1710889849357672700,9.267672607421876,0.5803215503692627,0.04734202101826668,0.9224058389663696
1710889849376632000,9.286632080078125,0.6117810606956482,0.03176496922969818,0.9053016304969788
1710889849395591400,9.30559130859375,0.6701186895370483,-0.053756099194288254,0.8133664727210999
1710889849414551000,9.324551025390624,0.7498365044593811,-0.1792888194322586,0.6365211009979248
1710889849433510400,9.343510498046875,0.7947350740432739,-0.3393353819847107,0.45937031507492065
1710889849452469800,9.3624697265625,0.8002328872680664,-0.4248564541339874,0.36712974309921265
1710889849471429400,9.381429443359375,0.813060998916626,-0.3530798554420471,0.364991694688797
1710889849490388700,9.400388671875,0.804814338684082,-0.2110537886619568,0.379347026348114
1710889849509348000,9.41934814453125,0.7547234296798706,-0.10567960888147354,0.3836230933666229
1710889849528307500,9.438307373046875,0.7513636946678162,-0.0308486707508564,0.3955349326133728
1710889849547266800,9.457266845703124,0.7504473924636841,0.005192350596189499,0.430659681558609
1710889849566226400,9.476226318359375,0.676227331161499,-0.032681263983249664,0.46883872151374817
1710889849585185800,9.495185791015626,0.5503891706466675,-0.11148282140493393,0.4780016839504242
1710889849604145200,9.514145263671875,0.4508182108402252,-0.16615521907806396,0.45387253165245056
1710889849623104500,9.5331044921875,0.4159989058971405,-0.15699224174022675,0.3970620930194855
1710889849642064100,9.552064208984374,0.39278605580329895,-0.1484401375055313,0.3756818473339081
1710889849661023500,9.5710234375,0.3454440236091614,-0.16859868168830872,0.3995055556297302
1710889849679982800,9.58998291015625,0.3084867000579834,-0.2208276242017746,0.42271843552589417
1710889849698942200,9.608942138671875,0.2620609998703003,-0.32589635252952576,0.4260781705379486
1710889849717901800,9.62790185546875,0.22999058663845062,-0.42424559593200684,0.42332929372787476
1710889849736861200,9.646861083984374,0.19181154668331146,-0.4575377106666565,0.4324922561645508
1710889849755820500,9.665820556640625,0.17134757339954376,-0.4370737373828888,0.46944957971572876
1710889849774780000,9.68477978515625,0.18112140893936157,-0.44409868121147156,0.5259546041488647
1710889849793739500,9.703739501953125,0.22724169492721558,-0.5403099060058594,0.5506945848464966
1710889849812699000,9.722698974609376,0.32070401310920715,-0.5986474752426147,0.5375609993934631
1710889849831658200,9.741658203125,0.3591884970664978,-0.5564978122711182,0.5180133581161499
1710889849850617600,9.76061767578125,0.29993459582328796,-0.5125155448913574,0.5424479246139526
1710889849869577200,9.7795771484375,0.17562362551689148,-0.4834994673728943,0.6102539300918579
1710889849888536600,9.79853662109375,0.05100720748305321,-0.3970620930194855,0.6606502532958984
1710889849907496000,9.817495849609376,-0.01282816007733345,-0.2257145345211029,0.6334667801856995
1710889849926455300,9.836455322265625,-0.016798781231045723,-0.02626718580722809,0.5302306413650513
1710889849945415000,9.855414794921876,0.05589412897825241,0.12003492563962936,0.40347617864608765
1710889849964374300,9.874374267578125,0.20861032605171204,0.1496618688106537,0.3039052188396454
1710889849983333600,9.893333740234375,0.370184063911438,0.09193515032529831,0.23823726177215576
1710889850002293000,9.91229296875,0.49999281764030457,0.000610864779446274,0.23304490745067596
1710889850021252600,9.931252685546875,0.5858193039894104,-0.10995566099882126,0.27550002932548523
1710889850040212000,9.9502119140625,0.6148353815078735,-0.231212317943573,0.31612253189086914
1710889850059171300,9.96917138671875,0.5491674542427063,-0.3173442482948303,0.3243691921234131
1710889850078131000,9.988130859375,0.43340855836868286,-0.3121519088745117,0.3426951467990875
1710889850097090300,10.00709033203125,0.2984074354171753,-0.19761475920677185,0.3646862804889679
1710889850116049700,10.026049560546875,0.14141519367694855,-0.047036588191986084,0.3643808364868164
1710889850135009000,10.045009033203126,0.023212861269712448,0.08277218043804169,0.3546070158481598
1710889850153968600,10.06396875,-0.038789913058280945,0.22937972843647003,0.3017672002315521
1710889850172928000,10.082927978515626,-0.06505709886550903,0.39217519760131836,0.20158538222312927
1710889850191887400,10.101887451171875,-0.000305432389723137,0.5299251675605774,0.08002328872680664
1710889850210846700,10.1208466796875,0.14782927930355072,0.5659661889076233,-0.08491020649671555
1710889850229806300,10.139806396484374,0.2910770773887634,0.4969384968280792,-0.2098320573568344
1710889850248765700,10.158765625,0.3494146466255188,0.35063639283180237,-0.2049451321363449
1710889850267725000,10.17772509765625,0.3503309488296509,0.15241076052188873,-0.09407317638397217
1710889850286684400,10.196684326171875,0.3689623177051544,0.0030543238390237093,-0.08429934084415436
1710889850305644000,10.21564404296875,0.37201663851737976,-0.12767073512077332,-0.17043127119541168
1710889850324603400,10.234603271484374,0.3686569035053253,-0.2522871494293213,-0.3176496922969818
1710889850343562800,10.253562744140625,0.33017241954803467,-0.205861434340477,-0.44379326701164246
1710889850362522000,10.272522216796874,0.30054548382759094,0.04886918142437935,-0.4822777509689331
1710889850381481500,10.2914814453125,0.3283398151397705,0.39248061180114746,-0.5699368119239807
1710889850400441000,10.310441162109376,0.3634645342826843,0.6994401812553406,-0.7446441650390625
1710889850419400400,10.329400390625,0.370184063911438,0.8665117025375366,-0.8561269640922546
1710889850438359800,10.34835986328125,0.3582721948623657,1.0024291276931763,-0.768467903137207
1710889850457319200,10.367319091796874,0.41874781250953674,1.2290599346160889,-0.6600393652915955
1710889850476278800,10.38627880859375,0.5360338687896729,1.2980875968933105,-0.6362156867980957
1710889850495238100,10.405238037109376,0.7049379348754883,1.2284491062164307,-0.6869174242019653
1710889850514197500,10.424197509765625,0.8872811198234558,1.1670571565628052,-0.8078686594963074
1710889850533156900,10.443156982421876,1.0555742979049683,1.1065815687179565,-0.8274163603782654
1710889850552116500,10.462116455078124,1.196073293685913,1.035415768623352,-0.6298015713691711
1710889850571075800,10.481075927734375,1.2544108629226685,0.8949168920516968,-0.18753549456596375
1710889850590035200,10.50003515625,1.232114315032959,0.5592467188835144,0.28588470816612244
1710889850608994600,10.51899462890625,1.1414008140563965,-0.015271619893610477,0.5928442478179932
1710889850627954000,10.537953857421876,1.0161736011505127,-0.6740893125534058,0.7037162184715271
1710889850646913500,10.55691357421875,0.898276686668396,-1.046411395072937,0.729983389377594
1710889850665873000,10.575872802734375,0.887891948223114,-1.0308343172073364,0.7571669220924377
1710889850684832300,10.594832275390624,1.0198386907577515,-0.7275399565696716,0.6872228980064392
1710889850703791900,10.6137919921875,1.1600322723388672,-0.2971857190132141,0.462424635887146
1710889850722751200,10.632751220703126,1.2290599346160889,0.12186752259731293,0.2009745091199875
1710889850741710600,10.651710693359375,1.21287202835083,0.4272999167442322,0.09682206809520721
1710889850760670000,10.670669921875,1.1475094556808472,0.5754346251487732,0.1127045527100563
1710889850779629600,10.689629638671875,1.053130865097046,0.4929678738117218,0.13713914155960083
1710889850798589000,10.7085888671875,0.9523382186889648,0.26878049969673157,0.17531819641590118
1710889850817548300,10.72754833984375,0.8356630206108093,0.1539379209280014,0.24404047429561615
1710889850836507600,10.746507568359375,0.6783653497695923,0.1591302752494812,0.3023780584335327
1710889850855467300,10.76546728515625,0.5186241865158081,0.18784092366695404,0.24373504519462585
1710889850874426600,10.784426513671875,0.46975502371788025,0.14049890637397766,0.13194678723812103
1710889850893386000,10.803385986328125,0.619722306728363,0.1597411334514618,0.1026252806186676
1710889850912345300,10.822345458984374,0.833219587802887,0.2257145345211029,0.12736530601978302
1710889850931304700,10.8413046875,1.0415244102478027,0.2263254076242447,0.13683371245861053
1710889850950264300,10.860264404296874,1.1533126831054688,0.12431098520755768,0.10476330667734146
1710889850969223700,10.8792236328125,1.0983349084854126,-0.1331685185432434,0.14110976457595825
1710889850988183000,10.89818310546875,0.9324851036071777,-0.4462367296218872,0.25320345163345337
1710889851007142400,10.917142333984375,0.7437278628349304,-0.6722567081451416,0.3426951467990875
1710889851026102000,10.93610205078125,0.6692023873329163,-0.8179479241371155,0.30543237924575806
1710889851045061400,10.955061279296874,0.7819069027900696,-0.8768963813781738,0.20861032605171204
1710889851064020700,10.974020751953125,0.9944878816604614,-0.8185588121414185,0.11728604137897491
1710889851082980000,10.99297998046875,1.1261292695999146,-0.7751874327659607,0.037262752652168274
1710889851101939500,11.011939453125,1.0482439994812012,-0.8371901512145996,-0.035124726593494415
1710889851120899000,11.030899169921875,0.8833104968070984,-1.0396918058395386,0.02871064469218254
1710889851139858400,11.0498583984375,0.85918128490448,-1.0955859422683716,0.17715078592300415
1710889851158817800,11.06881787109375,0.8341358304023743,-0.9456186890602112,0.14630211889743805
1710889851177777200,11.087777099609376,0.7290670871734619,-0.8283326625823975,0.04062250629067421
1710889851196736800,11.10673681640625,0.639270007610321,-0.8674280047416687,0.0772743970155716
1710889851215696100,11.125696044921876,0.7535017132759094,-0.9474512934684753,0.22724169492721558
1710889851234655500,11.144655517578125,0.9275981783866882,-0.8393282294273376,0.2965748608112335
1710889851253615000,11.163614990234375,0.8775072693824768,-0.6719512343406677,0.1737910360097885
1710889851272574500,11.182574462890624,0.6652317643165588,-0.7232639193534851,0.15515965223312378
1710889851291533800,11.201533935546875,0.5958985686302185,-0.8017600178718567,0.41813695430755615
1710889851310493400,11.220493408203126,0.7000510096549988,-0.8203914165496826,0.6603448390960693
1710889851329452800,11.239452880859375,0.7260127663612366,-0.7376192212104797,0.537255585193634
1710889851348412200,11.258412109375,0.581848680973053,-0.7376192212104797,0.21502439677715302
1710889851367371500,11.27737158203125,0.5137372612953186,-0.9129374027252197,0.1905898153781891
1710889851386331100,11.2963310546875,0.7089085578918457,-0.981354296207428,0.3949240744113922
1710889851405290500,11.31529052734375,0.8103121519088745,-0.8402445316314697,0.3955349326133728
1710889851424249900,11.334249755859375,0.5919279456138611,-0.8772017955780029,0.08552107214927673
1710889851443209500,11.35320947265625,0.3848448097705841,-1.0766491889953613,0.057726722210645676
1710889851462168800,11.3721689453125,0.47036588191986084,-1.0702351331710815,0.36835145950317383
1710889851481128200,11.391128173828125,0.6255255341529846,-0.8655954003334045,0.46486809849739075
1710889851500087600,11.410087646484374,0.5192350745201111,-0.750141978263855,0.08949168771505356
1710889851519047200,11.429047119140625,0.26419901847839355,-0.9178243279457092,-0.1588248461484909
1710889851538006500,11.448006591796876,0.16859868168830872,-0.9019418358802795,0.06811141967773438
1710889851556966000,11.4669658203125,0.272751122713089,-0.8026763200759888,0.4169152081012726
1710889851575925500,11.485925537109376,0.43890634179115295,-0.6050615906715393,0.42424559593200684
1710889851594884900,11.504884765625,0.34147340059280396,-0.4199695289134979,0.04917461425065994
1710889851613844200,11.52384423828125,0.11881320178508759,-0.6805033683776855,-0.03145953640341759
1710889851632803800,11.542803955078124,0.10690133273601532,-0.823445737361908,0.29535311460494995
1710889851651763200,11.56176318359375,0.2779434621334076,-0.730594277381897,0.4841103255748749
1710889851670722600,11.58072265625,0.4175260663032532,-0.6136136651039124,0.27366742491722107
1710889851689682200,11.59968212890625,0.3652971386909485,-0.8231402635574341,-0.019242240116000175
1710889851708641500,11.6186416015625,0.1802051067352295,-1.1420117616653442,0.02412915788590908
1710889851727601000,11.637600830078124,0.08155044913291931,-1.2528836727142334,0.3854556679725647
1710889851746560500,11.656560546875,0.1441640853881836,-1.1212422847747803,0.5613847374916077
1710889851765520000,11.675519775390624,0.18295399844646454,-0.9636391997337341,0.3347539007663727
1710889851784479200,11.694479248046875,0.09193515032529831,-1.0592395067214966,0.053145237267017365
1710889851803438800,11.71343896484375,-0.06963858753442764,-1.222645878791809,0.12064579129219055
1710889851822398200,11.732398193359375,-0.20677772164344788,-1.165224552154541,0.38209593296051025
1710889851841357600,11.751357666015625,-0.26878049969673157,-0.9401208758354187,0.43371400237083435
1710889851860317200,11.770317138671874,-0.31031930446624756,-0.8231402635574341,0.2528980076313019
1710889851879276500,11.789276611328125,-0.3503309488296509,-0.7996219992637634,0.14080433547496796
1710889851898236000,11.80823583984375,-0.40317076444625854,-0.7348703145980835,0.22418737411499023
1710889851917195500,11.827195556640625,-0.40958482027053833,-0.5962040424346924,0.32620179653167725
1710889851936155000,11.84615478515625,-0.33505934476852417,-0.4324922561645508,0.2968802750110626
1710889851955114200,11.8651142578125,-0.2513708472251892,-0.3805687427520752,0.1737910360097885
1710889851974073900,11.884073974609375,-0.21868959069252014,-0.4062250852584839,0.12431098520755768
1710889851993033200,11.903033203125,-0.21960589289665222,-0.3585776388645172,0.17684535682201385
1710889852011992600,11.92199267578125,-0.20341797173023224,-0.2922987937927246,0.19394956529140472
1710889852030952200,11.9409521484375,-0.1331685185432434,-0.24770566821098328,0.09407317638397217
1710889852049911600,11.95991162109375,-0.06108647957444191,-0.26389357447624207,-0.044898562133312225
1710889852068871200,11.97887109375,-0.026878049597144127,-0.33200499415397644,-0.08399390429258347
1710889852087830500,11.99783056640625,0.029626941308379173,-0.3277289569377899,-0.03298669680953026
1710889852106790100,12.0167900390625,0.1178968995809555,-0.29474225640296936,-0.06505709886550903
1710889852125749500,12.03574951171875,0.18112140893936157,-0.39370235800743103,-0.2263254076242447
1710889852144708900,12.054708984375,0.20402882993221283,-0.5778780579566956,-0.36254823207855225
1710889852163668500,12.07366845703125,0.19150610268115997,-0.722347617149353,-0.39339691400527954
1710889852182627800,12.0926279296875,0.12675444781780243,-0.7895427346229553,-0.3481929302215576
1710889852201587500,12.11158740234375,0.041844237595796585,-0.7831286191940308,-0.2675587832927704
1710889852220546800,12.130546875,-0.05253437161445618,-0.7363975048065186,-0.21807873249053955
1710889852239506400,12.14950634765625,-0.18325942754745483,-0.7037162184715271,-0.20891575515270233
1710889852258465800,12.1684658203125,-0.31490078568458557,-0.6734784245491028,-0.2214384824037552
1710889852277425400,12.18742529296875,-0.41294458508491516,-0.582459568977356,-0.24953825771808624
1710889852296384800,12.206384765625,-0.4361574649810791,-0.5415316224098206,-0.24801109731197357
1710889852315344100,12.22534423828125,-0.30054548382759094,-0.5097666382789612,-0.25900667905807495
1710889852334303700,12.2443037109375,0.04428769648075104,-0.42271843552589417,-0.3087921440601349
1710889852353263000,12.26326318359375,0.49021899700164795,-0.37812530994415283,-0.3026835024356842
1710889852372222700,12.28222265625,0.7553343176841736,-0.5256491303443909,-0.17623448371887207
1710889852391182000,12.30118212890625,0.8371901512145996,-0.924238383769989,-0.03940077871084213
1710889852410141700,12.3201416015625,0.9107993841171265,-1.3878847360610962,-0.06902772188186646
1710889852429101000,12.33910107421875,0.9795216917991638,-1.6911791563034058,-0.19364413619041443
1710889852448060700,12.358060791015625,0.9450078010559082,-1.8307617902755737,-0.2110537886619568
1710889852467020000,12.37702001953125,0.8100066781044006,-1.4804308414459229,-0.0977383628487587
1710889852485979600,12.395979736328124,0.5809323787689209,-0.8365793228149414,0.023518294095993042
1710889852504939000,12.41493896484375,0.2868010103702545,-0.2208276242017746,0.15790854394435883
1710889852523898600,12.433898681640626,0.032681263983249664,0.32528549432754517,0.35705047845840454
1710889852542858000,12.45285791015625,-0.1185077652335167,0.7428115606307983,0.4511236250400543
1710889852561817600,12.471817626953126,-0.18264856934547424,0.9376774430274963,0.21502439677715302
1710889852580777000,12.49077685546875,-0.21899501979351044,0.7999274134635925,-0.3032943606376648
1710889852599736300,12.509736328125,-0.15302163362503052,0.44868019223213196,-0.7064651250839233
1710889852618696000,12.528696044921874,-0.016187917441129684,0.33139413595199585,-0.7877101302146912
1710889852637655600,12.547655517578125,0.14752385020256042,0.37843072414398193,-0.7699950337409973
1710889852656615000,12.566614990234376,0.3426951467990875,0.3497200906276703,-0.767857015132904
1710889852675574500,12.585574462890625,0.5082395076751709,0.25381430983543396,-0.6795870661735535
1710889852694534000,12.604533935546876,0.5482511520385742,0.277332603931427,-0.4557051360607147
1710889852713493500,12.623493408203124,0.35246896743774414,0.41325002908706665,-0.25992295145988464
1710889852732453000,12.642453125,-0.04001164436340332,0.4581485986709595,-0.1945604383945465
1710889852751412500,12.66141259765625,-0.31673339009284973,0.5247328281402588,-0.18234314024448395
1710889852770371800,12.680371826171875,-0.277332603931427,0.729983389377594,-0.14233149588108063
1710889852789331500,12.69933154296875,-0.020769402384757996,0.9779945015907288,-0.10018182545900345
1710889852808290800,12.718290771484375,0.2260199636220932,0.9999856352806091,-0.056810423731803894
1710889852827250400,12.73725048828125,0.3634645342826843,0.7562506198883057,0.007330377586185932
1710889852846210000,12.7562099609375,0.3555232882499695,0.4404335021972656,0.1805105358362198
1710889852865169400,12.77516943359375,0.26389357447624207,0.1591302752494812,0.4260781705379486
1710889852884129000,12.79412890625,0.08765909820795059,-0.17348559200763702,0.6102539300918579
1710889852903088600,12.813088623046875,-0.17837251722812653,-0.5555815100669861,0.6893609166145325
1710889852922048000,12.832048095703126,-0.4841103255748749,-0.814588189125061,0.7101303339004517
1710889852941007400,12.85100732421875,-0.7400626540184021,-0.8778126835823059,0.7504473924636841
1710889852959967000,12.869967041015625,-0.9138537049293518,-0.8994984030723572,0.7623592615127563
1710889852978926600,12.888926513671874,-0.9902117848396301,-0.8206968307495117,0.6426297426223755
1710889852997886000,12.907885986328125,-1.0204496383666992,-0.5238165259361267,0.5170970559120178
1710889853016845600,12.926845458984374,-0.9923498630523682,-0.16554436087608337,0.46425724029541016
1710889853035805200,12.94580517578125,-0.8918625712394714,0.05222893878817558,0.40347617864608765
1710889853054764500,12.9647646484375,-0.7834340929985046,0.16340632736682892,0.3329212963581085
1710889853073724200,12.98372412109375,-0.6774490475654602,0.24312418699264526,0.25992295145988464
1710889853092683500,13.00268359375,-0.5760455131530762,0.21868959069252014,0.2101374864578247
1710889853111643100,13.02164306640625,-0.49510589241981506,0.04245510324835777,0.20616686344146729
1710889853130602800,13.040602783203125,-0.4508182108402252,-0.09621120244264603,0.19242240488529205
1710889853149562000,13.05956201171875,-0.4263836145401001,-0.050090912729501724,0.14813470840454102
1710889853168521700,13.078521728515625,-0.32528549432754517,0.09804379940032959,0.11759147047996521
1710889853187481300,13.0974814453125,-0.15088360011577606,0.07299833744764328,0.04001164436340332
1710889853206440700,13.116440673828125,0.029932374134659767,-0.19364413619041443,-0.12034036219120026
1710889853225400300,13.135400390625,0.24709481000900269,-0.38789913058280945,-0.22999058663845062
1710889853244359700,13.154359619140624,0.4218021333217621,-0.3530798554420471,-0.24801109731197357
1710889853263319300,13.1733193359375,0.435241162776947,-0.13652828335762024,-0.21410810947418213
1710889853282279000,13.19227880859375,0.2831358313560486,0.07116574794054031,-0.1328630894422531
1710889853301238500,13.211238525390625,0.08368847519159317,0.16126830875873566,-0.059864748269319534
1710889853320198000,13.230197998046876,-0.05406153202056885,0.17562362551689148,-0.022296564653515816
1710889853339157500,13.249157470703125,-0.11759147047996521,0.1640172004699707,0.01740964688360691
1710889853358116900,13.268116943359376,-0.12675444781780243,0.1649334877729416,0.05833758786320686
1710889853377076500,13.287076416015625,-0.1185077652335167,0.17043127119541168,0.0818558782339096
1710889853396036000,13.3060361328125,-0.10965022444725037,0.17684535682201385,0.056810423731803894
1710889853414995700,13.32499560546875,-0.08399390429258347,0.20280711352825165,0.011911863461136818
1710889853433955000,13.343955078125,-0.09529490768909454,0.20861032605171204,-0.04917461425065994
1710889853452914700,13.362914794921876,-0.17592905461788177,0.12644900381565094,-0.12522727251052856
1710889853471874000,13.3818740234375,-0.2556469142436981,0.05497783049941063,-0.12583814561367035
1710889853490833700,13.400833740234376,-0.22296564280986786,0.10201441496610641,-0.03787361457943916
1710889853509793300,13.419793212890625,-0.12247838824987411,0.17715078592300415,-0.013744457624852657
1710889853528753000,13.4387529296875,-0.07910698652267456,0.189673513174057,-0.18600831925868988
1710889853547712300,13.457712158203124,-0.05955931544303894,0.17134757339954376,-0.40714138746261597
1710889853566672000,13.476671875,0.007024944759905338,0.17623448371887207,-0.4825831651687622
1710889853585631500,13.495631591796876,0.09804379940032959,0.13775001466274261,-0.42332929372787476
1710889853604590800,13.5145908203125,0.1496618688106537,0.02718348242342472,-0.318871408700943
1710889853623550500,13.533550537109376,0.18631376326084137,-0.09682206809520721,-0.21380266547203064
1710889853642510000,13.552510009765625,0.24465134739875793,-0.16035200655460358,-0.11239911615848541
1710889853661469400,13.571469482421875,0.3283398151397705,-0.17104214429855347,-0.020769402384757996
1710889853680429000,13.590428955078124,0.36621344089508057,-0.23732095956802368,0.022296564653515816
1710889853699388700,13.609388671875,0.3491092324256897,-0.31673339009284973,0.05803215503692627
1710889853718348300,13.628348388671874,0.3271180987358093,-0.37110036611557007,0.13011419773101807
1710889853737307600,13.6473076171875,0.328645259141922,-0.3790415823459625,0.205861434340477
1710889853756267300,13.666267333984376,0.37354379892349243,-0.379347026348114,0.2412915825843811
1710889853775227000,13.685226806640625,0.41263917088508606,-0.36132651567459106,0.21410810947418213
1710889853794186200,13.704186279296875,0.39736753702163696,-0.3283398151397705,0.14049890637397766
1710889853813145900,13.723145751953124,0.37843072414398193,-0.30482152104377747,0.031154103577136993
1710889853832105500,13.74210546875,0.39736753702163696,-0.28038692474365234,-0.06322450190782547
1710889853851065000,13.761065185546874,0.43921178579330444,-0.22968515753746033,-0.13469567894935608
1710889853870024400,13.7800244140625,0.4825831651687622,-0.1282816082239151,-0.1847866028547287
1710889853888984000,13.798984130859376,0.5342012643814087,0.03451386094093323,-0.2211330533027649
1710889853907943400,13.817943359375,0.5589412450790405,0.17867794632911682,-0.2458730787038803
1710889853926903000,13.836903076171875,0.5119046568870544,0.2672533392906189,-0.21838416159152985
1710889853945862700,13.855862548828124,0.4379900395870209,0.2098320573568344,-0.1182023361325264
1710889853964822300,13.874822265625,0.3652971386909485,0.10567960888147354,-0.019853105768561363
1710889853983781600,13.89378173828125,0.2889390289783478,0.09407317638397217,-0.040317077189683914
1710889854002741200,13.9127412109375,0.17531819641590118,0.21441353857517242,-0.23548837006092072
1710889854021700900,13.931700927734376,-0.03695731982588768,0.41294458508491516,-0.4276053309440613
1710889854040660500,13.950660400390625,-0.28527384996414185,0.5879573225975037,-0.44501498341560364
1710889854059619800,13.969619873046875,-0.46456265449523926,0.6731730103492737,-0.31093016266822815
1710889854078579500,13.988579345703124,-0.5696313977241516,0.7250964641571045,-0.11972949653863907
1710889854097538800,14.007538818359375,-0.6352993845939636,0.712573766708374,0.056810423731803894
1710889854116498400,14.02649853515625,-0.6740893125534058,0.6087267398834229,0.1389717310667038
1710889854135458000,14.0454580078125,-0.6777544617652893,0.4053087830543518,0.13469567894935608
1710889854154417700,14.064417724609376,-0.6569850444793701,0.20708316564559937,0.1389717310667038
1710889854173377300,14.083377197265625,-0.6276635527610779,0.10354158282279968,0.2003636509180069
1710889854192336600,14.102336669921876,-0.5711585879325867,-0.021380268037319183,0.2678641974925995
1710889854211296300,14.121296142578124,-0.4615083336830139,-0.09407317638397217,0.2632827162742615
1710889854230255900,14.140255859375,-0.24953825771808624,-0.24495677649974823,0.205861434340477
1710889854249215200,14.15921533203125,0.05070177838206291,-0.471587598323822,0.09987638890743256
1710889854268174800,14.1781748046875,0.3249800503253937,-0.6249146461486816,-0.07238747924566269
1710889854287134500,14.197134521484376,0.4822777509689331,-0.7049379348754883,-0.24312418699264526
1710889854306093800,14.21609375,0.4828886091709137,-0.6771436333656311,-0.3439168632030487
1710889854325053400,14.235053466796876,0.3909534513950348,-0.5451968312263489,-0.40958482027053833
1710889854344013000,14.254012939453125,0.29474225640296936,-0.3946186602115631,-0.4975493550300598
1710889854362972700,14.27297265625,0.26939135789871216,-0.314289927482605,-0.5345066785812378
1710889854381932000,14.29193212890625,0.3295615613460541,-0.3426951467990875,-0.49144071340560913
1710889854400891600,14.3108916015625,0.45539969205856323,-0.47372564673423767,-0.4150826036930084
1710889854419851300,14.329851318359376,0.5900954008102417,-0.6423243284225464,-0.3066541254520416
1710889854438810600,14.348810546875,0.6777544617652893,-0.8277217745780945,-0.2000582218170166
1710889854457770200,14.367770263671876,0.7205150127410889,-1.0418298244476318,-0.11178825795650482
1710889854476729900,14.386729736328125,0.7641918659210205,-1.1404845714569092,-0.013744457624852657
1710889854495689500,14.405689453125,0.8460476994514465,-1.072983980178833,0.09834922850131989
1710889854514648800,14.42464892578125,0.9798271059989929,-0.9703587293624878,0.17043127119541168
1710889854533608400,14.4436083984375,1.1111630201339722,-0.8900299668312073,0.13530655205249786
1710889854552568000,14.462568115234374,1.1869102716445923,-0.7831286191940308,0.07788526266813278
1710889854571527400,14.48152734375,1.2009601593017578,-0.6136136651039124,0.09376774728298187
1710889854590487000,14.500487060546876,1.1899645328521729,-0.4101957082748413,0.15790854394435883
1710889854609446700,14.51944677734375,1.194546103477478,-0.2669478952884674,0.20127993822097778
1710889854628406000,14.538406005859375,1.1957677602767944,-0.18875721096992493,0.20891575515270233
1710889854647365600,14.55736572265625,1.1688897609710693,-0.19669845700263977,0.2205221801996231
1710889854666325200,14.5763251953125,1.102000117301941,-0.27427828311920166,0.2724456787109375
1710889854685284900,14.595284912109374,1.0128138065338135,-0.36774060130119324,0.3656025826931
1710889854704244200,14.614244140625,0.9453132748603821,-0.43371400237083435,0.4584540128707886
1710889854723203800,14.633203857421876,0.952032744884491,-0.5500837564468384,0.536339282989502
1710889854742163200,14.6521630859375,1.0219768285751343,-0.750141978263855,0.5751292109489441
1710889854761122800,14.671122802734375,1.0687079429626465,-0.9440914988517761,0.5513054728507996
1710889854780082400,14.69008251953125,1.033583164215088,-1.038164734840393,0.5115992426872253
1710889854799042000,14.7090419921875,0.9385937452316284,-0.9859357476234436,0.49968740344047546
1710889854818001700,14.728001708984374,0.8536835312843323,-0.8081740736961365,0.5079340934753418
1710889854836961000,14.7469609375,0.8112284541130066,-0.583375871181488,0.48441576957702637
1710889854855920600,14.765920654296876,0.8008437156677246,-0.36621344089508057,0.4257727563381195
1710889854874880000,14.7848798828125,0.8078686594963074,-0.17776164412498474,0.38301220536231995
1710889854893839600,14.803839599609375,0.804814338684082,-0.046425722539424896,0.3753764033317566
1710889854912799200,14.82279931640625,0.7638863921165466,0.012522728182375431,0.36621344089508057
1710889854931758800,14.8417587890625,0.6939423680305481,0.026572618633508682,0.32559093832969666
1710889854950718200,14.86071826171875,0.6273581385612488,-0.0021380267571657896,0.277332603931427
1710889854969677800,14.879677734375,0.5717694163322449,-0.056810423731803894,0.2370155304670334
1710889854988637200,14.89863720703125,0.5235111117362976,-0.09651663154363632,0.19914191961288452
1710889855007596800,14.9175966796875,0.48594292998313904,-0.11148282140493393,0.15241076052188873
1710889855026556400,14.936556396484375,0.4358520209789276,-0.12186752259731293,0.1178968995809555
1710889855045516000,14.95551611328125,0.3634645342826843,-0.14141519367694855,0.10873392969369888
1710889855064475400,14.974475341796875,0.2837466895580292,-0.1588248461484909,0.09407317638397217
1710889855083435000,14.99343505859375,0.2360992431640625,-0.19211697578430176,0.06200277432799339
1710889855102394400,15.012394287109375,0.23304490745067596,-0.22327107191085815,0.024740023538470268
1710889855121354000,15.03135400390625,0.2733619809150696,-0.2932150959968567,-0.009162971749901772
1710889855140313600,15.050313720703125,0.34086254239082336,-0.39797839522361755,-0.03695731982588768
1710889855159273200,15.069273193359376,0.38850998878479004,-0.46517354249954224,-0.03390299528837204
1710889855178232600,15.088232666015625,0.4013381600379944,-0.43279770016670227,0.000305432389723137
1710889855197192200,15.107192138671875,0.40897396206855774,-0.3582721948623657,0.04276053607463837
1710889855216151600,15.126151611328124,0.41386088728904724,-0.3121519088745117,0.05436696484684944
1710889855235111200,15.145111083984375,0.4013381600379944,-0.3066541254520416,0.041844237595796585
1710889855254070800,15.16407080078125,0.3903425931930542,-0.28435754776000977,0.02932151034474373
1710889855273030100,15.183030029296875,0.40317076444625854,-0.20891575515270233,0.004276053514331579
1710889855291989800,15.20198974609375,0.42363473773002625,-0.0720820426940918,-0.04917461425065994
1710889855310949400,15.220949462890625,0.42913252115249634,0.07910698652267456,-0.09071341902017593
1710889855329908700,15.23990869140625,0.3998109996318817,0.22296564280986786,-0.08765909820795059
1710889855348868400,15.258868408203124,0.34605491161346436,0.28588470816612244,-0.047952886670827866
1710889855367828000,15.277827880859375,0.2828303873538971,0.27458372712135315,-0.014660755172371864
1710889855386787300,15.296787353515626,0.1951712965965271,0.20861032605171204,-0.017104214057326317
1710889855405747000,15.315746826171875,0.09682206809520721,0.14996729791164398,-0.026572618633508682
1710889855424706600,15.33470654296875,0.022296564653515816,0.09804379940032959,-0.0054977829568088055
1710889855443666000,15.353666015625,0.010384701192378998,0.00946840364485979,0.02107483521103859
1710889855462625500,15.37262548828125,0.04367683082818985,-0.11636973917484283,0.02626718580722809
1710889855481585000,15.3915849609375,0.09010255336761475,-0.2156352698802948,0.03787361457943916
1710889855500544500,15.41054443359375,0.10690133273601532,-0.2706131041049957,0.031154103577136993
1710889855519504100,15.429504150390626,0.0818558782339096,-0.24862197041511536,-0.000305432389723137
1710889855538463500,15.44846337890625,0.03848448023200035,-0.1545487940311432,-0.019853105768561363
1710889855557423000,15.467423095703126,0.008857538923621178,-0.051618073135614395,-0.004276053514331579
1710889855576382500,15.486382568359375,0.01282816007733345,0.026572618633508682,0.018325943499803543
1710889855595342000,15.505342041015625,0.04917461425065994,0.07819069176912308,0.02412915788590908
1710889855614301700,15.5243017578125,0.05955931544303894,0.10873392969369888,0.014966187067329884
1710889855633261000,15.543260986328125,0.021991131827235222,0.12553271651268005,0.001221729558892548
1710889855652220700,15.562220703125,0.007941242307424545,0.12522727251052856,0.018631376326084137
1710889855671180300,15.58118017578125,0.04306596517562866,0.10537417232990265,0.06811141967773438
1710889855690139600,15.6001396484375,0.09285144507884979,0.04886918142437935,0.12980876863002777
1710889855709099300,15.619099365234375,0.1389717310667038,-0.008246674202382565,0.18845178186893463
1710889855728058600,15.63805859375,0.18784092366695404,-0.0308486707508564,0.23273947834968567
1710889855747018200,15.657018310546874,0.2263254076242447,-0.02779434807598591,0.2510654330253601
1710889855765977900,15.675977783203125,0.24006985127925873,-0.022296564653515816,0.23335035145282745
1710889855784937200,15.694937255859376,0.22815799713134766,-0.001221729558892548,0.20402882993221283
1710889855803896800,15.713896728515625,0.18661919236183167,0.047036588191986084,0.16584978997707367
1710889855822856400,15.7328564453125,0.14141519367694855,0.10079269111156464,0.12400554865598679
1710889855841815800,15.75181591796875,0.11698060482740402,0.13103049993515015,0.08918625861406326
1710889855860775400,15.770775390625,0.10201441496610641,0.1078176349401474,0.057726722210645676
1710889855879734800,15.78973486328125,0.09376774728298187,0.05406153202056885,0.04734202101826668
1710889855898694400,15.8086943359375,0.10629047453403473,0.003359756199643016,0.0616973415017128
1710889855917654000,15.827654052734376,0.13927717506885529,-0.043982263654470444,0.06017018109560013
1710889855936613400,15.84661328125,0.14538581669330597,-0.06536252796649933,0.029626941308379173
1710889855955573000,15.865572998046876,0.09926552325487137,-0.03145953640341759,-0.01893680728971958
1710889855974532600,15.88453271484375,0.036651886999607086,0.03390299528837204,-0.0668896958231926
1710889855993492000,15.903491943359375,0.011300998739898205,0.0772743970155716,-0.08552107214927673
1710889856012451300,15.922451416015624,0.01588248461484909,0.06994401663541794,-0.043982263654470444
1710889856031411000,15.941410888671875,0.04764745384454727,0.01802051067352295,0.031154103577136993
1710889856050370600,15.96037060546875,0.08674279600381851,-0.04550942778587341,0.07299833744764328
1710889856069330000,15.979329833984375,0.1182023361325264,-0.09621120244264603,0.060781046748161316
1710889856088289500,15.99828955078125,0.12980876863002777,-0.09804379940032959,0.01893680728971958
1710889856107249200,16.017249267578126,0.09957095980644226,-0.04367683082818985,-0.011911863461136818
1710889856126208500,16.03620849609375,0.04245510324835777,0.049480047076940536,-0.025350889191031456
1710889856145168100,16.055168212890624,0.004276053514331579,0.13011419773101807,-0.040317077189683914
1710889856164127500,16.07412744140625,0.01802051067352295,0.17226386070251465,-0.07330377399921417
1710889856183087000,16.093087158203126,0.044898562133312225,0.17653992772102356,-0.12614357471466064
1710889856202046700,16.112046630859375,0.046425722539424896,0.1533270627260208,-0.16554436087608337
1710889856221006000,16.131006103515624,0.02718348242342472,0.13103049993515015,-0.1737910360097885
1710889856239965700,16.149965576171876,0.01893680728971958,0.1185077652335167,-0.17562362551689148
1710889856258925300,16.16892529296875,0.04001164436340332,0.10567960888147354,-0.1847866028547287
1710889856277884700,16.187884765625,0.06627883017063141,0.08918625861406326,-0.19242240488529205
1710889856296844300,16.20684423828125,0.06933315098285675,0.0870482325553894,-0.18661919236183167
1710889856315803600,16.2258037109375,0.056199558079242706,0.08491020649671555,-0.16646064817905426
1710889856334763300,16.24476318359375,0.04886918142437935,0.07116574794054031,-0.13439024984836578
1710889856353723000,16.263722900390626,0.033597562462091446,0.06475166976451874,-0.09682206809520721
1710889856372682200,16.28268212890625,0.006108647678047419,0.06352993845939636,-0.06841685622930527
1710889856391641900,16.301641845703124,-0.016798781231045723,0.0409279391169548,-0.04673115536570549
1710889856410601200,16.320601318359376,-0.021685699000954628,0.010384701192378998,-0.024740023538470268
1710889856429560800,16.339560791015625,-0.01954767294228077,-0.002443459117785096,0.0054977829568088055
1710889856448520400,16.3585205078125,-0.016187917441129684,-0.01802051067352295,0.031154103577136993
1710889856467479800,16.377479736328127,-0.011300998739898205,-0.046425722539424896,0.041844237595796585
1710889856486439400,16.396439453125,-0.011300998739898205,-0.07086031138896942,0.028405211865901947
1710889856505399000,16.41539892578125,-0.003970621153712273,-0.08765909820795059,-0.001221729558892548
1710889856524358400,16.4343583984375,0.014660755172371864,-0.09560033679008484,-0.020769402384757996
1710889856543318000,16.453318115234374,0.025045456364750862,-0.0665842592716217,-0.014966187067329884
1710889856562277600,16.472277587890623,0.025350889191031456,-0.01802051067352295,-0.006108647678047419
1710889856581237000,16.491237060546876,0.043371398001909256,0.004581485874950886,-0.022296564653515816
1710889856600196600,16.510196533203125,0.06933315098285675,0.010995565913617611,-0.04581485688686371
1710889856619156200,16.52915625,0.08032871782779694,0.035735588520765305,-0.046425722539424896
1710889856638115600,16.548115478515626,0.06230820715427399,0.04673115536570549,-0.021991131827235222
1710889856657075200,16.5670751953125,0.05039634555578232,0.004276053514331579,0
1710889856676034600,16.58603466796875,0.06627883017063141,-0.057726722210645676,0.013133592903614044
1710889856694994200,16.604994140625,0.07757982611656189,-0.0977383628487587,0.01893680728971958
1710889856713953800,16.623953857421874,0.07330377399921417,-0.11545344442129135,0.025045456364750862
1710889856732913400,16.642913330078127,0.07574722915887833,-0.13469567894935608,0.03481929376721382
1710889856751872800,16.661872802734376,0.09132428467273712,-0.14569124579429626,0.03817904740571976
1710889856770832400,16.680832275390625,0.10873392969369888,-0.1233946830034256,0.01802051067352295
1710889856789791700,16.699791748046874,0.12400554865598679,-0.04153880476951599,-0.007635809946805239
1710889856808751400,16.71875146484375,0.12095122784376144,0.05833758786320686,-0.0030543238390237093
1710889856827711000,16.7377109375,0.11972949653863907,0.11423171311616898,0.04673115536570549
1710889856846670600,16.756670654296876,0.15057817101478577,0.11545344442129135,0.12492185086011887
1710889856865630200,16.775630126953125,0.205861434340477,0.06750056147575378,0.1893680840730667
1710889856884589600,16.794589599609374,0.2568686306476593,0.000610864779446274,0.22846342623233795
1710889856903549200,16.813549072265626,0.2880227565765381,-0.050090912729501724,0.23762640357017517
1710889856922508500,16.832508544921875,0.27091851830482483,-0.04978547990322113,0.1951712965965271
1710889856941468200,16.85146826171875,0.189673513174057,0.0021380267571657896,0.09437860548496246
1710889856960427800,16.870427734375,0.08857539296150208,0.07819069176912308,-0.018325943499803543
1710889856979387400,16.889387451171874,0.020769402384757996,0.14630211889743805,-0.08918625861406326
1710889856998346800,16.9083466796875,0.013133592903614044,0.14630211889743805,-0.1130099818110466
1710889857017306400,16.927306396484376,0.05742128938436508,0.06994401663541794,-0.09010255336761475
1710889857036266000,16.946265869140625,0.13255766034126282,-0.037262752652168274,-0.03481929376721382
1710889857055225300,16.965225341796874,0.20738859474658966,-0.13652828335762024,0.010690134018659592
1710889857074185000,16.98418505859375,0.2409861534833908,-0.1594357043504715,0.012522728182375431
1710889857093144600,17.00314453125,0.22235478460788727,-0.08338304609060287,-0.022907428443431854
1710889857112104000,17.02210400390625,0.15760311484336853,0.03695731982588768,-0.06383536756038666
1710889857131063600,17.0410634765625,0.07147117704153061,0.1282816082239151,-0.08399390429258347
1710889857150023200,17.060023193359374,0.0030543238390237093,0.15271618962287903,-0.08063415437936783
1710889857168982800,17.078982666015627,-0.030543239787220955,0.11942406743764877,-0.04367683082818985
1710889857187942400,17.0979423828125,-0.04978547990322113,0.05345066636800766,0.007941242307424545
1710889857206901800,17.11690185546875,-0.05406153202056885,-0.02871064469218254,0.056810423731803894
1710889857225861400,17.135861328125,-0.030543239787220955,-0.11178825795650482,0.07819069176912308
1710889857244821000,17.154821044921874,0.013439024798572063,-0.17715078592300415,0.08765909820795059
1710889857263780600,17.173780517578123,0.05589412897825241,-0.205861434340477,0.10445787757635117
1710889857282740000,17.192739990234376,0.06750056147575378,-0.18417572975158691,0.11972949653863907
1710889857301699600,17.211699462890625,0.0818558782339096,-0.15179990231990814,0.1182023361325264
1710889857320659200,17.2306591796875,0.10354158282279968,-0.10415244847536087,0.10079269111156464
1710889857339618600,17.24961865234375,0.10537417232990265,-0.025961752980947495,0.0818558782339096
1710889857358578200,17.268578125,0.07971785217523575,0.06475166976451874,0.06108647957444191
1710889857377537800,17.287537841796876,0.03481929376721382,0.12980876863002777,0.022907428443431854
1710889857396497400,17.306497314453125,0.044898562133312225,0.12980876863002777,-0.006414080038666725
1710889857415456800,17.325456787109374,0.07605266571044922,0.08338304609060287,0.013439024798572063
1710889857434416400,17.34441650390625,0.07483093440532684,0.008857538923621178,0.07452550530433655
1710889857453376000,17.3633759765625,0.05894844979047775,-0.09071341902017593,0.1331685185432434
1710889857472335600,17.382335693359376,0.031154103577136993,-0.20891575515270233,0.1585194170475006
1710889857491295000,17.401294921875,0.002443459117785096,-0.2715294063091278,0.16340632736682892
1710889857510254600,17.420254638671874,-0.0054977829568088055,-0.2706131041049957,0.168904110789299
1710889857529214200,17.439214111328123,-0.007941242307424545,-0.22724169492721558,0.1588248461484909
1710889857548173800,17.458173828125,-0.0015271619195118546,-0.16584978997707367,0.12278381735086441
1710889857567133400,17.477133544921877,0.020769402384757996,-0.12156209349632263,0.0977383628487587
1710889857586092800,17.4960927734375,0.04673115536570549,-0.10018182545900345,0.12156209349632263
1710889857605052400,17.515052490234375,0.051618073135614395,-0.10476330667734146,0.1432477980852127
1710889857624012000,17.534011962890624,0.07116574794054031,-0.17226386070251465,0.13041962683200836
1710889857642971600,17.5529716796875,0.13469567894935608,-0.2837466895580292,0.13469567894935608
1710889857661931300,17.57193115234375,0.1899789422750473,-0.3231474757194519,0.15485422313213348
1710889857680891000,17.590890869140626,0.19700388610363007,-0.2922987937927246,0.12278381735086441
1710889857699850200,17.609850341796875,0.2000582218170166,-0.34697118401527405,0.04673115536570549
1710889857718809900,17.628809814453124,0.24556763470172882,-0.4404335021972656,0.021380268037319183
1710889857737769500,17.64776953125,0.2162461280822754,-0.38728827238082886,0.0412333719432354
1710889857756729000,17.66672900390625,0.1750127524137497,-0.26878049969673157,0.07788526266813278
1710889857775688700,17.685688720703126,0.1802051067352295,-0.2419024556875229,0.06750056147575378
1710889857794648300,17.7046484375,0.1948658674955368,-0.2837466895580292,0.03543015569448471
1710889857813607700,17.723607666015624,0.15760311484336853,-0.2981020212173462,0.07330377399921417
1710889857832567300,17.7425673828125,0.05925388261675835,-0.272751122713089,0.1597411334514618
1710889857851527000,17.76152685546875,-0.0030543238390237093,-0.24709481000900269,0.17287473380565643
1710889857870486500,17.780486572265627,0.03237583488225937,-0.26450446248054504,0.08552107214927673
1710889857889446100,17.799446044921876,0.08949168771505356,-0.19761475920677185,0.001832594396546483
1710889857908405500,17.818405517578125,0.08093958348035812,-0.0027488914784044027,-0.033597562462091446
1710889857927365000,17.837365234375,0.032681263983249664,0.1444695144891739,-0.06017018109560013
1710889857946324700,17.85632470703125,-0.026572618633508682,0.20463970303535461,-0.10018182545900345
1710889857965284400,17.875284423828123,-0.10934479534626007,0.3283398151397705,-0.14202606678009033
1710889857984244000,17.894243896484376,-0.1594357043504715,0.4917461574077606,-0.18081597983837128
1710889858003203600,17.91320361328125,-0.16126830875873566,0.5342012643814087,-0.23823726177215576
1710889858022163200,17.9321630859375,-0.15577052533626556,0.4685332775115967,-0.27916520833969116
1710889858041122800,17.951122802734375,-0.12156209349632263,0.45326167345046997,-0.2764163017272949
1710889858060082200,17.970082275390624,-0.07605266571044922,0.5137372612953186,-0.26969680190086365
1710889858079041800,17.989041748046876,-0.06047561392188072,0.5409207344055176,-0.29077163338661194
1710889858098001400,18.00800146484375,-0.0668896958231926,0.41874781250953674,-0.31154105067253113
1710889858116961000,18.0269609375,-0.04276053607463837,0.22907429933547974,-0.29016077518463135
1710889858135920600,18.045920654296875,0.0360410213470459,0.07055488228797913,-0.21960589289665222
1710889858154880300,18.06488037109375,0.14172062277793884,-0.06017018109560013,-0.12431098520755768
1710889858173840000,18.08383984375,0.1740964651107788,-0.15821397304534912,-0.04825831577181816
1710889858192799200,18.10279931640625,0.09346231073141098,-0.18784092366695404,-0.01893680728971958
1710889858211758800,18.1217587890625,-0.005192350596189499,-0.15118902921676636,-0.025961752980947495
1710889858230718500,18.140718505859375,-0.0668896958231926,-0.03817904740571976,-0.044898562133312225
1710889858249678000,18.159677978515624,-0.1026252806186676,0.15668681263923645,-0.08460476994514465
1710889858268637700,18.1786376953125,-0.12125665694475174,0.37690356373786926,-0.15088360011577606
1710889858287597300,18.197597412109374,-0.08796452730894089,0.5155698657035828,-0.22693626582622528
1710889858306557000,18.216556884765627,0.0054977829568088055,0.544891357421875,-0.2620609998703003
1710889858325516500,18.2355166015625,0.07391463965177536,0.462424635887146,-0.23762640357017517
1710889858344476200,18.25447607421875,0.029932374134659767,0.328645259141922,-0.2101374864578247
1710889858363435800,18.273435791015626,-0.0461202897131443,0.17256930470466614,-0.2315177470445633
1710889858382395400,18.2923955078125,0.008246674202382565,0.03329212963581085,-0.2684750556945801
1710889858401354800,18.311354736328123,0.10934479534626007,-0.035124726593494415,-0.22479823231697083
1710889858420314400,18.330314453125,0.2006690800189972,-0.05283980444073677,-0.16035200655460358
1710889858439274000,18.34927392578125,0.3087921440601349,-0.05894844979047775,-0.1383608728647232
1710889858458233600,18.368233642578126,0.4276053309440613,0.024740023538470268,-0.15302163362503052
1710889858477193200,18.387193115234375,0.5311469435691833,0.1795942485332489,-0.20738859474658966
1710889858496152800,18.40615283203125,0.5445859432220459,0.09193515032529831,-0.2660316228866577
1710889858515112400,18.425112548828125,0.5510000586509705,-0.2528980076313019,-0.2507599890232086
1710889858534072000,18.444072021484374,0.5687150955200195,-0.4471530318260193,-0.12950333952903748
1710889858553031700,18.46303173828125,0.6044507026672363,-0.34086254239082336,-0.027488915249705315
1710889858571991300,18.4819912109375,0.6435460448265076,-0.17776164412498474,0.0015271619195118546
1710889858590951000,18.500950927734376,0.6261364221572876,-0.2309068888425827,0.0772743970155716
1710889858609910300,18.51991015625,0.4776962697505951,-0.44470956921577454,0.25931209325790405
1710889858628870000,18.538869873046874,0.11545344442129135,-0.6939423680305481,0.4218021333217621
1710889858647829500,18.55782958984375,-0.30482152104377747,-0.8875865340232849,0.4990765154361725
1710889858666789400,18.576789306640624,-0.5577195286750793,-0.8378010392189026,0.500298261642456
1710889858685748700,18.595748779296876,-0.5451968312263489,-0.5849030017852783,0.4718930423259735
1710889858704708400,18.614708251953125,-0.3601047992706299,-0.337808221578598,0.45051276683807373
1710889858723668000,18.63366796875,-0.15179990231990814,-0.250149130821228,0.4731147587299347
1710889858742627600,18.652627685546875,-0.09010255336761475,-0.30054548382759094,0.5189296007156372
1710889858761587200,18.671587158203124,-0.143553227186203,-0.4413498044013977,0.49541133642196655
1710889858780546800,18.690546875,-0.16646064817905426,-0.5626064538955688,0.4272999167442322
1710889858799506400,18.70950634765625,-0.10506874322891235,-0.5659661889076233,0.35796675086021423
1710889858818466000,18.728466064453126,0.009162971749901772,-0.4263836145401001,0.25320345163345337
1710889858837425700,18.74742578125,0.11545344442129135,-0.20738859474658966,0.13164135813713074
1710889858856385300,18.76638525390625,0.14813470840454102,-0.047036588191986084,0.07299833744764328
1710889858875345000,18.785344970703125,0.13775001466274261,-0.033597562462091446,0.09071341902017593
1710889858894304300,18.80430419921875,0.06994401663541794,-0.0769689604640007,0.13591741025447845
1710889858913263900,18.823263916015627,-0.06108647957444191,-0.12034036219120026,0.12003492563962936
1710889858932223700,18.8422236328125,-0.1792888194322586,-0.1902843713760376,0.07269290834665298
1710889858951183000,18.86118310546875,-0.23335035145282745,-0.2110537886619568,0.01435532234609127
1710889858970142700,18.880142822265626,-0.22357651591300964,-0.06597339361906052,-0.10751219838857651
1710889858989102300,18.899102294921875,-0.07452550530433655,0.2764163017272949,-0.22724169492721558
1710889859008062000,18.91806201171875,0.10354158282279968,0.6059778332710266,-0.22663083672523499
1710889859027021600,18.937021484375,0.10567960888147354,0.5781835317611694,-0.16157373785972595
1710889859045981200,18.955981201171873,-0.029932374134659767,0.24923282861709595,-0.14263692498207092
1710889859064940800,18.97494091796875,-0.14691297709941864,0.07452550530433655,-0.15149445831775665
1710889859083900400,18.993900390625,-0.1588248461484909,0.12736530601978302,-0.11545344442129135
1710889859102860000,19.012860107421876,-0.13927717506885529,0.1285870373249054,-0.02107483521103859
1710889859121819600,19.031819580078125,-0.18264856934547424,0.0054977829568088055,0.04459312930703163
1710889859140779300,19.050779296875,-0.22754712402820587,-0.0922405794262886,0.05345066636800766
1710889859159738600,19.069738525390626,-0.20952661335468292,-0.11148282140493393,0.04825831577181816
1710889859178698200,19.0886982421875,-0.14721840620040894,-0.047952886670827866,0.04581485688686371
1710889859197657900,19.107657958984376,-0.08643736690282822,0.01893680728971958,0.02626718580722809
1710889859216617500,19.126617431640625,-0.03451386094093323,0.019242240116000175,-0.007941242307424545
1710889859235577000,19.1455771484375,-0.008552107028663158,0.0027488914784044027,-0.024434590712189674
1710889859254536700,19.16453662109375,-0.02626718580722809,0.008857538923621178,-0.018325943499803543
1710889859273496300,19.183496337890624,-0.07330377399921417,0.06444623321294785,-0.024434590712189674
1710889859292456000,19.2024560546875,-0.10506874322891235,0.17653992772102356,-0.032681263983249664
1710889859311415600,19.22141552734375,-0.11209368705749512,0.25534147024154663,-0.005803215317428112
1710889859330375200,19.240375244140626,-0.1233946830034256,0.22968515753746033,0.03237583488225937
1710889859349334800,19.259334716796875,-0.16004657745361328,0.1233946830034256,0.053145237267017365
1710889859368294100,19.278294189453124,-0.1496618688106537,0.003970621153712273,0.07360920310020447
1710889859387254000,19.29725390625,-0.0720820426940918,-0.08491020649671555,0.09437860548496246
1710889859406213600,19.316213623046874,0.03237583488225937,-0.21441353857517242,0.0922405794262886
1710889859425173000,19.335173095703126,0.11239911615848541,-0.370184063911438,0.05803215503692627
1710889859444132600,19.354132568359375,0.12644900381565094,-0.41905322670936584,-0.006108647678047419
1710889859463092200,19.37309228515625,0.10140355676412582,-0.3066541254520416,-0.09132428467273712
1710889859482051800,19.3920517578125,0.09621120244264603,-0.07574722915887833,-0.16523891687393188
1710889859501011500,19.411011474609374,0.1178968995809555,0.2214384824037552,-0.21166464686393738
1710889859519971000,19.42997119140625,0.13683371245861053,0.500298261642456,-0.2370155304670334
1710889859538930700,19.4489306640625,0.12034036219120026,0.6343830823898315,-0.24862197041511536
1710889859557890300,19.467890380859377,0.06047561392188072,0.620333194732666,-0.2156352698802948
1710889859576849700,19.486849609375,0.003665188793092966,0.4944950342178345,-0.15027274191379547
1710889859595809300,19.505809326171875,-0.020158538594841957,0.32620179653167725,-0.07086031138896942
1710889859614769000,19.524768798828124,0.0015271619195118546,0.13652828335762024,0.008857538923621178
1710889859633728500,19.543728515625,0.06322450190782547,-0.08032871782779694,0.1127045527100563
1710889859652688100,19.562688232421873,0.13164135813713074,-0.2718348205089569,0.1997527778148651
1710889859671647700,19.581647705078126,0.16798780858516693,-0.4517345130443573,0.24404047429561615
1710889859690607400,19.600607421875,0.11331541836261749,-0.5039634704589844,0.26511532068252563
1710889859709567000,19.61956689453125,0.043371398001909256,-0.4477638900279999,0.2507599890232086
1710889859728526600,19.638526611328125,0.004886918235570192,-0.32650721073150635,0.21471896767616272
1710889859747486200,19.657486328125,-0.01893680728971958,-0.16249002516269684,0.16554436087608337
1710889859766445800,19.67644580078125,-0.030543239787220955,-0.024434590712189674,0.15027274191379547
1710889859785405200,19.6954052734375,-0.03390299528837204,0.06872228533029556,0.1496618688106537
1710889859804364800,19.71436474609375,-0.02718348242342472,0.0769689604640007,0.10140355676412582
1710889859823324400,19.733324462890625,-0.014049889519810677,0.10873392969369888,0.08643736690282822
1710889859842284000,19.752283935546874,-0.025045456364750862,0.10903936624526978,0.11942406743764877
1710889859861243600,19.77124365234375,-0.007024944759905338,0.0772743970155716,0.12553271651268005
1710889859880203300,19.790203369140624,0.047952886670827866,0.01740964688360691,0.14233149588108063
1710889859899163000,19.809162841796876,0.09437860548496246,0.003359756199643016,0.17562362551689148
1710889859918122500,19.82812255859375,0.11148282140493393,-0.013439024798572063,0.24709481000900269
1710889859937081900,19.847081787109374,0.10506874322891235,0.016187917441129684,0.31520622968673706
1710889859956041500,19.86604150390625,0.11056652665138245,0.07086031138896942,0.3436114490032196
1710889859975001000,19.8850009765625,0.12431098520755768,0.15760311484336853,0.3909534513950348
1710889859993960700,19.903960693359377,0.14599667489528656,0.23976442217826843,0.4563159942626953
1710889860012920300,19.92292041015625,0.1844811588525772,0.22724169492721558,0.5039634704589844
1710889860031880000,19.9418798828125,0.27550002932548523,0.19150610268115997,0.518318772315979
1710889860050839600,19.960839599609375,0.3588830530643463,0.20647229254245758,0.5232056975364685
1710889860069799200,19.979799072265624,0.35796675086021423,0.27366742491722107,0.5540543794631958
1710889860088758500,19.998758544921873,0.2831358313560486,0.26480987668037415,0.5503891706466675
1710889860107718100,20.01771826171875,0.18417572975158691,0.3451386094093323,0.4526508152484894
1710889860126677800,20.036677734375,0.10323614627122879,0.5839866995811462,0.40866854786872864
1710889860145637400,20.055637451171876,0.056810423731803894,0.7947350740432739,0.41416633129119873
1710889860164596700,20.0745966796875,-0.04001164436340332,0.8109229803085327,0.3805687427520752
1710889860183556400,20.093556396484374,-0.09285144507884979,0.6707295179367065,0.3017672002315521
1710889860202516000,20.112515869140626,-0.02260199747979641,0.49571678042411804,0.2412915825843811
1710889860221475600,20.1314755859375,0.04459312930703163,0.4046979248523712,0.33322674036026
1710889860240435200,20.150435302734376,0.022907428443431854,0.30146175622940063,0.43921178579330444
1710889860259394800,20.169394775390625,-0.015577051788568497,0.1331685185432434,0.3704894781112671
1710889860278354400,20.1883544921875,0.014049889519810677,-0.033597562462091446,0.20891575515270233
1710889860297314000,20.20731396484375,-0.01588248461484909,-0.05955931544303894,0.2214384824037552
1710889860316273400,20.2262734375,-0.11911863088607788,0.13652828335762024,0.35185810923576355
1710889860335233000,20.24523291015625,-0.18875721096992493,0.27916520833969116,0.22754712402820587
1710889860354192600,20.264192626953125,0.05436696484684944,0.12461641430854797,-0.0922405794262886
1710889860373152300,20.28315234375,0.37232208251953125,0.10659590363502502,-0.10323614627122879
1710889860392111900,20.30211181640625,0.28069236874580383,0.364991694688797,-0.034208428114652634
1710889860411071200,20.3210712890625,-0.01954767294228077,0.5158752799034119,-0.1182023361325264
1710889860430030800,20.34003076171875,-0.1230892539024353,0.46395179629325867,-0.15118902921676636
1710889860448990500,20.358990478515626,-0.12553271651268005,0.2831358313560486,-0.11911863088607788
1710889860467950000,20.3779501953125,-0.20280711352825165,0.08979712426662445,-0.04062250629067421
1710889860486909700,20.39690966796875,-0.16035200655460358,-0.12644900381565094,0.034208428114652634
1710889860505869300,20.415869384765625,-0.10720676928758621,-0.30543237924575806,0.07635809481143951
1710889860524828700,20.43482861328125,-0.12003492563962936,-0.38301220536231995,-0.0030543238390237093
1710889860543788300,20.453788330078126,-0.2006690800189972,-0.2981020212173462,-0.025045456364750862
1710889860562748000,20.472747802734375,-0.1957821547985077,-0.17318016290664673,0.03787361457943916
1710889860581707500,20.49170751953125,-0.12095122784376144,-0.06414080411195755,0.09498947113752365
1710889860600667100,20.510667236328125,-0.04581485688686371,0.032681263983249664,0.008552107028663158
1710889860619626800,20.529626708984374,-0.018325943499803543,0.1533270627260208,-0.0021380267571657896
1710889860638586000,20.548586181640626,0.019242240116000175,0.3347539007663727,0.16065743565559387
1710889860657545700,20.567545654296875,-0.033597562462091446,0.35277441143989563,0.3390299379825592
1710889860676505300,20.58650537109375,-0.17745621502399445,0.1536324918270111,0.30604326725006104
1710889860695465000,20.60546484375,-0.1640172004699707,-0.13988803327083588,0.2663370370864868
1710889860714424600,20.624424560546874,0.03848448023200035,-0.205861434340477,0.36254823207855225
1710889860733384000,20.643384033203127,0.13011419773101807,-0.09590577334165573,0.3585776388645172
1710889860752343600,20.662343505859376,0.04459312930703163,-0.006108647678047419,0.22724169492721558
1710889860771303200,20.68130322265625,-0.013744457624852657,0.14508038759231567,0.1640172004699707
1710889860790262800,20.7002626953125,0.04276053607463837,0.31123560667037964,0.28435754776000977
1710889860809222400,20.719222412109374,0.03787361457943916,0.43340855836868286,0.3090975880622864
1710889860828181800,20.738181640625,-0.0873536616563797,0.2779434621334076,0.14538581669330597
1710889860847141400,20.757141357421876,-0.0616973415017128,0.14172062277793884,0.04367683082818985
1710889860866101000,20.77610107421875,-0.01435532234609127,0.23273947834968567,0.18661919236183167
1710889860885060600,20.795060546875,0.003359756199643016,0.31093016266822815,0.23945899307727814
1710889860904020000,20.81402001953125,-0.08949168771505356,0.09682206809520721,0.021380268037319183
1710889860922979600,20.8329794921875,-0.1182023361325264,-0.05345066636800766,-0.03787361457943916
1710889860941939200,20.851939208984376,-0.04459312930703163,0.044898562133312225,0.07910698652267456
1710889860960898800,20.87089892578125,-0.08460476994514465,0.17348559200763702,0.03390299528837204
1710889860979858400,20.8898583984375,-0.1493564397096634,0.12095122784376144,-0.07116574794054031
1710889860998817800,20.90881787109375,-0.08429934084415436,0.057726722210645676,-0.06719512492418289
1710889861017777400,20.92777734375,-0.013744457624852657,0.15577052533626556,0.004581485874950886
1710889861036737000,20.946737060546877,-0.09804379940032959,0.22693626582622528,0.028405211865901947
1710889861055696600,20.965696533203126,-0.18264856934547424,0.07422006875276566,0.05192350596189499
1710889861074656300,20.98465625,-0.1640172004699707,-0.0925460159778595,0.01282816007733345
1710889861093615600,21.00361572265625,-0.09529490768909454,-0.1081230640411377,-0.023518294095993042
1710889861112575200,21.0225751953125,-0.05039634555578232,-0.004276053514331579,-0.012217295356094837
1710889861131534800,21.041534912109373,-0.07238747924566269,0.10598503798246384,-0.04214967042207718
1710889861150494500,21.060494384765626,-0.12400554865598679,0.16584978997707367,-0.08643736690282822
1710889861169453800,21.079453857421875,-0.11545344442129135,0.2006690800189972,-0.002443459117785096
1710889861188413400,21.098413330078124,-0.10109812021255493,0.24404047429561615,0.06841685622930527
1710889861207373000,21.117373046875,-0.11178825795650482,0.20311254262924194,0.010995565913617611
1710889861226332700,21.136332763671874,-0.13622283935546875,0.09193515032529831,-0.021380268037319183
1710889861245292300,21.155292236328126,-0.11331541836261749,0.007024944759905338,0.07971785217523575
1710889861264251600,21.174251708984375,-0.11881320178508759,-0.004886918235570192,0.1542433500289917
1710889861283211300,21.193211181640624,-0.15821397304534912,-0.013439024798572063,0.027488915249705315
1710889861302171000,21.2121708984375,-0.1692095398902893,-0.035124726593494415,-0.05222893878817558
1710889861321130500,21.231130615234374,-0.1637117564678192,0.005803215317428112,0.0054977829568088055
1710889861340089900,21.25008984375,-0.20922118425369263,0.06780599057674408,0.022907428443431854
1710889861359049500,21.269049560546875,-0.21655155718326569,0.038789913058280945,-0.007330377586185932
1710889861378009000,21.288009033203124,-0.14569124579429626,-0.039706211537122726,-0.061391908675432205
1710889861396968700,21.30696875,-0.12125665694475174,-0.10231985151767731,-0.09071341902017593
1710889861415928300,21.32592822265625,-0.1490510106086731,-0.09834922850131989,-0.013133592903614044
1710889861434887700,21.3448876953125,-0.1380554437637329,-0.017104214057326317,0.029932374134659767
1710889861453847300,21.363847412109376,-0.1230892539024353,-0.000305432389723137,-0.07147117704153061
1710889861472807000,21.382806884765625,-0.1444695144891739,-0.09621120244264603,-0.1334739476442337
1710889861491766500,21.4017666015625,-0.12644900381565094,-0.07513637095689774,-0.06261363625526428
1710889861510726100,21.42072607421875,-0.07605266571044922,0.044898562133312225,-0.025350889191031456
1710889861529685800,21.439685791015624,-0.09896009415388107,0.02107483521103859,-0.14233149588108063
1710889861548645000,21.45864501953125,-0.12370011955499649,-0.15668681263923645,-0.18325942754745483
1710889861567604700,21.477604736328125,-0.08979712426662445,-0.17806708812713623,-0.09682206809520721
1710889861586564400,21.496564453125,-0.029932374134659767,-0.07819069176912308,-0.05955931544303894
1710889861605524000,21.51552392578125,-0.04520399495959282,-0.03298669680953026,-0.12736530601978302
1710889861624483600,21.534483642578124,-0.07849612087011337,-0.10048725455999374,-0.1905898153781891
1710889861643443200,21.553443115234376,-0.05589412897825241,-0.09926552325487137,-0.18081597983837128
1710889861662402800,21.57240283203125,-0.026878049597144127,-0.025045456364750862,-0.14202606678009033
1710889861681362200,21.591362060546874,-0.022907428443431854,0.061391908675432205,-0.09437860548496246
1710889861700321800,21.61032177734375,-0.07910698652267456,0.04367683082818985,-0.11331541836261749
1710889861719281400,21.629281494140624,-0.13011419773101807,-0.04367683082818985,-0.210442915558815
1710889861738241000,21.648240966796877,-0.09162971377372742,-0.11759147047996521,-0.20127993822097778
1710889861757200600,21.66720068359375,-0.04306596517562866,-0.06383536756038666,-0.11484257876873016
1710889861776160300,21.68616015625,-0.08063415437936783,0.017104214057326317,-0.1496618688106537
1710889861795119900,21.705119873046876,-0.1487455666065216,-0.018631376326084137,-0.20372340083122253
1710889861814079200,21.724079345703124,-0.15057817101478577,-0.08032871782779694,-0.14813470840454102
1710889861833038800,21.743038818359373,-0.1282816082239151,-0.07391463965177536,-0.06017018109560013
1710889861851998500,21.76199853515625,-0.1792888194322586,-0.08857539296150208,-0.10903936624526978
1710889861870958000,21.7809580078125,-0.21807873249053955,-0.16768237948417664,-0.17745621502399445
1710889861889917700,21.799917724609376,-0.17104214429855347,-0.1588248461484909,-0.1637117564678192
1710889861908877300,21.818877197265625,-0.11392628401517868,-0.14599667489528656,-0.12705987691879272
1710889861927837000,21.8378369140625,-0.17745621502399445,-0.15271618962287903,-0.17562362551689148
1710889861946796500,21.856796630859375,-0.23212862014770508,-0.1698204129934311,-0.20891575515270233
1710889861965756000,21.875755859375,-0.18387030065059662,-0.18784092366695404,-0.17165300250053406
1710889861984715500,21.894715576171876,-0.13927717506885529,-0.16340632736682892,-0.16065743565559387
1710889862003675100,21.913675048828125,-0.16646064817905426,-0.14172062277793884,-0.17104214429855347
1710889862022634800,21.932634765625,-0.17898337543010712,-0.09590577334165573,-0.15027274191379547
1710889862041594400,21.951594482421875,-0.1692095398902893,-0.07269290834665298,-0.07055488228797913
1710889862060554000,21.970553955078124,-0.1496618688106537,-0.1493564397096634,0.004581485874950886
1710889862079513600,21.989513671875,-0.1698204129934311,-0.22418737411499023,-0.047952886670827866
1710889862098473200,22.00847314453125,-0.1805105358362198,-0.21380266547203064,-0.12431098520755768
1710889862117432600,22.0274326171875,-0.11728604137897491,-0.13683371245861053,-0.10629047453403473
1710889862136392400,22.046392333984375,-0.0873536616563797,-0.05253437161445618,-0.07422006875276566
1710889862155352000,22.06535205078125,-0.15760311484336853,-0.04520399495959282,-0.08765909820795059
1710889862174311400,22.0843115234375,-0.19394956529140472,-0.1078176349401474,-0.11423171311616898
1710889862193271000,22.10327099609375,-0.10903936624526978,-0.08002328872680664,-0.07483093440532684
1710889862212230700,22.122230712890627,-0.06261363625526428,0.03298669680953026,-0.08307760953903198
1710889862231190300,22.141190185546876,-0.11881320178508759,-0.0009162971982732415,-0.19333870708942413
1710889862250150000,22.16014990234375,-0.14721840620040894,-0.13622283935546875,-0.23823726177215576
1710889862269109500,22.179109619140625,-0.09468404203653336,-0.08399390429258347,-0.16096286475658417
1710889862288069000,22.198069091796874,-0.08765909820795059,0.005803215317428112,-0.13500112295150757
1710889862307028700,22.21702880859375,-0.1597411334514618,-0.09071341902017593,-0.19883649051189423
1710889862325988400,22.23598828125,-0.18692462146282196,-0.20861032605171204,-0.23548837006092072
1710889862344948000,22.254947998046877,-0.1597411334514618,-0.20616686344146729,-0.20433427393436432
1710889862363907600,22.273907470703126,-0.16096286475658417,-0.2101374864578247,-0.17165300250053406
1710889862382867200,22.2928671875,-0.1795942485332489,-0.3497200906276703,-0.231212317943573
1710889862401826800,22.311826904296876,-0.1701258420944214,-0.435241162776947,-0.2974911332130432
1710889862420786400,22.330786376953125,-0.1285870373249054,-0.2721402645111084,-0.30054548382759094
1710889862439746000,22.34974609375,-0.08857539296150208,-0.05925388261675835,-0.235793799161911
1710889862458705700,22.36870556640625,-0.12675444781780243,0.016187917441129684,-0.1899789422750473
1710889862477665300,22.387665283203123,-0.1744018942117691,-0.05222893878817558,-0.20616686344146729
1710889862496625000,22.406625,-0.10018182545900345,0.02871064469218254,-0.15546508133411407
1710889862515584300,22.425584228515625,-0.001221729558892548,0.16096286475658417,-0.03543015569448471
1710889862534544100,22.444544189453126,-0.002443459117785096,0.14019346237182617,0.043371398001909256
1710889862553503700,22.463503662109375,-0.0616973415017128,0.05406153202056885,0.06230820715427399
1710889862572463000,22.482463134765624,-0.026572618633508682,-0.04062250629067421,0.04367683082818985
1710889862591423000,22.501423095703124,0.06200277432799339,-0.037262752652168274,0.04673115536570549
1710889862610382600,22.520382568359373,0.08582650125026703,0.02932151034474373,0.05711585655808449
1710889862629342000,22.539342041015626,0.010384701192378998,0.05070177838206291,0.07147117704153061
1710889862648301600,22.558301513671875,-0.03298669680953026,-0.01588248461484909,0.08796452730894089
1710889862667261400,22.577261474609376,0.006414080038666725,-0.03451386094093323,0.07513637095689774
1710889862686220800,22.596220703125,0.011606430634856224,-0.04367683082818985,0.03695731982588768
1710889862705180700,22.6151806640625,-0.023518294095993042,-0.12156209349632263,-0.04428769648075104
1710889862724140300,22.634140380859375,-0.002443459117785096,-0.20830489695072174,-0.09804379940032959
1710889862743099600,22.653099609375,0.047952886670827866,-0.17287473380565643,-0.12950333952903748
1710889862762059500,22.6720595703125,0.013133592903614044,-0.0922405794262886,-0.1487455666065216
1710889862781019100,22.69101904296875,-0.07819069176912308,-0.0513126403093338,-0.1545487940311432
1710889862799978800,22.709978759765626,-0.09682206809520721,-0.04153880476951599,-0.16187916696071625
1710889862818938400,22.7289384765625,-0.05497783049941063,-0.005803215317428112,-0.14813470840454102
1710889862837898000,22.74789794921875,-0.04581485688686371,0.022907428443431854,-0.10567960888147354
1710889862856857600,22.766857666015625,-0.03390299528837204,-0.017715077847242355,-0.0360410213470459
1710889862875817200,22.785817138671874,-0.024434590712189674,-0.06108647957444191,0.014049889519810677
1710889862894776800,22.80477685546875,-0.04764745384454727,-0.0821613147854805,0.00946840364485979
1710889862913736400,22.823736328125,-0.04581485688686371,-0.0873536616563797,0.02107483521103859
1710889862932696000,22.842696044921876,-0.023518294095993042,-0.013133592903614044,0.08949168771505356
1710889862951655700,22.86165576171875,-0.033597562462091446,0.09010255336761475,0.12675444781780243
1710889862970615300,22.880615234375,-0.05864302068948746,0.13775001466274261,0.12614357471466064
1710889862989575000,22.899574951171875,-0.04734202101826668,0.14202606678009033,0.1386663019657135
1710889863008534500,22.918534423828124,-0.03695731982588768,0.1127045527100563,0.1233946830034256
1710889863027494100,22.937494140625,-0.051618073135614395,0.06902772188186646,0.06841685622930527
1710889863046453800,22.956453857421874,-0.04978547990322113,0.04367683082818985,0.05345066636800766
1710889863065413600,22.97541357421875,-0.010995565913617611,0.07483093440532684,0.09437860548496246
1710889863084373000,22.994373046875,-0.003359756199643016,0.14660754799842834,0.08826996386051178
1710889863103332900,23.013332763671876,-0.05711585655808449,0.16187916696071625,0.027488915249705315
1710889863122292500,23.03229248046875,-0.10659590363502502,0.09101885557174683,-0.014049889519810677
1710889863141252000,23.051252197265626,-0.06505709886550903,0.03848448023200035,0.025045456364750862
1710889863160211700,23.070211669921875,-0.020158538594841957,0.05894844979047775,0.050090912729501724
1710889863179171300,23.08917138671875,-0.04245510324835777,-0.011606430634856224,0.010079269297420979
1710889863198131000,23.108130859375,-0.06261363625526428,-0.09560033679008484,-0.003665188793092966
1710889863217090600,23.127090576171874,-0.04306596517562866,-0.06963858753442764,0.012217295356094837
1710889863236050200,23.14605029296875,-0.03909534588456154,0.013744457624852657,0.004276053514331579
1710889863255009800,23.165009765625,-0.060781046748161316,0.0665842592716217,-0.002443459117785096
1710889863273969400,23.183969482421876,-0.06291907280683517,0.10109812021255493,-0.010384701192378998
1710889863292929000,23.202928955078125,-0.047036588191986084,0.11026109009981155,-0.02260199747979641
1710889863311889000,23.221888916015626,-0.04825831577181816,0.10965022444725037,-0.01740964688360691
1710889863330848500,23.2408486328125,-0.061391908675432205,0.04917461425065994,-0.011606430634856224
1710889863349808000,23.25980810546875,-0.035124726593494415,-0.020158538594841957,-0.004276053514331579
