time,seconds_elapsed,z,y,x
1710889840210946600,0.120946533203125,3.0065815448760986,8.804390907287598,3.0448668003082275
1710889840229905700,0.13990576171875,3.0376882553100586,8.776873588562012,2.8929226398468018
1710889840248864800,0.15886474609375,2.788834810256958,8.890532493591309,2.7397818565368652
1710889840267823600,0.17782373046875,2.609373092651367,8.941978454589844,2.6297121047973633
1710889840286782700,0.19678271484375,2.3808584213256836,9.349954605102539,2.651247501373291
1710889840305741800,0.215741943359375,2.3617160320281982,9.372686386108398,2.403590440750122
1710889840324701000,0.234700927734375,2.414358139038086,9.163313865661621,2.0554347038269043
1710889840343660000,0.253659912109375,2.6703901290893555,8.872586250305176,2.0243279933929443
1710889840362619100,0.272619140625,2.6739792823791504,8.846264839172363,2.231307029724121
1710889840381578000,0.291577880859375,2.5328028202056885,9.008976936340332,2.5256242752075195
1710889840400537000,0.310537109375,2.640479803085327,9.053244590759277,2.7972097396850586
1710889840419496200,0.32949609375,2.748156785964966,8.994620323181152,2.8701908588409424
1710889840438455300,0.348455322265625,2.7050859928131104,9.05444049835205,2.837887763977051
1710889840457414100,0.3674140625,2.4993033409118652,9.237491607666016,2.7912275791168213
1710889840476373200,0.386373291015625,2.368894338607788,9.317651748657227,2.770888566970825
1710889840495332400,0.405332275390625,2.379662036895752,9.198010444641113,2.6177480220794678
1710889840514291500,0.42429150390625,2.379662036895752,9.002995491027832,2.386840581893921
1710889840533250600,0.44325048828125,2.342573404312134,8.924032211303711,2.3306093215942383
1710889840552209700,0.462209716796875,2.307877540588379,8.975478172302246,2.4047868251800537
1710889840571168500,0.48116845703125,2.3198416233062744,9.083154678344727,2.555534601211548
1710889840590127600,0.500127685546875,2.4119651317596436,9.141778945922852,2.664407968521118
1710889840609087000,0.5190869140625,2.4574289321899414,9.135796546936035,2.669193744659424
1710889840628045800,0.5380458984375,2.4023938179016113,9.08674430847168,2.6524438858032227
1710889840647005000,0.5570048828125,2.273181438446045,9.158528327941895,2.606980323791504
1710889840665964000,0.575964111328125,2.204986095428467,9.284152030944824,2.7433712482452393
1710889840684923100,0.594923095703125,2.1858434677124023,9.269794464111328,2.799602508544922
1710889840703882200,0.61388232421875,2.2241287231445312,9.206384658813477,2.806781053543091
1710889840722841300,0.63284130859375,2.2707886695861816,9.119047164916992,2.757728099822998
1710889840741800200,0.65180029296875,2.2779672145843506,9.046066284179688,2.6560330390930176
1710889840760759300,0.67075927734375,2.20737886428833,9.073583602905273,2.5974090099334717
1710889840779718400,0.689718505859375,2.210968017578125,9.159725189208984,2.6596224308013916
1710889840798677500,0.708677490234375,2.304288148880005,9.184849739074707,2.6560330390930176
1710889840817636600,0.72763671875,2.289931297302246,9.186046600341797,2.5938198566436768
1710889840836595700,0.746595703125,2.306680917739868,9.19561767578125,2.548356056213379
1710889840855554800,0.765554931640625,2.225325107574463,9.20279598236084,2.462214469909668
1710889840874514000,0.784513916015625,2.173879384994507,9.230313301086426,2.421536445617676
1710889840893473000,0.80347314453125,2.139183521270752,9.294919967651367,2.420340061187744
1710889840912432000,0.82243212890625,2.155933141708374,9.309276580810547,2.496910333633423
1710889840931391200,0.84139111328125,2.181057929992676,9.226723670959473,2.5399811267852783
1710889840950350000,0.86035009765625,2.2121646404266357,9.183652877807617,2.524427890777588
1710889840969309200,0.87930908203125,2.2133610248565674,9.168100357055664,2.500499725341797
1710889840988268500,0.8982685546875,2.201396942138672,9.175278663635254,2.496910333633423
1710889841007227400,0.917227294921875,2.2432711124420166,9.183652877807617,2.541177749633789
1710889841026186500,0.9361865234375,2.214557409286499,9.206384658813477,2.520838737487793
1710889841045145600,0.9551455078125,2.1403799057006836,9.214759826660156,2.506481647491455
1710889841064104700,0.974104736328125,2.1164517402648926,9.21715259552002,2.4909284114837646
1710889841083063800,0.993063720703125,2.1511476039886475,9.190832138061523,2.5148565769195557
1710889841102023000,1.01202294921875,2.1822543144226074,9.199206352233887,2.4765713214874268
1710889841120982000,1.03098193359375,2.163111686706543,9.192028045654297,2.441875457763672
1710889841139941000,1.049941162109375,2.118844509124756,9.223134994506836,2.465803623199463
1710889841158900200,1.068900146484375,2.1236300468444824,9.242277145385742,2.5782663822174072
1710889841177859300,1.087859375,2.1547367572784424,9.196813583374023,2.5603201389312744
1710889841196818400,1.106818359375,2.170290231704712,9.213563919067383,2.4765713214874268
1710889841215777500,1.125777587890625,2.1882362365722656,9.284152030944824,2.438286304473877
1710889841234736600,1.144736572265625,2.197807550430298,9.273384094238281,2.420340061187744
1710889841253695700,1.16369580078125,2.245664119720459,9.163313865661621,2.3844478130340576
1710889841272655000,1.182655029296875,2.2612173557281494,9.138189315795898,2.30069899559021
1710889841291614000,1.201614013671875,2.1571295261383057,9.199206352233887,2.310270309448242
1710889841310573300,1.2205732421875,2.1308085918426514,9.200403213500977,2.359323024749756
1710889841329532200,1.2395322265625,2.1511476039886475,9.135796546936035,2.4227328300476074
1710889841348491500,1.258491455078125,2.148754835128784,9.068798065185547,2.4717857837677
1710889841367450600,1.27745068359375,2.11405873298645,9.056833267211914,2.4813570976257324
1710889841386409700,1.29640966796875,2.0482561588287354,9.041280746459961,2.4945175647735596
1710889841405368800,1.315368896484375,2.0159530639648438,9.041280746459961,2.5603201389312744
1710889841424328000,1.334327880859375,2.069791555404663,9.052047729492188,2.5746772289276123
1710889841443287000,1.353287109375,2.108076810836792,9.128618240356445,2.5232315063476562
1710889841462246100,1.37224609375,2.059023857116699,9.253045082092285,2.4562325477600098
1710889841481205200,1.391205322265625,2.0267207622528076,9.381061553955078,2.5076780319213867
1710889841500164400,1.410164306640625,2.1056840419769287,9.266205787658691,2.462214469909668
1710889841519123500,1.42912353515625,2.1367905139923096,9.087940216064453,2.3198416233062744
1710889841538082800,1.448082763671875,2.152343988418579,8.956335067749023,2.183450698852539
1710889841557041700,1.467041748046875,2.1882362365722656,8.888139724731445,2.152343988418579
1710889841576001000,1.4860009765625,2.2097716331481934,8.839086532592773,2.1379871368408203
1710889841594960100,1.504960205078125,2.1846470832824707,8.782855987548828,2.1774685382843018
1710889841613919200,1.523919189453125,2.045863389968872,8.834300994873047,2.2719850540161133
1710889841632878300,1.54287841796875,1.8508483171463013,9.061619758605957,2.4430718421936035
1710889841651837400,1.56183740234375,1.6247265338897705,9.357132911682129,2.693121910095215
1710889841670796500,1.580796630859375,1.5158531665802002,9.601201057434082,2.932404041290283
1710889841689755600,1.599755615234375,1.4333007335662842,9.749555587768555,3.016152858734131
1710889841708714800,1.61871484375,1.4033905267715454,9.832108497619629,2.9479575157165527
1710889841727674000,1.637674072265625,1.412961721420288,9.796216011047363,2.806781053543091
1710889841746633200,1.65663330078125,1.3962119817733765,9.726823806762695,2.6464617252349854
1710889841765592300,1.67559228515625,1.3459627628326416,9.724431037902832,2.469393014907837
1710889841784551400,1.694551513671875,1.2681959867477417,9.76989459991455,2.1930220127105713
1710889841803510500,1.713510498046875,1.2442678213119507,9.822537422180176,1.911865234375
1710889841822470000,1.732469970703125,1.2837493419647217,9.907482147216797,1.7168502807617188
1710889841841428700,1.7514287109375,1.3088740110397339,9.998409271240234,1.6235301494598389
1710889841860388000,1.77038818359375,1.290927767753601,10.070194244384766,1.550549030303955
1710889841879347200,1.78934716796875,1.231107234954834,10.113265037536621,1.552941918373108
1710889841898306300,1.808306396484375,1.210768222808838,10.187442779541016,1.6761722564697266
1710889841917265400,1.827265380859375,1.215553879737854,10.218548774719238,1.7467604875564575
1710889841936224800,1.846224853515625,1.2658032178878784,10.130014419555664,1.6618152856826782
1710889841955183600,1.86518359375,1.353141188621521,9.847661972045898,1.397408366203308
1710889841974143000,1.88414306640625,1.5278172492980957,9.571290969848633,1.1282159090042114
1710889841993102000,1.90310205078125,1.6869399547576904,9.42772102355957,0.9044869542121887
1710889842012061200,1.922061279296875,1.872383713722229,9.360722541809082,0.8327022790908813
1710889842031020300,1.941020263671875,2.146361827850342,9.329615592956543,0.8685946464538574
1710889842049979600,1.959979736328125,2.313859462738037,9.437292098999023,0.8578268885612488
1710889842068938800,1.978938720703125,2.338984251022339,9.497113227844238,0.8937192559242249
1710889842087897900,1.99789794921875,2.3294129371643066,9.388239860534668,0.8410771489143372
1710889842106857000,2.01685693359375,2.407179594039917,9.244669914245605,0.6819544434547424
1710889842125816300,2.03581640625,2.5423741340637207,9.018548965454102,0.6616154313087463
1710889842144775400,2.054775390625,2.7074787616729736,8.833105087280273,0.7154539823532104
1710889842163734500,2.073734619140625,2.7517459392547607,8.839086532592773,0.9128618240356445
1710889842182693600,2.092693603515625,2.724228620529175,9.042476654052734,1.1306086778640747
1710889842201652700,2.11165283203125,2.8115665912628174,9.231510162353516,1.3160524368286133
1710889842220611800,2.13061181640625,2.9479575157165527,9.298508644104004,1.3818551301956177
1710889842239571200,2.1495712890625,3.0005996227264404,9.308079719543457,1.3232308626174927
1710889842258530300,2.1685302734375,2.8701908588409424,9.134600639343262,1.2658032178878784
1710889842277489400,2.187489501953125,2.8965117931365967,9.09272575378418,1.2287144660949707
1710889842296448500,2.206448486328125,2.8342983722686768,9.168100357055664,1.0923235416412354
1710889842315408000,2.225407958984375,2.9204399585723877,9.105886459350586,1.1126625537872314
1710889842334367000,2.244366943359375,2.988635540008545,8.906085968017578,1.1377872228622437
1710889842353326000,2.263326171875,3.1166515350341797,8.924032211303711,1.1617153882980347
1710889842372285400,2.282285400390625,3.126222848892212,9.044869422912598,1.0875378847122192
1710889842391244500,2.30124462890625,3.0963125228881836,8.992227554321289,1.0671988725662231
1710889842410203600,2.32020361328125,3.170490026473999,9.028120040893555,1.0480563640594482
1710889842429163000,2.3391630859375,3.2338998317718506,9.169296264648438,0.9176474809646606
1710889842448122000,2.3581220703125,3.146561861038208,9.154939651489258,0.6460621356964111
1710889842467081200,2.377081298828125,3.1238300800323486,9.04845905303955,0.45583271980285645
1710889842486040300,2.396040283203125,3.170490026473999,9.040083885192871,0.4785645306110382
1710889842504999700,2.414999755859375,3.19441819190979,9.09990406036377,0.6915257573127747
1710889842523958800,2.433958740234375,3.1932218074798584,9.150154113769531,0.8578268885612488
1710889842542918000,2.45291796875,3.1585259437561035,9.154939651489258,0.7716853022575378
1710889842561877000,2.471876953125,3.1764719486236572,9.096315383911133,0.6125625967979431
1710889842580836400,2.49083642578125,3.1968109607696533,9.008976936340332,0.47258245944976807
1710889842599795500,2.50979541015625,3.050848960876465,8.965906143188477,0.4342973232269287
1710889842618754600,2.528754638671875,2.937189817428589,8.980263710021973,0.5324030518531799
1710889842637714000,2.5477138671875,3.012563705444336,9.006584167480469,0.745364248752594
1710889842656673000,2.566673095703125,3.0903303623199463,9.07717227935791,0.8051848411560059
1710889842675632000,2.585632080078125,3.115455150604248,9.21715259552002,0.8063812255859375
1710889842694591200,2.60459130859375,3.1968109607696533,9.351150512695312,0.7322037220001221
1710889842713550600,2.623550537109375,3.2027931213378906,9.347561836242676,0.7657032608985901
1710889842732509700,2.642509765625,3.115455150604248,9.206384658813477,1.031306505203247
1710889842751469000,2.661468994140625,3.043670415878296,9.151350021362305,1.384247899055481
1710889842770428200,2.68042822265625,2.8701908588409424,9.139386177062988,1.5672988891601562
1710889842789387300,2.69938720703125,2.737389087677002,9.05444049835205,1.4763715267181396
1710889842808346400,2.718346435546875,2.528017044067383,8.979066848754883,1.534995675086975
1710889842827305700,2.7373056640625,2.445464849472046,8.98385238647461,1.6965112686157227
1710889842846264800,2.756264892578125,2.500499725341797,9.04845905303955,1.6845471858978271
1710889842865224000,2.775223876953125,2.444268226623535,9.103493690490723,1.8065811395645142
1710889842884183300,2.794183349609375,2.4945175647735596,9.072386741638184,1.852044701576233
1710889842903142400,2.813142333984375,2.4765713214874268,9.157332420349121,1.7611174583435059
1710889842922101500,2.8321015625,2.3365912437438965,9.42173957824707,1.7216359376907349
1710889842941060900,2.851060791015625,2.342573404312134,10.072587013244629,1.7479569911956787
1710889842960020000,2.87002001953125,2.2959132194519043,10.906485557556152,1.8699909448623657
1710889842978979000,2.88897900390625,2.1296122074127197,11.115857124328613,1.9262222051620483
1710889842997938400,2.9079384765625,2.1272194385528564,10.548758506774902,1.872383713722229
1710889843016897500,2.9268974609375,2.073380708694458,9.712467193603516,1.6869399547576904
1710889843035856600,2.945856689453125,2.0650060176849365,9.128618240356445,1.4428720474243164
1710889843054816000,2.96481591796875,2.1439690589904785,8.915657043457031,1.1282159090042114
1710889843073775000,2.983775146484375,2.297109842300415,8.892925262451172,0.9427721500396729
1710889843092734500,3.002734375,2.1918256282806396,8.924032211303711,1.0013962984085083
1710889843111693600,3.021693603515625,1.820937991142273,9.020941734313965,1.222732424736023
1710889843130652700,3.040652587890625,1.867598056793213,9.316454887390137,1.3794622421264648
1710889843149611800,3.05961181640625,2.2085752487182617,9.625128746032715,1.4368900060653687
1710889843168571100,3.078571044921875,2.321038007736206,9.625128746032715,1.4141582250595093
1710889843187530200,3.0975302734375,2.1511476039886475,9.353543281555176,1.3746765851974487
1710889843206489300,3.1164892578125,1.939382791519165,9.377471923828125,1.3268201351165771
1710889843225448700,3.13544873046875,1.852044701576233,9.519845008850098,1.2705888748168945
1710889843244407800,3.15440771484375,1.903490424156189,9.257830619812012,1.5326029062271118
1710889843263367200,3.1733671875,1.8185452222824097,9.059226989746094,1.7958134412765503
1710889843282326300,3.192326171875,1.6151553392410278,9.109476089477539,1.8496519327163696
1710889843301285400,3.211285400390625,1.5182459354400635,9.242277145385742,2.0003998279571533
1710889843320244700,3.23024462890625,1.6115660667419434,9.481559753417969,2.3258235454559326
1710889843339203800,3.249203857421875,1.8496519327163696,9.547362327575684,2.5160529613494873
1710889843358163200,3.2681630859375,1.9405791759490967,9.591629981994629,2.455035924911499
1710889843377122300,3.287122314453125,1.8149559497833252,9.695717811584473,2.328216314315796
1710889843396081700,3.30608154296875,1.6761722564697266,9.76391315460205,2.23848557472229
1710889843415040800,3.325040771484375,1.6402798891067505,9.675378799438477,2.1714866161346436
1710889843434000000,3.343999755859375,1.5852450132369995,9.491130828857422,2.1068804264068604
1710889843452959200,3.362959228515625,1.5337992906570435,9.34157943725586,1.9058831930160522
1710889843471918300,3.38191845703125,1.5002998113632202,9.302098274230957,1.750349760055542
1710889843490877400,3.40087744140625,1.4811571836471558,9.399007797241211,1.8305093050003052
1710889843509836800,3.4198369140625,1.5601203441619873,9.585647583007812,1.94297194480896
1710889843528796000,3.4387958984375,1.6869399547576904,9.829715728759766,2.0171494483947754
1710889843547755000,3.457755126953125,1.7132610082626343,9.865608215332031,2.124826431274414
1710889843566714400,3.47671435546875,1.6510475873947144,9.512666702270508,2.2983062267303467
1710889843585673500,3.495673583984375,1.470389485359192,9.407382011413574,2.335394859313965
1710889843604632800,3.5146328125,1.4679967164993286,9.317651748657227,2.396411895751953
1710889843623592000,3.533592041015625,1.7228323221206665,9.133403778076172,2.416750907897949
1710889843642551300,3.55255126953125,1.8532410860061646,9.147761344909668,2.3365912437438965
1710889843661510400,3.571510498046875,1.7252250909805298,9.19561767578125,2.0578274726867676
1710889843680469500,3.590469482421875,1.4859428405761719,9.109476089477539,1.7850457429885864
1710889843699428900,3.609428955078125,1.4452649354934692,9.148957252502441,1.6079767942428589
1710889843718388000,3.628387939453125,1.557727575302124,9.340383529663086,1.5876377820968628
1710889843737347300,3.647347412109375,1.5302101373672485,9.408578872680664,1.6175481081008911
1710889843756306400,3.666306396484375,1.4225330352783203,9.54377269744873,1.7407784461975098
1710889843775265500,3.685265625,1.1497513055801392,9.513862609863281,1.856830358505249
1710889843794225000,3.704224853515625,1.2047861814498901,9.245866775512695,1.7431713342666626
1710889843813184000,3.72318408203125,1.054038405418396,9.261420249938965,1.8245272636413574
1710889843832143400,3.742143310546875,0.8925228714942932,9.263813018798828,1.8903298377990723
1710889843851102500,3.7611025390625,1.129412293434143,9.45045280456543,1.7670994997024536
1710889843870061800,3.780061767578125,1.26699960231781,9.976874351501465,1.9441684484481812
1710889843889021000,3.79902099609375,1.2299108505249023,10.223334312438965,2.200200319290161
1710889843907980300,3.817980224609375,1.470389485359192,10.29153060913086,2.4191436767578125
1710889843926939400,3.836939453125,1.7994025945663452,10.444670677185059,2.6045875549316406
1710889843945898800,3.855898681640625,2.26959228515625,10.3621187210083,2.733799934387207
1710889843964857900,3.87485791015625,3.095116138458252,10.465009689331055,3.159722328186035
1710889843983817000,3.89381689453125,3.3966116905212402,10.557133674621582,3.882354736328125
1710889844002776300,3.9127763671875,3.2374889850616455,9.626325607299805,3.9421753883361816
1710889844021735400,3.9317353515625,3.5066816806793213,8.299505233764648,2.9527430534362793
1710889844040694800,3.95069482421875,3.4241292476654053,7.517052173614502,1.6067804098129272
1710889844059654000,3.96965380859375,3.0388846397399902,7.21316385269165,0.24287149310112
1710889844078613000,3.988613037109375,2.7433712482452393,7.432106971740723,-0.5814558863639832
1710889844097572400,4.007572265625,2.5471596717834473,8.329415321350098,-0.8183453679084778
1710889844116531500,4.026531494140625,2.4502503871917725,9.589237213134766,-0.4055834412574768
1710889844135490800,4.04549072265625,2.720639228820801,10.159924507141113,0.3326023519039154
1710889844154450000,4.064449951171875,3.1310083866119385,10.077372550964355,1.0683952569961548
1710889844173409000,4.083408935546875,3.6167514324188232,9.775876998901367,1.4739787578582764
1710889844192368400,4.102368408203125,4.068994998931885,9.585647583007812,1.6450655460357666
1710889844211327700,4.12132763671875,4.301098823547363,9.263813018798828,1.6259230375289917
1710889844230286800,4.140286865234375,4.208974838256836,8.803194046020508,1.4919248819351196
1710889844249246200,4.15924609375,3.9349968433380127,8.384450912475586,1.2957134246826172
1710889844268205300,4.178205322265625,3.755535125732422,8.133204460144043,1.0600204467773438
1710889844287164700,4.19716455078125,3.623929977416992,8.043473243713379,0.8255237936973572
1710889844306123800,4.216123779296875,3.5222349166870117,8.038687705993652,0.5850451588630676
1710889844325083000,4.235082763671875,3.372683525085449,8.154739379882812,0.4450650215148926
1710889844344042200,4.254042236328125,3.377469062805176,8.343772888183594,0.4498506486415863
1710889844363001300,4.27300146484375,3.497110366821289,8.578269004821777,0.5814558863639832
1710889844381960700,4.291960693359375,3.5437703132629395,8.804390907287598,0.8171489238739014
1710889844400919800,4.310919921875,3.4815568923950195,9.068798065185547,1.0085747241973877
1710889844419879200,4.329879150390625,3.3990044593811035,9.231510162353516,1.1988041400909424
1710889844438838300,4.34883837890625,3.3583266735076904,9.267401695251465,1.277767300605774
1710889844457797600,4.367797607421875,3.328416347503662,9.312865257263184,1.2945170402526855
1710889844476756700,4.3867568359375,3.214757204055786,9.387042999267578,1.3004990816116333
1710889844495716000,4.405716064453125,3.0352954864501953,9.433703422546387,1.3746765851974487
1710889844514675200,4.42467529296875,2.8701908588409424,9.330811500549316,1.4679967164993286
1710889844533634600,4.443634521484375,2.7086751461029053,9.162117958068848,1.4739787578582764
1710889844552593700,4.46259375,2.528017044067383,9.049654960632324,1.4536397457122803
1710889844571553000,4.481552978515625,2.562713146209717,8.980263710021973,1.34476637840271
1710889844590512000,4.50051220703125,2.7517459392547607,8.958727836608887,1.1413763761520386
1710889844609471200,4.51947119140625,2.8043880462646484,8.964710235595703,0.9990034699440002
1710889844628430600,4.5384306640625,2.6608188152313232,9.139386177062988,0.989432156085968
1710889844647390000,4.557389892578125,2.407179594039917,9.415757179260254,1.0827522277832031
1710889844666349000,4.57634912109375,2.3234307765960693,9.456435203552246,1.124626636505127
1710889844685308400,4.595308349609375,2.4741785526275635,9.280562400817871,1.25144624710083
1710889844704267500,4.614267578125,2.56510591506958,9.146564483642578,1.415354609489441
1710889844723227000,4.633226806640625,2.5423741340637207,9.30329418182373,1.5996019840240479
1710889844742186000,4.65218603515625,2.5459632873535156,9.761520385742188,1.832902193069458
1710889844761145000,4.67114501953125,2.5567309856414795,10.112068176269531,1.9214365482330322
1710889844780104400,4.6901044921875,2.4646072387695312,10.177870750427246,1.8759729862213135
1710889844799063600,4.7090634765625,2.1750757694244385,10.130014419555664,1.695314884185791
1710889844818023000,4.72802294921875,1.9513468742370605,9.873982429504395,1.495514154434204
1710889844836982300,4.746982177734375,1.836491346359253,9.44327449798584,1.4321043491363525
1710889844855941400,4.76594140625,1.6893328428268433,8.925228118896484,1.5493526458740234
1710889844874900500,4.784900390625,1.5744773149490356,8.592626571655273,1.6618152856826782
1710889844893859800,4.80385986328125,1.4763715267181396,8.608179092407227,1.7611174583435059
1710889844912819000,4.82281884765625,1.4835500717163086,8.800801277160645,1.8352949619293213
1710889844931778300,4.8417783203125,1.7001005411148071,8.864211082458496,1.7850457429885864
1710889844950737400,4.8607373046875,1.852044701576233,8.998209953308105,1.6630117893218994
1710889844969696800,4.87969677734375,1.8005990982055664,9.349954605102539,1.667797327041626
1710889844988656000,4.89865625,1.7048860788345337,9.588040351867676,1.8005990982055664
1710889845007615200,4.917615234375,1.6187444925308228,9.675378799438477,1.7886348962783813
1710889845026574300,4.93657421875,1.5672988891601562,9.844072341918945,1.588834285736084
1710889845045533700,4.95553369140625,1.466800332069397,10.03310489654541,1.4021940231323242
1710889845064492800,4.974492919921875,1.3052847385406494,10.171889305114746,1.322034478187561
1710889845083452200,4.9934521484375,1.0648061037063599,10.289137840270996,1.2478569746017456
1710889845102411500,5.01241162109375,0.7920243144035339,10.310672760009766,1.0707881450653076
1710889845121370600,5.03137060546875,0.6245267391204834,10.359725952148438,1.0097711086273193
1710889845140330000,5.050330078125,0.49292147159576416,10.334601402282715,1.222732424736023
1710889845159289000,5.0692890625,0.5431707501411438,10.169496536254883,1.3423734903335571
1710889845178248200,5.088248291015625,0.6340979933738708,10.015159606933594,1.3663017749786377
1710889845197207600,5.10720751953125,0.672383189201355,9.875179290771484,1.2813565731048584
1710889845216167000,5.1261669921875,0.6017948985099792,9.707681655883789,1.210768222808838
1710889845235126000,5.1451259765625,0.42352959513664246,9.716055870056152,1.2550355195999146
1710889845254085400,5.16408544921875,0.1052841991186142,9.68494987487793,1.171286702156067
1710889845273044500,5.18304443359375,0.02153540402650833,9.546165466308594,0.698704183101654
1710889845292003800,5.20200390625,0.22133609652519226,9.355937004089355,0.24406790733337402
1710889845310963000,5.220962890625,0.46061834692955017,9.306883811950684,0.46779683232307434
1710889845329922300,5.23992236328125,0.2679961323738098,9.56889820098877,1.073180913925171
1710889845348881400,5.25888134765625,0.5312066078186035,9.790233612060547,1.6295121908187866
1710889845367840800,5.2778408203125,0.9403793215751648,9.720842361450195,1.5194423198699951
1710889845386799900,5.2967998046875,0.9296116232872009,9.509077072143555,0.9068797826766968
1710889845405759200,5.31575927734375,0.6161518096923828,9.573683738708496,0.5467599630355835
1710889845424718300,5.33471826171875,0.20817556977272034,9.811769485473633,0.589830756187439
1710889845443677700,5.353677734375,0.3768695592880249,9.891928672790527,1.058824062347412
1710889845462637000,5.372636962890625,0.6711867451667786,9.780662536621094,1.0552347898483276
1710889845481596200,5.39159619140625,0.38644084334373474,9.615557670593262,0.40677985548973083
1710889845500555500,5.410555419921875,-0.1052841991186142,9.594022750854492,0.1866401731967926
1710889845519514600,5.4295146484375,0.06819544732570648,9.77109146118164,0.4821537733078003
1710889845538473700,5.4484736328125,0.3732803463935852,10.168299674987793,0.7034898400306702
1710889845557433000,5.46743310546875,0.3888336718082428,10.065408706665039,0.7776673436164856
1710889845576392400,5.486392333984375,0.2105683982372284,9.780662536621094,0.794417142868042
1710889845595351600,5.5053515625,-0.20817556977272034,9.783055305480957,0.9978070259094238
1710889845614311000,5.524310791015625,-0.3756731450557709,9.853643417358398,1.3639088869094849
1710889845633270000,5.54327001953125,-0.04785645380616188,9.68494987487793,1.7204394340515137
1710889845652229400,5.5622294921875,0.4570291340351105,9.507881164550781,1.9489539861679077
1710889845671188700,5.581188720703125,0.729810893535614,9.585647583007812,2.0757737159729004
1710889845690147800,5.60014794921875,0.6807580590248108,9.90987491607666,2.204986095428467
1710889845709107000,5.61910693359375,0.5168496966362,10.169496536254883,2.1774685382843018
1710889845728066300,5.63806640625,0.4546363055706024,10.210174560546875,1.8747764825820923
1710889845747025400,5.657025390625,0.5168496966362,10.00439167022705,1.2849457263946533
1710889845765984800,5.67598486328125,0.5611169338226318,9.731609344482422,0.9332008361816406
1710889845784944000,5.694944091796875,0.6400800347328186,9.616754531860352,0.7465606927871704
1710889845803903200,5.7139033203125,0.6089733839035034,9.638289451599121,0.7860422134399414
1710889845822862600,5.732862548828125,0.6460621356964111,9.616754531860352,0.9152546525001526
1710889845841821700,5.75182177734375,0.7310073375701904,9.54496955871582,1.01814603805542
1710889845860781000,5.770781005859375,0.8482556343078613,9.473184585571289,1.0636097192764282
1710889845879740400,5.789740478515625,0.9702895879745483,9.651450157165527,1.100698471069336
1710889845898699500,5.808699462890625,0.8781659007072449,9.913464546203613,1.3184453248977661
1710889845917658600,5.82765869140625,0.8183453679084778,9.948160171508789,1.7994025945663452
1710889845936618000,5.846617919921875,0.9379864931106567,9.91107177734375,2.1750757694244385
1710889845955577300,5.865577392578125,1.1784651279449463,9.884750366210938,2.3473589420318604
1710889845974536400,5.884536376953125,1.3567304611206055,9.674181938171387,2.2325034141540527
1710889845993495800,5.903495849609375,1.399801254272461,9.517452239990234,1.9489539861679077
1710889846012455000,5.922454833984375,1.3722838163375854,9.58205795288086,1.6319050788879395
1710889846031414300,5.941414306640625,1.4919248819351196,9.682557106018066,1.3256237506866455
1710889846050373600,5.96037353515625,1.6450655460357666,9.723235130310059,1.1318050622940063
1710889846069332700,5.979332763671875,1.6426727771759033,9.680164337158203,1.0707881450653076
1710889846088292000,5.9982919921875,1.5852450132369995,9.622735977172852,1.129412293434143
1710889846107251200,6.017251220703125,1.703689694404602,9.528220176696777,1.176072359085083
1710889846126210600,6.03621044921875,1.919043779373169,9.42173957824707,1.2837493419647217
1710889846145169700,6.055169677734375,2.0410776138305664,9.395418167114258,1.4763715267181396
1710889846164129000,6.07412890625,1.9872392416000366,9.21715259552002,1.5553346872329712
1710889846183088400,6.09308837890625,1.903490424156189,8.987442016601562,1.4871392250061035
1710889846202047500,6.112047607421875,1.9334007501602173,8.96829891204834,1.428515076637268
1710889846221006800,6.1310068359375,1.9262222051620483,9.198010444641113,1.4093725681304932
1710889846239966000,6.149966064453125,1.9621145725250244,9.43609619140625,1.5038890838623047
1710889846258925300,6.16892529296875,1.9884356260299683,9.584450721740723,1.5254244804382324
1710889846277884700,6.187884765625,2.203789710998535,9.708877563476562,1.6558332443237305
1710889846296843800,6.20684375,2.2671995162963867,9.65384292602539,1.6977076530456543
1710889846315803100,6.22580322265625,2.159522533416748,9.710074424743652,1.667797327041626
1710889846334762500,6.244762451171875,2.1200408935546875,9.717252731323242,1.633101463317871
1710889846353721600,6.2637216796875,2.1092731952667236,9.522237777709961,1.6462619304656982
1710889846372681000,6.282680908203125,2.0757737159729004,9.373882293701172,1.7623138427734375
1710889846391640000,6.30164013671875,2.063809633255005,9.262616157531738,1.8747764825820923
1710889846410599400,6.320599365234375,2.1056840419769287,9.241081237792969,1.9357935190200806
1710889846429558800,6.339558837890625,2.139183521270752,9.346364974975586,1.97407865524292
1710889846448518000,6.358517822265625,2.100898265838623,9.384650230407715,1.923829436302185
1710889846467477200,6.377477294921875,2.0506489276885986,9.495916366577148,1.8293129205703735
1710889846486436600,6.3964365234375,1.963310956954956,9.607182502746582,1.7491533756256104
1710889846505395700,6.415395751953125,2.008774518966675,9.5533447265625,1.550549030303955
1710889846524355000,6.43435498046875,2.043470621109009,9.726823806762695,1.3770694732666016
1710889846543314400,6.453314453125,2.0614166259765625,9.968499183654785,1.4069796800613403
1710889846562273500,6.4722734375,2.1822543144226074,10.106086730957031,1.506281852722168
1710889846581233000,6.49123291015625,2.324627161026001,9.90987491607666,1.5637096166610718
1710889846600192300,6.510192138671875,2.4765713214874268,9.479166984558105,1.5912270545959473
1710889846619151600,6.529151611328125,2.6081767082214355,9.162117958068848,1.5696916580200195
1710889846638110700,6.54811083984375,2.6321048736572266,9.07119083404541,1.534995675086975
1710889846657070000,6.567070068359375,2.695514678955078,9.255437850952148,1.633101463317871
1710889846676029400,6.586029541015625,2.8007988929748535,9.347561836242676,1.8616160154342651
1710889846694988500,6.604988525390625,3.0939197540283203,9.133403778076172,1.9022940397262573
1710889846713948000,6.623947998046875,3.403790235519409,8.910871505737305,1.7156537771224976
1710889846732907300,6.6429072265625,3.3846476078033447,9.126225471496582,1.5828521251678467
1710889846751866600,6.66186669921875,3.0855448246002197,9.43609619140625,1.5254244804382324
1710889846770825700,6.68082568359375,2.9479575157165527,9.628718376159668,1.5302101373672485
1710889846789785000,6.69978515625,3.0795626640319824,9.479166984558105,1.4943177700042725
1710889846808744400,6.718744384765625,3.260220766067505,9.312865257263184,1.4321043491363525
1710889846827703600,6.73770361328125,3.22552490234375,9.282955169677734,1.384247899055481
1710889846846663000,6.756662841796875,3.1692936420440674,9.132207870483398,1.4775680303573608
1710889846865622300,6.775622314453125,3.3690943717956543,8.69910717010498,1.5014961957931519
1710889846884581600,6.79458154296875,3.61435866355896,8.484949111938477,1.2813565731048584
1710889846903541000,6.813541015625,3.7471601963043213,8.530412673950195,1.0600204467773438
1710889846922500000,6.8325,3.8560338020324707,8.176275253295898,0.8159525394439697
1710889846941459500,6.85145947265625,4.000799655914307,7.8041911125183105,0.6903293132781982
1710889846960418800,6.870418701171875,4.01754903793335,7.893921852111816,0.7932206988334656
1710889846979378200,6.889378173828125,4.006781578063965,8.39282512664795,1.1808580160140991
1710889846998337300,6.908337158203125,3.9864425659179688,8.776873588562012,1.550549030303955
1710889847017296600,6.927296630859375,4.018745422363281,8.981459617614746,1.9812572002410889
1710889847036256000,6.946256103515625,4.092923164367676,8.833105087280273,2.2815563678741455
1710889847055215400,6.96521533203125,4.1347975730896,8.50289535522461,2.3736801147460938
1710889847074174700,6.9841748046875,4.168296813964844,8.301898002624512,2.307877540588379
1710889847093133800,7.0031337890625,4.1659040451049805,8.331808090209961,2.115255117416382
1710889847112093200,7.02209326171875,4.120440483093262,8.384450912475586,1.8628123998641968
1710889847131052500,7.041052490234375,4.169493675231934,8.344968795776367,1.5900306701660156
1710889847150012000,7.060011962890625,4.244867324829102,8.234899520874023,1.3423734903335571
1710889847168971300,7.07897119140625,4.18863582611084,8.243273735046387,1.1581261157989502
1710889847187930600,7.0979306640625,4.212564468383789,8.508877754211426,1.2921242713928223
1710889847206890000,7.116889892578125,4.204189300537109,8.742177963256836,1.5541383028030396
1710889847225849000,7.13584912109375,4.168296813964844,8.810373306274414,1.8077775239944458
1710889847244808400,7.154808349609375,4.213760852813721,8.707481384277344,1.95852530002594
1710889847263767800,7.173767822265625,4.429114818572998,8.415556907653809,1.7766708135604858
1710889847282727200,7.19272705078125,4.3788652420043945,8.300702095031738,1.4572290182113647
1710889847301686500,7.2116865234375,4.217350006103516,8.608179092407227,1.3555340766906738
1710889847320646000,7.23064599609375,4.286741733551025,8.874979019165039,1.3459627628326416
1710889847339605000,7.24960498046875,4.537988185882568,8.758927345275879,1.2287144660949707
1710889847358564400,7.268564453125,4.609772682189941,8.467002868652344,0.9451649188995361
1710889847377523700,7.287523681640625,4.509274482727051,8.307880401611328,0.6963114142417908
1710889847396483000,7.306483154296875,4.358526229858398,8.282755851745605,0.7417750358581543
1710889847415442400,7.3254423828125,4.321437835693359,8.417949676513672,1.0061819553375244
1710889847434401800,7.34440185546875,4.363312244415283,8.805587768554688,1.293320655822754
1710889847453361200,7.363361083984375,4.596612453460693,8.876175880432129,1.2813565731048584
1710889847472320500,7.382320556640625,4.865804672241211,8.416753768920898,0.7908278703689575
1710889847491280000,7.40127978515625,4.813162803649902,7.954938888549805,0.3768695592880249
1710889847510239200,7.4202392578125,4.628915309906006,7.927421569824219,0.2799602448940277
1710889847529198300,7.4391982421875,4.467400074005127,8.26241683959961,0.2632105052471161
1710889847548157700,7.45815771484375,4.418346881866455,8.513663291931152,0.3074777126312256
1710889847567117000,7.477116943359375,4.590630054473877,8.264809608459473,0.3409772217273712
1710889847586076400,7.496076416015625,4.776073932647705,7.899903774261475,0.28235307335853577
1710889847605035800,7.515035888671875,4.811966419219971,8.009973526000977,0.3577269911766052
1710889847623995100,7.5339951171875,4.797609329223633,8.178668022155762,0.30508488416671753
1710889847642954500,7.55295458984375,4.9052863121032715,8.065009117126465,0.0011964113218709826
1710889847661913900,7.571913818359375,5.040481090545654,7.832904815673828,-0.42352959513664246
1710889847680873200,7.590873291015625,4.996213912963867,7.75753116607666,-0.6556333899497986
1710889847699832600,7.60983251953125,4.972285270690918,7.848458290100098,-0.6628118753433228
1710889847718792000,7.6287919921875,4.932804107666016,7.9621171951293945,-0.672383189201355
1710889847737751300,7.647751220703125,4.861019134521484,7.844869136810303,-0.7513462901115417
1710889847756710700,7.666710693359375,4.851448059082031,7.4500532150268555,-1.0145567655563354
1710889847775670000,7.685669921875,4.833501815795898,7.204789161682129,-1.2023934125900269
1710889847794629400,7.70462939453125,4.792823791503906,7.33759069442749,-1.2490534782409668
1710889847813588700,7.723588623046875,4.711467742919922,7.503891944885254,-1.4691931009292603
1710889847832548000,7.742548095703125,4.777270317077637,7.463213920593262,-1.4775680303573608
1710889847851507500,7.761507568359375,4.924428939819336,7.420143127441406,-1.4584254026412964
1710889847870466800,7.780466796875,4.908875465393066,7.500302791595459,-1.6498512029647827
1710889847889426200,7.79942626953125,5.004588603973389,7.369893550872803,-2.0159530639648438
1710889847908385500,7.818385498046875,5.279763221740723,7.2430739402771,-2.520838737487793
1710889847927345000,7.837344970703125,5.229514122009277,7.392625331878662,-2.8426733016967773
1710889847946304300,7.85630419921875,4.962714195251465,7.440482139587402,-2.895315408706665
1710889847965263600,7.875263671875,5.065605640411377,7.458428382873535,-2.6045875549316406
1710889847984223000,7.894222900390625,5.382654666900635,7.5637125968933105,-2.2983062267303467
1710889848003182300,7.913182373046875,5.613562107086182,7.6666035652160645,-2.4634108543395996
1710889848022141700,7.9321416015625,5.819344520568848,7.685746192932129,-2.909672260284424
1710889848041101000,7.95110107421875,5.994020938873291,7.609176158905029,-3.249453067779541
1710889848060060400,7.970060302734375,6.128018856048584,7.506284713745117,-3.2171499729156494
1710889848079019800,7.989019775390625,5.959324836730957,7.41535758972168,-3.3511481285095215
1710889848097979100,8.007979248046874,5.746363639831543,7.2059855461120605,-3.6023945808410645
1710889848116938800,8.026938720703125,5.838487148284912,6.954739093780518,-3.7818562984466553
1710889848135898000,8.045898193359376,6.0849480628967285,6.67717170715332,-3.9972102642059326
1710889848154857500,8.064857421875,5.752345561981201,6.465406894683838,-4.253242015838623
1710889848173816800,8.08381689453125,5.498706340789795,6.543173313140869,-3.9768712520599365
1710889848192776200,8.102776123046874,5.836094379425049,6.607779502868652,-3.6370904445648193
1710889848211735600,8.121735595703125,6.055037498474121,6.370890140533447,-3.7782669067382812
1710889848230695000,8.14069482421875,6.1710896492004395,5.995217323303223,-3.9972102642059326
1710889848249654300,8.159654296875,6.01675271987915,5.8133625984191895,-4.225724697113037
1710889848268613600,8.178613525390626,5.779862880706787,5.715256690979004,-4.2592244148254395
1710889848287573000,8.197572998046875,5.848058700561523,5.61954402923584,-4.291527271270752
1710889848306532400,8.216532470703125,5.997610092163086,5.528616905212402,-4.697110652923584
1710889848325491700,8.23549169921875,5.894718647003174,5.359922885894775,-5.186442852020264
1710889848344451300,8.254451416015625,5.997610092163086,5.023731231689453,-5.583651542663574
1710889848363410700,8.27341064453125,5.812166213989258,4.660022258758545,-6.088537216186523
1710889848382370000,8.2923701171875,5.523830890655518,4.847858905792236,-6.380461692810059
1710889848401329400,8.311329345703125,5.399404525756836,5.330012321472168,-6.34217643737793
1710889848420288800,8.330288818359374,5.694917678833008,5.140979290008545,-6.33499813079834
1710889848439248100,8.349248046875,6.177071571350098,4.2209391593933105,-6.914061069488525
1710889848458207500,8.36820751953125,6.281159400939941,3.689732551574707,-7.456035137176514
1710889848477166800,8.387166748046875,5.960521221160889,3.814159393310547,-7.2335028648376465
1710889848496126500,8.40612646484375,5.935396671295166,3.8763725757598877,-6.482156753540039
1710889848515085800,8.4250859375,6.49770975112915,3.4025938510894775,-6.003592014312744
1710889848534045200,8.444045166015625,7.420143127441406,2.6321048736572266,-6.057430744171143
1710889848553004500,8.463004638671874,7.65583610534668,2.2097716331481934,-6.25723123550415
1710889848571964000,8.4819638671875,7.490731239318848,2.6297121047973633,-5.96171760559082
1710889848590923300,8.50092333984375,7.36032247543335,3.3786656856536865,-5.523830890655518
1710889848609883000,8.5198828125,7.499105930328369,3.504288673400879,-5.003392219543457
1710889848628842200,8.53884228515625,7.708477973937988,2.857030153274536,-4.5200419425964355
1710889848647801600,8.557801513671874,7.616354465484619,2.2959132194519043,-4.602594375610352
1710889848666761000,8.576760986328125,7.444071292877197,2.128415822982788,-4.744967460632324
1710889848685720300,8.59572021484375,7.3304123878479,2.062613010406494,-4.804787635803223
1710889848704679700,8.6146796875,7.470392227172852,2.1990039348602295,-5.069194793701172
1710889848723639000,8.63363916015625,7.58644437789917,2.383251428604126,-5.330012321472168
1710889848742598700,8.6525986328125,8.019545555114746,2.0997018814086914,-5.355136871337891
1710889848761558000,8.67155810546875,8.124829292297363,1.828116536140442,-5.714060306549072
1710889848780517400,8.690517333984374,7.751548767089844,1.8269200325012207,-5.825326919555664
1710889848799476700,8.709476806640625,7.445267677307129,1.9405791759490967,-5.86002254486084
1710889848818436400,8.728436279296876,7.447660446166992,2.423929452896118,-5.615954875946045
1710889848837395700,8.747395751953125,7.501499176025391,3.1932218074798584,-4.855037212371826
1710889848856355000,8.76635498046875,7.752745151519775,3.4337005615234375,-3.765106439590454
1710889848875314400,8.785314453125,8.14636516571045,3.1824541091918945,-3.3128628730773926
1710889848894273800,8.804273681640625,8.22413158416748,3.541377544403076,-3.266202926635742
1710889848913233400,8.8232333984375,8.522037506103516,4.169493675231934,-2.7086751461029053
1710889848932192800,8.84219287109375,8.914461135864258,4.634897232055664,-2.196611166000366
1710889848951152000,8.861152099609376,9.153742790222168,5.103890895843506,-2.2707886695861816
1710889848970111500,8.880111572265625,9.056833267211914,5.748756408691406,-2.227717876434326
1710889848989070800,8.89907080078125,9.012566566467285,6.098108291625977,-1.7539390325546265
1710889849008030500,8.918030517578124,9.134600639343262,6.378068923950195,-1.7168502807617188
1710889849026989800,8.93698974609375,9.358329772949219,6.738188743591309,-1.262213945388794
1710889849045949200,8.95594921875,10.086943626403809,7.777870178222656,-0.5072783827781677
1710889849064908500,8.974908447265625,11.765508651733398,10.453045845031738,0.5934200286865234
1710889849083868000,8.993867919921875,12.967902183532715,14.851054191589355,2.8797619342803955
1710889849102827500,9.01282763671875,10.405189514160156,16.75933074951172,5.577669620513916
1710889849121787000,9.031786865234375,6.935596466064453,13.612768173217773,5.02133846282959
1710889849140746200,9.050746337890626,4.600201606750488,8.979066848754883,2.823530673980713
1710889849159705600,9.06970556640625,3.510270833969116,5.340780258178711,0.8626125454902649
1710889849178665000,9.0886650390625,3.2063822746276855,3.0173492431640625,-0.605384111404419
1710889849197624600,9.10762451171875,3.562912940979004,2.8977081775665283,-1.085145115852356
1710889849216584000,9.126583984375,4.104887008666992,4.84187650680542,-0.8051848411560059
1710889849235543300,9.145543212890624,4.711467742919922,7.067201614379883,0.32542386651039124
1710889849254503000,9.1645029296875,5.50229549407959,8.228917121887207,1.8065811395645142
1710889849273462300,9.183462158203126,6.251249313354492,8.731410026550293,3.1477582454681396
1710889849292421600,9.202421630859375,6.498906135559082,8.629714965820312,3.8524444103240967
1710889849311381200,9.22138134765625,6.641279220581055,8.297112464904785,3.9158542156219482
1710889849330340600,9.240340576171874,6.598208427429199,8.24686336517334,3.2745778560638428
1710889849349300000,9.259300048828125,6.346961975097656,8.616554260253906,2.89172625541687
1710889849368259300,9.27825927734375,5.755934715270996,8.425128936767578,2.633301258087158
1710889849387218700,9.29721875,4.758127689361572,7.887939929962158,2.6261229515075684
1710889849406178300,9.31617822265625,3.9146578311920166,7.489534854888916,2.8498518466949463
1710889849425137700,9.3351376953125,3.8249270915985107,7.296912670135498,3.2554352283477783
1710889849444097000,9.354096923828125,4.319045066833496,6.985845565795898,3.5820555686950684
1710889849463056400,9.373056396484374,4.77248477935791,6.697510719299316,3.7399818897247314
1710889849482016000,9.39201611328125,4.6995038986206055,6.821937561035156,4.012763500213623
1710889849500975400,9.410975341796876,4.514060020446777,6.888936519622803,4.115654945373535
1710889849519934700,9.429934814453125,4.454239368438721,7.000202655792236,3.6610186100006104
1710889849538894000,9.44889404296875,4.517649173736572,7.2430739402771,3.3954153060913086
1710889849557853700,9.467853759765624,4.4614176750183105,7.625925540924072,3.8392839431762695
1710889849576813000,9.48681298828125,4.2556352615356445,8.014759063720703,4.273581027984619
1710889849595772400,9.5057724609375,4.101297855377197,7.92861795425415,4.128815650939941
1710889849614731800,9.524731689453125,4.052245140075684,7.544569969177246,3.682554006576538
1710889849633691400,9.54369140625,3.981656789779663,7.613961696624756,3.4408788681030273
1710889849652650800,9.562650634765625,3.9385859966278076,7.69531774520874,3.5258240699768066
1710889849671610000,9.581610107421875,3.792623996734619,7.53858757019043,3.4468610286712646
1710889849690569500,9.600569580078124,3.6526436805725098,7.503891944885254,3.5341989994049072
1710889849709528800,9.61952880859375,3.5090744495391846,7.6390862464904785,3.544966697692871
1710889849728488400,9.638488525390626,3.428914785385132,7.636693477630615,3.6873397827148438
1710889849747447800,9.65744775390625,3.4887354373931885,7.314858913421631,3.9326040744781494
1710889849766407200,9.6764072265625,3.487539052963257,7.1473612785339355,4.202992916107178
1710889849785366500,9.695366455078124,3.2303106784820557,7.202396392822266,4.268795490264893
1710889849804326100,9.714326171875,2.801995277404785,7.534998416900635,4.039084434509277
1710889849823285500,9.733285400390624,2.407179594039917,8.227720260620117,4.5786662101745605
1710889849842244900,9.752244873046875,2.372483730316162,8.95394229888916,5.496313571929932
1710889849861204500,9.77120458984375,2.6536402702331543,9.625128746032715,6.118447303771973
1710889849880163800,9.790163818359375,2.8283164501190186,9.981659889221191,6.099305152893066
1710889849899123200,9.809123291015625,2.6979074478149414,9.864411354064941,5.66620397567749
1710889849918082800,9.828082763671874,2.5698914527893066,8.895318031311035,5.374279499053955
1710889849937042200,9.847042236328125,2.693121910095215,7.8388872146606445,4.974678039550781
1710889849956001500,9.86600146484375,2.8522446155548096,7.432106971740723,4.309473514556885
1710889849974961000,9.8849609375,2.8211379051208496,7.5086774826049805,3.7387852668762207
1710889849993920500,9.90392041015625,2.6560330390930176,7.445267677307129,3.466003656387329
1710889850012880000,9.9228798828125,2.2719850540161133,7.594819068908691,3.7423746585845947
1710889850031839200,9.941839111328125,1.6606189012527466,8.313861846923828,4.4614176750183105
1710889850050798600,9.960798583984374,1.1928220987319946,9.107083320617676,5.429314613342285
1710889850069758200,9.97975830078125,1.1282159090042114,9.369096755981445,6.144768714904785
1710889850088717600,9.998717529296876,1.109073281288147,9.110671997070312,6.704689025878906
1710889850107677000,10.017677001953125,1.124626636505127,8.854640007019043,7.562515735626221
1710889850126636300,10.03663623046875,1.404586911201477,8.943174362182617,8.396414756774902
1710889850145596000,10.055595947265624,1.5170495510101318,9.04845905303955,8.549555778503418
1710889850164555300,10.07455517578125,1.5708880424499512,8.714659690856934,8.102097511291504
1710889850183514600,10.0935146484375,1.3591232299804688,7.95134973526001,6.971488952636719
1710889850202474000,10.112473876953125,0.8805587291717529,7.357929706573486,5.953342914581299
1710889850221433600,10.13143359375,0.8709874153137207,7.4500532150268555,5.545366287231445
1710889850240393000,10.15039306640625,1.3471591472625732,7.808976650238037,5.753541946411133
1710889850259352300,10.169352294921875,1.667797327041626,8.169096946716309,5.693721294403076
1710889850278311700,10.188311767578124,0.8614161610603333,8.295916557312012,5.635097503662109
1710889850297271000,10.20727099609375,0.27397820353507996,8.532805442810059,6.636493682861328
1710889850316230700,10.226230712890626,-0.04785645380616188,8.708678245544434,7.781459331512451
1710889850335190000,10.24518994140625,0.3936193287372589,8.522037506103516,9.036494255065918
1710889850354149400,10.2641494140625,0.9595218896865845,8.331808090209961,10.216156005859375
1710889850373108700,10.283108642578124,0.8015955686569214,8.404789924621582,10.630114555358887
1710889850392068400,10.302068359375,0.43549370765686035,8.916853904724121,10.522438049316406
1710889850411027700,10.32102783203125,0.9415757060050964,9.722038269042969,10.04148006439209
1710889850429987000,10.339987060546875,2.586641311645508,9.678967475891113,8.34018325805664
1710889850448946400,10.358946533203126,3.710071563720703,8.554341316223145,5.221138954162598
1710889850467906000,10.377906005859375,3.7196428775787354,7.051648139953613,2.495713949203491
1710889850486865400,10.396865478515625,3.1142587661743164,4.977071285247803,0.7357929348945618
1710889850505824800,10.41582470703125,2.754138946533203,3.483949661254883,-0.1698904037475586
1710889850524784000,10.4347841796875,3.239881753921509,3.0448668003082275,-0.9523434042930603
1710889850543743700,10.45374365234375,4.403990268707275,3.387040376663208,-2.018345832824707
1710889850562703000,10.472703125,5.653043270111084,4.177868366241455,-2.8558337688446045
1710889850581662500,10.491662353515625,5.788238048553467,5.3455657958984375,-2.554338216781616
1710889850600622000,10.5106220703125,5.064409255981445,6.55992317199707,-0.882951557636261
1710889850619581400,10.52958154296875,4.124029636383057,7.259823799133301,0.9296116232872009
1710889850638540800,10.548540771484374,4.551148891448975,6.811169624328613,2.89890456199646
1710889850657500200,10.567500244140625,5.886343479156494,5.788238048553467,4.729413986206055
1710889850676459500,10.58645947265625,6.230910301208496,5.4867424964904785,6.214160442352295
1710889850695419100,10.605419189453125,5.520241737365723,6.262016773223877,7.88913631439209
1710889850714378500,10.62437841796875,5.047659397125244,6.926024913787842,8.894122123718262
1710889850733337900,10.643337890625,5.2283172607421875,6.9822564125061035,8.519644737243652
1710889850752297200,10.662297119140625,5.00578498840332,6.983452796936035,7.643871784210205
1710889850771256800,10.6812568359375,4.46979284286499,6.954739093780518,7.250252723693848
1710889850790216200,10.70021630859375,4.225724697113037,6.99541711807251,7.317251682281494
1710889850809175600,10.719175537109376,4.380061626434326,6.8482584953308105,7.716853141784668
1710889850828135000,10.738135009765625,4.420739650726318,6.433103561401367,8.39282512664795
1710889850847094300,10.75709423828125,3.9218363761901855,5.766702651977539,8.944371223449707
1710889850866054000,10.776053955078124,4.027120590209961,4.6301116943359375,8.896514892578125
1710889850885013200,10.79501318359375,4.613361835479736,3.655036687850952,7.791030406951904
1710889850903972600,10.81397265625,4.552345275878906,3.387040376663208,6.504888534545898
1710889850922932000,10.832931884765625,3.8632121086120605,3.4133615493774414,5.325226783752441
1710889850941891300,10.851891357421875,3.269792079925537,3.5365917682647705,5.079962253570557
1710889850960851000,10.870850830078124,3.2446675300598145,3.737588882446289,5.62672233581543
1710889850979810300,10.889810302734375,3.497110366821289,4.016352653503418,6.297909259796143
1710889850998769700,10.908769775390626,3.603590965270996,3.8668015003204346,6.912864685058594
1710889851017729000,10.92772900390625,3.1860432624816895,3.081955671310425,6.935596466064453
1710889851036688600,10.946688720703126,2.9491539001464844,1.9537396430969238,6.602993965148926
1710889851055648000,10.96564794921875,2.682354211807251,1.3495519161224365,6.57547664642334
1710889851074607400,10.984607421875,2.159522533416748,1.6175481081008911,7.274180889129639
1710889851093567000,11.00356689453125,1.7204394340515137,2.210968017578125,8.788837432861328
1710889851112526300,11.0225263671875,2.066202402114868,2.662015199661255,10.289137840270996
1710889851131485700,11.041485595703126,2.3976082801818848,3.032902717590332,10.314262390136719
1710889851150445300,11.0604453125,1.8735800981521606,3.1405797004699707,9.914660453796387
1710889851169404700,11.07940478515625,1.9298114776611328,1.8185452222824097,10.053443908691406
1710889851188364000,11.098364013671874,2.3988046646118164,0.33858439326286316,10.445867538452148
1710889851207323400,11.117323486328125,2.4119651317596436,-0.15553347766399384,10.079765319824219
1710889851226283000,11.136282958984374,1.423729419708252,1.1581261157989502,9.717252731323242
1710889851245242400,11.155242431640625,0.4103690981864929,2.379662036895752,10.103693962097168
1710889851264201700,11.17420166015625,0.8410771489143372,1.566102385520935,10.433902740478516
1710889851283161000,11.1931611328125,2.0374884605407715,0.4630111753940582,10.13599681854248
1710889851302120700,11.21212060546875,1.6857435703277588,1.207179069519043,9.57487964630127
1710889851321080000,11.231080078125,0.38763725757598877,2.359323024749756,9.30329418182373
1710889851340039400,11.250039306640625,0.06340979784727097,1.4177473783493042,9.598808288574219
1710889851358998800,11.268998779296876,0.9044869542121887,-0.24047867953777313,9.665806770324707
1710889851377958400,11.28795849609375,0.7860422134399414,-0.09212367236614227,9.242277145385742
1710889851396917800,11.306917724609375,-0.4749752879142761,1.9836499691009521,9.643074989318848
1710889851415877000,11.325877197265624,-1.3459627628326416,2.4466612339019775,10.853843688964844
1710889851434836500,11.34483642578125,-0.061016976833343506,0.6556333899497986,11.087143898010254
1710889851453796000,11.363796142578124,0.836291491985321,-0.2763710021972656,10.409975051879883
1710889851472755500,11.38275537109375,-0.6604190468788147,0.9355936646461487,10.164710998535156
1710889851491714800,11.40171484375,-2.4646072387695312,1.612762451171875,11.368300437927246
1710889851510674400,11.42067431640625,-1.6163517236709595,-0.03349951654672623,12.340982437133789
1710889851529633800,11.4396337890625,0.3768695592880249,-1.8065811395645142,12.369696617126465
1710889851548593200,11.45859326171875,0.05144568532705307,-1.2526426315307617,11.92223834991455
1710889851567552800,11.477552734375,-1.6067804098129272,0.23449662327766418,10.303494453430176
1710889851586512100,11.49651220703125,-2.6368906497955322,0.8350951075553894,10.442277908325195
1710889851605471500,11.515471435546875,-1.5517455339431763,-0.24885354936122894,10.667202949523926
1710889851624430800,11.534430908203126,-0.137587308883667,-0.9978070259094238,9.833304405212402
1710889851643390500,11.553390380859375,-0.882951557636261,-0.26440688967704773,8.549555778503418
1710889851662349800,11.572349853515625,-2.5423741340637207,0.25004997849464417,7.779066562652588
1710889851681309200,11.59130908203125,-3.0999016761779785,-0.2476571500301361,8.298309326171875
1710889851700268800,11.610268798828125,-1.8783657550811768,-1.2275179624557495,9.134600639343262
1710889851719228200,11.629228271484376,-1.0791629552841187,-1.6067804098129272,9.329615592956543
1710889851738187500,11.6481875,-2.313859462738037,-0.5048855543136597,8.810373306274414
1710889851757147100,11.667147216796875,-4.046263217926025,0.5048855543136597,8.84506893157959
1710889851776106500,11.6861064453125,-4.453042984008789,0.07537391036748886,9.471988677978516
1710889851795066000,11.705066162109375,-3.4432718753814697,-0.7250252366065979,10.125228881835938
1710889851814025500,11.724025390625,-2.908475875854492,-0.6652047038078308,10.382457733154297
1710889851832984800,11.74298486328125,-3.858426570892334,-0.061016976833343506,10.331011772155762
1710889851851944400,11.7619443359375,-4.992624282836914,0.29312077164649963,10.418350219726562
1710889851870903800,11.78090380859375,-4.887340068817139,0.23449662327766418,10.584650993347168
1710889851889863200,11.79986328125,-4.156332969665527,0.2871387302875519,10.453045845031738
1710889851908822800,11.81882275390625,-4.009174346923828,0.42352959513664246,9.970891952514648
1710889851927782100,11.8377822265625,-4.744967460632324,0.6424728631973267,9.556933403015137
1710889851946741800,11.85674169921875,-5.5932230949401855,0.9906286001205444,9.698110580444336
1710889851965701000,11.875701171875,-5.387440204620361,1.2729816436767578,9.839286804199219
1710889851984660500,11.894660400390626,-4.6887359619140625,1.3603196144104004,9.58205795288086
1710889852003620000,11.9136201171875,-4.749752998352051,1.2885349988937378,9.133403778076172
1710889852022579500,11.932579345703125,-5.233103275299072,1.1425727605819702,8.719446182250977
1710889852041538800,11.951538818359374,-5.362315654754639,0.98703932762146,8.499305725097656
1710889852060498400,11.97049853515625,-4.719842433929443,0.7489534616470337,8.327022552490234
1710889852079457800,11.989457763671876,-4.304687976837158,0.5599204897880554,7.776673793792725
1710889852098417200,12.008417236328125,-4.8574299812316895,0.6891329288482666,7.308876991271973
1710889852117376800,12.027376708984375,-5.496313571929932,0.8997012972831726,7.17368221282959
1710889852136336100,12.046336181640624,-5.255835056304932,0.8039883971214294,7.239484786987305
1710889852155295700,12.065295654296875,-4.579862594604492,0.5228317379951477,7.253841876983643
1710889852174255000,12.084255126953124,-4.218546390533447,0.25244277715682983,7.520641803741455
1710889852193214700,12.103214599609375,-4.527220249176025,0.09810572862625122,8.105687141418457
1710889852212174000,12.122174072265626,-5.188836097717285,0.29312077164649963,8.999405860900879
1710889852231133400,12.141133544921875,-5.631507873535156,0.6376872062683105,9.872786521911621
1710889852250093000,12.160093017578125,-5.670989513397217,0.8386843204498291,10.395618438720703
1710889852269052400,12.179052490234374,-5.574080467224121,0.6436693072319031,10.64686393737793
1710889852288012000,12.198011962890625,-5.314459323883057,0.1136590763926506,10.420742988586426
1710889852306971400,12.216971435546874,-5.217549800872803,-0.6687939167022705,9.383454322814941
1710889852325931000,12.235930908203125,-5.726024627685547,-1.726421594619751,7.926225185394287
1710889852344890400,12.254890380859376,-6.1363935470581055,-2.014756679534912,6.581458568572998
1710889852363850000,12.27385009765625,-5.846862316131592,-1.1521440744400024,6.1710896492004395
1710889852382809300,12.292809326171875,-5.629115104675293,-0.46899324655532837,5.826523303985596
1710889852401769000,12.31176904296875,-6.192625045776367,-0.42352959513664246,5.084748268127441
1710889852420728300,12.330728271484375,-6.809973239898682,-0.4570291340351105,5.088337421417236
1710889852439687700,12.349687744140626,-6.1124653816223145,0.017946170642971992,6.128018856048584
1710889852458647300,12.368647216796875,-4.704289436340332,0.2584248483181,7.427321434020996
1710889852477606700,12.387606689453126,-4.371686935424805,0.47258245944976807,8.842676162719727
1710889852496566300,12.406566162109375,-4.42193603515625,0.6843472719192505,10.119247436523438
1710889852515526000,12.42552587890625,-4.534399032592773,1.0863415002822876,11.011770248413086
1710889852534485200,12.4444853515625,-5.406582832336426,1.797009825706482,11.192427635192871
1710889852553444900,12.46344482421875,-7.225128173828125,2.2157537937164307,10.766505241394043
1710889852572404200,12.482404296875,-9.089137077331543,2.337787628173828,10.301101684570312
1710889852591363800,12.50136376953125,-9.175278663635254,2.007578134536743,9.542576789855957
1710889852610323200,12.5203232421875,-7.529016494750977,1.4225330352783203,8.249256134033203
1710889852629282800,12.53928271484375,-6.317051887512207,-0.08853443711996078,6.652047157287598
1710889852648242200,12.5582421875,-6.14835786819458,-1.7958134412765503,5.971288681030273
1710889852667201500,12.577201416015624,-6.259624004364014,-2.6021945476531982,6.524031162261963
1710889852686161200,12.5961611328125,-6.385247230529785,-1.950150489807129,7.977670669555664
1710889852705120800,12.615120849609376,-6.935596466064453,-0.037088751792907715,9.787840843200684
1710889852724080000,12.634080078125,-7.451249599456787,1.2693923711776733,10.797612190246582
1710889852743039700,12.653039794921876,-6.959524631500244,0.747757077217102,9.830911636352539
1710889852761999000,12.6719990234375,-6.361319065093994,-0.6197410821914673,7.670193195343018
1710889852780958700,12.690958740234375,-6.477370738983154,-1.2598211765289307,5.979663848876953
1710889852799918300,12.70991845703125,-6.672386169433594,-0.9655039310455322,5.242674350738525
1710889852818877700,12.728877685546875,-6.468996047973633,-0.7082754969596863,4.727021217346191
1710889852837837000,12.747837158203126,-5.843272686004639,-0.49651068449020386,4.528416633605957
1710889852856796700,12.766796630859375,-5.566901683807373,-0.2189432680606842,4.436293125152588
1710889852875756300,12.78575634765625,-6.005984783172607,0.4977070987224579,5.054837703704834
1710889852894715600,12.804715576171875,-6.457031726837158,1.1928220987319946,6.015556335449219
1710889852913675300,12.82367529296875,-6.486942291259766,1.495514154434204,6.959524631500244
1710889852932635000,12.842634765625,-6.4701924324035645,1.5098711252212524,7.88913631439209
1710889852951594200,12.86159423828125,-6.482156753540039,1.3124631643295288,8.85224723815918
1710889852970553900,12.880553955078126,-6.299105644226074,0.9056833982467651,9.372686386108398
1710889852989513200,12.89951318359375,-5.680561065673828,0.3481557071208954,9.607182502746582
1710889853008472800,12.918472900390626,-5.335994720458984,-0.37926238775253296,9.349954605102539
1710889853027432200,12.93743212890625,-5.62672233581543,-0.7310073375701904,8.724231719970703
1710889853046391800,12.956391845703125,-5.791827201843262,-0.3852444589138031,8.274380683898926
1710889853065351400,12.975351318359374,-5.879165172576904,0.09571290761232376,7.992027759552002
1710889853084310800,12.994310791015625,-6.009573936462402,0.45583271980285645,7.8819580078125
1710889853103270400,13.0132705078125,-6.0263237953186035,0.7992027401924133,7.860422611236572
1710889853122229800,13.032229736328125,-5.933003902435303,1.2634103298187256,7.960920810699463
1710889853141189400,13.051189453125,-5.812166213989258,1.7694923877716064,8.011170387268066
1710889853160149000,13.07014892578125,-6.0538411140441895,2.0231316089630127,7.920242786407471
1710889853179108400,13.0891083984375,-6.775277137756348,2.080559253692627,7.999206066131592
1710889853198068000,13.10806787109375,-6.795616149902344,1.690529227256775,7.865208148956299
1710889853217027600,13.127027587890625,-5.838487148284912,0.40797626972198486,7.055237770080566
1710889853235987000,13.145987060546876,-5.614758491516113,-0.4259224236011505,6.662814617156982
1710889853254946600,13.164946533203125,-6.021538257598877,-0.40319061279296875,7.142575740814209
1710889853273906200,13.18390625,-6.064609050750732,0.07776673883199692,7.892725467681885
1710889853292865500,13.202865478515625,-5.928217887878418,0.3326023519039154,8.142775535583496
1710889853311825200,13.2218251953125,-5.854040622711182,0.3601198196411133,7.774280548095703
1710889853330784800,13.24078466796875,-5.857629776000977,0.2919243574142456,7.244270324707031
1710889853349744000,13.259744140625,-5.924628734588623,0.2273181527853012,6.926024913787842
1710889853368703700,13.278703857421876,-6.173482418060303,0.4342973232269287,7.067201614379883
1710889853387663400,13.297663330078125,-6.512066841125488,0.8386843204498291,7.3986077308654785
1710889853406622700,13.316622802734376,-6.75374174118042,1.2287144660949707,7.677371501922607
1710889853425582300,13.335582275390625,-6.853044033050537,1.490728497505188,8.13679313659668
1710889853444542000,13.3545419921875,-6.709474563598633,1.4739787578582764,8.605786323547363
1710889853463501600,13.37350146484375,-6.081358909606934,1.171286702156067,8.616554260253906
1710889853482461000,13.3924609375,-5.704489231109619,0.8769695162773132,8.202595710754395
1710889853501420500,13.411420654296874,-6.126822471618652,0.8781659007072449,8.044670104980469
1710889853520380000,13.4303798828125,-6.758527755737305,0.6975077986717224,8.160721778869629
1710889853539339500,13.449339599609376,-6.98704195022583,0.064606212079525,8.032705307006836
1710889853558299100,13.468299072265625,-6.726224422454834,-0.2799602448940277,7.6390862464904785
1710889853577258800,13.4872587890625,-6.348158359527588,0.10049854964017868,7.312466144561768
1710889853596218000,13.506218017578124,-5.905486106872559,0.849452018737793,7.179664134979248
1710889853615177700,13.525177734375,-5.485546112060547,1.3112667798995972,6.953542709350586
1710889853634137000,13.54413720703125,-5.312066078186035,1.420140266418457,6.631708145141602
1710889853653096700,13.5630966796875,-5.377869129180908,1.4321043491363525,6.4354963302612305
1710889853672056300,13.582056396484376,-5.521438121795654,1.4931213855743408,6.618547439575195
1710889853691016000,13.601015869140625,-5.30847692489624,1.2765709161758423,6.872186660766602
1710889853709975300,13.619975341796875,-5.064409255981445,0.9032905697822571,7.195217609405518
1710889853728935000,13.638934814453124,-5.033302307128906,0.7046862840652466,7.5804619789123535
1710889853747894500,13.65789453125,-5.212764263153076,0.7525427341461182,7.909475326538086
1710889853766854000,13.67685400390625,-5.4556355476379395,1.0205388069152832,8.091329574584961
1710889853785813500,13.6958134765625,-5.747560024261475,1.1389836072921753,8.373682975769043
1710889853804773000,13.714773193359376,-6.14835786819458,0.9379864931106567,8.63330364227295
1710889853823732500,13.733732421875,-6.276373863220215,0.4666004180908203,8.71226692199707
1710889853842692000,13.752692138671875,-6.181857109069824,-0.10767702013254166,8.530412673950195
1710889853861651700,13.771651611328124,-6.263213157653809,-0.6029912829399109,8.22413158416748
1710889853880611300,13.790611328125,-6.669992923736572,-0.8015955686569214,8.060222625732422
1710889853899571000,13.809571044921874,-7.134200572967529,-0.623330295085907,8.23011302947998
1710889853918530300,13.8285302734375,-7.211967468261719,-0.30987054109573364,8.420342445373535
1710889853937490000,13.847489990234376,-7.062416076660156,-0.20578274130821228,8.165507316589355
1710889853956449300,13.86644921875,-6.6831536293029785,-0.15074782073497772,7.529016494750977
1710889853975409000,13.885408935546875,-6.468996047973633,0.13160525262355804,6.922435760498047
1710889853994368500,13.904368408203124,-6.538387775421143,0.50129634141922,6.7657060623168945
1710889854013328100,13.923328125,-6.283552169799805,0.4821537733078003,7.16650390625
1710889854032287500,13.94228759765625,-5.767899036407471,-0.09930214285850525,7.356733322143555
1710889854051247000,13.9612470703125,-5.509474277496338,-0.6508477330207825,7.136593341827393
1710889854070206700,13.980206787109376,-5.450850009918213,-0.5168496966362,6.8171515464782715
1710889854089166300,13.999166259765625,-5.60399055480957,0.013160524889826775,6.872186660766602
1710889854108125700,14.018125732421876,-5.970092296600342,0.3038884699344635,6.932007312774658
1710889854127085300,14.037085205078125,-6.289534091949463,0.33738797903060913,6.955935478210449
1710889854146044700,14.056044677734375,-6.104090690612793,0.5910272002220154,7.310073375701904
1710889854165004300,14.07500439453125,-5.864808082580566,1.098305583000183,7.892725467681885
1710889854183964000,14.0939638671875,-5.7750773429870605,1.4727823734283447,8.163114547729492
1710889854202923500,14.112923583984376,-5.687739372253418,1.4727823734283447,8.055437088012695
1710889854221883000,14.1318828125,-6.028716564178467,1.1473584175109863,7.93579626083374
1710889854240842500,14.150842529296876,-6.216553211212158,0.7668996453285217,7.929814338684082
1710889854259802000,14.169802001953125,-6.178267955780029,0.4295116662979126,8.277970314025879
1710889854278761700,14.18876171875,-5.931807518005371,0.17946170270442963,8.879764556884766
1710889854297721000,14.20772119140625,-5.511867046356201,0.33379876613616943,9.372686386108398
1710889854316680700,14.2266806640625,-5.267798900604248,0.6616154313087463,9.360722541809082
1710889854335640000,14.24564013671875,-5.361119270324707,0.8733802437782288,8.885746955871582
1710889854354599700,14.264599609375,-5.382654666900635,0.8027920126914978,7.910671710968018
1710889854373559300,14.283559326171876,-5.472385406494141,0.48813581466674805,7.027719974517822
1710889854392519000,14.302518798828125,-5.720042705535889,0.2835494875907898,6.586244106292725
1710889854411478500,14.321478515625,-6.193821430206299,0.3002992272377014,6.553941249847412
1710889854430438000,14.34043798828125,-6.876972198486328,0.45583271980285645,6.921239376068115
1710889854449397500,14.3593974609375,-7.203592777252197,0.4223332107067108,7.1988067626953125
1710889854468357000,14.378357177734374,-6.99541711807251,0.19262222945690155,7.1162543296813965
1710889854487316500,14.39731640625,-6.994220733642578,0.029910283163189888,7.124629497528076
1710889854506276000,14.416276123046876,-7.372286796569824,0.04426721855998039,7.386643409729004
1710889854525235700,14.435235595703125,-7.716853141784668,0.2021935135126114,7.744370460510254
1710889854544195000,14.454195068359375,-7.572087287902832,0.2021935135126114,7.854440212249756
1710889854563154700,14.47315478515625,-7.2813591957092285,-0.013160524889826775,7.727620601654053
1710889854582114300,14.4921142578125,-7.326822757720947,-0.3326023519039154,7.545766353607178
1710889854601074000,14.511073974609374,-7.670193195343018,-0.5730810165405273,7.324429988861084
1710889854620033300,14.530033203125,-7.929814338684082,-0.6963114142417908,6.983452796936035
1710889854638993000,14.548992919921876,-7.974081516265869,-0.8075776696205139,6.58265495300293
1710889854657952300,14.5679521484375,-7.767102241516113,-0.9643075466156006,6.173482418060303
1710889854676911900,14.586911865234375,-7.445267677307129,-1.2251251935958862,5.714060306549072
1710889854695871500,14.60587158203125,-7.434499740600586,-1.5996019840240479,5.218746185302734
1710889854714831000,14.6248310546875,-7.670193195343018,-1.8640087842941284,4.956732273101807
1710889854733790700,14.643790771484374,-7.959724426269531,-1.9106688499450684,4.997410297393799
1710889854752750000,14.66275,-8.123632431030273,-1.9776679277420044,5.395814895629883
1710889854771709700,14.681709716796876,-8.011170387268066,-2.1678972244262695,5.960521221160889
1710889854790669000,14.7006689453125,-7.806583881378174,-2.3988046646118164,6.354140758514404
1710889854809628700,14.719628662109375,-7.621140003204346,-2.6141586303710938,6.460621356964111
1710889854828588300,14.73858837890625,-7.628318786621094,-2.7361927032470703,6.32662296295166
1710889854847548000,14.7575478515625,-7.643871784210205,-2.82951283454895,6.041877269744873
1710889854866507300,14.77650732421875,-7.634300708770752,-2.8941190242767334,5.61954402923584
1710889854885467000,14.795466796875,-7.714460372924805,-2.799602508544922,5.253442287445068
1710889854904426200,14.81442626953125,-7.871190071105957,-2.7038896083831787,4.977071285247803
1710889854923385900,14.8333857421875,-8.059026718139648,-2.7074787616729736,4.744967460632324
1710889854942345500,14.852345458984376,-8.105687141418457,-2.8187451362609863,4.526023864746094
1710889854961305000,14.87130517578125,-8.055437088012695,-3.0759735107421875,4.374079704284668
1710889854980264400,14.890264404296875,-7.926225185394287,-3.383451223373413,4.210171222686768
1710889854999224000,14.90922412109375,-7.867600917816162,-3.6370904445648193,4.04985237121582
1710889855018183400,14.928183349609375,-7.715656757354736,-3.6598222255706787,3.9672999382019043
1710889855037143000,14.94714306640625,-7.552944660186768,-3.6323046684265137,3.9864425659179688
1710889855056102700,14.9661025390625,-7.464410305023193,-3.7256247997283936,3.9110686779022217
1710889855075062300,14.985062255859376,-7.544569969177246,-3.8763725757598877,3.8321053981781006
1710889855094021600,15.004021728515625,-7.659425258636475,-4.064209461212158,3.8189449310302734
1710889855112981200,15.022981201171875,-7.83410120010376,-4.2556352615356445,3.8368911743164062
1710889855131940600,15.041940673828124,-7.853243827819824,-4.2987060546875,3.851248025894165
1710889855150900200,15.060900146484375,-7.658228874206543,-4.175475597381592,3.9625144004821777
1710889855169859800,15.07985986328125,-7.597211837768555,-4.137190341949463,4.094119548797607
1710889855188819500,15.0988193359375,-7.81974458694458,-4.082155227661133,4.156332969665527
1710889855207778800,15.11777880859375,-8.1224365234375,-3.9828531742095947,4.297509670257568
1710889855226738400,15.136738525390625,-8.204988479614258,-3.9828531742095947,4.433900356292725
1710889855245697800,15.15569775390625,-8.055437088012695,-4.150351047515869,4.453042984008789
1710889855264657400,15.174657470703124,-7.980063438415527,-4.327419757843018,4.278367042541504
1710889855283617000,15.193616943359375,-7.993224143981934,-4.388436794281006,4.130012035369873
1710889855302576600,15.21257666015625,-8.02193832397461,-4.30588436126709,3.9493536949157715
1710889855321536000,15.231535888671875,-8.109275817871094,-4.2209391593933105,3.7746777534484863
1710889855340495600,15.25049560546875,-8.206185340881348,-4.206582069396973,3.634697675704956
1710889855359455000,15.269455078125,-8.237292289733887,-4.167100429534912,3.404986619949341
1710889855378414600,15.28841455078125,-8.240880966186523,-4.204189300537109,3.1728827953338623
1710889855397374200,15.307374267578124,-8.200202941894531,-4.392025947570801,2.9970104694366455
1710889855416333600,15.32633349609375,-8.243273735046387,-4.660022258758545,2.857030153274536
1710889855435293200,15.345293212890626,-8.422736167907715,-4.780859470367432,2.801995277404785
1710889855454252800,15.364252685546875,-8.352147102355957,-4.669593334197998,2.806781053543091
1710889855473212200,15.383212158203126,-8.117650985717773,-4.5200419425964355,2.932404041290283
1710889855492171800,15.402171875,-8.059026718139648,-4.409972190856934,3.2853455543518066
1710889855511131100,15.421131103515625,-8.163114547729492,-4.4243292808532715,3.6430723667144775
1710889855530090800,15.4400908203125,-8.195417404174805,-4.470989227294922,3.845266103744507
1710889855549050400,15.45905029296875,-8.104490280151367,-4.498506546020508,3.85483717918396
1710889855568009700,15.478009765625,-8.000402450561523,-4.565505504608154,3.7328033447265625
1710889855586969300,15.49696923828125,-8.076972961425781,-4.590630054473877,3.6047873497009277
1710889855605929000,15.515928955078126,-8.128418922424316,-4.436293125152588,3.641875982284546
1710889855624888300,15.534888427734375,-8.188239097595215,-4.438685894012451,3.6047873497009277
1710889855643848000,15.553847900390625,-8.242077827453613,-4.588237285614014,3.442075490951538
1710889855662807300,15.572807373046874,-8.294719696044922,-4.644468784332275,3.3894333839416504
1710889855681767000,15.591766845703125,-8.352147102355957,-4.583451747894287,3.5126636028289795
1710889855700726500,15.6107265625,-8.318648338317871,-4.5236310958862305,3.6370904445648193
1710889855719686100,15.62968603515625,-8.202595710754395,-4.49252462387085,3.6299118995666504
1710889855738645500,15.6486455078125,-8.154739379882812,-4.500899314880371,3.6598222255706787
1710889855757604900,15.66760498046875,-8.185846328735352,-4.540380954742432,3.7387852668762207
1710889855776564500,15.686564453125,-8.057829856872559,-4.593023300170898,3.7902309894561768
1710889855795524000,15.705524169921874,-7.846065521240234,-4.633700847625732,3.710071563720703
1710889855814483500,15.7244833984375,-7.683353424072266,-4.73300313949585,3.4396824836730957
1710889855833443000,15.743443115234374,-7.652246952056885,-4.776073932647705,3.166900873184204
1710889855852402700,15.762402587890625,-7.652246952056885,-4.815555572509766,3.081955671310425
1710889855871362000,15.781362060546876,-7.594819068908691,-4.9399824142456055,3.043670415878296
1710889855890321700,15.80032177734375,-7.652246952056885,-5.119443893432617,3.1214370727539062
1710889855909281000,15.819281005859375,-7.720442295074463,-5.150550842285156,3.2650065422058105
1710889855928240600,15.83824072265625,-7.651050567626953,-4.960321426391602,3.34995174407959
1710889855947200300,15.8572001953125,-7.514659404754639,-4.756931304931641,3.3020951747894287
1710889855966159600,15.87615966796875,-7.533802032470703,-4.791627407073975,3.232703447341919
1710889855985119200,15.895119140625,-7.692924976348877,-4.954339504241943,3.2027931213378906
1710889856004078800,15.914078857421876,-7.787441253662109,-5.126622676849365,3.2781670093536377
1710889856023038200,15.9330380859375,-7.921439170837402,-5.259424209594727,3.2721848487854004
1710889856041997600,15.95199755859375,-8.100900650024414,-5.207978248596191,3.2745778560638428
1710889856060957200,15.970957275390624,-8.301898002624512,-5.063212871551514,3.3750762939453125
1710889856079916800,15.989916748046875,-8.330612182617188,-4.852644443511963,3.5712878704071045
1710889856098876400,16.00887646484375,-8.10807991027832,-4.581058979034424,3.70767879486084
1710889856117835800,16.027835693359375,-7.840083599090576,-4.412364959716797,3.6526436805725098
1710889856136795400,16.04679541015625,-7.818548202514648,-4.431507587432861,3.4719855785369873
1710889856155754800,16.065754638671876,-8.002795219421387,-4.536791801452637,3.3439695835113525
1710889856174714400,16.08471435546875,-8.14516830444336,-4.54636287689209,3.3020951747894287
1710889856193673700,16.103673828125,-8.094919204711914,-4.527220249176025,3.3415768146514893
1710889856212633300,16.12263330078125,-7.909475326538086,-4.54636287689209,3.363112211227417
1710889856231593000,16.141593017578124,-7.871190071105957,-4.746163845062256,3.2937204837799072
1710889856250552300,16.16055224609375,-7.946564197540283,-4.899304389953613,3.2650065422058105
1710889856269512000,16.179511962890626,-7.878368377685547,-4.95912504196167,3.269792079925537
1710889856288471600,16.198471435546875,-7.7180495262146,-5.017749309539795,3.38105845451355
1710889856307431000,16.217430908203124,-7.654639720916748,-5.155336380004883,3.4815568923950195
1710889856326390500,16.236390625,-7.642675399780273,-5.252245903015137,3.5162527561187744
1710889856345350000,16.255349853515625,-7.63310432434082,-5.243870735168457,3.507878065109253
1710889856364309500,16.2743095703125,-7.668996810913086,-5.2390851974487305,3.4612178802490234
1710889856383269000,16.29326904296875,-7.738388538360596,-5.243870735168457,3.45882511138916
1710889856402228500,16.312228515625,-7.707281589508057,-5.289334297180176,3.4408788681030273
1710889856421188000,16.33118798828125,-7.65583610534668,-5.255835056304932,3.3954153060913086
1710889856440147700,16.350147705078125,-7.678567886352539,-5.142175674438477,3.298506021499634
1710889856459107000,16.369107177734374,-7.752745151519775,-4.9531426429748535,3.267399311065674
1710889856478066700,16.388066650390623,-7.868797302246094,-4.839483737945557,3.3128628730773926
1710889856497026300,16.4070263671875,-7.99083137512207,-4.821537494659424,3.4157543182373047
1710889856515985700,16.425985595703125,-7.93579626083374,-4.761716842651367,3.538984775543213
1710889856534945300,16.4449453125,-7.762316703796387,-4.677968502044678,3.5988051891326904
1710889856553905000,16.46390478515625,-7.805387496948242,-4.652843475341797,3.651447296142578
1710889856572864300,16.4828642578125,-8.049455642700195,-4.707878589630127,3.678964853286743
1710889856591824000,16.501823974609376,-8.065009117126465,-4.762913703918457,3.5928232669830322
1710889856610783200,16.520783203125,-7.858029365539551,-4.735395908355713,3.414557933807373
1710889856629742800,16.539742919921874,-7.770691394805908,-4.721039295196533,3.308077335357666
1710889856648702500,16.558702392578127,-7.901100158691406,-4.83469820022583,3.280559778213501
1710889856667662000,16.577662109375,-7.9860453605651855,-4.886143684387207,3.243471145629883
1710889856686621400,16.596621337890625,-7.971688747406006,-4.862215518951416,3.263810157775879
1710889856705581000,16.6155810546875,-7.939385414123535,-4.890929698944092,3.3439695835113525
1710889856724540400,16.63454052734375,-7.895118236541748,-4.941178798675537,3.463610887527466
1710889856743500000,16.6535,-7.885547161102295,-4.944767951965332,3.603590965270996
1710889856762459600,16.672459716796876,-7.885547161102295,-4.951946258544922,3.693321704864502
1710889856781419300,16.691419189453125,-7.824530124664307,-4.9878387451171875,3.6705899238586426
1710889856800378600,16.710378662109374,-7.795815944671631,-4.9986066818237305,3.601198196411133
1710889856819338200,16.729338134765626,-7.877171993255615,-5.107480049133301,3.4815568923950195
1710889856838297600,16.748297607421875,-8.051848411560059,-5.248656272888184,3.3930225372314453
1710889856857257200,16.76725732421875,-8.207381248474121,-5.338387489318848,3.404986619949341
1710889856876216800,16.786216796875,-8.227720260620117,-5.368297576904297,3.4097721576690674
1710889856895176400,16.805176513671874,-8.075776100158691,-5.259424209594727,3.326023578643799
1710889856914135800,16.8241357421875,-7.759923934936523,-4.913661479949951,3.2231321334838867
1710889856933095400,16.843095458984376,-7.4464640617370605,-4.588237285614014,3.0544381141662598
1710889856952055000,16.862054931640625,-7.3160552978515625,-4.4243292808532715,2.83669114112854
1710889856971014400,16.881014404296874,-7.464410305023193,-4.508078098297119,2.6943182945251465
1710889856989974000,16.89997412109375,-7.82692289352417,-4.78803825378418,2.7182464599609375
1710889857008933600,16.91893359375,-8.090133666992188,-5.155336380004883,2.8450660705566406
1710889857027893000,16.93789306640625,-8.2157564163208,-5.459224700927734,3.008974552154541
1710889857046852600,16.9568525390625,-8.204988479614258,-5.4520463943481445,3.190829038619995
1710889857065812200,16.975812255859374,-8.02791976928711,-5.272584915161133,3.314059257507324
1710889857084771800,16.994771728515627,-7.8077802658081055,-5.053641319274902,3.3379876613616943
1710889857103731200,17.013731201171876,-7.64028263092041,-4.90408992767334,3.2853455543518066
1710889857122690800,17.03269091796875,-7.605587005615234,-4.892126083374023,3.2099716663360596
1710889857141650400,17.051650390625,-7.6737823486328125,-5.0356950759887695,3.087937593460083
1710889857160609800,17.07060986328125,-7.685746192932129,-5.1804609298706055,2.9347970485687256
1710889857179569400,17.0895693359375,-7.690532207489014,-5.3216376304626465,2.86061954498291
1710889857198529000,17.108529052734376,-7.782655715942383,-5.416153907775879,2.861815929412842
1710889857217488600,17.127488525390625,-7.901100158691406,-5.431707382202148,2.874976396560669
1710889857236448000,17.146447998046874,-7.968099594116211,-5.389832973480225,3.0317063331604004
1710889857255407600,17.16540771484375,-7.785048484802246,-5.284548759460449,3.219542980194092
1710889857274367200,17.1843671875,-7.630711555480957,-5.194818019866943,3.387040376663208
1710889857293326800,17.203326904296876,-7.765905857086182,-5.24626350402832,3.4337005615234375
1710889857312286500,17.222286376953125,-7.8795647621154785,-5.330012321472168,3.4157543182373047
1710889857331245800,17.241245849609374,-7.75753116607666,-5.382654666900635,3.3056845664978027
1710889857350205400,17.260205322265627,-7.5050883293151855,-5.307280540466309,3.0903303623199463
1710889857369165000,17.2791650390625,-7.494320392608643,-5.347958564758301,2.8426733016967773
1710889857388124700,17.298124755859376,-7.713263988494873,-5.525027275085449,2.5112674236297607
1710889857407084000,17.317083984375,-7.853243827819824,-5.516652584075928,2.3270199298858643
1710889857426043600,17.336043701171874,-7.850851058959961,-5.489135265350342,2.2480568885803223
1710889857445003300,17.355003173828123,-7.966903209686279,-5.416153907775879,2.3234307765960693
1710889857463963000,17.373962890625,-8.110472679138184,-5.4041900634765625,2.568695068359375
1710889857482922200,17.392922119140625,-7.992027759552002,-5.478367328643799,2.82951283454895
1710889857501881900,17.4118818359375,-7.810173034667969,-5.466403484344482,2.9515466690063477
1710889857520841500,17.430841552734375,-7.752745151519775,-5.355136871337891,2.9694929122924805
1710889857539801000,17.449801025390624,-7.770691394805908,-5.401797294616699,2.8725836277008057
1710889857558760700,17.4687607421875,-7.622336387634277,-5.410171985626221,2.7278177738189697
1710889857577720000,17.487719970703125,-7.381857872009277,-5.302495002746582,2.526820659637451
1710889857596679700,17.5066796875,-7.3878397941589355,-5.2354960441589355,2.3952155113220215
1710889857615639300,17.525639404296875,-7.691728591918945,-5.460421085357666,2.3533411026000977
1710889857634599000,17.544598876953124,-7.767102241516113,-5.54177713394165,2.2995026111602783
1710889857653558500,17.56355859375,-7.560122966766357,-5.400600910186768,2.17627215385437
1710889857672518000,17.582517822265626,-7.828119277954102,-5.430510997772217,2.0961127281188965
1710889857691477500,17.6014775390625,-8.555537223815918,-5.794219970703125,2.1774685382843018
1710889857710437000,17.62043701171875,-8.538787841796875,-5.938985824584961,2.2372891902923584
1710889857729396700,17.639396728515624,-7.786244869232178,-5.699703693389893,2.3772692680358887
1710889857748356400,17.6583564453125,-7.458428382873535,-5.675775527954102,2.146361827850342
1710889857767315700,17.677315673828126,-7.910671710968018,-5.581258773803711,1.939382791519165
1710889857786275300,17.696275390625,-8.087740898132324,-5.575276851654053,1.9609181880950928
1710889857805235000,17.71523486328125,-7.501499176025391,-5.702096462249756,2.348555326461792
1710889857824194600,17.734194580078125,-7.037291526794434,-5.849255084991455,2.7146573066711426
1710889857843154200,17.753154296875,-7.397411346435547,-6.0538411140441895,2.9252257347106934
1710889857862113500,17.772113525390626,-7.981259822845459,-6.320641040802002,2.968296527862549
1710889857881073200,17.7910732421875,-7.8556365966796875,-6.348158359527588,2.939582586288452
1710889857900032800,17.81003271484375,-7.396214962005615,-6.221338748931885,3.0939197540283203
1710889857918992400,17.828992431640625,-7.385447025299072,-6.2428741455078125,3.3308091163635254
1710889857937952000,17.847951904296874,-7.361518859863281,-5.92223596572876,3.555734395980835
1710889857956911600,17.86691162109375,-7.103094100952148,-5.571687698364258,3.4576287269592285
1710889857975871200,17.885871337890624,-7.227520942687988,-5.746363639831543,3.150151014328003
1710889857994830600,17.90483056640625,-7.664210796356201,-6.032305717468262,3.119044303894043
1710889858013790200,17.923790283203125,-7.69531774520874,-5.97727108001709,3.1166515350341797
1710889858032749800,17.942749755859374,-7.263412952423096,-5.5621161460876465,2.7517459392547607
1710889858051709400,17.96170947265625,-7.013363361358643,-4.955535888671875,2.1104695796966553
1710889858070669000,17.9806689453125,-7.167700290679932,-4.752145767211914,1.688136339187622
1710889858089628700,17.999628662109377,-7.423732280731201,-5.1768717765808105,1.664208173751831
1710889858108588300,18.01858837890625,-7.558926582336426,-5.777470111846924,1.7336000204086304
1710889858127548000,18.0375478515625,-7.830512046813965,-6.126822471618652,1.7276179790496826
1710889858146507300,18.05650732421875,-8.062616348266602,-6.0370917320251465,1.8245272636413574
1710889858165467000,18.075466796875,-8.070990562438965,-5.720042705535889,2.196611166000366
1710889858184426500,18.094426513671873,-7.984848976135254,-5.355136871337891,2.816352367401123
1710889858203386000,18.11338623046875,-7.929814338684082,-5.1768717765808105,3.219542980194092
1710889858222345700,18.132345703125,-7.795815944671631,-4.955535888671875,3.3583266735076904
1710889858241305300,18.151305419921876,-7.624729156494141,-4.789234638214111,3.3032915592193604
1710889858260265000,18.170264892578125,-7.6666035652160645,-4.9160542488098145,3.1968109607696533
1710889858279224600,18.189224609375,-7.8903326988220215,-5.291727066040039,3.0077781677246094
1710889858298184000,18.208183837890626,-7.969295978546143,-5.30847692489624,2.7290141582489014
1710889858317143800,18.227143798828124,-7.837690353393555,-4.7712883949279785,2.6213371753692627
1710889858336103400,18.246103515625,-7.77188777923584,-4.41475772857666,2.7326035499572754
1710889858355062800,18.265062744140625,-8.084151268005371,-4.949553489685059,2.700300455093384
1710889858374022400,18.2840224609375,-8.237292289733887,-5.54177713394165,2.355733871459961
1710889858392982000,18.30298193359375,-7.696514129638672,-5.413761138916016,2.221735715866089
1710889858411941600,18.321941650390624,-7.404589653015137,-5.009374141693115,2.087737798690796
1710889858430901200,18.3409013671875,-7.762316703796387,-4.728217601776123,1.750349760055542
1710889858449860900,18.35986083984375,-8.307880401611328,-4.536791801452637,1.2167502641677856
1710889858468820500,18.378820556640626,-8.636893272399902,-4.716253280639648,0.8889335989952087
1710889858487780000,18.397780029296875,-9.058030128479004,-5.781059741973877,1.1928220987319946
1710889858506739500,18.416739501953124,-9.073583602905273,-6.758527755737305,1.5864413976669312
1710889858525699300,18.43569921875,-8.2695951461792,-6.777669906616211,1.755135416984558
1710889858544659000,18.454658935546874,-7.805387496948242,-7.0169525146484375,1.4225330352783203
1710889858563618300,18.473618408203127,-8.244470596313477,-7.458428382873535,0.9236295223236084
1710889858582578000,18.492577880859375,-9.05563735961914,-7.045666217803955,0.7932206988334656
1710889858601537500,18.51153759765625,-9.242277145385742,-5.787041664123535,1.1270195245742798
1710889858620497200,18.5304970703125,-9.072386741638184,-4.7605204582214355,2.091326951980591
1710889858639456800,18.549456787109374,-8.664410591125488,-4.3310089111328125,2.857030153274536
1710889858658416400,18.56841650390625,-7.820940971374512,-4.527220249176025,2.8283164501190186
1710889858677376000,18.5873759765625,-7.04207706451416,-5.420939922332764,2.181057929992676
1710889858696335600,18.606335693359377,-6.881757736206055,-6.44387149810791,1.7694923877716064
1710889858715295200,18.625295166015626,-7.380661487579346,-6.689135551452637,1.7359927892684937
1710889858734254800,18.6442548828125,-7.99800968170166,-6.011966705322266,2.2719850540161133
1710889858753214500,18.66321435546875,-8.440681457519531,-5.56450891494751,2.774477958679199
1710889858772173800,18.682173828125,-8.325826644897461,-5.456831932067871,2.86061954498291
1710889858791133700,18.7011337890625,-7.734799385070801,-5.219942569732666,2.620140790939331
1710889858810093300,18.72009326171875,-7.069594383239746,-5.175675392150879,2.335394859313965
1710889858829052700,18.739052734375,-6.592226505279541,-5.5142598152160645,2.23848557472229
1710889858848012300,18.75801220703125,-6.685546398162842,-5.687739372253418,2.410768747329712
1710889858866972000,18.776971923828125,-7.249056339263916,-5.4520463943481445,2.6261229515075684
1710889858885931500,18.795931640625,-7.599604606628418,-5.095515727996826,2.8773691654205322
1710889858904891100,18.81489111328125,-7.910671710968018,-5.352744102478027,3.1645078659057617
1710889858923850800,18.833850830078124,-7.929814338684082,-6.197410583496094,3.3332018852233887
1710889858942810400,18.852810302734376,-7.603193759918213,-6.472585201263428,3.253042459487915
1710889858961770000,18.87177001953125,-7.2335028648376465,-6.419943332672119,2.5674986839294434
1710889858980729600,18.8907294921875,-6.869793891906738,-6.708278179168701,1.231107234954834
1710889858999689200,18.909689208984375,-7.004988193511963,-6.775277137756348,0.364905446767807
1710889859018648800,18.92864892578125,-7.864011764526367,-6.49770975112915,0.7752745151519775
1710889859037608200,18.947608154296876,-8.48734188079834,-6.102894306182861,1.4859428405761719
1710889859056567800,18.96656787109375,-8.166703224182129,-5.9784674644470215,1.4021940231323242
1710889859075527700,18.985527587890626,-7.58644437789917,-6.583851337432861,0.9355936646461487
1710889859094487300,19.0044873046875,-7.572087287902832,-6.990631580352783,0.9284151792526245
1710889859113446700,19.02344677734375,-7.963313579559326,-6.819544315338135,1.357926845550537
1710889859132406300,19.04240625,-8.070990562438965,-6.6006011962890625,1.604387640953064
1710889859151366000,19.061365966796874,-7.805387496948242,-6.0849480628967285,1.5038890838623047
1710889859170325500,19.080325439453127,-7.517052173614502,-5.547759532928467,1.3435698747634888
1710889859189285000,19.09928515625,-7.674978733062744,-5.430510997772217,1.2873386144638062
1710889859208244700,19.11824462890625,-8.059026718139648,-5.645864963531494,1.4249259233474731
1710889859227204400,19.137204345703125,-8.037490844726562,-5.723631858825684,1.755135416984558
1710889859246164000,19.1561640625,-7.767102241516113,-5.637490272521973,2.170290231704712
1710889859265123600,19.17512353515625,-7.568498134613037,-5.529813289642334,2.273181438446045
1710889859284083200,19.194083251953124,-7.6666035652160645,-5.755934715270996,2.0709879398345947
1710889859303042800,19.213042724609377,-7.798209190368652,-6.040680885314941,1.7431713342666626
1710889859322002200,19.232002197265626,-7.775477409362793,-6.080162525177002,1.664208173751831
1710889859340961800,19.2509619140625,-7.6630144119262695,-5.994020938873291,1.6857435703277588
1710889859359921400,19.26992138671875,-7.467999458312988,-5.907878875732422,1.5314065217971802
1710889859378881000,19.288881103515624,-7.232306480407715,-5.739185333251953,1.542174220085144
1710889859397840600,19.307840576171873,-7.465606689453125,-5.566901683807373,1.7048860788345337
1710889859416800300,19.32680029296875,-7.89631462097168,-5.418546676635742,2.1164517402648926
1710889859435759900,19.345759765625,-7.931010723114014,-5.243870735168457,2.5495524406433105
1710889859454719500,19.364719482421876,-7.6151580810546875,-5.271388053894043,2.96111798286438
1710889859473679000,19.38367919921875,-7.416553974151611,-5.4628143310546875,3.102294445037842
1710889859492638700,19.402638671875,-7.447660446166992,-5.699703693389893,2.8701908588409424
1710889859511598300,19.421598388671875,-7.573283672332764,-5.828916072845459,2.287538528442383
1710889859530557700,19.4405576171875,-7.774280548095703,-5.887540340423584,1.8221344947814941
1710889859549517300,19.459517333984376,-7.957331657409668,-6.098108291625977,1.4979069232940674
1710889859568477000,19.478476806640625,-8.183453559875488,-6.454638957977295,1.1234302520751953
1710889859587436500,19.4974365234375,-7.964509963989258,-6.616154670715332,0.6687939167022705
1710889859606396200,19.516396240234375,-7.622336387634277,-6.521637916564941,0.47617170214653015
1710889859625355800,19.535355712890624,-7.5050883293151855,-6.455835342407227,0.5910272002220154
1710889859644315400,19.5543154296875,-7.523034572601318,-6.437889099121094,1.042074203491211
1710889859663275000,19.57327490234375,-7.791030406951904,-6.422336101531982,1.597209095954895
1710889859682234600,19.592234619140626,-7.87358283996582,-6.38883638381958,2.117648124694824
1710889859701194200,19.6111943359375,-7.915457248687744,-6.315855503082275,2.3401806354522705
1710889859720153900,19.63015380859375,-7.6474609375,-6.0502519607543945,2.4119651317596436
1710889859739113200,19.64911328125,-7.341179847717285,-5.828916072845459,2.480160713195801
1710889859758072800,19.66807275390625,-7.33759069442749,-5.789434432983398,2.496910333633423
1710889859777032400,19.687032470703127,-7.69531774520874,-5.911468505859375,2.304288148880005
1710889859795992000,19.705991943359376,-7.786244869232178,-6.044270038604736,2.0745773315429688
1710889859814951700,19.72495166015625,-7.156932353973389,-5.911468505859375,1.9812572002410889
1710889859833911300,19.743911376953125,-7.020541667938232,-5.657829284667969,2.194218397140503
1710889859852871000,19.762870849609374,-7.5326056480407715,-6.02393102645874,2.0410776138305664
1710889859871830500,19.78183056640625,-7.785048484802246,-6.514459609985352,1.7359927892684937
1710889859890790000,19.800789794921876,-7.46201753616333,-6.447460651397705,1.7599210739135742
1710889859909749500,19.81974951171875,-7.454838752746582,-6.421139717102051,2.007578134536743
1710889859928709000,19.838709228515626,-7.765905857086182,-6.818347930908203,2.2372891902923584
1710889859947668700,19.857668701171875,-8.055437088012695,-7.365108013153076,2.2923240661621094
1710889859966628400,19.87662841796875,-7.884350776672363,-7.529016494750977,2.218146562576294
1710889859985588000,19.895587890625,-7.560122966766357,-7.389036178588867,2.2444677352905273
1710889860004547600,19.914547607421873,-7.737192153930664,-7.277770042419434,2.159522533416748
1710889860023507000,19.9335068359375,-7.738388538360596,-7.098308563232422,2.203789710998535
1710889860042466600,19.952466552734375,-7.475177764892578,-6.655636310577393,2.365305185317993
1710889860061426200,19.97142626953125,-7.1988067626953125,-6.174678802490234,2.5363919734954834
1710889860080385800,19.9903857421875,-7.700103282928467,-6.370890140533447,2.4765713214874268
1710889860099345400,20.009345458984374,-7.546962738037109,-6.759724140167236,2.4681966304779053
1710889860118304800,20.0283046875,-6.842276573181152,-6.744170665740967,2.379662036895752
1710889860137264400,20.047264404296875,-6.539584159851074,-6.608976364135742,1.9094724655151367
1710889860156224000,20.06622412109375,-6.8482584953308105,-6.845865726470947,1.5720844268798828
1710889860175183600,20.08518359375,-7.1509504318237305,-7.325626373291016,0.9786644577980042
1710889860194143200,20.104143310546874,-6.689135551452637,-7.350750923156738,0.45104706287384033
1710889860213102800,20.123102783203127,-5.79063081741333,-6.904489517211914,0.6448656916618347
1710889860232062500,20.1420625,-5.8097734451293945,-6.508477687835693,1.0121639966964722
1710889860251022000,20.16102197265625,-6.6939215660095215,-6.8279194831848145,1.2550355195999146
1710889860269981400,20.1799814453125,-6.833901405334473,-7.208378314971924,1.7180466651916504
1710889860288941000,20.198941162109374,-6.088537216186523,-6.959524631500244,2.6225335597991943
1710889860307900700,20.217900634765623,-5.740381717681885,-6.856633186340332,2.799602508544922
1710889860326860300,20.2368603515625,-6.479763507843018,-7.460821151733398,2.9527430534362793
1710889860345820000,20.25581982421875,-5.734399318695068,-9.028120040893555,3.22552490234375
1710889860364779300,20.274779296875,-3.6741790771484375,-7.743174076080322,3.507878065109253
1710889860383739000,20.29373876953125,-3.7160534858703613,-5.520241737365723,3.3571300506591797
1710889860402698500,20.312698486328124,-5.529813289642334,-5.598008632659912,2.5770699977874756
1710889860421658000,20.331658203125,-6.716653347015381,-7.0408806800842285,1.9669002294540405
1710889860440617700,20.35061767578125,-6.345765590667725,-7.701299667358398,1.755135416984558
1710889860459577300,20.369577392578126,-5.474778175354004,-8.139185905456543,1.5637096166610718
1710889860478537000,20.388536865234375,-5.203192710876465,-8.003992080688477,1.470389485359192
1710889860497496300,20.407496337890624,-6.072983741760254,-7.384250640869141,1.9094724655151367
1710889860516456000,20.4264560546875,-6.665207386016846,-7.371089935302734,2.495713949203491
1710889860535415600,20.44541552734375,-6.087340831756592,-7.511070251464844,2.794816732406616
1710889860554375200,20.464375244140626,-5.002195835113525,-7.328019142150879,3.1896326541900635
1710889860573334800,20.483334716796875,-5.717649936676025,-7.576872825622559,3.570091485977173
1710889860592294100,20.502294189453124,-6.333801746368408,-7.5565338134765625,3.7663028240203857
1710889860611253800,20.521253662109373,-6.2871413230896,-8.334200859069824,3.2626137733459473
1710889860630213400,20.54021337890625,-5.520241737365723,-8.258827209472656,2.809173822402954
1710889860649173000,20.559173095703127,-5.992824077606201,-8.032705307006836,2.5292134284973145
1710889860668132600,20.578132568359376,-7.094718933105469,-8.506484031677246,2.249253273010254
1710889860687092000,20.597092041015625,-6.393621921539307,-8.967103004455566,2.087737798690796
1710889860706051600,20.616051513671874,-4.954339504241943,-8.23848819732666,2.417947292327881
1710889860725011200,20.63501123046875,-5.027320384979248,-7.167700290679932,3.34995174407959
1710889860743970800,20.653970703125,-5.910272121429443,-7.0301127433776855,3.844069480895996
1710889860762930200,20.67293017578125,-5.862415313720703,-7.325626373291016,3.473181962966919
1710889860781889800,20.691889892578125,-5.870790481567383,-7.611568927764893,3.060420274734497
1710889860800849400,20.710849365234374,-5.9509501457214355,-6.87099027633667,2.8414769172668457
1710889860819809000,20.72980908203125,-6.814758777618408,-6.838686943054199,2.572284460067749
1710889860838768600,20.7487685546875,-5.85284423828125,-7.338787078857422,1.9405791759490967
1710889860857728000,20.76772802734375,-4.694717884063721,-7.5673017501831055,2.396411895751953
1710889860876687600,20.7866875,-5.485546112060547,-7.523034572601318,2.383251428604126
1710889860895647200,20.805647216796874,-6.478567123413086,-7.227520942687988,2.482553482055664
1710889860914606800,20.82460693359375,-5.526223659515381,-7.683353424072266,2.6057839393615723
1710889860933566500,20.84356640625,-4.935196876525879,-7.200003147125244,2.794816732406616
1710889860952525800,20.86252587890625,-5.723631858825684,-7.251449108123779,2.6943182945251465
1710889860971485400,20.8814853515625,-6.208178520202637,-7.952546119689941,2.706282377243042
1710889860990445000,20.900445068359375,-5.456831932067871,-8.090133666992188,2.8689942359924316
1710889861009404700,20.91940478515625,-4.706682205200195,-7.527820110321045,3.0664021968841553
1710889861028364000,20.938364013671876,-5.507081508636475,-7.485945701599121,2.8139593601226807
1710889861047323600,20.95732373046875,-6.234499454498291,-7.902296543121338,2.719442844390869
1710889861066283300,20.976283203125,-5.6793646812438965,-8.160721778869629,3.056830883026123
1710889861085243000,20.995242919921875,-4.766502857208252,-8.097311973571777,3.1860432624816895
1710889861104202500,21.014202392578124,-4.673182487487793,-7.715656757354736,3.5641093254089355
1710889861123161900,21.033161865234376,-5.0979084968566895,-7.350750923156738,3.8356947898864746
1710889861142121500,21.05212158203125,-5.257031440734863,-7.715656757354736,3.9493536949157715
1710889861161081000,21.0710810546875,-4.862215518951416,-8.042277336120605,3.755535125732422
1710889861180040700,21.090040771484375,-4.878965377807617,-7.763513088226318,3.3332018852233887
1710889861199000000,21.109,-5.229514122009277,-7.470392227172852,2.9766714572906494
1710889861217959700,21.127959716796877,-5.112265586853027,-8.067401885986328,3.157329559326172
1710889861236919300,21.146919189453126,-4.728217601776123,-8.513663291931152,3.269792079925537
1710889861255879000,21.16587890625,-4.590630054473877,-7.625925540924072,3.177668571472168
1710889861274838500,21.184838623046875,-5.1768717765808105,-7.0683979988098145,3.1345977783203125
1710889861293798000,21.2037978515625,-5.594419479370117,-7.891529083251953,3.3954153060913086
1710889861312757500,21.222757568359373,-5.002195835113525,-7.868797302246094,3.451646566390991
1710889861331717000,21.241717041015626,-4.65523624420166,-7.328019142150879,3.1094729900360107
1710889861350676700,21.2606767578125,-5.112265586853027,-7.493124008178711,3.016152858734131
1710889861369636400,21.27963623046875,-5.840879917144775,-7.568498134613037,3.4097721576690674
1710889861388596000,21.298595947265625,-5.5860443115234375,-7.514659404754639,3.542573928833008
1710889861407555300,21.317555419921874,-4.610969066619873,-7.4979095458984375,3.5461630821228027
1710889861426515000,21.336514892578126,-4.972285270690918,-7.237092018127441,3.5808591842651367
1710889861445474600,21.355474609375,-5.985645771026611,-7.293323516845703,3.779463291168213
1710889861464434200,21.37443408203125,-5.617151260375977,-7.7180495262146,3.768695592880249
1710889861483393800,21.393393798828125,-4.66361141204834,-7.775477409362793,3.4468610286712646
1710889861502353400,21.412353515625,-4.890929698944092,-7.274180889129639,3.5030922889709473
1710889861521313000,21.43131298828125,-6.013163089752197,-7.227520942687988,3.761517286300659
1710889861540272400,21.4502724609375,-5.832505226135254,-7.787441253662109,3.7459638118743896
1710889861559232000,21.46923193359375,-4.652843475341797,-8.001599311828613,3.655036687850952
1710889861578191600,21.488191650390625,-4.512863636016846,-7.276573657989502,3.6358940601348877
1710889861597151200,21.507151123046874,-5.174479007720947,-6.692724704742432,3.9672999382019043
1710889861616110600,21.526110595703123,-5.621936798095703,-7.429714202880859,4.140779495239258
1710889861635070200,21.5450703125,-5.0225348472595215,-7.946564197540283,3.81655216217041
1710889861654029800,21.56402978515625,-4.429114818572998,-7.684549808502197,3.682554006576538
1710889861672989400,21.582989501953126,-4.9124650955200195,-7.389036178588867,3.733999729156494
1710889861691949000,21.601948974609375,-5.587240695953369,-7.128218650817871,3.757927894592285
1710889861710908700,21.62090869140625,-5.600401401519775,-7.456035137176514,3.562912940979004
1710889861729868300,21.639868408203125,-5.000999450683594,-7.810173034667969,3.3678979873657227
1710889861748828000,21.658827880859373,-4.974678039550781,-7.386643409729004,3.586841106414795
1710889861767787300,21.677787353515626,-5.718846321105957,-6.946363925933838,3.85483717918396
1710889861786747000,21.696746826171875,-5.876772403717041,-7.186842918395996,3.6885361671447754
1710889861805706500,21.71570654296875,-5.300102233886719,-7.503891944885254,3.321237802505493
1710889861824666000,21.734666015625,-5.395814895629883,-7.29810905456543,3.321237802505493
1710889861843625700,21.753625732421874,-6.014359951019287,-7.003791809082031,3.4959139823913574
1710889861862585300,21.77258544921875,-5.923432350158691,-7.121040344238281,3.370290756225586
1710889861881545000,21.791544921875,-5.4867424964904785,-7.3878397941589355,3.212364435195923
1710889861900504600,21.810504638671876,-5.422136306762695,-7.159325122833252,3.6155550479888916
1710889861919464000,21.8294638671875,-5.870790481567383,-6.914061069488525,3.90987229347229
1710889861938423600,21.848423583984374,-5.9509501457214355,-7.074379920959473,3.834498405456543
1710889861957383200,21.867383056640627,-5.642275810241699,-7.178467750549316,3.8297126293182373
1710889861976342800,21.8863427734375,-5.684150218963623,-7.067201614379883,3.9314076900482178
1710889861995302400,21.905302490234376,-6.017949104309082,-7.15812873840332,3.9672999382019043
1710889862014262000,21.924261962890625,-6.004788398742676,-7.229913711547852,3.812962770462036
1710889862033221600,21.9432216796875,-5.947360515594482,-7.178467750549316,3.8368911743164062
1710889862052181200,21.96218115234375,-6.129215240478516,-7.152146816253662,3.902693748474121
1710889862071140600,21.981140625,-6.398407936096191,-6.912864685058594,3.9589250087738037
1710889862090100200,22.000100341796873,-6.177071571350098,-7.044469833374023,3.981656789779663
1710889862109059800,22.019059814453126,-5.706881999969482,-7.1988067626953125,3.9732820987701416
1710889862128019500,22.03801953125,-5.807380676269531,-6.8757758140563965,4.262813568115234
1710889862146979000,22.05697900390625,-6.004788398742676,-6.698707103729248,4.450650215148926
1710889862165938700,22.075938720703125,-5.894718647003174,-6.9104719161987305,4.030709743499756
1710889862184898300,22.094898193359374,-5.553741455078125,-6.9930243492126465,3.480360507965088
1710889862203858000,22.11385791015625,-5.897111415863037,-6.477370738983154,3.5820555686950684
1710889862222817500,22.132817626953123,-6.602993965148926,-6.278766632080078,3.9314076900482178
1710889862241777200,22.151777099609376,-6.308676719665527,-6.641279220581055,3.9074792861938477
1710889862260736800,22.17073681640625,-5.660222053527832,-6.764509677886963,3.5461630821228027
1710889862279696400,22.1896962890625,-5.980860233306885,-6.382854461669922,3.7531423568725586
1710889862298656000,22.208656005859375,-6.586244106292725,-6.379265308380127,4.023531436920166
1710889862317615600,22.22761572265625,-6.567101955413818,-6.507281303405762,3.817748546600342
1710889862336575000,22.246574951171876,-6.135197162628174,-6.3601226806640625,3.741178274154663
1710889862355534600,22.26553466796875,-6.092126369476318,-6.455835342407227,3.9601213932037354
1710889862374494500,22.284494384765626,-6.446264266967773,-6.788437843322754,3.968496322631836
1710889862393453800,22.303453857421875,-6.412764549255371,-6.856633186340332,3.793820381164551
1710889862412413400,22.322413330078124,-6.2500529289245605,-6.634100914001465,4.006781578063965
1710889862431373000,22.341373046875,-6.234499454498291,-6.33499813079834,4.326223373413086
1710889862450332700,22.360332763671874,-6.427121639251709,-6.374479293823242,4.478167533874512
1710889862469292300,22.379292236328126,-6.729813575744629,-6.929614543914795,4.204189300537109
1710889862488252000,22.398251953125,-7.004988193511963,-7.0887370109558105,3.7746777534484863
1710889862507211500,22.41721142578125,-7.083951473236084,-6.595815658569336,3.9948174953460693
1710889862526171100,22.436171142578125,-7.110272407531738,-6.2297139167785645,4.098905086517334
1710889862545130800,22.455130859375,-7.378268718719482,-6.2500529289245605,4.118047714233398
1710889862564090400,22.47409033203125,-7.295716285705566,-6.416353702545166,4.225724697113037
1710889862583050000,22.493050048828124,-6.781259536743164,-6.429514408111572,4.120440483093262
1710889862602009600,22.512009521484377,-6.535995006561279,-6.355337142944336,3.9637107849121094
1710889862620969200,22.53096923828125,-6.4510498046875,-6.282355785369873,4.019941806793213
1710889862639928800,22.5499287109375,-6.27996301651001,-6.320641040802002,3.8536407947540283
1710889862658888400,22.568888427734375,-6.075376510620117,-6.16391134262085,3.4995031356811523
1710889862677848000,22.58784814453125,-6.190232276916504,-5.9545392990112305,3.5258240699768066
1710889862696807700,22.6068076171875,-6.302694797515869,-6.0023956298828125,3.7806596755981445
1710889862715767300,22.625767333984374,-6.128018856048584,-6.000002861022949,3.867997884750366
1710889862734727000,22.644726806640627,-6.076572895050049,-5.827719688415527,3.996013879776001
1710889862753686500,22.6636865234375,-6.1710896492004395,-5.758327484130859,4.296313285827637
1710889862772646100,22.682646240234376,-6.2297139167785645,-6.102894306182861,4.25084924697876
1710889862791605800,22.701605712890625,-6.300302028656006,-6.569494724273682,4.0079779624938965
1710889862810565600,22.720565673828126,-6.385247230529785,-6.709474563598633,3.862015724182129
1710889862829525000,22.73952490234375,-6.445067882537842,-6.708278179168701,3.844069480895996
1710889862848484600,22.758484619140624,-6.521637916564941,-6.80159854888916,3.726821184158325
1710889862867444500,22.777444580078125,-6.658029079437256,-6.589833736419678,3.759124279022217
1710889862886403800,22.79640380859375,-7.008577346801758,-6.612565517425537,3.968496322631836
1710889862905363700,22.81536376953125,-6.879364967346191,-6.768098831176758,4.145565032958984
1710889862924323300,22.8343232421875,-6.358926296234131,-6.63051176071167,4.098905086517334
1710889862943282700,22.85328271484375,-6.355337142944336,-6.40438985824585,4.0666022300720215
1710889862962242600,22.87224267578125,-6.6484575271606445,-6.318248271942139,4.047459602355957
1710889862981202200,22.8912021484375,-6.696314334869385,-6.31944465637207,3.94815731048584
1710889863000161800,22.910161865234375,-6.594619274139404,-6.233303070068359,3.895515203475952
1710889863019121400,22.929121337890624,-6.485745906829834,-6.2428741455078125,3.8739798069000244
1710889863038081000,22.9480810546875,-6.288337707519531,-6.331408500671387,3.9122650623321533
1710889863057040600,22.96704052734375,-6.149554252624512,-6.258427619934082,3.926621913909912
1710889863076000300,22.986000244140627,-6.343372821807861,-6.003592014312744,3.94097900390625
1710889863094959900,23.0049599609375,-6.75374174118042,-6.02393102645874,4.088137626647949
1710889863113919500,23.02391943359375,-6.735795974731445,-6.401997089385986,4.029513359069824
1710889863132879000,23.042879150390625,-6.338587284088135,-6.714260101318359,3.579662561416626
1710889863151838700,23.061838623046874,-6.502495765686035,-6.427121639251709,3.649054527282715
1710889863170798300,23.08079833984375,-7.050451755523682,-6.1950178146362305,4.071387767791748
1710889863189758200,23.09975830078125,-6.747759819030762,-6.153143405914307,4.151547431945801
1710889863208717600,23.118717529296877,-6.168696880340576,-6.1603217124938965,4.04985237121582
1710889863227677400,23.137677490234374,-6.137589931488037,-6.089733600616455,4.278367042541504
1710889863246637000,23.156636962890627,-6.413960933685303,-6.161518096923828,4.518845558166504
1710889863265596700,23.1755966796875,-6.479763507843018,-6.273981094360352,4.396811485290527
1710889863284556300,23.194556396484376,-6.392425537109375,-6.364908218383789,4.012763500213623
1710889863303516000,23.213515869140625,-6.374479293823242,-6.350551128387451,3.889533281326294
1710889863322475500,23.2324755859375,-6.543173313140869,-6.369693756103516,3.94815731048584
1710889863341435100,23.25143505859375,-6.422336101531982,-6.39721155166626,3.8847475051879883
1710889863360394800,23.270394775390624,-6.345765590667725,-6.226124286651611,3.9936211109161377
1710889863379354600,23.289354736328125,-6.406782627105713,-6.246463298797607,4.284348964691162
1710889863398314200,23.308314208984374,-6.199803352355957,-6.3493547439575195,4.418346881866455
1710889863417273900,23.32727392578125,-6.0370917320251465,-6.32662296295166,4.348955154418945
1710889863436233500,23.3462333984375,-6.190232276916504,-6.157928943634033,4.4721856117248535
1710889863455193000,23.365193115234376,-6.403193473815918,-6.2428741455078125,4.639683246612549
1710889863474152700,23.384152587890625,-6.240481376647949,-6.430710792541504,4.364508628845215
1710889863493112300,23.4031123046875,-6.134000778198242,-6.508477687835693,4.130012035369873
1710889863512072200,23.422072265625,-6.5180487632751465,-6.34217643737793,4.195814609527588
1710889863531031800,23.44103173828125,-6.577869415283203,-6.288337707519531,4.274777889251709
1710889863549991400,23.459991455078125,-6.34217643737793,-6.370890140533447,4.169493675231934
1710889863568951000,23.478950927734374,-6.258427619934082,-6.369693756103516,4.113262176513672
1710889863587910700,23.49791064453125,-6.393621921539307,-6.4115681648254395,4.206582069396973
1710889863606870300,23.516870361328124,-6.308676719665527,-6.33499813079834,4.320241451263428
1710889863625830000,23.535829833984376,-6.198606967926025,-6.293123722076416,4.198207378387451
1710889863644789500,23.55478955078125,-6.251249313354492,-6.314659118652344,4.110869407653809
1710889863663749400,23.573749267578126,-6.403193473815918,-6.222535133361816,4.2723846435546875
1710889863682709000,23.592708984375,-6.392425537109375,-6.106483459472656,4.480560302734375
1710889863701668600,23.611668701171876,-6.223731517791748,-6.124429702758789,4.405186653137207
1710889863720628200,23.630628173828125,-6.245266914367676,-6.15553617477417,4.231706619262695
1710889863739587800,23.649587890625,-6.403193473815918,-6.240481376647949,4.338187217712402
1710889863758547500,23.66854736328125,-6.361319065093994,-6.329015731811523,4.335794448852539
1710889863777507000,23.687507080078124,-6.290730953216553,-6.375676155090332,4.145565032958984
1710889863796467000,23.706467041015625,-6.313462734222412,-6.2871413230896,4.07258415222168
1710889863815426600,23.725426513671874,-6.368497371673584,-6.270391941070557,4.2484564781188965
1710889863834386200,23.74438623046875,-6.332605361938477,-6.340980052947998,4.366901397705078
1710889863853345800,23.763345703125,-6.297909259796143,-6.4319071769714355,4.329812526702881
1710889863872305400,23.782305419921876,-6.329015731811523,-6.299105644226074,4.287938117980957
1710889863891265000,23.80126513671875,-6.5180487632751465,-6.175875186920166,4.240081787109375
1710889863910225000,23.820224853515626,-6.496513366699219,-6.271588325500488,4.303491592407227
1710889863929184300,23.839184326171875,-6.186643123626709,-6.40438985824585,4.202992916107178
1710889863948144000,23.85814404296875,-6.166304111480713,-6.344569206237793,4.115654945373535
1710889863967103700,23.877103759765625,-6.345765590667725,-6.206982135772705,4.3310089111328125
1710889863986063400,23.8960634765625,-6.4319071769714355,-6.290730953216553,4.431507587432861
1710889864005023000,23.91502294921875,-6.247660160064697,-6.406782627105713,4.234099864959717
1710889864023982600,23.933982666015623,-6.114858150482178,-6.4187469482421875,4.1036906242370605
1710889864042942200,23.952942138671876,-6.398407936096191,-6.33499813079834,4.161118507385254
1710889864061902000,23.971902099609373,-6.6592254638671875,-6.293123722076416,4.295116424560547
1710889864080861400,23.990861328125,-6.400800704956055,-6.285944938659668,4.179064750671387
1710889864099821300,24.0098212890625,-6.154339790344238,-6.406782627105713,4.073780536651611
1710889864118781000,24.028781005859376,-6.448657035827637,-6.3493547439575195,4.199403762817383
1710889864137740500,24.047740478515625,-6.795616149902344,-6.233303070068359,4.387240409851074
1710889864156700200,24.0667001953125,-6.4666032791137695,-6.2668023109436035,4.4410786628723145
1710889864175659800,24.08565966796875,-5.986842155456543,-6.501298904418945,4.077369689941406
1710889864194619400,24.104619384765623,-6.295516490936279,-6.433103561401367,4.034298896789551
1710889864213579300,24.123579345703124,-6.756134510040283,-6.259624004364014,4.34536600112915
1710889864232539000,24.142538818359377,-6.589833736419678,-6.293123722076416,4.376472473144531
1710889864251498500,24.16149853515625,-6.16391134262085,-6.368497371673584,4.0558342933654785
1710889864270458000,24.1804580078125,-6.212964057922363,-6.3122663497924805,3.9146578311920166
1710889864289417700,24.199417724609376,-6.573083877563477,-6.228517532348633,4.2245283126831055
1710889864308377300,24.21837744140625,-6.628118515014648,-6.247660160064697,4.299902439117432
1710889864327337000,24.2373369140625,-6.154339790344238,-6.354140758514404,4.041477680206299
1710889864346296600,24.256296630859374,-6.123233318328857,-6.343372821807861,3.9349968433380127
1710889864365256400,24.27525634765625,-6.531209468841553,-6.144768714904785,4.2209391593933105
1710889864384216000,24.294216064453124,-6.592226505279541,-6.209374904632568,4.34536600112915
1710889864403175700,24.31317578125,-6.067001819610596,-6.318248271942139,4.1659040451049805
1710889864422135300,24.33213525390625,-5.986842155456543,-6.220142364501953,4.131208419799805
1710889864441095000,24.351094970703127,-6.447460651397705,-6.271588325500488,4.309473514556885
1710889864460054500,24.370054443359376,-6.49770975112915,-6.38165807723999,4.372883319854736
1710889864479014100,24.38901416015625,-5.990431308746338,-6.4187469482421875,4.179064750671387
1710889864497973800,24.407973876953125,-5.966503143310547,-6.515655994415283,3.9828531742095947
1710889864516933600,24.42693359375,-6.492924213409424,-6.398407936096191,4.234099864959717
