time,seconds_elapsed,z,y,x
1711550507629873000,0.048872802734375,3.4497785568237305,7.736812114715576,4.940764904022217
1711550507648831200,0.067831298828125,3.55692458152771,7.587248802185059,5.094342231750488
1711550507667789600,0.08678955078125,3.6167924404144287,7.452926158905029,5.2481513023376465
1711550507686748200,0.105748046875,3.697998523712158,7.344420909881592,5.343656539916992
1711550507705706500,0.12470654296875,3.7351348400115967,7.31954288482666,5.351957321166992
1711550507724665000,0.1436650390625,3.7224321365356445,7.367308139801025,5.294966220855713
1711550507743623400,0.16262353515625,3.6687686443328857,7.443912982940674,5.224815368652344
1711550507762581800,0.181581787109375,3.610203981399536,7.506982803344727,5.175135612487793
1711550507781540400,0.200540283203125,3.5699687004089355,7.543089389801025,5.150487422943115
1711550507800498700,0.219498779296875,3.5487561225891113,7.552546501159668,5.151287078857422
1711550507819457000,0.23845703125,3.5436055660247803,7.547233581542969,5.1626081466674805
1711550507838415600,0.25741552734375,3.5497825145721436,7.542787075042725,5.164860248565674
1711550507857374000,0.2763740234375,3.5506789684295654,7.547885417938232,5.156792640686035
1711550507876332300,0.295332275390625,3.539884090423584,7.561234474182129,5.1446428298950195
1711550507895291000,0.314290771484375,3.5207247734069824,7.576659679412842,5.135086536407471
1711550507914249200,0.333249267578125,3.5042471885681152,7.586409091949463,5.131962299346924
1711550507933207800,0.352207763671875,3.482839822769165,7.592687129974365,5.1372480392456055
1711550507952166100,0.371166259765625,3.4712319374084473,7.592053413391113,5.146032810211182
1711550507971124700,0.390124755859375,3.464143991470337,7.592489242553711,5.150165557861328
1711550507990083000,0.4090830078125,3.4499735832214355,7.5975422859191895,5.152225494384766
1711550508009041700,0.428041748046875,3.4316928386688232,7.607059001922607,5.150390148162842
1711550508028000000,0.447,3.4167940616607666,7.613838195800781,5.150279521942139
1711550508046958300,0.465958251953125,3.40517520904541,7.618041038513184,5.151759147644043
1711550508065917000,0.4849169921875,3.394988536834717,7.618906021118164,5.157198905944824
1711550508084875500,0.50387548828125,3.3861448764801025,7.616314888000488,5.166832447052002
1711550508103833900,0.522833740234375,3.38867449760437,7.611637115478516,5.172064304351807
1711550508122792200,0.541792236328125,3.398376226425171,7.602082252502441,5.179746627807617
1711550508141750800,0.560750732421875,3.4054622650146484,7.589036464691162,5.194201469421387
1711550508160709400,0.57970947265625,3.4147450923919678,7.574187755584717,5.20975923538208
1711550508179667700,0.598667724609375,3.4322304725646973,7.559875011444092,5.219048976898193
1711550508198626000,0.6176259765625,3.452512264251709,7.548800945281982,5.221699237823486
1711550508217584600,0.636584716796875,3.4712421894073486,7.541788578033447,5.219415664672852
1711550508236543200,0.655543212890625,3.48473858833313,7.538888454437256,5.214608192443848
1711550508255501600,0.67450146484375,3.4859073162078857,7.539553165435791,5.212867259979248
1711550508274460200,0.693460205078125,3.4713661670684814,7.541783332824707,5.219341278076172
1711550508293418500,0.71241845703125,3.439295768737793,7.547165870666504,5.2327728271484375
1711550508312377000,0.731377197265625,3.3975772857666016,7.556966781616211,5.245866298675537
1711550508331335400,0.75033544921875,3.3568522930145264,7.569550514221191,5.253936767578125
1711550508350294000,0.7692939453125,3.320448398590088,7.580796718597412,5.260849475860596
1711550508369252600,0.788252685546875,3.2885780334472656,7.590522289276123,5.266841411590576
1711550508388211000,0.8072109375,3.2529666423797607,7.601744651794434,5.272767066955566
1711550508407169500,0.82616943359375,3.2231132984161377,7.608922481536865,5.280742168426514
1711550508426128100,0.845128173828125,3.2095093727111816,7.6099019050598145,5.287609577178955
1711550508445086500,0.86408642578125,3.211357593536377,7.606091499328613,5.291970252990723
1711550508464045000,0.883045166015625,3.22544264793396,7.59841251373291,5.29443359375
1711550508483003600,0.902003662109375,3.252260684967041,7.586320877075195,5.295368194580078
1711550508501962000,0.9209619140625,3.2765793800354004,7.5738983154296875,5.298159122467041
1711550508520920600,0.939920654296875,3.292147397994995,7.569685459136963,5.294527053833008
1711550508539879200,0.958879150390625,3.298882484436035,7.569962978363037,5.289936065673828
1711550508558837500,0.97783740234375,3.301683187484741,7.567284107208252,5.292019367218018
1711550508577796000,0.996796142578125,3.298975706100464,7.565089225769043,5.29684591293335
1711550508596754700,1.015754638671875,3.2912681102752686,7.567930698394775,5.297579765319824
1711550508615713000,1.034713134765625,3.2811505794525146,7.574016571044922,5.295160293579102
1711550508634671600,1.053671630859375,3.266343593597412,7.581653118133545,5.293385982513428
1711550508653630200,1.072630126953125,3.2497098445892334,7.590002059936523,5.291656970977783
1711550508672588800,1.0915888671875,3.2332050800323486,7.596963405609131,5.291778087615967
1711550508691547400,1.11054736328125,3.2175185680389404,7.6010284423828125,5.295501708984375
1711550508710505700,1.129505615234375,3.2039880752563477,7.604250431060791,5.299078941345215
1711550508729464300,1.14846435546875,3.193131685256958,7.607694625854492,5.300685882568359
1711550508748423000,1.1674228515625,3.1817240715026855,7.612888336181641,5.300089359283447
1711550508767381500,1.186381591796875,3.1674551963806152,7.621285438537598,5.296567916870117
1711550508786340000,1.205340087890625,3.1449344158172607,7.632643699645996,5.293630599975586
1711550508805298400,1.22429833984375,3.1180741786956787,7.643442630767822,5.293938159942627
1711550508824257000,1.243257080078125,3.095384359359741,7.651157379150391,5.296110153198242
1711550508843215600,1.262215576171875,3.082486391067505,7.655559539794922,5.297269821166992
1711550508862174200,1.28117431640625,3.075624942779541,7.659437656402588,5.295651912689209
1711550508881132800,1.3001328125,3.076662540435791,7.663542747497559,5.289106369018555
1711550508900091400,1.31909130859375,3.0825517177581787,7.66471004486084,5.2839837074279785
1711550508919050000,1.338050048828125,3.093235492706299,7.661969184875488,5.281713485717773
1711550508938008600,1.357008544921875,3.1072802543640137,7.658764839172363,5.278116226196289
1711550508956967200,1.37596728515625,3.121732711791992,7.658217430114746,5.2703776359558105
1711550508975925500,1.394925537109375,3.1281509399414062,7.658661842346191,5.265924453735352
1711550508994884400,1.41388427734375,3.1326522827148438,7.655827522277832,5.267368793487549
1711550509013843000,1.432843017578125,3.132776975631714,7.651492595672607,5.273590087890625
1711550509032801300,1.45180126953125,3.1207385063171387,7.652225494384766,5.279661655426025
1711550509051760000,1.470760009765625,3.0995490550994873,7.659335613250732,5.281833171844482
1711550509070718500,1.489718505859375,3.076146125793457,7.666423320770264,5.285231590270996
1711550509089677300,1.50867724609375,3.0534143447875977,7.67038631439209,5.292657852172852
1711550509108635600,1.5276357421875,3.0335421562194824,7.673530101776123,5.299523830413818
1711550509127594500,1.546594482421875,3.0166547298431396,7.679391384124756,5.300673484802246
1711550509146553000,1.565552978515625,3.0028696060180664,7.685431957244873,5.299744606018066
1711550509165511700,1.58451171875,2.9982619285583496,7.6890668869018555,5.297080993652344
1711550509184470300,1.60347021484375,3.003591775894165,7.6893415451049805,5.293661594390869
1711550509203428900,1.622428955078125,3.0162136554718018,7.688195705413818,5.288144588470459
1711550509222387500,1.641387451171875,3.031425714492798,7.687878131866455,5.279903411865234
1711550509241346000,1.660345947265625,3.0462419986724854,7.687723636627197,5.271594047546387
1711550509260304600,1.6793046875,3.057772159576416,7.683704376220703,5.270778656005859
1711550509279263200,1.69826318359375,3.068500280380249,7.675638198852539,5.27629280090332
1711550509298221800,1.717221923828125,3.076650619506836,7.668337821960449,5.282159805297852
1711550509317180400,1.736180419921875,3.082000255584717,7.665353775024414,5.283371448516846
1711550509336139300,1.75513916015625,3.0880730152130127,7.665647506713867,5.2793965339660645
1711550509355097900,1.774097900390625,3.0966978073120117,7.66469144821167,5.275732517242432
1711550509374056400,1.793056396484375,3.1037042140960693,7.6603217124938965,5.277961730957031
1711550509393015000,1.81201513671875,3.108470916748047,7.654642581939697,5.283391952514648
1711550509411973600,1.8309736328125,3.1135878562927246,7.648657321929932,5.289044380187988
1711550509430932500,1.849932373046875,3.1212525367736816,7.642654895782471,5.293202877044678
1711550509449891000,1.86889111328125,3.128896474838257,7.6394243240356445,5.293353080749512
1711550509468849700,1.887849609375,3.1319644451141357,7.638427734375,5.2929768562316895
1711550509487808300,1.906808349609375,3.1268460750579834,7.637694358825684,5.297059535980225
1711550509506767000,1.92576708984375,3.114971876144409,7.637678623199463,5.304073810577393
1711550509525725700,1.9447255859375,3.1104135513305664,7.635404586791992,5.310019493103027
1711550509544684300,1.963684326171875,3.10781192779541,7.631226062774658,5.3175435066223145
1711550509563643000,1.982642822265625,3.1000587940216064,7.633968830108643,5.31813383102417
1711550509582601500,2.0016015625,3.092193841934204,7.638686656951904,5.315937042236328
1711550509601560300,2.020560302734375,3.0909512042999268,7.637279033660889,5.318681716918945
1711550509620519000,2.039518798828125,3.096402406692505,7.635219573974609,5.318469047546387
1711550509639477500,2.0584775390625,3.104102373123169,7.636321067810059,5.312395095825195
1711550509658436400,2.077436279296875,3.111234188079834,7.6360321044921875,5.308637619018555
1711550509677395000,2.09639501953125,3.118011951446533,7.633291244506836,5.308602333068848
1711550509696353500,2.115353515625,3.122227907180786,7.631206035614014,5.309119701385498
1711550509715312400,2.1343125,3.121380090713501,7.629481792449951,5.312098503112793
1711550509734271000,2.15327099609375,3.1153533458709717,7.62811803817749,5.317591190338135
1711550509753229600,2.1722294921875,3.1076252460479736,7.628424167633057,5.32167387008667
1711550509772188400,2.1911884765625,3.101015090942383,7.62904167175293,5.324642181396484
1711550509791147000,2.21014697265625,3.097397804260254,7.630368709564209,5.32484769821167
1711550509810105900,2.22910595703125,3.0959386825561523,7.632291316986084,5.322939395904541
1711550509829064400,2.248064453125,3.092452049255371,7.633751392364502,5.322873592376709
1711550509848023000,2.26702294921875,3.08778977394104,7.634033203125,5.325173854827881
1711550509866982000,2.28598193359375,3.0817389488220215,7.633103370666504,5.330008506774902
1711550509885940500,2.3049404296875,3.073697090148926,7.6325273513793945,5.335474967956543
1711550509904899000,2.323899169921875,3.063807249069214,7.634385108947754,5.338504791259766
1711550509923858000,2.34285791015625,3.0522119998931885,7.639041900634766,5.338486194610596
1711550509942816500,2.36181640625,3.0396080017089844,7.643725395202637,5.3389739990234375
1711550509961775400,2.380775390625,3.0291528701782227,7.647219181060791,5.339910507202148
1711550509980734000,2.39973388671875,3.026296615600586,7.650477886199951,5.336863040924072
1711550509999692800,2.41869287109375,3.035916566848755,7.6529998779296875,5.327775001525879
1711550510018651400,2.4376513671875,3.0518486499786377,7.653453350067139,5.318013668060303
1711550510037610000,2.45660986328125,3.0767250061035156,7.649647235870361,5.309147357940674
1711550510056568800,2.47556884765625,3.102910280227661,7.642047882080078,5.304848670959473
1711550510075527400,2.49452734375,3.1231307983398438,7.63606071472168,5.301604747772217
1711550510094486300,2.513486328125,3.1352717876434326,7.633145809173584,5.298635482788086
1711550510113445000,2.532445068359375,3.144392490386963,7.628558158874512,5.299838542938232
1711550510132403700,2.55140380859375,3.1521782875061035,7.622646331787109,5.303717613220215
1711550510151362300,2.5703623046875,3.156815528869629,7.620417594909668,5.304162502288818
1711550510170321200,2.589321044921875,3.154583692550659,7.625148773193359,5.29868745803833
1711550510189280000,2.608280029296875,3.145859479904175,7.633355617523193,5.292054176330566
1711550510208238600,2.627238525390625,3.12846040725708,7.640596866607666,5.29191780090332
1711550510227197200,2.646197265625,3.1075191497802734,7.646881103515625,5.295178413391113
1711550510246156000,2.665156005859375,3.086521625518799,7.654397964477539,5.296598434448242
1711550510265115000,2.684114990234375,3.068451404571533,7.661023139953613,5.297519683837891
1711550510284073500,2.703073486328125,3.054184675216675,7.667576789855957,5.296281814575195
1711550510303032300,2.7220322265625,3.0448074340820312,7.673524379730225,5.293066024780273
1711550510321991000,2.740990966796875,3.042278289794922,7.678597927093506,5.287161350250244
1711550510340949800,2.75994970703125,3.0448153018951416,7.683177947998047,5.27903938293457
1711550510359908400,2.778908447265625,3.0536484718322754,7.686218738555908,5.269502639770508
1711550510378867200,2.7978671875,3.0665552616119385,7.685452461242676,5.263121128082275
1711550510397826000,2.816825927734375,3.0796806812286377,7.68218469619751,5.260227203369141
1711550510416784600,2.83578466796875,3.092883825302124,7.679131031036377,5.256939888000488
1711550510435743500,2.854743408203125,3.1040332317352295,7.677781105041504,5.252336502075195
1711550510454702000,2.8737021484375,3.109412670135498,7.6793389320373535,5.24687385559082
1711550510473661000,2.892660888671875,3.1107802391052246,7.68245792388916,5.2414960861206055
1711550510492619800,2.911619873046875,3.1103005409240723,7.683648109436035,5.240035057067871
1711550510511578400,2.930578369140625,3.1088807582855225,7.685077667236328,5.238781452178955
1711550510530537200,2.949537109375,3.1023125648498535,7.689476490020752,5.23621940612793
1711550510549496000,2.96849609375,3.1041839122772217,7.694260120391846,5.228076934814453
1711550510568454700,2.98745458984375,3.1062986850738525,7.697606086730957,5.221892833709717
1711550510587413500,3.00641357421875,3.1020724773406982,7.701274871826172,5.218993663787842
1711550510606372000,3.0253720703125,3.098280906677246,7.704702854156494,5.216187000274658
1711550510625331000,3.0443310546875,3.099149703979492,7.705238342285156,5.214879512786865
1711550510644289800,3.063289794921875,3.102921962738037,7.70327615737915,5.215534687042236
1711550510663248600,3.08224853515625,3.1079893112182617,7.703156471252441,5.21269416809082
1711550510682207200,3.101207275390625,3.1149682998657227,7.706908702850342,5.202972412109375
1711550510701166000,3.120166015625,3.122391700744629,7.71018648147583,5.193658351898193
1711550510720124700,3.139124755859375,3.1314847469329834,7.710301876068115,5.1880083084106445
1711550510739083800,3.158083740234375,3.1401784420013428,7.708479881286621,5.185460090637207
1711550510758042400,3.17704248046875,3.1458492279052734,7.707829475402832,5.18298864364624
1711550510777001200,3.196001220703125,3.1511549949645996,7.70864200592041,5.178556442260742
1711550510795959800,3.214959716796875,3.160557270050049,7.708224773406982,5.173444747924805
1711550510814918700,3.233918701171875,3.1714560985565186,7.705615997314453,5.170661926269531
1711550510833877500,3.25287744140625,3.180999755859375,7.702558517456055,5.169354438781738
1711550510852836400,3.27183642578125,3.1857988834381104,7.70098352432251,5.1687445640563965
1711550510871795000,3.290794921875,3.1862354278564453,7.701900005340576,5.167109966278076
1711550510890753800,3.30975390625,3.185004711151123,7.702852725982666,5.166449069976807
1711550510909712600,3.328712646484375,3.18477725982666,7.701971530914307,5.167902946472168
1711550510928671500,3.34767138671875,3.1874821186065674,7.700397968292236,5.168578624725342
1711550510947630000,3.366630126953125,3.1917665004730225,7.698691368103027,5.1684770584106445
1711550510966589000,3.3855888671875,3.1950433254241943,7.696176528930664,5.170199394226074
1711550510985547800,3.4045478515625,3.1974477767944336,7.693902015686035,5.1720967292785645
1711550511004506600,3.423506591796875,3.1998629570007324,7.6923370361328125,5.172930717468262
1711550511023465200,3.44246533203125,3.2029712200164795,7.690968990325928,5.173041820526123
1711550511042424000,3.461424072265625,3.202749252319336,7.690914630889893,5.173259735107422
1711550511061383000,3.4803828125,3.2067618370056152,7.688289642333984,5.1746745109558105
1711550511080341800,3.499341796875,3.210862636566162,7.681732177734375,5.1818671226501465
1711550511099300400,3.51830029296875,3.222656488418579,7.6731953620910645,5.187191486358643
1711550511118259200,3.53725927734375,3.243326187133789,7.667346000671387,5.182955741882324
1711550511137218000,3.556218017578125,3.2675228118896484,7.661461353302002,5.176455497741699
1711550511156177000,3.575177001953125,3.2913453578948975,7.6538543701171875,5.172614097595215
1711550511175135700,3.5941357421875,3.3109264373779297,7.646930694580078,5.170358180999756
1711550511194094600,3.613094482421875,3.323828935623169,7.642331123352051,5.16887903213501
1711550511213053200,3.63205322265625,3.330447196960449,7.639903545379639,5.168209552764893
1711550511232012000,3.651011962890625,3.3307058811187744,7.639400959014893,5.1687846183776855
1711550511250971000,3.669970947265625,3.326002359390259,7.639782905578613,5.171248435974121
1711550511269929700,3.6889296875,3.3173582553863525,7.639808177947998,5.176760673522949
1711550511288888300,3.707888427734375,3.3062424659729004,7.642980575561523,5.179189205169678
1711550511307847400,3.726847412109375,3.2927634716033936,7.649569511413574,5.178048133850098
1711550511326806000,3.745805908203125,3.2834787368774414,7.654173374176025,5.1771416664123535
1711550511345764900,3.764764892578125,3.279282569885254,7.654373645782471,5.179503440856934
1711550511364723700,3.7837236328125,3.281329870223999,7.652985095977783,5.180259704589844
1711550511383682600,3.8026826171875,3.289951801300049,7.652916431427002,5.174888610839844
1711550511402641200,3.82164111328125,3.3006482124328613,7.654045581817627,5.16640043258667
1711550511421600000,3.84060009765625,3.309023857116699,7.65409517288208,5.160966396331787
1711550511440558800,3.859558837890625,3.3147695064544678,7.651920318603516,5.160505771636963
1711550511459517700,3.878517578125,3.3208982944488525,7.648910045623779,5.161025524139404
1711550511478476500,3.8974765625,3.3253071308135986,7.647595405578613,5.1601362228393555
1711550511497435400,3.916435302734375,3.325336456298828,7.648040771484375,5.159456253051758
1711550511516394200,3.935394287109375,3.320833444595337,7.6502275466918945,5.159114837646484
1711550511535353000,3.95435302734375,3.3148152828216553,7.653656959533691,5.157898426055908
1711550511554311700,3.973311767578125,3.302093267440796,7.659698486328125,5.15709114074707
1711550511573270500,3.9922705078125,3.2910778522491455,7.665412902832031,5.155641078948975
1711550511592229400,4.0112294921875,3.2842164039611816,7.666863918304443,5.157857894897461
1711550511611188200,4.030188232421875,3.279560089111328,7.667980670928955,5.1591620445251465
1711550511630147000,4.04914697265625,3.2754690647125244,7.671444892883301,5.156610488891602
1711550511649106000,4.06810595703125,3.2752327919006348,7.673000335693359,5.154445171356201
1711550511668064800,4.087064697265625,3.2773096561431885,7.6722187995910645,5.154289245605469
1711550511687023600,4.106023681640625,3.2780709266662598,7.673238754272461,5.152286052703857
1711550511705982500,4.124982421875,3.2758405208587646,7.676360130310059,5.149054050445557
1711550511724941300,4.14394140625,3.2732787132263184,7.679696559906006,5.145706653594971
1711550511743900000,4.16289990234375,3.2711527347564697,7.6827778816223145,5.142458438873291
1711550511762858800,4.181858642578125,3.269052743911743,7.685374736785889,5.139913082122803
1711550511781817600,4.200817626953125,3.2634992599487305,7.688470840454102,5.138810634613037
1711550511800776400,4.2197763671875,3.255033493041992,7.692081451416016,5.138774871826172
1711550511819735300,4.2387353515625,3.2486414909362793,7.6947503089904785,5.1388258934021
1711550511838694100,4.257694091796875,3.2461910247802734,7.696362018585205,5.137959957122803
1711550511857653000,4.276653076171875,3.2472593784332275,7.698075294494629,5.134718418121338
1711550511876611800,4.29561181640625,3.243464231491089,7.702051639556885,5.131152153015137
1711550511895570700,4.31457080078125,3.2366185188293457,7.707827568054199,5.1267991065979
1711550511914529500,4.333529541015625,3.2290146350860596,7.713622093200684,5.122878551483154
1711550511933488400,4.35248828125,3.2232885360717773,7.716927528381348,5.121506214141846
1711550511952447200,4.371447265625,3.218928098678589,7.717957973480225,5.122695446014404
1711550511971406000,4.390406005859375,3.2176544666290283,7.718227386474609,5.123088836669922
1711550511990365000,4.409364990234375,3.216655969619751,7.72063684463501,5.120086193084717
1711550512009323800,4.42832373046875,3.2145867347717285,7.724397659301758,5.115710735321045
1711550512028282600,4.44728271484375,3.213956117630005,7.726228713989258,5.113342761993408
1711550512047241500,4.466241455078125,3.214458465576172,7.725714683532715,5.113803386688232
1711550512066200300,4.485200439453125,3.2138538360595703,7.722771167755127,5.118626117706299
1711550512085159200,4.5041591796875,3.215552568435669,7.714010715484619,5.130754470825195
1711550512104118000,4.523117919921875,3.2121970653533936,7.7048659324646,5.146573543548584
1711550512123076900,4.542076904296875,3.2034356594085693,7.706829071044922,5.149094104766846
1711550512142035500,4.561035400390625,3.1931731700897217,7.714804649353027,5.143522262573242
1711550512160994300,4.579994384765625,3.1885790824890137,7.715737342834473,5.144973278045654
1711550512179953200,4.598953125,3.192613124847412,7.71074104309082,5.149959564208984
1711550512198912000,4.617912109375,3.201690196990967,7.706731796264648,5.15032434463501
1711550512217870800,4.636870849609375,3.2137808799743652,7.705923557281494,5.144001483917236
1711550512236829700,4.65582958984375,3.2267508506774902,7.706235408782959,5.135406494140625
1711550512255788500,4.67478857421875,3.236374616622925,7.7051472663879395,5.1309814453125
1711550512274747400,4.693747314453125,3.2402050495147705,7.703701019287109,5.130735874176025
1711550512293706200,4.712706298828125,3.2389230728149414,7.7022318840026855,5.133749961853027
1711550512312665000,4.7316650390625,3.2353739738464355,7.700785160064697,5.138156414031982
1711550512331624200,4.750624267578125,3.227006435394287,7.701800346374512,5.1418962478637695
1711550512350583000,4.7695830078125,3.213414192199707,7.705777168273926,5.144449234008789
1711550512369542000,4.7885419921875,3.196375846862793,7.7117228507995605,5.146153926849365
1711550512388500700,4.807500732421875,3.178791046142578,7.717585563659668,5.148255825042725
1711550512407459600,4.82645947265625,3.1647655963897705,7.723407745361328,5.148167610168457
1711550512426418400,4.84541845703125,3.15826153755188,7.726653575897217,5.147290229797363
1711550512445377300,4.864377197265625,3.1592063903808594,7.725856781005859,5.1479058265686035
1711550512464336100,4.883336181640625,3.1664252281188965,7.722485065460205,5.148530006408691
1711550512483295000,4.902294921875,3.17706561088562,7.717876434326172,5.148885726928711
1711550512502253800,4.92125390625,3.1854286193847656,7.712532043457031,5.151725769042969
1711550512521212700,4.940212646484375,3.1887590885162354,7.708745002746582,5.155332565307617
1711550512540171500,4.959171630859375,3.1867446899414062,7.707174777984619,5.158924102783203
1711550512559130400,4.97813037109375,3.178957223892212,7.707489967346191,5.163256645202637
1711550512578089200,4.997089111328125,3.1748290061950684,7.7062764167785645,5.167606353759766
1711550512597048000,5.016048095703125,3.175703287124634,7.70237922668457,5.172876358032227
1711550512616007000,5.0350068359375,3.1770575046539307,7.6983842849731445,5.177989959716797
1711550512634965800,5.0539658203125,3.177014112472534,7.697457790374756,5.1793928146362305
1711550512653924600,5.072924560546875,3.179413080215454,7.695110321044922,5.1814093589782715
1711550512672883500,5.091883544921875,3.184948444366455,7.690140724182129,5.185385227203369
1711550512691842300,5.11084228515625,3.190505266189575,7.685986518859863,5.188127040863037
1711550512710801200,5.12980126953125,3.1939280033111572,7.684171676635742,5.188710689544678
1711550512729760000,5.148760009765625,3.1947219371795654,7.683877944946289,5.188656330108643
1711550512748718800,5.16771875,3.1905558109283447,7.685893535614014,5.188235282897949
1711550512767677700,5.186677734375,3.177779197692871,7.689356803894043,5.190944671630859
1711550512786636800,5.20563671875,3.1677937507629395,7.688884735107422,5.1977410316467285
1711550512805595600,5.224595703125,3.167616844177246,7.68502950668335,5.203549385070801
1711550512824554500,5.243554443359375,3.1780402660369873,7.681604862213135,5.202249050140381
1711550512843513300,5.262513427734375,3.200514554977417,7.678021430969238,5.193753242492676
1711550512862472200,5.28147216796875,3.231959342956543,7.672158718109131,5.182933807373047
1711550512881431000,5.30043115234375,3.2638983726501465,7.663987636566162,5.175002098083496
1711550512900390000,5.319389892578125,3.29215145111084,7.65584135055542,5.169158935546875
1711550512919348700,5.3383486328125,3.311307668685913,7.650535583496094,5.164776802062988
1711550512938307600,5.3573076171875,3.318859338760376,7.650036334991455,5.160669803619385
1711550512957266400,5.376266357421875,3.3155629634857178,7.655188083648682,5.15514612197876
1711550512976225300,5.395225341796875,3.3011608123779297,7.667165756225586,5.146580696105957
1711550512995184000,5.41418408203125,3.272284984588623,7.684230804443359,5.139564514160156
1711550513014143000,5.43314306640625,3.236138343811035,7.704275608062744,5.132440090179443
1711550513033101800,5.452101806640625,3.1919727325439453,7.727215766906738,5.125606060028076
1711550513052060700,5.471060791015625,3.1492836475372314,7.746708869934082,5.12258768081665
1711550513071019800,5.490019775390625,3.1199753284454346,7.760079383850098,5.120284557342529
1711550513089978600,5.508978515625,3.123962163925171,7.765944957733154,5.10894775390625
1711550513108937500,5.5279375,3.153811454772949,7.763710975646973,5.093982219696045
1711550513127896300,5.546896240234375,3.1980090141296387,7.755833625793457,5.078402996063232
1711550513146855200,5.565855224609375,3.255737543106079,7.7459282875061035,5.056792259216309
1711550513165814000,5.58481396484375,3.328167200088501,7.729062080383301,5.035404205322266
1711550513184772900,5.60377294921875,3.408857822418213,7.702529430389404,5.022062301635742
1711550513203731700,5.622731689453125,3.488952875137329,7.670768737792969,5.015664100646973
1711550513222690600,5.641690673828125,3.5522775650024414,7.647598743438721,5.006591320037842
1711550513241649400,5.6606494140625,3.58596134185791,7.644118785858154,4.987855911254883
1711550513260608500,5.6796083984375,3.5890979766845703,7.658580780029297,4.9633564949035645
1711550513279567400,5.6985673828125,3.575122117996216,7.675804615020752,4.946807861328125
1711550513298526200,5.717526123046875,3.550015449523926,7.688177585601807,4.945675373077393
1711550513317485000,5.736485107421875,3.5178048610687256,7.698755741119385,4.952232360839844
1711550513336444000,5.75544384765625,3.4906442165374756,7.7132039070129395,4.948966979980469
1711550513355402800,5.77440283203125,3.481611728668213,7.724353313446045,4.937928199768066
1711550513374361600,5.793361572265625,3.49348783493042,7.724858283996582,4.928741455078125
1711550513393320400,5.812320556640625,3.511328935623169,7.71916389465332,4.924983024597168
1711550513412279300,5.831279296875,3.5353450775146484,7.717312335968018,4.910684108734131
1711550513431238400,5.85023828125,3.573530912399292,7.7171101570129395,4.8832855224609375
1711550513450197200,5.869197265625,3.6265769004821777,7.7083210945129395,4.85799503326416
1711550513469156000,5.888156005859375,3.686479330062866,7.689465522766113,4.842764854431152
1711550513488115000,5.907114990234375,3.745443344116211,7.66636323928833,4.834142208099365
1711550513507073800,5.92607373046875,3.8022258281707764,7.648285388946533,4.818421363830566
1711550513526032600,5.94503271484375,3.8463895320892334,7.6414642333984375,4.794131755828857
1711550513544991700,5.96399169921875,3.874296188354492,7.638066291809082,4.777044296264648
1711550513563950600,5.98295068359375,3.8876454830169678,7.631406784057617,4.77684211730957
1711550513582909400,6.001909423828125,3.893890380859375,7.628676414489746,4.776118278503418
1711550513601868300,6.020868408203125,3.908172845840454,7.629554271697998,4.76303243637085
1711550513620827100,6.0398271484375,3.9278619289398193,7.63418436050415,4.739358425140381
1711550513639786000,6.058785888671875,3.9433178901672363,7.648931980133057,4.702600955963135
1711550513658745000,6.0777451171875,3.9465668201446533,7.6685051918029785,4.667870998382568
1711550513677704000,6.096703857421875,3.9445652961730957,7.676829814910889,4.6558661460876465
1711550513696662800,6.115662841796875,3.944103479385376,7.671659469604492,4.664769649505615
1711550513715621600,6.13462158203125,3.9450881481170654,7.6663818359375,4.672607421875
1711550513734580500,6.15358056640625,3.950737953186035,7.663774013519287,4.672110557556152
1711550513753539300,6.172539306640625,3.953850269317627,7.658079147338867,4.678809642791748
1711550513772498400,6.19149853515625,3.9595980644226074,7.644951820373535,4.695389747619629
1711550513791457300,6.210457275390625,3.970982313156128,7.627124309539795,4.714727878570557
1711550513810416000,6.229416015625,3.9888455867767334,7.608516693115234,4.729689598083496
1711550513829375000,6.248375,4.0137763023376465,7.593756198883057,4.73231840133667
1711550513848334000,6.267333984375,4.0453691482543945,7.583152770996094,4.722411632537842
1711550513867293000,6.28629296875,4.076216697692871,7.57019567489624,4.71666955947876
1711550513886251800,6.305251708984375,4.106720924377441,7.554632663726807,4.715163230895996
1711550513905210600,6.324210693359375,4.134815692901611,7.542237758636475,4.710450649261475
1711550513924169500,6.34316943359375,4.160277366638184,7.533516883850098,4.70197868347168
1711550513943128300,6.36212841796875,4.174506187438965,7.5249409675598145,4.703099727630615
1711550513962087400,6.38108740234375,4.168090343475342,7.513049602508545,4.7277374267578125
1711550513981046300,6.40004638671875,4.140627384185791,7.501507759094238,4.770008087158203
1711550514000005000,6.419005126953125,4.100783824920654,7.4979248046875,4.809893608093262
1711550514018964000,6.4379638671875,4.070375919342041,7.4913763999938965,4.845791816711426
1711550514037923000,6.456923095703125,4.058247089385986,7.488091945648193,4.861019611358643
1711550514056882000,6.4758818359375,4.058749675750732,7.493923187255859,4.851603984832764
1711550514075840800,6.4948408203125,4.071676731109619,7.497834205627441,4.834700584411621
1711550514094800000,6.5137998046875,4.095150470733643,7.489785194396973,4.827343463897705
1711550514113758700,6.5327587890625,4.125824928283691,7.4789910316467285,4.817950248718262
1711550514132717600,6.551717529296875,4.159416675567627,7.4738240242004395,4.797040939331055
1711550514151676700,6.5706767578125,4.187809467315674,7.475536346435547,4.769590377807617
1711550514170635500,6.589635498046875,4.222327709197998,7.469205379486084,4.7490339279174805
1711550514189594400,6.608594482421875,4.237171173095703,7.460616111755371,4.749314308166504
1711550514208553200,6.62755322265625,4.232271671295166,7.45553731918335,4.7616424560546875
1711550514227512300,6.64651220703125,4.221060276031494,7.454992294311523,4.772434234619141
1711550514246471200,6.66547119140625,4.211961269378662,7.449202537536621,4.789484024047852
1711550514265430000,6.684429931640625,4.205134868621826,7.445487976074219,4.801242828369141
1711550514284389000,6.70338916015625,4.196800231933594,7.445271968841553,4.808864593505859
1711550514303348000,6.722347900390625,4.197249889373779,7.4352264404296875,4.823991298675537
1711550514322306800,6.741306884765625,4.224217891693115,7.411323547363281,4.837214946746826
1711550514341266000,6.760265869140625,4.2586565017700195,7.3911943435668945,4.837818145751953
1711550514360224800,6.779224853515625,4.295866012573242,7.377825736999512,4.825310230255127
1711550514379183900,6.798183837890625,4.340357303619385,7.36455774307251,4.805723190307617
1711550514398142700,6.817142822265625,4.387109756469727,7.3509840965271,4.784004211425781
1711550514417101600,6.8361015625,4.428202152252197,7.341877460479736,4.760069370269775
1711550514436060400,6.855060302734375,4.461512565612793,7.339096546173096,4.733176231384277
1711550514455019500,6.87401953125,4.478730201721191,7.337833404541016,4.718851089477539
1711550514473978400,6.892978271484375,4.476955413818359,7.335629463195801,4.7239603996276855
1711550514492937500,6.9119375,4.462766170501709,7.3343682289123535,4.739319801330566
1711550514511896300,6.930896240234375,4.436926364898682,7.329533576965332,4.77095365524292
1711550514530855200,6.949855224609375,4.418098449707031,7.323469161987305,4.797663688659668
1711550514549814300,6.968814208984375,4.420328140258789,7.312969207763672,4.811607360839844
1711550514568773000,6.987773193359375,4.438661098480225,7.300307750701904,4.813956260681152
1711550514587732000,7.00673193359375,4.4600677490234375,7.295329570770264,4.801704406738281
1711550514606691000,7.025691162109375,4.489631652832031,7.288523197174072,4.784456253051758
1711550514625650000,7.04464990234375,4.516895294189453,7.27217435836792,4.78367280960083
1711550514644609000,7.063609130859375,4.533491611480713,7.245528221130371,4.808342456817627
1711550514663568000,7.08256787109375,4.542013645172119,7.220809459686279,4.83739709854126
1711550514682527000,7.10152685546875,4.549860954284668,7.199223041534424,4.862133979797363
1711550514701485800,7.12048583984375,4.560327529907227,7.1776838302612305,4.884124279022217
1711550514720444700,7.139444580078125,4.56870698928833,7.158916473388672,4.9037957191467285
1711550514739403800,7.15840380859375,4.564764022827148,7.149045944213867,4.921834945678711
1711550514758362600,7.177362548828125,4.548464775085449,7.152273654937744,4.932224273681641
1711550514777321700,7.19632177734375,4.529044151306152,7.164946556091309,4.931702136993408
1711550514796280800,7.21528076171875,4.513726234436035,7.179962635040283,4.9239020347595215
1711550514815239700,7.23423974609375,4.5085906982421875,7.190720081329346,4.9128947257995605
1711550514834198500,7.253198486328125,4.510695934295654,7.196805477142334,4.902040481567383
1711550514853157600,7.27215771484375,4.522947788238525,7.1973185539245605,4.889983654022217
1711550514872116500,7.291116455078125,4.543434143066406,7.193034648895264,4.8772783279418945
1711550514891075600,7.31007568359375,4.564204692840576,7.1908488273620605,4.861081600189209
1711550514910034400,7.329034423828125,4.582126140594482,7.193713188171387,4.839938640594482
1711550514928993500,7.34799365234375,4.59121561050415,7.201346397399902,4.81993293762207
1711550514947952400,7.366952392578125,4.594754219055176,7.210873603820801,4.802281856536865
1711550514966911500,7.385911376953125,4.594395160675049,7.2231245040893555,4.784181594848633
1711550514985870300,7.404870361328125,4.594335079193115,7.236109256744385,4.764575958251953
1711550515004829400,7.423829345703125,4.602848052978516,7.244527339935303,4.743523597717285
1711550515023788500,7.44278857421875,4.620250225067139,7.245569229125977,4.7249755859375
1711550515042747400,7.461747314453125,4.640413761138916,7.23848295211792,4.71606969833374
1711550515061706200,7.480706298828125,4.65824031829834,7.226544380187988,4.716804027557373
1711550515080665300,7.499665283203125,4.667229175567627,7.219691276550293,4.71841287612915
1711550515099624400,7.51862451171875,4.6688737869262695,7.2207207679748535,4.715208530426025
1711550515118583300,7.537583251953125,4.668954372406006,7.224458694458008,4.709400653839111
1711550515137542400,7.55654248046875,4.675807952880859,7.223580837249756,4.703943729400635
1711550515156501200,7.575501220703125,4.675460338592529,7.224681377410889,4.702599048614502
1711550515175460400,7.59446044921875,4.654002666473389,7.233567237854004,4.7102179527282715
1711550515194419200,7.613419189453125,4.616133689880371,7.252852916717529,4.71782112121582
1711550515213378300,7.63237841796875,4.5738630294799805,7.2777862548828125,4.720592498779297
1711550515232337400,7.65133740234375,4.536620140075684,7.300740718841553,4.721085071563721
1711550515251296300,7.670296142578125,4.50771951675415,7.318005084991455,4.722038269042969
1711550515270255400,7.68925537109375,4.493647575378418,7.3289899826049805,4.718413352966309
1711550515289214200,7.708214111328125,4.494595527648926,7.331386566162109,4.713784217834473
1711550515308173300,7.72717333984375,4.5043535232543945,7.328070163726807,4.709624767303467
1711550515327132400,7.74613232421875,4.5151848793029785,7.326132774353027,4.702262878417969
1711550515346091300,7.76509130859375,4.509644031524658,7.329690456390381,4.702034950256348
1711550515365050400,7.78405029296875,4.48286771774292,7.337620735168457,4.7152509689331055
1711550515384009500,7.803009521484375,4.4422607421875,7.352610111236572,4.730310440063477
1711550515402968300,7.82196826171875,4.389795780181885,7.375832557678223,4.7431182861328125
1711550515421927400,7.840927490234375,4.336178302764893,7.398103713989258,4.757730007171631
1711550515440886300,7.85988623046875,4.287018299102783,7.415872573852539,4.774589538574219
1711550515459845400,7.878845458984375,4.244485378265381,7.429746150970459,4.790990352630615
1711550515478804500,7.897804443359375,4.212996006011963,7.4427289962768555,4.798628807067871
1711550515497763300,7.916763427734375,4.202147006988525,7.451747417449951,4.7941436767578125
1711550515516722400,7.935722412109375,4.2174201011657715,7.453191757202148,4.7784600257873535
1711550515535681500,7.954681640625,4.251556873321533,7.447177886962891,4.757541179656982
1711550515554640600,7.973640625,4.293592929840088,7.436961650848389,4.735720157623291
1711550515573599500,7.992599609375,4.336312294006348,7.422486782073975,4.719479560852051
1711550515592558600,8.01155859375,4.3684611320495605,7.406282901763916,4.715284824371338
1711550515611517400,8.030517333984376,4.39459753036499,7.391130447387695,4.714775085449219
1711550515630476500,8.0494765625,4.415344715118408,7.380216121673584,4.712484359741211
1711550515649435600,8.068435546875,4.4198899269104,7.377233505249023,4.712895393371582
1711550515668394500,8.08739453125,4.406714916229248,7.383490562438965,4.7154340744018555
1711550515687353600,8.106353515625,4.376328468322754,7.3989152908325195,4.719554901123047
1711550515706312700,8.125312744140626,4.335911273956299,7.416821002960205,4.728744029998779
1711550515725271600,8.144271484375,4.295400142669678,7.433138370513916,4.740082263946533
1711550515744230700,8.163230712890625,4.255419731140137,7.451347351074219,4.747547626495361
1711550515763189800,8.182189697265626,4.212208271026611,7.475009441375732,4.748887062072754
1711550515782148900,8.20114892578125,4.169857025146484,7.501400470733643,4.744645595550537
1711550515801107700,8.220107666015625,4.126538276672363,7.528579235076904,4.739468097686768
1711550515820066800,8.23906689453125,4.084272384643555,7.551453590393066,4.73969030380249
1711550515839026000,8.25802587890625,4.047818183898926,7.566850185394287,4.746401309967041
1711550515857985000,8.276985107421876,4.014828681945801,7.579101085662842,4.754868030548096
1711550515876944000,8.29594384765625,3.9835739135742188,7.592242240905762,4.760186672210693
1711550515895903000,8.314903076171875,3.958317518234253,7.603517055511475,4.763259410858154
1711550515914862000,8.333862060546876,3.9430665969848633,7.609980583190918,4.765587329864502
1711550515933821200,8.3528212890625,3.943345069885254,7.606141567230225,4.771480083465576
1711550515952780000,8.371780029296875,3.950911521911621,7.59630823135376,4.780877113342285
1711550515971739100,8.3907392578125,3.960045576095581,7.591433048248291,4.781063079833984
1711550515990698200,8.4096982421875,3.963850975036621,7.596748352050781,4.7694525718688965
1711550516009657300,8.4286572265625,3.9511239528656006,7.608495235443115,4.761281490325928
1711550516028616400,8.447616455078125,3.92346453666687,7.621013164520264,4.764133930206299
1711550516047575300,8.4665751953125,3.8905627727508545,7.629531383514404,4.777463436126709
1711550516066534400,8.485534423828126,3.8497443199157715,7.634943008422852,4.801823139190674
1711550516085493500,8.504493408203125,3.7995474338531494,7.637539863586426,4.837541580200195
1711550516104452600,8.52345263671875,3.7502057552337646,7.636958599090576,4.876803398132324
1711550516123411500,8.542411376953124,3.704411745071411,7.639013290405273,4.908481597900391
1711550516142370600,8.56137060546875,3.665036201477051,7.648474216461182,4.923286437988281
1711550516161329700,8.58032958984375,3.6295671463012695,7.665761947631836,4.922674655914307
1711550516180288800,8.599288818359375,3.6006383895874023,7.679908752441406,4.921869277954102
1711550516199247600,8.61824755859375,3.59196400642395,7.680215358734131,4.927724838256836
1711550516218206700,8.637206787109376,3.6034791469573975,7.667009353637695,4.93986701965332
1711550516237165800,8.656165771484375,3.6278786659240723,7.651243686676025,4.946447372436523
1711550516256125000,8.675125,3.6560423374176025,7.639730453491211,4.943506240844727
1711550516275084000,8.694083984375,3.6802008152008057,7.631558895111084,4.938199996948242
1711550516294043100,8.713043212890625,3.7014009952545166,7.622040748596191,4.937054634094238
1711550516313002000,8.732001953125,3.723118782043457,7.611514091491699,4.936964988708496
1711550516331961000,8.750961181640625,3.7378013134002686,7.605591773986816,4.934997081756592
1711550516350920200,8.769920166015625,3.7379109859466553,7.606475830078125,4.93355131149292
1711550516369879300,8.78887939453125,3.720623731613159,7.612376689910889,4.937516212463379
1711550516388838100,8.807838134765625,3.690354347229004,7.618903160095215,4.950150966644287
1711550516407797200,8.82679736328125,3.6559300422668457,7.624752998352051,4.966658115386963
1711550516426756400,8.84575634765625,3.6239280700683594,7.632021903991699,4.9789323806762695
1711550516445715500,8.864715576171875,3.603236675262451,7.637815952301025,4.9850616455078125
1711550516464674600,8.883674560546876,3.5932435989379883,7.639281272888184,4.990026950836182
1711550516483633700,8.902633544921875,3.5945675373077393,7.636691570281982,4.99303674697876
1711550516502592500,8.921592529296875,3.6091880798339844,7.627309799194336,4.996829509735107
1711550516521551600,8.940551513671876,3.6313395500183105,7.612494468688965,5.003368377685547
1711550516540510700,8.9595107421875,3.653482675552368,7.599273681640625,5.0073442459106445
1711550516559469800,8.9784697265625,3.671781301498413,7.588908672332764,5.009677410125732
1711550516578429000,8.997428955078124,3.68925142288208,7.577508926391602,5.014097213745117
1711550516597388000,9.016387939453125,3.7116024494171143,7.565316200256348,5.016013145446777
1711550516616347000,9.035346923828126,3.7369585037231445,7.554040908813477,5.01417875289917
1711550516635306000,9.054305908203125,3.7625598907470703,7.5428266525268555,5.01191520690918
1711550516654265000,9.07326513671875,3.784897804260254,7.532888889312744,5.010042667388916
1711550516673224200,9.09222412109375,3.8020975589752197,7.524162292480469,5.010132312774658
1711550516692183000,9.11118310546875,3.81282901763916,7.5172553062438965,5.012344837188721
1711550516711142100,9.13014208984375,3.8169641494750977,7.511997222900391,5.017078399658203
1711550516730101200,9.149101318359374,3.813908815383911,7.509740829467773,5.022775650024414
1711550516749060400,9.168060302734375,3.802963972091675,7.512308597564697,5.027232646942139
1711550516768019500,9.18701953125,3.784602165222168,7.518332481384277,5.032083988189697
1711550516786977800,9.205977783203124,3.7641029357910156,7.523301601409912,5.040024757385254
1711550516805937400,9.2249375,3.7461719512939453,7.528283596038818,5.045942783355713
1711550516824896500,9.243896484375,3.7331290245056152,7.535304069519043,5.045128345489502
1711550516843855600,9.262855712890625,3.7314727306365967,7.5399041175842285,5.039477825164795
1711550516862814700,9.281814697265625,3.741866111755371,7.539141654968262,5.032908916473389
1711550516881773800,9.30077392578125,3.7546346187591553,7.536649227142334,5.027129650115967
1711550516900733000,9.31973291015625,3.7734344005584717,7.534247875213623,5.016641616821289
1711550516919691800,9.33869189453125,3.791381597518921,7.5309367179870605,5.008072853088379
1711550516938651000,9.35765087890625,3.8057966232299805,7.5284037590026855,5.000942230224609
1711550516957610000,9.37660986328125,3.817790985107422,7.527563571929932,4.993060111999512
1711550516976569000,9.395569091796874,3.827009439468384,7.525038242340088,4.989808082580566
1711550516995528000,9.41452783203125,3.8303933143615723,7.523259162902832,4.989895343780518
1711550517014487000,9.433487060546875,3.8285677433013916,7.526513576507568,4.986384868621826
1711550517033446100,9.452446044921874,3.8213765621185303,7.53420877456665,4.980276584625244
1711550517052405200,9.4714052734375,3.8113999366760254,7.544550895690918,4.972259998321533
1711550517071364400,9.4903642578125,3.7997994422912598,7.554974555969238,4.965306282043457
1711550517090323500,9.509323486328125,3.79087233543396,7.563068866729736,4.959805488586426
1711550517109282300,9.5282822265625,3.7882750034332275,7.567797660827637,4.954573154449463
1711550517128241400,9.547241455078124,3.789656639099121,7.571686267852783,4.947571277618408
1711550517147200500,9.566200439453125,3.788992166519165,7.5774054527282715,4.939317226409912
1711550517166159600,9.58515966796875,3.7839879989624023,7.583974361419678,4.933068752288818
1711550517185118700,9.60411865234375,3.77504301071167,7.591744899749756,4.9279656410217285
1711550517204077800,9.623077880859375,3.7645835876464844,7.599948883056641,4.9233198165893555
1711550517223036700,9.64203662109375,3.7516908645629883,7.609663963317871,4.91815185546875
1711550517241995800,9.660995849609375,3.7414608001708984,7.618549346923828,4.912185192108154
1711550517260955000,9.679954833984375,3.7337543964385986,7.627076148986816,4.904811382293701
1711550517279914000,9.6989140625,3.7333898544311523,7.632974624633789,4.895904064178467
1711550517298872800,9.717872802734375,3.7448606491088867,7.6333394050598145,4.886566638946533
1711550517317832000,9.73683203125,3.758336067199707,7.632288932800293,4.877854824066162
1711550517336791000,9.755791015625,3.764660358428955,7.633828163146973,4.870564937591553
1711550517355750100,9.774750244140625,3.7738335132598877,7.6342010498046875,4.862874507904053
1711550517374709200,9.793709228515626,3.791999578475952,7.6294732093811035,4.856156349182129
1711550517393668400,9.81266845703125,3.81636381149292,7.619836807250977,4.852201461791992
1711550517412627200,9.831627197265625,3.837881088256836,7.611534118652344,4.8482584953308105
1711550517431586300,9.85058642578125,3.844473123550415,7.6091203689575195,4.846823692321777
1711550517450545400,9.86954541015625,3.8383238315582275,7.611067295074463,4.848640441894531
1711550517469504500,9.88850439453125,3.830928087234497,7.615004062652588,4.8483076095581055
1711550517488463600,9.907463623046874,3.8256430625915527,7.618785858154297,4.846539497375488
1711550517507422700,9.926422607421875,3.8112783432006836,7.62604284286499,4.846445083618164
1711550517526381600,9.945381591796876,3.785792827606201,7.637051105499268,4.849083423614502
1711550517545340700,9.964340576171875,3.770247220993042,7.6468963623046875,4.84567928314209
1711550517564299800,9.9832998046875,3.7783896923065186,7.647942543029785,4.837677955627441
1711550517583259000,10.0022587890625,3.808403253555298,7.63726806640625,4.8310017585754395
1711550517602217700,10.0212177734375,3.841826915740967,7.622241020202637,4.8282694816589355
1711550517621176800,10.0401767578125,3.8691015243530273,7.613409042358398,4.820420265197754
1711550517640136000,10.059135986328124,3.895826578140259,7.614893913269043,4.79649019241333
1711550517659095000,10.078094970703125,3.9259932041168213,7.62041711807251,4.763004779815674
1711550517678054100,10.09705419921875,3.957494020462036,7.619806289672852,4.737847328186035
1711550517697013200,10.11601318359375,3.974128007888794,7.6125712394714355,4.735551357269287
1711550517715972000,10.13497216796875,3.967484712600708,7.602755069732666,4.756844520568848
1711550517734931200,10.15393115234375,3.958536148071289,7.590665340423584,4.783532619476318
1711550517753890300,10.172890380859375,3.9590437412261963,7.57852029800415,4.802332401275635
1711550517772849200,10.19184912109375,3.954195022583008,7.574427604675293,4.812773704528809
1711550517791808300,10.210808349609374,3.940162420272827,7.5782270431518555,4.818297863006592
1711550517810767400,10.229767333984375,3.9222402572631836,7.586336135864258,4.820157527923584
1711550517829726500,10.2487265625,3.9042084217071533,7.592861652374268,4.824519157409668
1711550517848685600,10.267685546875,3.883298873901367,7.586804389953613,4.850852966308594
1711550517867644700,10.286644775390625,3.857816696166992,7.575974941253662,4.887969017028809
1711550517886603500,10.305603515625,3.8353495597839355,7.573786735534668,4.908994197845459
1711550517905562600,10.324562744140625,3.8212616443634033,7.577391624450684,4.9144158363342285
1711550517924521700,10.343521728515626,3.823533058166504,7.572962284088135,4.919473648071289
1711550517943480800,10.362480712890624,3.845944881439209,7.558823108673096,4.923748016357422
1711550517962439700,10.381439697265625,3.8809075355529785,7.543464183807373,4.919867038726807
1711550517981398800,10.400398681640626,3.9213647842407227,7.530672073364258,4.9073686599731445
1711550518000358000,10.41935791015625,3.9613311290740967,7.520823001861572,4.89034366607666
1711550518019317000,10.43831689453125,3.999882221221924,7.5113983154296875,4.873418807983398
1711550518038276000,10.457276123046874,4.03378438949585,7.498554229736328,4.8652496337890625
1711550518057235000,10.47623486328125,4.062147617340088,7.480095386505127,4.870062828063965
1711550518076194000,10.495194091796876,4.084629058837891,7.460650444030762,4.881073474884033
1711550518095153200,10.514153076171874,4.102107048034668,7.447347164154053,4.886729717254639
1711550518114112300,10.5331123046875,4.109740734100342,7.447154998779297,4.880606174468994
1711550518133071400,10.5520712890625,4.099213600158691,7.459320068359375,4.8708696365356445
1711550518152030200,10.5710302734375,4.07827091217041,7.469538688659668,4.872790336608887
1711550518170989300,10.5899892578125,4.054690837860107,7.474684238433838,4.8845648765563965
1711550518189948400,10.608948486328124,4.032320499420166,7.483460426330566,4.88964319229126
1711550518208907500,10.627907470703125,4.016570091247559,7.496918678283691,4.881983280181885
1711550518227866400,10.646866455078126,4.003084182739258,7.5106916427612305,4.871881008148193
1711550518246825500,10.665825439453124,3.995509147644043,7.5191497802734375,4.865047454833984
1711550518265784600,10.68478466796875,3.9914143085479736,7.5228447914123535,4.86269474029541
1711550518284743700,10.70374365234375,3.992243528366089,7.521358013153076,4.864314079284668
1711550518303702800,10.722702880859375,4.00844144821167,7.509433269500732,4.86941385269165
1711550518322662000,10.741661865234375,4.024950981140137,7.496875762939453,4.875140190124512
1711550518341620700,10.760620849609374,4.038161754608154,7.49007511138916,4.874670505523682
1711550518360579800,10.779579833984375,4.044528007507324,7.486649513244629,4.874654293060303
1711550518379539000,10.7985390625,4.03110933303833,7.480917930603027,4.894529342651367
1711550518398498000,10.817498046875,3.9983789920806885,7.476311683654785,4.9282965660095215
1711550518417457000,10.836456787109375,3.966078281402588,7.4753522872924805,4.955775737762451
1711550518436416000,10.855416015625,3.9532485008239746,7.480141639709473,4.958800315856934
1711550518455375000,10.874375,3.940835475921631,7.491300582885742,4.951830863952637
1711550518474334200,10.893334228515625,3.929872989654541,7.495511531829834,4.954169750213623
1711550518493293300,10.912293212890624,3.9265565872192383,7.488650321960449,4.967158317565918
1711550518512252400,10.93125244140625,3.936232566833496,7.477987766265869,4.975557804107666
1711550518531211300,10.950211181640626,3.957026243209839,7.474461078643799,4.964349746704102
1711550518550170400,10.96917041015625,3.973332166671753,7.478449821472168,4.945281982421875
1711550518569129500,10.98812939453125,3.988048791885376,7.473297119140625,4.94122314453125
1711550518588088300,11.00708837890625,3.9981555938720703,7.458494186401367,4.95540189743042
1711550518607047400,11.02604736328125,4.002828598022461,7.450652122497559,4.963418483734131
1711550518626006500,11.045006591796875,4.004701614379883,7.454659938812256,4.9558844566345215
1711550518644965600,11.063965576171874,4.0126214027404785,7.453458309173584,4.951282501220703
1711550518663924700,11.0829248046875,4.023298263549805,7.440974235534668,4.96138858795166
1711550518682883800,11.1018837890625,4.036137580871582,7.427590847015381,4.97100305557251
1711550518701843000,11.120843017578125,4.050080299377441,7.427434921264648,4.959884166717529
1711550518720801800,11.1398017578125,4.0556721687316895,7.440749645233154,4.935298442840576
1711550518739761000,11.158760986328126,4.061127662658691,7.452585697174072,4.912900924682617
1711550518758720000,11.177719970703125,4.071926593780518,7.454329967498779,4.901302814483643
1711550518777679000,11.19667919921875,4.083414554595947,7.446502208709717,4.903643608093262
1711550518796638200,11.21563818359375,4.100549221038818,7.435894012451172,4.9054412841796875
1711550518815597300,11.234597412109375,4.11297082901001,7.427948951721191,4.907079696655273
1711550518834556200,11.25355615234375,4.119626045227051,7.421875953674316,4.910686016082764
1711550518853515300,11.272515380859375,4.12873649597168,7.41542387008667,4.912780284881592
1711550518872474400,11.291474365234375,4.145884990692139,7.406569957733154,4.911694049835205
1711550518891433500,11.31043359375,4.165855407714844,7.400406360626221,4.904082298278809
1711550518910392600,11.329392578125,4.186948299407959,7.39647102355957,4.8920392990112305
1711550518929351700,11.3483515625,4.209264755249023,7.391864776611328,4.8798370361328125
1711550518948310500,11.367310546875,4.231401443481445,7.386898517608643,4.868197917938232
1711550518967270000,11.386269775390625,4.250497341156006,7.383520603179932,4.856673240661621
1711550518986228700,11.405228759765626,4.2664008140563965,7.381072521209717,4.846439838409424
1711550519005187800,11.424187744140625,4.27773380279541,7.373249053955078,4.848357677459717
1711550519024147000,11.44314697265625,4.28150749206543,7.359248638153076,4.86626672744751
1711550519043106000,11.46210595703125,4.28892707824707,7.343777179718018,4.88307523727417
1711550519062065200,11.481065185546875,4.303162574768066,7.333166122436523,4.886497497558594
1711550519081024300,11.500024169921875,4.3159708976745605,7.328129291534424,4.88275671005249
1711550519099983400,11.5189833984375,4.318027973175049,7.323949813842773,4.887206554412842
1711550519118942500,11.5379423828125,4.316099166870117,7.319656848907471,4.8953351974487305
1711550519137901600,11.556901611328126,4.317220211029053,7.317661762237549,4.897327423095703
1711550519156860400,11.5758603515625,4.322302341461182,7.320773601531982,4.888185024261475
1711550519175819500,11.594819580078125,4.336380481719971,7.3273539543151855,4.86580753326416
1711550519194778600,11.613778564453124,4.357999801635742,7.332612991333008,4.838493824005127
1711550519213737700,11.63273779296875,4.381171703338623,7.334280967712402,4.814981460571289
1711550519232696800,11.65169677734375,4.403740406036377,7.336353778839111,4.791175365447998
1711550519251656000,11.670656005859374,4.432242393493652,7.341496467590332,4.756894111633301
1711550519270615000,11.689614990234375,4.470974445343018,7.3438591957092285,4.716833591461182
1711550519289574100,11.70857421875,4.519378185272217,7.336171627044678,4.682542324066162
1711550519308533200,11.727533203125,4.561695098876953,7.322359085083008,4.663086414337158
1711550519327492400,11.746492431640625,4.592554092407227,7.31404972076416,4.645805835723877
1711550519346451500,11.765451416015624,4.616008281707764,7.314754486083984,4.621388912200928
1711550519365410600,11.78441064453125,4.641818523406982,7.315536022186279,4.594218730926514
1711550519384369700,11.80336962890625,4.663610935211182,7.3165388107299805,4.57049036026001
1711550519403328800,11.822328857421875,4.671443462371826,7.324017524719238,4.550469398498535
1711550519422288000,11.841287841796875,4.664894104003906,7.337132453918457,4.536038875579834
1711550519441247000,11.8602470703125,4.653507709503174,7.347067356109619,4.531649589538574
1711550519460205800,11.879205810546875,4.641360759735107,7.350519180297852,4.538505554199219
1711550519479165200,11.898165283203125,4.6288580894470215,7.353865146636963,4.545846462249756
1711550519498124300,11.917124267578124,4.614846229553223,7.367183208465576,4.538522243499756
1711550519517083400,11.93608349609375,4.604509353637695,7.386172771453857,4.518111705780029
1711550519536041700,11.955041748046876,4.594089508056641,7.401633262634277,4.503393650054932
1711550519555001300,11.97400146484375,4.5818891525268555,7.407432556152344,4.506285667419434
1711550519573960700,11.992960693359375,4.5661211013793945,7.410365581512451,4.517456531524658
1711550519592919800,12.011919921875,4.549707412719727,7.413738250732422,4.528468608856201
1711550519611879000,12.03087890625,4.529648303985596,7.418206691741943,4.541243076324463
1711550519630838000,12.049838134765626,4.513947010040283,7.424169540405273,4.5471296310424805
1711550519649797000,12.068797119140624,4.501660346984863,7.430599689483643,4.5488057136535645
1711550519668756200,12.087756103515625,4.4848833084106445,7.43949031829834,4.550846099853516
1711550519687715300,12.10671533203125,4.458069801330566,7.450431823730469,4.55928373336792
1711550519706674400,12.12567431640625,4.420172214508057,7.461713790893555,4.577693939208984
1711550519725633500,12.144633544921875,4.381711959838867,7.471129417419434,4.599262237548828
1711550519744592600,12.163592529296874,4.356454372406006,7.473855972290039,4.6187849044799805
1711550519763551700,12.1825517578125,4.34343957901001,7.471251487731934,4.635226726531982
1711550519782510800,12.2015107421875,4.338284015655518,7.468331336975098,4.644750118255615
1711550519801470000,12.220469970703125,4.342373371124268,7.466342926025391,4.644125461578369
1711550519820429000,12.239428955078125,4.352838516235352,7.465442657470703,4.635767936706543
1711550519839388200,12.25838818359375,4.367857933044434,7.461596488952637,4.627826690673828
1711550519858347500,12.277347412109375,4.384810447692871,7.452708721160889,4.6261162757873535
1711550519877306400,12.296306396484376,4.397141933441162,7.442380428314209,4.631037712097168
1711550519896265700,12.315265625,4.398698806762695,7.4369025230407715,4.638352870941162
1711550519915224800,12.334224853515625,4.389380931854248,7.437735557556152,4.645839214324951
1711550519934184000,12.353183837890626,4.376863479614258,7.442549228668213,4.649937629699707
1711550519953143000,12.37214306640625,4.357644081115723,7.450203895568848,4.655725955963135
1711550519972102100,12.39110205078125,4.32992696762085,7.458238124847412,4.668703556060791
1711550519991061200,12.410061279296874,4.295557498931885,7.467135429382324,4.6861982345581055
1711550520010020400,12.429020263671875,4.248595714569092,7.482437610626221,4.70456600189209
1711550520028979700,12.447979736328126,4.196267604827881,7.505544662475586,4.714713096618652
1711550520047938600,12.4669384765625,4.145841598510742,7.533170223236084,4.715267181396484
1711550520066898000,12.48589794921875,4.0967607498168945,7.561479568481445,4.7128496170043945
1711550520085857000,12.50485693359375,4.054564952850342,7.58522891998291,4.711177825927734
1711550520104816000,12.523816162109375,4.022867679595947,7.599636554718018,4.715129375457764
1711550520123775200,12.542775146484376,3.9886324405670166,7.612870693206787,4.722860336303711
1711550520142734300,12.561734375,3.958669900894165,7.628062725067139,4.723555088043213
1711550520161693400,12.580693359375,3.935361862182617,7.641972541809082,4.720547676086426
1711550520180652800,12.59965283203125,3.9117212295532227,7.651815414428711,4.7242512702941895
1711550520199612000,12.61861181640625,3.8845765590667725,7.653689861297607,4.74357271194458
1711550520218571000,12.637571044921875,3.8520352840423584,7.652012825012207,4.7727251052856445
1711550520237530000,12.656530029296874,3.8221595287323,7.654959201812744,4.791981220245361
1711550520256489200,12.6754892578125,3.7907791137695312,7.6644392013549805,4.801743984222412
1711550520275448300,12.6944482421875,3.75539231300354,7.675227642059326,4.8123064041137695
1711550520294407700,12.71340771484375,3.7187116146087646,7.685670852661133,4.824110984802246
1711550520313366800,12.73236669921875,3.6814377307891846,7.694760322570801,4.838189125061035
1711550520332326000,12.751325927734374,3.6527819633483887,7.699283599853516,4.852688789367676
1711550520351285000,12.770284912109375,3.6312966346740723,7.697443962097168,4.871695518493652
1711550520370244400,12.789244384765626,3.623260021209717,7.689229488372803,4.890617847442627
1711550520389203500,12.808203369140625,3.631563663482666,7.6767497062683105,4.904044151306152
1711550520408162600,12.82716259765625,3.6469953060150146,7.6625261306762695,4.914823532104492
1711550520427121700,12.84612158203125,3.6533379554748535,7.6503753662109375,4.929022312164307
1711550520446081000,12.8650810546875,3.6441283226013184,7.650615692138672,4.935462474822998
1711550520465040100,12.8840400390625,3.6207244396209717,7.665019989013672,4.930335521697998
1711550520483999200,12.902999267578124,3.5846242904663086,7.681663513183594,4.930812358856201
1711550520502958300,12.921958251953125,3.5401604175567627,7.69166898727417,4.947309970855713
1711550520521917700,12.940917724609376,3.4956181049346924,7.697340965270996,4.970109939575195
1711550520540876800,12.959876708984375,3.4666099548339844,7.705777168273926,4.977348327636719
1711550520559836000,12.9788359375,3.4409968852996826,7.7147722244262695,4.981186866760254
1711550520578795000,12.997794921875,3.4295151233673096,7.719422340393066,4.981900215148926
1711550520597754400,13.01675439453125,3.4385673999786377,7.712540149688721,4.986318588256836
1711550520616713500,13.03571337890625,3.4633948802948,7.697291851043701,4.992692470550537
1711550520635672800,13.0546728515625,3.4994189739227295,7.6815948486328125,4.991748332977295
1711550520654632000,13.0736318359375,3.538017511367798,7.664165019989014,4.991333484649658
1711550520673591000,13.092591064453124,3.574213743209839,7.641505241394043,5.000278472900391
1711550520692550100,13.111550048828125,3.6034581661224365,7.617346286773682,5.0161237716674805
1711550520711509500,13.130509521484376,3.615055561065674,7.602421283721924,5.030402183532715
1711550520730468600,13.149468505859375,3.6144118309020996,7.5914387702941895,5.047422409057617
1711550520749427700,13.168427734375,3.60321307182312,7.581143856048584,5.0708489418029785
1711550520768387000,13.187386962890624,3.586519479751587,7.572440147399902,5.095625877380371
1711550520787346200,13.20634619140625,3.573148727416992,7.565454483032227,5.115357875823975
1711550520806305500,13.225305419921876,3.5670859813690186,7.560194969177246,5.127352237701416
1711550520825264600,13.2442646484375,3.5623703002929688,7.559369087219238,5.131845474243164
1711550520844223700,13.2632236328125,3.55824613571167,7.56313943862915,5.129151344299316
1711550520863182800,13.282182861328126,3.551659107208252,7.5684967041015625,5.125814437866211
1711550520882142200,13.30114208984375,3.545473098754883,7.569353103637695,5.128830432891846
1711550520901101300,13.320101318359375,3.545238733291626,7.559435844421387,5.143598556518555
1711550520920060400,13.339060302734374,3.551264524459839,7.5435404777526855,5.162741184234619
1711550520939019800,13.358019775390625,3.5630173683166504,7.533885478973389,5.168737888336182
1711550520957979000,13.376978759765626,3.572199583053589,7.5315728187561035,5.165771484375
1711550520976938200,13.395938232421875,3.5820841789245605,7.524324417114258,5.169487476348877
1711550520995897300,13.4148974609375,3.592028856277466,7.51017427444458,5.1831464767456055
1711550521014856400,13.4338564453125,3.5915462970733643,7.499831199645996,5.198434829711914
1711550521033815800,13.45281591796875,3.5790951251983643,7.500018119812012,5.206745624542236
1711550521052775000,13.47177490234375,3.5586555004119873,7.505449295043945,5.212924957275391
1711550521071734300,13.490734375,3.5373547077178955,7.5108184814453125,5.2196855545043945
1711550521090693400,13.509693359375,3.5158627033233643,7.516364097595215,5.226219177246094
1711550521109652700,13.52865283203125,3.4886746406555176,7.524618625640869,5.232557773590088
1711550521128611800,13.54761181640625,3.457463026046753,7.533759117126465,5.240117073059082
1711550521147571000,13.566571044921876,3.4294092655181885,7.542415142059326,5.246095657348633
1711550521166530300,13.5855302734375,3.4138967990875244,7.5492048263549805,5.246448040008545
1711550521185489400,13.604489501953125,3.4151458740234375,7.550344944000244,5.243993282318115
1711550521204448500,13.623448486328124,3.430233955383301,7.544792175292969,5.2421369552612305
1711550521223407900,13.642407958984375,3.4561843872070312,7.53631591796875,5.237281322479248
1711550521242367000,13.661366943359376,3.4854471683502197,7.527215003967285,5.230972766876221
1711550521261326300,13.680326416015625,3.512742519378662,7.519096851348877,5.224387168884277
1711550521280285400,13.699285400390625,3.536149501800537,7.51494836807251,5.214555263519287
1711550521299244800,13.718244873046874,3.5531704425811768,7.51530647277832,5.202454090118408
1711550521318204000,13.737203857421875,3.5622189044952393,7.516976833343506,5.193845748901367
1711550521337163000,13.7561630859375,3.5651838779449463,7.518459796905518,5.189663887023926
1711550521356122400,13.775122314453125,3.564789295196533,7.521405220031738,5.185665130615234
1711550521375081500,13.79408154296875,3.5587992668151855,7.52739953994751,5.1810784339904785
1711550521394040800,13.813040771484374,3.5430686473846436,7.538534164428711,5.175669193267822
1711550521413000000,13.832,3.5236732959747314,7.5532660484313965,5.167426109313965
1711550521431959300,13.850959228515626,3.5102758407592773,7.568262100219727,5.154585838317871
1711550521450918400,13.86991845703125,3.4972054958343506,7.581573486328125,5.14389705657959
1711550521469877500,13.88887744140625,3.4843251705169678,7.594566345214844,5.133462905883789
1711550521488836900,13.9078369140625,3.4740872383117676,7.604332447052002,5.1259355545043945
1711550521507796000,13.9267958984375,3.47007417678833,7.608001232147217,5.123210906982422
1711550521526755300,13.94575537109375,3.4758923053741455,7.611983776092529,5.113340854644775
1711550521545714400,13.96471435546875,3.490432024002075,7.616650581359863,5.09645938873291
1711550521564673500,13.983673583984375,3.5155811309814453,7.618096351623535,5.076976299285889
1711550521583633000,14.0026328125,3.548048973083496,7.613064765930176,5.061914443969727
1711550521602592000,14.021592041015625,3.586310386657715,7.60008430480957,5.0544514656066895
1711550521621551400,14.04055126953125,3.628234624862671,7.583603382110596,5.049282550811768
1711550521640510500,14.059510498046874,3.6675336360931396,7.569815158843994,5.0415754318237305
1711550521659469600,14.078469482421875,3.6852128505706787,7.566475868225098,5.033689975738525
1711550521678429000,14.097428955078126,3.6795120239257812,7.574352264404297,5.026010513305664
1711550521697388000,14.116387939453125,3.6591343879699707,7.586713790893555,5.022239685058594
1711550521716347400,14.135347412109375,3.6260204315185547,7.597640037536621,5.0297346115112305
1711550521735306500,14.154306396484374,3.5824081897735596,7.609015941619873,5.043770790100098
1711550521754265900,14.173265869140625,3.5375936031341553,7.624009609222412,5.052751064300537
1711550521773225000,14.192224853515626,3.5016045570373535,7.637803554534912,5.0569868087768555
1711550521792184000,14.21118408203125,3.4800329208374023,7.646090984344482,5.059353828430176
1711550521811143400,14.230143310546875,3.4719316959381104,7.6468634605407715,5.06374979019165
1711550521830102500,14.2491025390625,3.4750564098358154,7.642638683319092,5.067982196807861
1711550521849062000,14.268061767578125,3.4866771697998047,7.63693380355835,5.068599700927734
1711550521868021000,14.28702099609375,3.525761842727661,7.626955986022949,5.056572437286377
1711550521886980400,14.30598046875,3.5893197059631348,7.61020040512085,5.037065029144287
1711550521905939500,14.324939453125,3.6581740379333496,7.584612846374512,5.026110649108887
1711550521924898800,14.34389892578125,3.7149667739868164,7.554685592651367,5.0295257568359375
1711550521943858000,14.36285791015625,3.7438416481018066,7.53477144241333,5.037981986999512
1711550521962817300,14.3818173828125,3.7469592094421387,7.535464286804199,5.03462553024292
1711550521981776400,14.4007763671875,3.7338693141937256,7.548703670501709,5.024508476257324
1711550522000735700,14.41973583984375,3.714027166366577,7.556694507598877,5.027200698852539
1711550522019694800,14.43869482421875,3.690577983856201,7.555382251739502,5.0464067459106445
1711550522038654000,14.457654052734375,3.6645395755767822,7.555205821990967,5.065608978271484
1711550522057613300,14.47661328125,3.643261432647705,7.561040878295898,5.0722479820251465
1711550522076572400,14.495572509765625,3.6331229209899902,7.570934772491455,5.064755916595459
1711550522095531800,14.51453173828125,3.6359567642211914,7.576480865478516,5.054418087005615
1711550522114491000,14.533490966796874,3.649231433868408,7.572941303253174,5.050155162811279
1711550522133450000,14.552449951171875,3.671088218688965,7.560697078704834,5.052658557891846
1711550522152409300,14.571409423828126,3.7048776149749756,7.545001983642578,5.051456451416016
1711550522171368400,14.590368408203124,3.748656988143921,7.529151439666748,5.042800426483154
1711550522190327800,14.609327880859375,3.789041519165039,7.512248516082764,5.037823677062988
1711550522209287000,14.628286865234376,3.810788154602051,7.495915412902832,5.0457444190979
1711550522228246300,14.647246337890625,3.8033864498138428,7.487111568450928,5.064365863800049
1711550522247205400,14.666205322265625,3.7730648517608643,7.490722179412842,5.081678867340088
1711550522266164500,14.68516455078125,3.7361104488372803,7.504336357116699,5.08889102935791
1711550522285123800,14.704123779296875,3.697103500366211,7.521925449371338,5.0914106369018555
1711550522304083000,14.7230830078125,3.6575469970703125,7.536197185516357,5.0988688468933105
1711550522323042300,14.742042236328125,3.6211681365966797,7.545345783233643,5.111289024353027
1711550522342001400,14.76100146484375,3.592352867126465,7.552060604095459,5.1216959953308105
1711550522360960500,14.77996044921875,3.5747218132019043,7.5590620040893555,5.12370491027832
1711550522379920000,14.798919921875,3.5634241104125977,7.56412410736084,5.1241021156311035
1711550522398879000,14.81787890625,3.5643303394317627,7.562241077423096,5.126251220703125
1711550522417838300,14.83683837890625,3.585212230682373,7.552931785583496,5.125412464141846
1711550522436797400,14.85579736328125,3.6174216270446777,7.540333271026611,5.121330261230469
1711550522455756800,14.8747568359375,3.6614203453063965,7.521861553192139,5.117223739624023
1711550522474716000,14.8937158203125,3.71710205078125,7.495905876159668,5.11516809463501
1711550522493675000,14.912675048828126,3.762314558029175,7.472967147827148,5.115675449371338
1711550522512634400,14.93163427734375,3.7902960777282715,7.462586879730225,5.110170364379883
1711550522531593500,14.950593505859375,3.8033998012542725,7.463662147521973,5.098852634429932
1711550522550552800,14.969552734375,3.8099000453948975,7.466780662536621,5.089423656463623
1711550522569512000,14.988511962890625,3.8062727451324463,7.465102672576904,5.094598293304443
1711550522588471000,15.007470947265626,3.7849485874176025,7.461814880371094,5.11525821685791
1711550522607430400,15.026430419921875,3.7512242794036865,7.465514659881592,5.134666919708252
1711550522626389500,15.045389404296875,3.7213292121887207,7.480363368988037,5.134808540344238
1711550522645348900,15.064348876953124,3.7051186561584473,7.498147487640381,5.1205735206604
1711550522664308000,15.083307861328125,3.688021183013916,7.515629291534424,5.107270240783691
1711550522683267000,15.10226708984375,3.674870252609253,7.519950866699219,5.110385894775391
1711550522702226400,15.121226318359374,3.682358503341675,7.514596462249756,5.112873077392578
1711550522721185500,15.140185546875,3.7101380825042725,7.510006427764893,5.099517345428467
1711550522740145000,15.159144775390626,3.741896152496338,7.5077433586120605,5.079605579376221
1711550522759104000,15.17810400390625,3.7651619911193848,7.503358364105225,5.0688796043396
1711550522778063400,15.1970634765625,3.77404522895813,7.497309684753418,5.071225166320801
1711550522797022500,15.2160224609375,3.7791919708251953,7.494009017944336,5.072270393371582
1711550522815981600,15.234981689453125,3.776510238647461,7.503194808959961,5.060675144195557
1711550522834941000,15.25394091796875,3.7644004821777344,7.507021903991699,5.064019680023193
1711550522853900000,15.272900146484375,3.7523415088653564,7.506475925445557,5.0737690925598145
1711550522872859400,15.291859375,3.743778705596924,7.511477947235107,5.07269287109375
1711550522891818500,15.310818603515624,3.7352678775787354,7.525321006774902,5.058429718017578
1711550522910777600,15.329777587890625,3.736396312713623,7.533056259155273,5.046066761016846
1711550522929737000,15.348737060546876,3.7537059783935547,7.525285720825195,5.0448150634765625
1711550522948696000,15.367696044921875,3.7780566215515137,7.509511470794678,5.0501389503479
1711550522967655400,15.386655517578125,3.787921667098999,7.507265567779541,5.046088695526123
1711550522986614500,15.405614501953124,3.7819042205810547,7.518343925476074,5.034093856811523
1711550523005573600,15.42457373046875,3.780241012573242,7.519608497619629,5.03345251083374
1711550523024533000,15.443532958984376,3.7923073768615723,7.507750988006592,5.042070388793945
1711550523043492000,15.4624921875,3.8130486011505127,7.495006084442139,5.0453877449035645
1711550523062451500,15.481451416015625,3.8293044567108154,7.485957145690918,5.046509265899658
1711550523081410600,15.50041064453125,3.8432984352111816,7.476974964141846,5.0491862297058105
1711550523100369700,15.51936962890625,3.853419303894043,7.473171234130859,5.047103404998779
1711550523119329000,15.5383291015625,3.869053363800049,7.473008632659912,5.035370826721191
1711550523138288000,15.5572880859375,3.8783037662506104,7.479903221130371,5.01798677444458
1711550523157247200,15.576247314453125,3.8872928619384766,7.490603923797607,4.9950175285339355
1711550523176206600,15.59520654296875,3.907921075820923,7.496105194091797,4.970607757568359
1711550523195165700,15.614165771484375,3.9384148120880127,7.495718002319336,4.947068691253662
1711550523214124800,15.633124755859376,3.9697489738464355,7.492852210998535,4.9263224601745605
1711550523233084200,15.652084228515625,3.99522066116333,7.489104270935059,4.911407947540283
1711550523252043300,15.671043212890625,4.029008388519287,7.480100154876709,4.8975067138671875
1711550523271002600,15.690002685546874,4.067173004150391,7.472736358642578,4.877161026000977
1711550523289961700,15.708961669921875,4.106571674346924,7.469024658203125,4.849756240844727
1711550523308920800,15.7279208984375,4.1399078369140625,7.465000152587891,4.827559947967529
1711550523327880200,15.746880126953124,4.163876056671143,7.457688808441162,4.818235874176025
1711550523346839300,15.76583935546875,4.1859331130981445,7.454577922821045,4.803917407989502
1711550523365798700,15.784798583984376,4.203287124633789,7.452438831329346,4.7920684814453125
1711550523384757800,15.8037578125,4.213663101196289,7.4531073570251465,4.781906604766846
1711550523403716900,15.822716796875,4.2201738357543945,7.454070568084717,4.774657249450684
1711550523422676000,15.841676025390624,4.223627090454102,7.448005676269531,4.781063079833984
1711550523441635300,15.86063525390625,4.219812870025635,7.439145565032959,4.79819393157959
1711550523460594400,15.879594482421876,4.210759162902832,7.433858394622803,4.814315319061279
1711550523479553500,15.898553466796875,4.202152252197266,7.432613372802734,4.8237504959106445
1711550523498513000,15.917512939453125,4.203185558319092,7.432013511657715,4.8237738609313965
1711550523517472000,15.936471923828124,4.2117919921875,7.435028553009033,4.811604022979736
1711550523536431400,15.955431396484375,4.217279434204102,7.444758892059326,4.791711807250977
1711550523555390500,15.974390380859376,4.21688175201416,7.454505443572998,4.776886463165283
1711550523574349600,15.993349609375,4.21422815322876,7.459993362426758,4.770656585693359
1711550523593309000,16.012308837890625,4.214626789093018,7.466824531555176,4.759604454040527
1711550523612268000,16.03126806640625,4.225726127624512,7.476711750030518,4.73417329788208
1711550523631227400,16.050227294921875,4.249655723571777,7.479452133178711,4.708354949951172
1711550523650186500,16.0691865234375,4.27841329574585,7.470764636993408,4.696087837219238
1711550523669145600,16.0881455078125,4.306982040405273,7.456731796264648,4.692274570465088
1711550523688104700,16.107104736328125,4.337008476257324,7.443831920623779,4.685094356536865
1711550523707064000,16.12606396484375,4.369769096374512,7.435521602630615,4.66781759262085
1711550523726023200,16.145023193359375,4.404453754425049,7.427672386169434,4.647672653198242
1711550523744982500,16.163982421875,4.440695762634277,7.421629428863525,4.62277364730835
1711550523763941600,16.182941650390624,4.475090980529785,7.417701721191406,4.595828533172607
1711550523782900700,16.201900634765625,4.506944179534912,7.413465976715088,4.571473598480225
1711550523801860000,16.220860107421874,4.53141450881958,7.41948938369751,4.53738260269165
1711550523820819200,16.239819091796875,4.5454607009887695,7.4355268478393555,4.49690055847168
1711550523839778600,16.258778564453124,4.556031703948975,7.4518208503723145,4.459072113037109
1711550523858737700,16.277737548828124,4.564310073852539,7.466168403625488,4.426487445831299
1711550523877696800,16.29669677734375,4.572154998779297,7.481032371520996,4.393170356750488
1711550523896656100,16.31565625,4.579570770263672,7.49320650100708,4.364605903625488
1711550523915615200,16.334615234375,4.592342376708984,7.495623588562012,4.347001075744629
1711550523934574300,16.35357421875,4.622740268707275,7.4863739013671875,4.330687999725342
1711550523953533700,16.37253369140625,4.674773693084717,7.470146656036377,4.302763938903809
1711550523972492800,16.391492919921873,4.732196807861328,7.463924407958984,4.25047492980957
1711550523991452200,16.4104521484375,4.765451908111572,7.469974517822266,4.202418804168701
1711550524010411300,16.429411376953126,4.779446601867676,7.480620861053467,4.167445182800293
1711550524029370400,16.448370361328124,4.77134895324707,7.493553161621094,4.153465270996094
1711550524048329700,16.467329833984376,4.7449564933776855,7.509373188018799,4.155128002166748
1711550524067288800,16.486288818359377,4.696239948272705,7.532867908477783,4.167927265167236
1711550524086248000,16.505248046875,4.6348724365234375,7.560447692871094,4.186641693115234
1711550524105207300,16.524207275390626,4.582408428192139,7.582208156585693,4.204999923706055
1711550524124166400,16.54316650390625,4.534532070159912,7.601559162139893,4.2219319343566895
1711550524143125500,16.56212548828125,4.4937286376953125,7.620790958404541,4.230879783630371
1711550524162084900,16.5810849609375,4.470175266265869,7.632567405700684,4.234598636627197
1711550524181044000,16.6000439453125,4.450219631195068,7.641898155212402,4.2387871742248535
1711550524200003300,16.61900341796875,4.426694869995117,7.650137424468994,4.24854850769043
1711550524218962400,16.63796240234375,4.408034324645996,7.652016639709473,4.264535427093506
1711550524237921800,16.656921875,4.402907371520996,7.6450886726379395,4.282220840454102
1711550524256881000,16.675880859375,4.4028639793396,7.636198043823242,4.298099994659424
1711550524275840000,16.694840087890626,4.403337001800537,7.629360675811768,4.3097405433654785
1711550524294799400,16.71379931640625,4.399965286254883,7.626802921295166,4.317704200744629
1711550524313758500,16.732758544921875,4.398098468780518,7.625174522399902,4.322480201721191
1711550524332717800,16.7517177734375,4.404220104217529,7.619499683380127,4.326253414154053
1711550524351677000,16.770677001953125,4.4090447425842285,7.615159034729004,4.328979969024658
1711550524370636300,16.78963623046875,4.408899307250977,7.6106085777282715,4.33712100982666
1711550524389595400,16.808595458984374,4.412291049957275,7.603019714355469,4.346972465515137
1711550524408554800,16.8275546875,4.4192352294921875,7.596827507019043,4.350741386413574
1711550524427513900,16.846513916015624,4.422905445098877,7.596685886383057,4.347259521484375
1711550524446473200,16.86547314453125,4.415145397186279,7.602530479431152,4.344928741455078
1711550524465432300,16.884432373046874,4.399475574493408,7.609248161315918,4.349061965942383
1711550524484391700,16.9033916015625,4.387601852416992,7.6111884117126465,4.357655048370361
1711550524503350800,16.922350830078123,4.374722480773926,7.613137722015381,4.367187023162842
1711550524522310000,16.941309814453124,4.359536170959473,7.6226277351379395,4.365818500518799
1711550524541269200,16.960269287109377,4.339025974273682,7.638692855834961,4.358165264129639
1711550524560228400,16.979228271484374,4.312758922576904,7.650818824768066,4.362967491149902
1711550524579187700,16.998187744140626,4.283892631530762,7.654170513153076,4.385467529296875
1711550524598146800,17.017146728515623,4.2579755783081055,7.651888847351074,4.414593696594238
1711550524617106000,17.03610595703125,4.236701488494873,7.650660991668701,4.437131404876709
1711550524636065300,17.055065185546876,4.221344470977783,7.6535258293151855,4.446817398071289
1711550524655024400,17.0740244140625,4.208153247833252,7.662210464477539,4.444364547729492
1711550524673983700,17.092983642578126,4.191864967346191,7.673305988311768,4.440612316131592
1711550524692943000,17.111943115234375,4.170586109161377,7.680437088012695,4.448314666748047
1711550524711902200,17.130902099609376,4.138820648193359,7.682304859161377,4.474678039550781
1711550524730861600,17.149861572265625,4.103060722351074,7.676821708679199,4.5168232917785645
1711550524749820700,17.168820556640625,4.0589375495910645,7.674139976501465,4.561030387878418
1711550524768779800,17.18777978515625,4.007830619812012,7.680672645568848,4.595099925994873
1711550524787739100,17.2067392578125,3.9600002765655518,7.689543724060059,4.621655464172363
1711550524806698200,17.2256982421875,3.9142143726348877,7.69592809677124,4.649946689605713
1711550524825657600,17.24465771484375,3.863271951675415,7.704216003417969,4.678735733032227
1711550524844616700,17.26361669921875,3.807874917984009,7.716213703155518,4.704308986663818
1711550524863576000,17.282576171875,3.754018783569336,7.72790002822876,4.728349208831787
1711550524882535400,17.301535400390627,3.7027747631073,7.7407660484313965,4.747671604156494
1711550524901494500,17.32049462890625,3.66432785987854,7.755100727081299,4.754103660583496
1711550524920453600,17.33945361328125,3.6444382667541504,7.764915943145752,4.753371238708496
1711550524939413000,17.3584130859375,3.641087293624878,7.766706466674805,4.753015041351318
1711550524958372000,17.3773720703125,3.658102512359619,7.759438514709473,4.751818656921387
1711550524977331500,17.39633154296875,3.6809730529785156,7.7457275390625,4.756524562835693
1711550524996290800,17.415290771484376,3.7018957138061523,7.73387336730957,4.759573459625244
1711550525015250000,17.43425,3.7219223976135254,7.725216388702393,4.758017539978027
1711550525034209300,17.453209228515625,3.7456979751586914,7.711970329284668,4.760844707489014
1711550525053168400,17.47216845703125,3.774704694747925,7.687051773071289,4.778203964233398
1711550525072127700,17.491127685546875,3.7957260608673096,7.659688949584961,4.805415153503418
1711550525091086800,17.5100869140625,3.8080410957336426,7.643992900848389,4.820640563964844
1711550525110046200,17.529046142578125,3.813519239425659,7.635593414306641,4.829612731933594
1711550525129005300,17.54800537109375,3.818812608718872,7.624722957611084,4.842588901519775
1711550525147964700,17.566964599609374,3.822230815887451,7.6119384765625,4.859973430633545
1711550525166923800,17.585923828125,3.8124003410339355,7.603041172027588,4.881574630737305
1711550525185883100,17.604883056640624,3.7833874225616455,7.603332042694092,4.903642177581787
1711550525204842500,17.623842529296876,3.737767219543457,7.612088203430176,4.9249982833862305
1711550525223801600,17.642801513671873,3.6888718605041504,7.623719215393066,4.943835735321045
1711550525242761000,17.661760986328126,3.651562213897705,7.631394386291504,4.959666728973389
1711550525261720000,17.680719970703127,3.631200075149536,7.631408214569092,4.974573135375977
1711550525280679400,17.699679443359376,3.625195264816284,7.626112461090088,4.987058162689209
1711550525299638500,17.718638427734376,3.623748302459717,7.6225266456604,4.993589401245117
1711550525318598000,17.737597900390625,3.6290385723114014,7.622074604034424,4.990434646606445
1711550525337557000,17.756556884765626,3.6432881355285645,7.62009859085083,4.983062744140625
1711550525356516400,17.775516357421875,3.6677627563476562,7.61156702041626,4.978147506713867
1711550525375475700,17.794475830078124,3.699159860610962,7.601529598236084,4.970247268676758
1711550525394434800,17.813434814453124,3.7232494354248047,7.594988822937012,4.962252140045166
1711550525413394200,17.832394287109373,3.7268683910369873,7.5933308601379395,4.962071895599365
1711550525432353500,17.851353515625,3.7081267833709717,7.5972137451171875,4.970163345336914
1711550525451312600,17.870312744140627,3.677963972091675,7.606734752655029,4.9780073165893555
1711550525470272000,17.88927197265625,3.6465141773223877,7.618791103363037,4.98270320892334
1711550525489231000,17.908231201171876,3.620570182800293,7.632124900817871,4.981218338012695
1711550525508190500,17.9271904296875,3.5999557971954346,7.645920753479004,4.974996089935303
1711550525527149600,17.946149658203126,3.583211660385132,7.657865047454834,4.968710899353027
1711550525546109000,17.96510888671875,3.57047438621521,7.666773796081543,4.964138031005859
1711550525565068300,17.984068359375,3.5600485801696777,7.674863815307617,4.9591240882873535
1711550525584027400,18.00302734375,3.559335947036743,7.68005895614624,4.951586723327637
1711550525602986800,18.02198681640625,3.5682098865509033,7.681583881378174,4.942828178405762
1711550525621945900,18.04094580078125,3.5827956199645996,7.681128978729248,4.932973384857178
1711550525640905200,18.0599052734375,3.598759412765503,7.679759502410889,4.923473834991455
1711550525659864600,18.078864501953124,3.6149497032165527,7.678091049194336,4.914207458496094
1711550525678823700,18.09782373046875,3.6314351558685303,7.676865577697754,4.903957843780518
1711550525697783000,18.116782958984373,3.645484685897827,7.67642879486084,4.894207954406738
1711550525716742400,18.135742431640626,3.6503384113311768,7.677645683288574,4.888679027557373
1711550525735701500,18.154701416015627,3.6460654735565186,7.681687831878662,4.885516166687012
1711550525754660900,18.173660888671876,3.6374478340148926,7.688340187072754,4.881474018096924
1711550525773620200,18.1926201171875,3.618350028991699,7.69654655456543,4.8827338218688965
1711550525792579300,18.211579345703125,3.5888195037841797,7.70864200592041,4.885447978973389
1711550525811538700,18.23053857421875,3.556126356124878,7.721444606781006,4.88913631439209
1711550525830498000,18.249498046875,3.5280861854553223,7.733241558074951,4.890804290771484
1711550525849457200,18.26845703125,3.5054666996002197,7.74493408203125,4.888566493988037
1711550525868416500,18.28741650390625,3.488220453262329,7.756986618041992,4.881789207458496
1711550525887375600,18.306375732421873,3.4741294384002686,7.767995834350586,4.874325275421143
1711550525906335000,18.3253349609375,3.465324640274048,7.777220249176025,4.865877151489258
1711550525925294300,18.34429443359375,3.461637496948242,7.7834014892578125,4.858612060546875
1711550525944253400,18.36325341796875,3.4617278575897217,7.785625457763672,4.854981899261475
1711550525963212800,18.382212890625,3.4562389850616455,7.785292625427246,4.859423637390137
1711550525982172200,18.401172119140625,3.4431309700012207,7.784865379333496,4.8694047927856445
1711550526001131300,18.42013134765625,3.4205455780029297,7.786623954772949,4.882493495941162
1711550526020090600,18.439090576171875,3.3994956016540527,7.7895660400390625,4.892490386962891
1711550526039050000,18.458050048828124,3.391751766204834,7.790313243865967,4.8966755867004395
1711550526058009000,18.477009033203124,3.391653299331665,7.7870965003967285,4.901857376098633
1711550526076968400,18.495968505859373,3.390277624130249,7.780557155609131,4.913179874420166
1711550526095927800,18.514927734375,3.3833019733428955,7.774779319763184,4.927114963531494
1711550526114887000,18.533886962890627,3.370309352874756,7.775028228759766,4.935619831085205
1711550526133846300,18.55284619140625,3.3661153316497803,7.7779741287231445,4.933839321136475
1711550526152805600,18.5718056640625,3.378706216812134,7.774820804595947,4.930202007293701
1711550526171764700,18.5907646484375,3.406619071960449,7.760641574859619,4.9333343505859375
1711550526190724000,18.60972412109375,3.429105520248413,7.742099761962891,4.946868896484375
1711550526209683500,18.628683349609375,3.439589738845825,7.730231761932373,4.958137512207031
1711550526228642600,18.647642578125,3.4489023685455322,7.722303867340088,4.964018821716309
1711550526247602000,18.666601806640625,3.46553897857666,7.709411144256592,4.972464561462402
1711550526266561000,18.68556103515625,3.4824178218841553,7.690943241119385,4.989243030548096
1711550526285520400,18.704520263671874,3.486299991607666,7.676924705505371,5.00808572769165
1711550526304479700,18.723479736328127,3.473522424697876,7.675736427307129,5.018773078918457
1711550526323438800,18.74243896484375,3.456995964050293,7.686038494110107,5.014416217803955
1711550526342398200,18.761398193359376,3.4441404342651367,7.695374011993408,5.008942604064941
1711550526361357600,18.780357666015625,3.430136203765869,7.698967456817627,5.013028621673584
1711550526380316700,18.799316650390626,3.4192893505096436,7.7011613845825195,5.017067909240723
1711550526399276000,18.818276123046875,3.4093856811523438,7.713085174560547,5.005476951599121
1711550526418235400,18.8372353515625,3.398648738861084,7.728347301483154,4.9892096519470215
1711550526437194500,18.856194580078125,3.3965821266174316,7.727408409118652,4.992069721221924
1711550526456153900,18.87515380859375,3.4159560203552246,7.7055253982543945,5.012633800506592
1711550526475113200,18.89411328125,3.452319860458374,7.6827311515808105,5.022700309753418
1711550526494072300,18.913072265625,3.495090961456299,7.679190158843994,4.998476982116699
1711550526513031700,18.93203173828125,3.5336806774139404,7.688673973083496,4.95659065246582
1711550526531991000,18.950990966796876,3.563105583190918,7.687844276428223,4.936771392822266
1711550526550950100,18.9699501953125,3.5914876461029053,7.66251277923584,4.955552577972412
1711550526569909500,18.988909423828126,3.6276700496673584,7.624727725982666,4.987376689910889
1711550526588868900,19.007868896484375,3.6740944385528564,7.601294994354248,4.989161968231201
1711550526607828000,19.026827880859376,3.7175490856170654,7.599022388458252,4.960351467132568
1711550526626787300,19.045787353515625,3.7483150959014893,7.5991644859313965,4.936924934387207
1711550526645746700,19.06474658203125,3.7671926021575928,7.584889888763428,4.944500923156738
1711550526664705800,19.083705810546874,3.774972677230835,7.560595989227295,4.975675582885742
1711550526683665000,19.102664794921875,3.7771687507629395,7.543128490447998,5.000462055206299
1711550526702624300,19.121624267578124,3.7745258808135986,7.541168212890625,5.005409240722656
1711550526721583600,19.14058349609375,3.7627553939819336,7.5486741065979,5.002956390380859
1711550526740542700,19.159542724609373,3.742602825164795,7.554164409637451,5.009780406951904
1711550526759502000,19.178502197265626,3.7167110443115234,7.554211616516113,5.028949737548828
1711550526778461400,19.19746142578125,3.699650764465332,7.547962665557861,5.050864219665527
1711550526797420500,19.216420654296876,3.6972732543945312,7.539921760559082,5.064596652984619
1711550526816380000,19.2353798828125,3.708542823791504,7.535969257354736,5.062238693237305
1711550526835339300,19.25433935546875,3.725712776184082,7.531363010406494,5.056483745574951
1711550526854298400,19.27329833984375,3.745206594467163,7.520862102508545,5.057712078094482
1711550526873257700,19.2922578125,3.7599215507507324,7.509726047515869,5.063338756561279
1711550526892217000,19.311217041015624,3.7645263671875,7.501992225646973,5.07137393951416
1711550526911176200,19.33017626953125,3.7678186893463135,7.491277694702148,5.084749698638916
1711550526930135600,19.349135498046873,3.768838882446289,7.476424694061279,5.105813026428223
1711550526949095000,19.368094970703126,3.7685136795043945,7.464087009429932,5.124070167541504
1711550526968054000,19.387053955078127,3.7709765434265137,7.458678245544434,5.130131244659424
1711550526987013000,19.40601318359375,3.766993284225464,7.460024833679199,5.13109827041626
1711550527005972500,19.424972412109376,3.7565836906433105,7.457988262176514,5.141682147979736
1711550527024931800,19.443931884765625,3.7580883502960205,7.441219329833984,5.164824962615967
1711550527043891000,19.462890869140626,3.768275022506714,7.423237323760986,5.183245658874512
1711550527062850300,19.481850341796875,3.7781872749328613,7.4195876121521,5.181256294250488
1711550527081809700,19.5008095703125,3.78979229927063,7.422726154327393,5.168269157409668
1711550527100768800,19.519768798828125,3.815279245376587,7.421964168548584,5.150579452514648
1711550527119728000,19.53872802734375,3.862046957015991,7.4137396812438965,5.1275177001953125
1711550527138687200,19.557687255859374,3.918578624725342,7.40188455581665,5.101690292358398
1711550527157646600,19.576646484375,3.970884323120117,7.394049167633057,5.072524070739746
1711550527176606000,19.59560595703125,4.009759902954102,7.390731334686279,5.046712875366211
1711550527195565000,19.61456494140625,4.04245662689209,7.38181209564209,5.033665657043457
1711550527214524400,19.6335244140625,4.076417922973633,7.367619037628174,5.027066230773926
1711550527233483800,19.65248388671875,4.118156909942627,7.35654878616333,5.009228229522705
1711550527252443000,19.67144287109375,4.154635429382324,7.351395130157471,4.98661994934082
1711550527271402000,19.690402099609376,4.180731296539307,7.3461127281188965,4.9725751876831055
1711550527290361300,19.709361328125,4.1957550048828125,7.339441776275635,4.969769477844238
1711550527309320700,19.72832080078125,4.205583095550537,7.337215423583984,4.964749336242676
1711550527328279800,19.74727978515625,4.213066577911377,7.3419508934021,4.951385498046875
1711550527347239200,19.7662392578125,4.232564926147461,7.338533878326416,4.939806938171387
1711550527366198300,19.7851982421875,4.259507656097412,7.3241071701049805,4.938060760498047
1711550527385157600,19.80415771484375,4.287045478820801,7.310972690582275,4.933689117431641
1711550527404117000,19.823116943359373,4.306509971618652,7.309735298156738,4.918549537658691
1711550527423076000,19.842076171875,4.324953079223633,7.311282634735107,4.900031566619873
1711550527442035200,19.86103515625,4.33413028717041,7.305752277374268,4.900173187255859
1711550527460994600,19.87999462890625,4.338780403137207,7.295480251312256,4.911348819732666
1711550527479954000,19.898953857421876,4.336672306060791,7.2933855056762695,4.916319370269775
1711550527498913000,19.9179130859375,4.309610366821289,7.301321983337402,4.928319931030273
1711550527517872400,19.936872314453126,4.259487628936768,7.311748504638672,4.956358432769775
1711550527536830700,19.955830810546875,4.190410614013672,7.323733806610107,4.99737548828125
1711550527555790800,19.974790771484376,4.113732814788818,7.336821556091309,5.041689395904541
1711550527574750200,19.993750244140625,4.072343826293945,7.3582844734191895,5.04401159286499
1711550527593709300,20.012709228515625,4.046289920806885,7.3907036781311035,5.017511367797852
1711550527612668700,20.031668701171874,4.049129486083984,7.406105995178223,4.992447376251221
1711550527631627800,20.050627685546875,4.074023723602295,7.398380756378174,4.983641624450684
1711550527650587100,20.069587158203124,4.108977794647217,7.388718605041504,4.969257354736328
1711550527669546200,20.088546142578124,4.150641918182373,7.379602909088135,4.948133945465088
1711550527688505600,20.107505615234373,4.193714618682861,7.361570835113525,4.938666343688965
1711550527707464700,20.126464599609374,4.239400863647461,7.334644317626953,4.939723014831543
1711550527726424000,20.145424072265627,4.30421781539917,7.30259370803833,4.931148052215576
1711550527745383200,20.164383056640624,4.392780780792236,7.267481803894043,4.904851913452148
1711550527764342500,20.183342529296876,4.490925312042236,7.233382701873779,4.866225242614746
1711550527783302000,20.202302001953125,4.5824198722839355,7.2029595375061035,4.825887203216553
1711550527802261000,20.221260986328126,4.646043300628662,7.179317951202393,4.800214767456055
1711550527821220000,20.24022021484375,4.672977447509766,7.1652326583862305,4.795114040374756
1711550527840179500,20.259179443359375,4.676482200622559,7.159752368927002,4.799881935119629
1711550527859138600,20.278138671875,4.670835018157959,7.16124153137207,4.803154945373535
1711550527878098000,20.297097900390625,4.655821323394775,7.173166275024414,4.799936771392822
1711550527897057300,20.316057373046874,4.640980243682861,7.192780494689941,4.7849345207214355
1711550527916016400,20.335016357421875,4.6273322105407715,7.213282585144043,4.7672576904296875
1711550527934975700,20.353975830078124,4.61386775970459,7.225216865539551,4.762231349945068
1711550527953934800,20.372934814453124,4.609252452850342,7.230697154998779,4.758382797241211
1711550527972894000,20.39189404296875,4.608079433441162,7.239752769470215,4.74573278427124
1711550527991853300,20.410853271484374,4.606227874755859,7.2562689781188965,4.722247123718262
1711550528010812400,20.4298125,4.604070663452148,7.274524688720703,4.696191787719727
1711550528029771800,20.448771728515624,4.5998358726501465,7.286983966827393,4.681000709533691
1711550528048731100,20.467731201171876,4.593114852905273,7.296708583831787,4.672442436218262
1711550528067690200,20.486690185546873,4.580819129943848,7.311864376068115,4.660805702209473
1711550528086649600,20.505649658203126,4.562378406524658,7.332056999206543,4.647152423858643
1711550528105608700,20.524608642578126,4.544368267059326,7.348263263702393,4.639194488525391
1711550528124567800,20.54356787109375,4.5279459953308105,7.3570709228515625,4.641293048858643
1711550528143527200,20.562527099609376,4.5092949867248535,7.36406946182251,4.648345947265625
1711550528162486300,20.581486328125,4.494770050048828,7.376600742340088,4.642541408538818
1711550528181445600,20.600445556640626,4.486433982849121,7.398192882537842,4.6161723136901855
1711550528200405000,20.619405029296875,4.4835286140441895,7.422070503234863,4.580525875091553
1711550528219364000,20.638364013671875,4.48264741897583,7.439222812652588,4.553484916687012
1711550528238323500,20.657323486328124,4.483990669250488,7.4464850425720215,4.540270805358887
1711550528257282600,20.676282470703125,4.496181011199951,7.443171501159668,4.533644676208496
1711550528276241700,20.69524169921875,4.512312889099121,7.4374284744262695,4.52703857421875
1711550528295201000,20.714200927734375,4.532494068145752,7.435181140899658,4.510538101196289
1711550528314160000,20.73316015625,4.548526287078857,7.4376540184021,4.490278720855713
1711550528333119500,20.752119384765624,4.555706024169922,7.443485736846924,4.473304271697998
1711550528352078600,20.77107861328125,4.557026386260986,7.450716972351074,4.459900856018066
1711550528371038000,20.790037841796874,4.551549911499023,7.4590630531311035,4.451535701751709
1711550528389997000,20.8089970703125,4.538622856140137,7.470828533172607,4.444999694824219
1711550528408956400,20.827956298828123,4.518226623535156,7.487858295440674,4.43711519241333
1711550528427915500,20.84691552734375,4.488879203796387,7.509119510650635,4.43096923828125
1711550528446875000,20.865875,4.448207855224609,7.533304691314697,4.430931568145752
1711550528465834000,20.884833984375,4.400221347808838,7.557928562164307,4.43690824508667
1711550528484793300,20.90379345703125,4.3452372550964355,7.5822858810424805,4.449522495269775
1711550528503752400,20.92275244140625,4.285600185394287,7.606663703918457,4.465722560882568
1711550528522711600,20.941711669921876,4.223828315734863,7.632340431213379,4.480741500854492
1711550528541671000,20.9606708984375,4.161592483520508,7.660381317138672,4.491114139556885
1711550528560630000,20.979630126953126,4.107017993927002,7.686933994293213,4.495980739593506
1711550528579589400,20.99858935546875,4.0596137046813965,7.710814952850342,4.498140335083008
1711550528598548500,21.017548583984375,4.018133640289307,7.735144138336182,4.493610382080078
1711550528617507800,21.0365078125,3.985607385635376,7.760302543640137,4.479177474975586
1711550528636467000,21.055467041015625,3.9525537490844727,7.783513069152832,4.468179225921631
1711550528655426300,21.07442626953125,3.911973714828491,7.802981853485107,4.469933986663818
1711550528674385400,21.093385498046874,3.869676113128662,7.8113579750061035,4.492068290710449
1711550528693344800,21.1123447265625,3.813537120819092,7.813961029052734,4.535343170166016
1711550528712303900,21.131303955078124,3.744391441345215,7.8224616050720215,4.578101634979248
1711550528731263200,21.15026318359375,3.672025680541992,7.835803031921387,4.613762378692627
1711550528750222300,21.169222412109374,3.6127469539642334,7.844325542449951,4.64596700668335
1711550528769181700,21.188181640625,3.5708136558532715,7.849593639373779,4.669429779052734
1711550528788140800,21.207140869140623,3.539275884628296,7.853367805480957,4.68705940246582
1711550528807100000,21.226099853515624,3.5157687664031982,7.856420040130615,4.699618816375732
1711550528826059300,21.245059326171877,3.4981765747070312,7.859012603759766,4.708402633666992
1711550528845018400,21.264018310546874,3.478407859802246,7.856776714324951,4.726746082305908
1711550528863977700,21.282977783203126,3.4535343647003174,7.845546245574951,4.763494968414307
1711550528882937000,21.30193701171875,3.426119804382324,7.828082084655762,4.811779022216797
1711550528901896200,21.320896240234376,3.400574207305908,7.811679840087891,4.856350421905518
1711550528920855300,21.339855224609376,3.383692741394043,7.7988715171813965,4.888619899749756
1711550528939814700,21.358814697265625,3.3782918453216553,7.789940357208252,4.906564235687256
1711550528958773800,21.377773681640626,3.3777084350585938,7.788458824157715,4.9093170166015625
1711550528977733000,21.396733154296875,3.374047040939331,7.794007778167725,4.903024196624756
1711550528996692200,21.415692138671876,3.3605620861053467,7.801364898681641,4.900583267211914
1711550529015651600,21.434651611328125,3.337913751602173,7.807343006134033,4.906537055969238
1711550529034610700,21.453610595703125,3.310494899749756,7.812228679656982,4.917325496673584
1711550529053570000,21.472570068359374,3.289140462875366,7.814469814300537,4.928083896636963
1711550529072529200,21.491529052734375,3.2848713397979736,7.812559127807617,4.933956623077393
1711550529091488500,21.510488525390624,3.2937822341918945,7.806992053985596,4.936827182769775
1711550529110447600,21.529447509765625,3.3072524070739746,7.802197456359863,4.93540096282959
1711550529129407000,21.548406982421874,3.327080249786377,7.796330451965332,4.931344985961914
1711550529148366000,21.567365966796874,3.353557825088501,7.787678241729736,4.927079200744629
1711550529167325400,21.586325439453127,3.377403497695923,7.775755405426025,4.929620742797852
1711550529186284500,21.605284423828124,3.391964912414551,7.766441345214844,4.934304237365723
1711550529205244000,21.624243896484376,3.3927063941955566,7.762157917022705,4.940529823303223
1711550529224203000,21.643203125,3.379662275314331,7.758989334106445,4.9544267654418945
1711550529243162400,21.662162353515626,3.3628640174865723,7.755757808685303,4.970890998840332
1711550529262121500,21.68112158203125,3.346092462539673,7.750507831573486,4.990358829498291
1711550529281080800,21.700080810546876,3.3286819458007812,7.745318412780762,5.010021686553955
1711550529300040000,21.7190400390625,3.3172309398651123,7.743762016296387,5.020012378692627
1711550529318999300,21.737999267578125,3.3104536533355713,7.7469563484191895,5.019557476043701
1711550529337958700,21.756958740234374,3.3099899291992188,7.750638484954834,5.014175891876221
1711550529356917800,21.775917724609375,3.3150761127471924,7.750289440155029,5.011354923248291
1711550529375876900,21.794876953125,3.3235127925872803,7.745636463165283,5.012959957122803
1711550529394836200,21.813836181640625,3.3329968452453613,7.73884391784668,5.017151355743408
1711550529413795300,21.83279541015625,3.341644048690796,7.731740951538086,5.0223493576049805
1711550529432754700,21.851754638671874,3.3437135219573975,7.728776931762695,5.025532245635986
1711550529451714000,21.870714111328127,3.3395233154296875,7.730863571166992,5.025108337402344
1711550529470673200,21.889673095703124,3.3187367916107178,7.737513065338135,5.02864408493042
1711550529489632500,21.908632568359376,3.2910637855529785,7.7430596351623535,5.038285732269287
1711550529508591600,21.927591552734373,3.262080669403076,7.745885372161865,5.052768707275391
1711550529527551000,21.946551025390626,3.240575075149536,7.748351097106934,5.062817573547363
1711550529546510000,21.965510009765627,3.2307896614074707,7.752403736114502,5.062866687774658
1711550529565469400,21.984469482421876,3.2309279441833496,7.7543721199035645,5.059762954711914
1711550529584428500,22.003428466796876,3.2378625869750977,7.753390789031982,5.0568342208862305
1711550529603388000,22.022387939453125,3.2472736835479736,7.750524044036865,5.0551934242248535
1711550529622347000,22.041346923828126,3.2579805850982666,7.748006820678711,5.052161693572998
1711550529641306400,22.060306396484375,3.2734084129333496,7.745472431182861,5.046071529388428
1711550529660265700,22.079265625,3.294286012649536,7.741573810577393,5.0384626388549805
1711550529679224800,22.098224853515624,3.316729784011841,7.735324382781982,5.033334732055664
1711550529698184200,22.11718408203125,3.333202600479126,7.727780342102051,5.034039497375488
1711550529717143300,22.136143310546874,3.344778299331665,7.72430419921875,5.031695365905762
1711550529736102700,22.1551025390625,3.354736804962158,7.72770881652832,5.019825458526611
1711550529755061800,22.174061767578124,3.3603386878967285,7.734529495239258,5.005554676055908
1711550529774021000,22.193021240234376,3.3599355220794678,7.739448547363281,4.998215675354004
1711550529792980200,22.211980224609373,3.3506834506988525,7.742039203643799,5.000412940979004
1711550529811939600,22.230939697265626,3.3342039585113525,7.745936870574951,5.005390167236328
1711550529830899000,22.24989892578125,3.3141374588012695,7.75434684753418,5.0056939125061035
1711550529849858000,22.268858154296876,3.2954535484313965,7.76609468460083,4.999815940856934
1711550529868817400,22.2878173828125,3.2802109718322754,7.778627872467041,4.990347385406494
1711550529887776800,22.30677685546875,3.2723662853240967,7.7882184982299805,4.980527877807617
1711550529906735900,22.32573583984375,3.2754454612731934,7.792469501495361,4.971846580505371
1711550529925695200,22.3446953125,3.2830283641815186,7.7928786277771,4.966201305389404
1711550529944654300,22.363654296875,3.292027235031128,7.795880317687988,4.955520153045654
1711550529963613700,22.38261376953125,3.3043711185455322,7.8000993728637695,4.940643787384033
1711550529982572800,22.40157275390625,3.3222336769104004,7.8007917404174805,4.927554130554199
1711550530001532200,22.4205322265625,3.340352773666382,7.799957275390625,4.916614055633545
1711550530020491500,22.439491455078127,3.3547708988189697,7.799981594085693,4.9067487716674805
1711550530039450600,22.45845068359375,3.360301971435547,7.800494194030762,4.902146816253662
1711550530058410000,22.477409912109376,3.3644673824310303,7.801285266876221,4.89802885055542
1711550530077369000,22.496369140625,3.375877857208252,7.803388595581055,4.886815071105957
1711550530096328400,22.515328369140626,3.3968303203582764,7.804840564727783,4.869946479797363
1711550530115287800,22.534287841796875,3.423759937286377,7.804696559906006,4.851284027099609
1711550530134247000,22.553246826171875,3.459146499633789,7.803539752960205,4.827986240386963
1711550530153206300,22.572206298828124,3.501030206680298,7.803371429443359,4.797976016998291
1711550530172165600,22.59116552734375,3.537665843963623,7.810523509979248,4.759309768676758
1711550530191124700,22.610124755859374,3.55749773979187,7.827555179595947,4.716350078582764
1711550530210084000,22.629083984375,3.5659680366516113,7.843819618225098,4.682815074920654
1711550530229043500,22.64804345703125,3.5722696781158447,7.848039150238037,4.670926094055176
1711550530248002600,22.66700244140625,3.5817759037017822,7.840733528137207,4.675912857055664
1711550530266962000,22.6859619140625,3.5964574813842773,7.833496570587158,4.676774501800537
1711550530285921300,22.70492138671875,3.6141936779022217,7.832757949829102,4.664322376251221
1711550530304880400,22.72388037109375,3.6521337032318115,7.8269267082214355,4.6445159912109375
1711550530323839700,22.74283984375,3.6910088062286377,7.815397262573242,4.633184432983398
1711550530342798800,22.761798828125,3.7186074256896973,7.805741310119629,4.627390384674072
1711550530361758200,22.78075830078125,3.7297441959381104,7.806221008300781,4.617609024047852
1711550530380717600,22.799717529296874,3.7201406955718994,7.808528423309326,4.621453285217285
1711550530399676700,22.8186767578125,3.701469659805298,7.804270267486572,4.643584251403809
1711550530418636000,22.837635986328124,3.682805061340332,7.796859264373779,4.670794486999512
1711550530437595400,22.856595458984376,3.667365550994873,7.797881603240967,4.6812238693237305
1711550530456554500,22.875554443359373,3.6505930423736572,7.811824321746826,4.671077728271484
1711550530475513900,22.894513916015626,3.6395883560180664,7.824378490447998,4.658634662628174
1711550530494473200,22.91347314453125,3.644775867462158,7.8226318359375,4.65751314163208
1711550530513432300,22.932432373046876,3.6655149459838867,7.811836242675781,4.659356117248535
1711550530532391700,22.9513916015625,3.689864158630371,7.805302619934082,4.6510796546936035
1711550530551351000,22.97035107421875,3.7057623863220215,7.8087477684021,4.6326212882995605
1711550530570310100,22.98931005859375,3.7133281230926514,7.8162922859191895,4.6138014793396
1711550530589269500,23.00826953125,3.7191238403320312,7.81962776184082,4.60346794128418
1711550530608228900,23.027228759765624,3.7215776443481445,7.817151069641113,4.605693340301514
1711550530627188000,23.04618798828125,3.7181684970855713,7.811122417449951,4.618654727935791
1711550530646147300,23.065147216796873,3.7170891761779785,7.806873798370361,4.6267008781433105
1711550530665106700,23.084106689453126,3.7299466133117676,7.806527137756348,4.616926193237305
1711550530684066000,23.103066162109375,3.7490131855010986,7.803765296936035,4.606142044067383
1711550530703025200,23.122025146484376,3.7703492641448975,7.7944111824035645,4.604563236236572
1711550530721984500,23.140984619140625,3.8056511878967285,7.782979488372803,4.594849109649658
1711550530740944000,23.15994384765625,3.8464529514312744,7.774042129516602,4.575963973999023
1711550530759903000,23.178903076171874,3.890232563018799,7.75895357131958,4.564550876617432
1711550530778862300,23.1978623046875,3.938239097595215,7.741518974304199,4.552972316741943
1711550530797821700,23.21682177734375,3.9802169799804688,7.722596168518066,4.548601150512695
1711550530816781000,23.235781005859376,4.009047031402588,7.708751201629639,4.546766757965088
1711550530835740200,23.254740234375,4.017705917358398,7.700654029846191,4.552839279174805
1711550530854699500,23.273699462890626,4.0086541175842285,7.695296764373779,4.569845199584961
1711550530873659000,23.292658935546875,3.989691734313965,7.691914081573486,4.592082500457764
1711550530892618000,23.311617919921876,3.9742743968963623,7.69117546081543,4.606663703918457
1711550530911577300,23.330577392578125,3.963315725326538,7.698340892791748,4.604135513305664
1711550530930536400,23.349536376953125,3.95369815826416,7.705831527709961,4.5998711585998535
1711550530949495800,23.368495849609374,3.955129384994507,7.704587936401367,4.600724697113037
1711550530968455200,23.387455078125,3.9716782569885254,7.697859287261963,4.59773063659668
1711550530987414500,23.40641455078125,4.000457286834717,7.685910701751709,4.592765808105469
1711550531006373600,23.42537353515625,4.037515163421631,7.667065143585205,4.591838836669922
1711550531025333000,23.4443330078125,4.082245349884033,7.643856525421143,4.590982437133789
1711550531044292400,23.463292236328126,4.130704879760742,7.624358177185059,4.5800461769104
1711550531063251500,23.48225146484375,4.1800127029418945,7.612991809844971,4.554143905639648
1711550531082210800,23.5012109375,4.230644702911377,7.604014873504639,4.522276878356934
1711550531101170200,23.520170166015625,4.26309871673584,7.59387731552124,4.5088114738464355
1711550531120129500,23.539129638671874,4.273809432983398,7.578944683074951,4.523775577545166
1711550531139088600,23.558088623046874,4.280473232269287,7.564382076263428,4.541811466217041
1711550531158048000,23.577048095703127,4.296450138092041,7.556480407714844,4.53987979888916
1711550531177007400,23.59600732421875,4.310075759887695,7.557073593139648,4.525956153869629
1711550531195966700,23.614966796875,4.317785739898682,7.5574798583984375,4.51792049407959
1711550531214925800,23.63392578125,4.3305439949035645,7.551016330718994,4.516517162322998
1711550531233885200,23.65288525390625,4.351166725158691,7.545209884643555,4.506389617919922
1711550531252844500,23.671844482421875,4.379607677459717,7.54229736328125,4.483656406402588
1711550531271803600,23.6908037109375,4.414546489715576,7.535971164703369,4.45996618270874
1711550531290763000,23.709762939453125,4.452488422393799,7.521587371826172,4.44650936126709
1711550531309722400,23.728722412109374,4.49118185043335,7.501625061035156,4.441317081451416
1711550531328681700,23.747681640625,4.526065826416016,7.485541343688965,4.433033466339111
1711550531347640800,23.766640869140623,4.547846794128418,7.47896671295166,4.421824932098389
1711550531366600200,23.78560009765625,4.572386741638184,7.466546058654785,4.417505264282227
1711550531385559600,23.8045595703125,4.588308811187744,7.450240612030029,4.428511619567871
1711550531404518700,23.8235185546875,4.586319923400879,7.439598083496094,4.448420524597168
1711550531423478000,23.84247802734375,4.577025890350342,7.435355186462402,4.4650559425354
1711550531442437400,23.861437255859375,4.569554805755615,7.428277015686035,4.484447002410889
1711550531461396700,23.880396728515624,4.572741508483887,7.4147515296936035,4.503540515899658
1711550531480355800,23.89935595703125,4.572856426239014,7.408803462982178,4.5132036209106445
1711550531499315200,23.918315185546874,4.570103645324707,7.409660339355469,4.514583587646484
1711550531518274600,23.937274658203126,4.56541109085083,7.4156999588012695,4.509411811828613
1711550531537233700,23.956233642578123,4.565120220184326,7.415596961975098,4.509876728057861
1711550531556193000,23.975193115234376,4.568234920501709,7.411352157592773,4.513698101043701
1711550531575152400,23.99415234375,4.582046985626221,7.402294158935547,4.514562606811523
1711550531594111500,24.013111572265625,4.6071367263793945,7.385383605957031,4.5167236328125
1711550531613070800,24.03207080078125,4.644694805145264,7.3664774894714355,4.509124279022217
1711550531632030200,24.0510302734375,4.696990013122559,7.351022720336914,4.480083465576172
1711550531650989600,24.069989501953124,4.759869575500488,7.331920623779297,4.444880962371826
1711550531669948700,24.08894873046875,4.822436332702637,7.303179740905762,4.424709796905518
1711550531688908000,24.107907958984374,4.871938228607178,7.276890754699707,4.413780212402344
1711550531707867400,24.126867431640626,4.916594982147217,7.254265308380127,4.401490211486816
1711550531726826500,24.145826416015623,4.949255466461182,7.241882801055908,4.385247230529785
1711550531745785900,24.164785888671876,4.961358547210693,7.241889476776123,4.371537685394287
1711550531764745200,24.1837451171875,4.957713603973389,7.246290683746338,4.368380069732666
1711550531783704300,24.202704345703125,4.945160388946533,7.25068473815918,4.375310897827148
1711550531802663700,24.22166357421875,4.922473430633545,7.265922546386719,4.375616550445557
1711550531821623000,24.240623046875,4.888288974761963,7.294417858123779,4.366519451141357
1711550531840582100,24.25958203125,4.849696159362793,7.323056697845459,4.361614227294922
1711550531859541500,24.27854150390625,4.815189361572266,7.342050075531006,4.367909908294678
1711550531878500900,24.2975009765625,4.793867111206055,7.3542680740356445,4.3708086013793945
1711550531897460200,24.316460205078126,4.788393020629883,7.366168975830078,4.356745719909668
1711550531916419300,24.33541943359375,4.789305686950684,7.380611419677734,4.33122444152832
1711550531935378700,24.354378662109376,4.796051502227783,7.389591693878174,4.308389186859131
1711550531954338000,24.373338134765625,4.802196979522705,7.390849590301514,4.299376010894775
1711550531973297200,24.392297119140625,4.8084492683410645,7.388426780700684,4.2965521812438965
1711550531992256500,24.411256591796874,4.821018695831299,7.385343551635742,4.287755966186523
1711550532011215600,24.430215576171875,4.836268424987793,7.383321762084961,4.274043560028076
1711550532030175000,24.449175048828124,4.8389692306518555,7.387118816375732,4.264415740966797
1711550532049134300,24.46813427734375,4.827263832092285,7.393303871154785,4.26696252822876
1711550532068093400,24.487093505859374,4.803211688995361,7.403322219848633,4.276724815368652
1711550532087052800,24.506052734375,4.768217086791992,7.423232078552246,4.281370162963867
1711550532106012200,24.52501220703125,4.72313117980957,7.453524589538574,4.278712272644043
1711550532124971300,24.54397119140625,4.6742706298828125,7.485110282897949,4.277230739593506
1711550532143930600,24.5629306640625,4.6316962242126465,7.505575180053711,4.287670612335205
1711550532162890000,24.581889892578126,4.601041793823242,7.512469291687012,4.308549880981445
1711550532181849000,24.60084912109375,4.592604160308838,7.5127105712890625,4.317122936248779
1711550532200808400,24.619808349609375,4.604080677032471,7.513401031494141,4.303676605224609
1711550532219767800,24.638767822265624,4.629028797149658,7.510273456573486,4.282320976257324
1711550532238727000,24.657726806640625,4.665838241577148,7.500718593597412,4.2590556144714355
1711550532257686300,24.676686279296874,4.700823783874512,7.491372108459473,4.2369794845581055
1711550532276645400,24.695645263671874,4.729431629180908,7.484923362731934,4.216489791870117
1711550532295604700,24.714604736328123,4.7601237297058105,7.47212028503418,4.2046427726745605
1711550532314563800,24.733563720703124,4.775935649871826,7.4679036140441895,4.194190502166748
1711550532333523200,24.752523193359377,4.789047718048096,7.467026233673096,4.180782318115234
