time,seconds_elapsed,z,y,x
1711550507648831200,0.067831298828125,-0.04344775900244713,-0.5807033181190491,-0.019471315667033195
1711550507667789600,0.08678955078125,-0.03733910992741585,-0.3384954333305359,-0.001450803829357028
1711550507686748200,0.105748046875,-0.026648975908756256,-0.03428478538990021,0.03306305781006813
1711550507705706500,0.12470654296875,-0.03550651669502258,0.19265148043632507,0.04741837829351425
1711550507724665000,0.1436650390625,-0.04436405375599861,0.23480114340782166,0.033979352563619614
1711550507743623400,0.16262353515625,-0.04405862092971802,0.11659881472587585,0.0034361144062131643
1711550507762581800,0.181581787109375,-0.03581194952130318,-0.053832460194826126,-0.019471315667033195
1711550507781540400,0.200540283203125,-0.021151192486286163,-0.1427132785320282,-0.036880962550640106
1711550507800498700,0.219498779296875,-0.012904518283903599,-0.12011128664016724,-0.04848739132285118
1711550507819457000,0.23845703125,-0.019929463043808937,-0.028787001967430115,-0.03565923124551773
1711550507838415600,0.25741552734375,-0.025732679292559624,0.053374309092760086,-0.009697478264570236
1711550507857374000,0.2763740234375,-0.020540328696370125,0.08300124853849411,0.012904518283903599
1711550507876332300,0.295332275390625,-0.02084576152265072,0.053374309092760086,0.019013166427612305
1711550507895291000,0.314290771484375,-0.018402300775051117,-0.01107192412018776,0.01565340906381607
1711550507914249200,0.333249267578125,-0.005268708802759647,-0.04558578506112099,0.02542724646627903
1711550507933207800,0.352207763671875,-0.012293653562664986,-0.0755181610584259,0.03611737862229347
1711550507952166100,0.371166259765625,-0.013515383005142212,-0.04436405375599861,0.05047270283102989
1711550507971124700,0.390124755859375,0.030161447823047638,0.01030834298580885,0.04894553869962692
1711550507990083000,0.4090830078125,0.011530072428286076,-0.0012980876490473747,0.059635672718286514
1711550508009041700,0.428041748046875,-0.028787001967430115,-0.012293653562664986,0.05199986323714256
1711550508028000000,0.447,-0.019013166427612305,-0.04253146052360535,0.053832460194826126
1711550508046958300,0.465958251953125,0.00511599238961935,-0.06818778067827225,0.03550651669502258
1711550508065917000,0.4849169921875,0.015500693581998348,-0.0907897800207138,0.0031306820455938578
1711550508084875500,0.50387548828125,0.014584396965801716,-0.09567669779062271,-0.02893971838057041
1711550508103833900,0.522833740234375,0.01183550525456667,-0.08040507882833481,-0.09185878932476044
1711550508122792200,0.541792236328125,0.028328854590654373,-0.091400645673275,-0.12362375855445862
1711550508141750800,0.560750732421875,0.04543306678533554,-0.12866339087486267,-0.13339759409427643
1711550508160709400,0.57970947265625,0.03779725730419159,-0.09445496648550034,-0.14164426922798157
1711550508179667700,0.598667724609375,0.019471315667033195,-0.003741546766832471,-0.12118030339479446
1711550508198626000,0.6176259765625,0.0066431546583771706,0.09216422587633133,-0.09705114364624023
1711550508217584600,0.636584716796875,0.002672533504664898,0.13217586278915405,-0.0628427118062973
1711550508236543200,0.655543212890625,0.024052800610661507,0.13248129189014435,-0.02588539570569992
1711550508255501600,0.67450146484375,0.040546149015426636,0.08697187155485153,0.030925029888749123
1711550508274460200,0.693460205078125,0.0683404952287674,0.025274530053138733,0.09292780607938766
1711550508293418500,0.71241845703125,0.07567087560892105,-0.028787001967430115,0.14393500983715057
1711550508312377000,0.731377197265625,0.03107774630188942,-0.05261072888970375,0.17936517298221588
1711550508331335400,0.75033544921875,0.008170315995812416,-0.06727148592472076,0.21662792563438416
1711550508350294000,0.7692939453125,0.019471315667033195,-0.08559742569923401,0.23800818622112274
1711550508369252600,0.788252685546875,0.04176788032054901,-0.10056361556053162,0.22701261937618256
1711550508388211000,0.8072109375,0.03138317912817001,-0.15004366636276245,0.17569997906684875
1711550508407169500,0.82616943359375,0.01824958436191082,-0.18180863559246063,0.11033745110034943
1711550508426128100,0.845128173828125,0.029245151206851006,-0.15401428937911987,0.03733910992741585
1711550508445086500,0.86408642578125,0.013362666592001915,-0.10086904466152191,-0.018555017188191414
1711550508464045000,0.883045166015625,-0.006490438245236874,-0.039477135986089706,-0.04909825697541237
1711550508483003600,0.902003662109375,0.04024071618914604,0.05123628303408623,-0.09338594973087311
1711550508501962000,0.9209619140625,0.058566659688949585,0.09582941234111786,-0.09735657274723053
1711550508520920600,0.939920654296875,0.005421424750238657,0.09246965497732162,-0.07780890166759491
1711550508539879200,0.958879150390625,-0.008933897130191326,0.04512763395905495,-0.053985174745321274
1711550508558837500,0.97783740234375,0.027107125148177147,0.045738499611616135,-0.02893971838057041
1711550508577796000,0.996796142578125,0.03321577236056328,0.04512763395905495,0.011377356946468353
1711550508596754700,1.015754638671875,0.027717988938093185,0.040546149015426636,0.05871937796473503
1711550508615713000,1.034713134765625,0.034437503665685654,0.04787652567028999,0.08284853398799896
1711550508634671600,1.053671630859375,0.0319940410554409,0.0322994738817215,0.08376483619213104
1711550508653630200,1.072630126953125,0.018860450014472008,-0.0025198173243552446,0.08681915700435638
1711550508672588800,1.0915888671875,0.030772313475608826,-0.03275762498378754,0.08040507882833481
1711550508691547400,1.11054736328125,0.034437503665685654,-0.041004300117492676,0.07796161621809006
1711550508710505700,1.129505615234375,0.02283107116818428,-0.009850194677710533,0.07368556410074234
1711550508729464300,1.14846435546875,0.02283107116818428,0.02741255611181259,0.08193223923444748
1711550508748423000,1.1674228515625,0.021609341725707054,0.04085158184170723,0.10056361556053162
1711550508767381500,1.186381591796875,0.023136503994464874,0.0319940410554409,0.12255474925041199
1711550508786340000,1.205340087890625,0.025579962879419327,-0.012904518283903599,0.13446660339832306
1711550508805298400,1.22429833984375,0.017333287745714188,-0.05047270283102989,0.13599377870559692
1711550508824257000,1.243257080078125,0.01183550525456667,-0.04711294546723366,0.1320231556892395
1711550508843215600,1.262215576171875,0.018555017188191414,-0.0006872228696011007,0.13477204740047455
1711550508862174200,1.28117431640625,0.008781181648373604,0.03321577236056328,0.13385574519634247
1711550508881132800,1.3001328125,0.01030834298580885,0.05826122686266899,0.09689842909574509
1711550508900091400,1.31909130859375,0.030161447823047638,0.04848739132285118,0.037033677101135254
1711550508919050000,1.338050048828125,0.03840812295675278,0.04848739132285118,-0.0057268571108579636
1711550508938008600,1.357008544921875,0.028328854590654373,0.0524580143392086,-0.024052800610661507
1711550508956967200,1.37596728515625,0.024663666263222694,0.0680350661277771,-0.03627009689807892
1711550508975925500,1.394925537109375,-0.005574141163378954,0.0423787422478199,-0.032910339534282684
1711550508994884400,1.41388427734375,0.016416991129517555,0.03993528336286545,-0.016416991129517555
1711550509013843000,1.432843017578125,0.05123628303408623,0.053985174745321274,0.013515383005142212
1711550509032801300,1.45180126953125,0.025274530053138733,0.03657552972435951,0.05810851231217384
1711550509051760000,1.470760009765625,-0.008017600513994694,-0.0031306820455938578,0.10911571979522705
1711550509070718500,1.489718505859375,-0.002825249684974551,-0.014126247726380825,0.13965895771980286
1711550509089677300,1.50867724609375,0.021914774551987648,-0.00679587060585618,0.14668390154838562
1711550509108635600,1.5276357421875,0.03107774630188942,0.001450803829357028,0.14882193505764008
1711550509127594500,1.546594482421875,0.02741255611181259,-0.0019089524867013097,0.13965895771980286
1711550509146553000,1.565552978515625,0.018555017188191414,-0.013209951110184193,0.1219438835978508
1711550509165511700,1.58451171875,0.020387612283229828,0.01611155830323696,0.0859028622508049
1711550509184470300,1.60347021484375,0.013973532244563103,0.06864593178033829,0.03764454275369644
1711550509203428900,1.622428955078125,0.004199695307761431,0.0988837331533432,0.00679587060585618
1711550509222387500,1.641387451171875,-0.005574141163378954,0.10224349051713943,-0.011224640533328056
1711550509241346000,1.660345947265625,-0.002825249684974551,0.11232276260852814,-0.018860450014472008
1711550509260304600,1.6793046875,0.013057234697043896,0.10132719576358795,-0.014278964139521122
1711550509279263200,1.69826318359375,0.044211339205503464,0.09491311758756638,0.011682788841426373
1711550509298221800,1.717221923828125,0.05734493210911751,0.12148573249578476,0.008933897130191326
1711550509317180400,1.736180419921875,0.02802342176437378,0.12362375855445862,-0.00022907429956831038
1711550509336139300,1.75513916015625,0.004199695307761431,0.0988837331533432,-0.003894262947142124
1711550509355097900,1.774097900390625,0.024052800610661507,0.0683404952287674,-0.00847574882209301
1711550509374056400,1.793056396484375,0.045738499611616135,0.04543306678533554,-0.011530072428286076
1711550509393015000,1.81201513671875,0.04451677203178406,0.0295505840331316,-0.020387612283229828
1711550509411973600,1.8309736328125,0.04085158184170723,0.03932442143559456,-0.01977674663066864
1711550509430932500,1.849932373046875,0.03413207083940506,0.07139482349157333,-0.004505127668380737
1711550509449891000,1.86889111328125,0.024052800610661507,0.09216422587633133,0.016875140368938446
1711550509468849700,1.887849609375,0.04085158184170723,0.08788817375898361,0.029397867619991302
1711550509487808300,1.906808349609375,0.048792824149131775,0.04543306678533554,0.039477135986089706
1711550509506767000,1.92576708984375,0.018860450014472008,0.0029779658652842045,0.06666062027215958
1711550509525725700,1.9447255859375,0.04482220485806465,0.043600473552942276,0.07796161621809006
1711550509544684300,1.963684326171875,0.07536543905735016,0.08758273720741272,0.09750928729772568
1711550509563643000,1.982642822265625,0.02283107116818428,0.06986765563488007,0.09384410083293915
1711550509582601500,2.0016015625,0.0023671009112149477,0.04146244749426842,0.08407026529312134
1711550509601560300,2.020560302734375,0.04298960790038109,0.042073313146829605,0.06849320977926254
1711550509620519000,2.039518798828125,0.036880962550640106,0.07139482349157333,0.052916161715984344
1711550509639477500,2.0584775390625,0.007864884100854397,0.08697187155485153,0.04283689334988594
1711550509658436400,2.077436279296875,0.019471315667033195,0.08605557680130005,0.033979352563619614
1711550509677395000,2.09639501953125,0.024663666263222694,0.08910989761352539,0.038560837507247925
1711550509696353500,2.115353515625,0.02588539570569992,0.07597630470991135,0.04711294546723366
1711550509715312400,2.1343125,0.0423787422478199,0.04787652567028999,0.0550541877746582
1711550509734271000,2.15327099609375,0.0423787422478199,0.024052800610661507,0.06360629200935364
1711550509753229600,2.1722294921875,0.0295505840331316,0.023136503994464874,0.06452259421348572
1711550509772188400,2.1911884765625,0.02283107116818428,0.034437503665685654,0.07185296714305878
1711550509791147000,2.21014697265625,0.020387612283229828,0.04604393243789673,0.07002037763595581
1711550509810105900,2.22910595703125,0.017944153398275375,0.05367974191904068,0.0550541877746582
1711550509829064400,2.248064453125,0.018860450014472008,0.03993528336286545,0.046196650713682175
1711550509848023000,2.26702294921875,0.020693045109510422,0.025274530053138733,0.04253146052360535
1711550509866982000,2.28598193359375,0.026801692321896553,0.03138317912817001,0.05169443041086197
1711550509885940500,2.3049404296875,0.029856016859412193,0.04146244749426842,0.07185296714305878
1711550509904899000,2.323899169921875,0.027717988938093185,0.04909825697541237,0.09812015295028687
1711550509923858000,2.34285791015625,0.021609341725707054,0.03627009689807892,0.11125374585390091
1711550509942816500,2.36181640625,0.024663666263222694,0.03413207083940506,0.10392337292432785
1711550509961775400,2.380775390625,0.018860450014472008,0.03352120518684387,0.08193223923444748
1711550509980734000,2.39973388671875,0.0011453714687377214,0.05001455545425415,0.05474875494837761
1711550509999692800,2.41869287109375,-0.00679587060585618,0.07536543905735016,0.026343543082475662
1711550510018651400,2.4376513671875,-0.008323032408952713,0.08666644245386124,-0.005421424750238657
1711550510037610000,2.45660986328125,0.007254019379615784,0.12667807936668396,-0.049709122627973557
1711550510056568800,2.47556884765625,0.030772313475608826,0.13736821711063385,-0.08116865903139114
1711550510075527400,2.49452734375,0.016416991129517555,0.09949459880590439,-0.08544471114873886
1711550510094486300,2.513486328125,-0.004046979360282421,0.0576503649353981,-0.08116865903139114
1711550510113445000,2.532445068359375,0.006948587018996477,0.048792824149131775,-0.06559160351753235
1711550510132403700,2.55140380859375,0.023441936820745468,0.0781143307685852,-0.03535379841923714
1711550510151362300,2.5703623046875,0.0057268571108579636,0.12179116904735565,0.010766491293907166
1711550510170321200,2.589321044921875,-0.015042545273900032,0.12606722116470337,0.051389001309871674
1711550510189280000,2.608280029296875,-0.013820815831422806,0.09766200929880142,0.07185296714305878
1711550510208238600,2.627238525390625,0.0005345066892914474,0.02802342176437378,0.08559742569923401
1711550510227197200,2.646197265625,0.009392046369612217,0.0011453714687377214,0.10392337292432785
1711550510246156000,2.665156005859375,-0.0019089524867013097,0.002061668550595641,0.1219438835978508
1711550510265115000,2.684114990234375,0.0011453714687377214,0.018860450014472008,0.1326340138912201
1711550510284073500,2.703073486328125,-0.004352411720901728,0.036880962550640106,0.131717711687088
1711550510303032300,2.7220322265625,-0.008017600513994694,0.041157014667987823,0.11461350321769714
1711550510321991000,2.740990966796875,-0.0025198173243552446,0.05520690605044365,0.07368556410074234
1711550510340949800,2.75994970703125,-0.024205517023801804,0.051847148686647415,0.031230462715029716
1711550510359908400,2.778908447265625,-0.026648975908756256,0.03932442143559456,-0.0029779658652842045
1711550510378867200,2.7978671875,-0.008323032408952713,0.042073313146829605,-0.022525638341903687
1711550510397826000,2.816825927734375,-0.014431680552661419,0.056428633630275726,-0.032910339534282684
1711550510416784600,2.83578466796875,-0.01626427471637726,0.07964149862527847,-0.027107125148177147
1711550510435743500,2.854743408203125,-0.008017600513994694,0.093691386282444,-0.01611155830323696
1711550510454702000,2.8737021484375,-0.02176205813884735,0.08147408813238144,-0.011530072428286076
1711550510473661000,2.892660888671875,-0.027259841561317444,0.04604393243789673,0.008323032408952713
1711550510492619800,2.911619873046875,0.004505127668380737,0.030161447823047638,0.02390008419752121
1711550510511578400,2.930578369140625,0.011530072428286076,0.05306887626647949,0.02176205813884735
1711550510530537200,2.949537109375,-0.040088001638650894,0.03962985426187515,0.026648975908756256
1711550510549496000,2.96849609375,-0.041004300117492676,0.06467530876398087,0.031230462715029716
1711550510568454700,2.98745458984375,-0.0012980876490473747,0.055512335151433945,0.029397867619991302
1711550510587413500,3.00641357421875,-0.007101302966475487,0.023136503994464874,0.02390008419752121
1711550510606372000,3.0253720703125,-0.02237292192876339,0.006337722297757864,0.01259908638894558
1711550510625331000,3.0443310546875,-0.004352411720901728,0.011224640533328056,0.0019089524867013097
1711550510644289800,3.063289794921875,0.01183550525456667,0.024052800610661507,0.002825249684974551
1711550510663248600,3.08224853515625,-0.003741546766832471,0.053985174745321274,0.005268708802759647
1711550510682207200,3.101207275390625,-0.025732679292559624,0.07170025259256363,-0.020693045109510422
1711550510701166000,3.120166015625,-0.03428478538990021,0.05306887626647949,-0.0371863916516304
1711550510720124700,3.139124755859375,-0.010155626572668552,0.027107125148177147,-0.029856016859412193
1711550510739083800,3.158083740234375,0.008781181648373604,0.0295505840331316,-0.02588539570569992
1711550510758042400,3.17704248046875,-0.007406735327094793,0.029245151206851006,-0.0295505840331316
1711550510777001200,3.196001220703125,-0.02084576152265072,0.017027854919433594,-0.033826638013124466
1711550510795959800,3.214959716796875,-0.017486004158854485,0.025579962879419327,-0.03871355578303337
1711550510814918700,3.233918701171875,-0.008933897130191326,0.04146244749426842,-0.04482220485806465
1711550510833877500,3.25287744140625,-0.0006872228696011007,0.04543306678533554,-0.03260490670800209
1711550510852836400,3.27183642578125,0.013057234697043896,0.023441936820745468,-0.005421424750238657
1711550510871795000,3.290794921875,0.012446369975805283,0.006337722297757864,-0.005421424750238657
1711550510890753800,3.30975390625,0.007254019379615784,-0.008323032408952713,-0.018860450014472008
1711550510909712600,3.328712646484375,0.00755945174023509,-0.022067490965127945,-0.027107125148177147
1711550510928671500,3.34767138671875,-0.0009926552884280682,-0.027259841561317444,-0.023747367784380913
1711550510947630000,3.366630126953125,0.0005345066892914474,-0.026343543082475662,-0.02802342176437378
1711550510966589000,3.3855888671875,0.00511599238961935,-0.022983787581324577,-0.024663666263222694
1711550510985547800,3.4045478515625,-0.004352411720901728,-0.016569707542657852,-0.0191658828407526
1711550511004506600,3.423506591796875,-0.0009926552884280682,-0.007101302966475487,-0.01183550525456667
1711550511023465200,3.44246533203125,0.005421424750238657,0.003894262947142124,-0.012140937149524689
1711550511042424000,3.461424072265625,-0.010461059398949146,-0.02237292192876339,-0.012446369975805283
1711550511061383000,3.4803828125,0.0066431546583771706,-0.033368486911058426,-0.02130390889942646
1711550511080341800,3.499341796875,0.03321577236056328,-0.04283689334988594,-0.03810269013047218
1711550511099300400,3.51830029296875,0.017333287745714188,0.003894262947142124,-0.049709122627973557
1711550511118259200,3.53725927734375,-0.004352411720901728,0.04451677203178406,-0.07078395783901215
1711550511137218000,3.556218017578125,-0.006490438245236874,0.054901473224163055,-0.09002619981765747
1711550511156177000,3.575177001953125,-0.0019089524867013097,0.06742420047521591,-0.10651954263448715
1711550511175135700,3.5941357421875,-0.004046979360282421,0.060093823820352554,-0.10560324788093567
1711550511194094600,3.613094482421875,-0.010766491293907166,0.023441936820745468,-0.09185878932476044
1711550511213053200,3.63205322265625,-0.011988221667706966,-0.006490438245236874,-0.0628427118062973
1711550511232012000,3.651011962890625,-0.01718057133257389,-0.016569707542657852,-0.025274530053138733
1711550511250971000,3.669970947265625,-0.0022143847309052944,-0.025121813639998436,0.0019089524867013097
1711550511269929700,3.6889296875,0.017944153398275375,-0.03153589367866516,0.017486004158854485
1711550511288888300,3.707888427734375,-0.0025198173243552446,-0.05199986323714256,0.024510949850082397
1711550511307847400,3.726847412109375,-0.033368486911058426,-0.08193223923444748,0.040088001638650894
1711550511326806000,3.745805908203125,-0.02237292192876339,-0.08681915700435638,0.03611737862229347
1711550511345764900,3.764764892578125,0.00022907429956831038,-0.05658135190606117,0.002825249684974551
1711550511364723700,3.7837236328125,-0.015042545273900032,-0.011682788841426373,-0.02496909722685814
1711550511383682600,3.8026826171875,-0.033979352563619614,0.003894262947142124,-0.04543306678533554
1711550511402641200,3.82164111328125,-0.033368486911058426,0.0011453714687377214,-0.053374309092760086
1711550511421600000,3.84060009765625,-0.028787001967430115,-0.013209951110184193,-0.06681333482265472
1711550511440558800,3.859558837890625,-0.02695440873503685,-0.008628465235233307,-0.06864593178033829
1711550511459517700,3.878517578125,-0.024816380813717842,0.00511599238961935,-0.05948295816779137
1711550511478476500,3.8974765625,-0.02695440873503685,0.010613775812089443,-0.03504836559295654
1711550511497435400,3.916435302734375,-0.025121813639998436,0.013668099418282509,-0.01000291109085083
1711550511516394200,3.935394287109375,-0.019013166427612305,0.005421424750238657,0.00954476185142994
1711550511535353000,3.95435302734375,-0.01259908638894558,0.004199695307761431,0.013515383005142212
1711550511554311700,3.973311767578125,-0.034895651042461395,-0.04222602769732475,0.02542724646627903
1711550511573270500,3.9922705078125,-0.03550651669502258,-0.06910407543182373,0.026343543082475662
1711550511592229400,4.0112294921875,0.0066431546583771706,-0.05810851231217384,0.02023489587008953
1711550511611188200,4.030188232421875,-0.0077121676877141,-0.03153589367866516,0.007406735327094793
1711550511630147000,4.04914697265625,-0.046196650713682175,-0.024510949850082397,-0.009086613543331623
1711550511649106000,4.06810595703125,-0.0345902182161808,-0.027870705351233482,-0.014278964139521122
1711550511668064800,4.087064697265625,-0.014431680552661419,-0.026648975908756256,-0.011530072428286076
1711550511687023600,4.106023681640625,-0.021151192486286163,-0.018096869811415672,-0.01000291109085083
1711550511705982500,4.124982421875,-0.03061959706246853,-0.017486004158854485,-0.011224640533328056
1711550511724941300,4.14394140625,-0.03886627033352852,-0.007101302966475487,-0.020082179456949234
1711550511743900000,4.16289990234375,-0.04283689334988594,-0.018402300775051117,-0.019471315667033195
1711550511762858800,4.181858642578125,-0.028787001967430115,-0.02756527252495289,-0.011224640533328056
1711550511781817600,4.200817626953125,-0.02237292192876339,-0.04833467677235603,0.0025198173243552446
1711550511800776400,4.2197763671875,-0.028176138177514076,-0.05719221383333206,0.008628465235233307
1711550511819735300,4.2387353515625,-0.0345902182161808,-0.036422811448574066,0.007406735327094793
1711550511838694100,4.257694091796875,-0.027870705351233482,-0.01259908638894558,0.004963276442140341
1711550511857653000,4.276653076171875,-0.015958841890096664,0.006948587018996477,-0.0005345066892914474
1711550511876611800,4.29561181640625,-0.02237292192876339,-0.022983787581324577,-0.006337722297757864
1711550511895570700,4.31457080078125,-0.03672824427485466,-0.044669486582279205,-0.002672533504664898
1711550511914529500,4.333529541015625,-0.03917170315980911,-0.05352702736854553,-0.002672533504664898
1711550511933488400,4.35248828125,-0.03672824427485466,-0.04741837829351425,0.006490438245236874
1711550511952447200,4.371447265625,-0.027259841561317444,-0.03520108386874199,0.014737112447619438
1711550511971406000,4.390406005859375,-0.019929463043808937,-0.0006872228696011007,0.019624030217528343
1711550511990365000,4.409364990234375,-0.021151192486286163,0.004199695307761431,0.010155626572668552
1711550512009323800,4.42832373046875,-0.02237292192876339,-0.018402300775051117,-0.0011453714687377214
1711550512028282600,4.44728271484375,-0.010766491293907166,-0.028176138177514076,-0.020082179456949234
1711550512047241500,4.466241455078125,-0.0058795735239982605,-0.04039343446493149,-0.030161447823047638
1711550512066200300,4.485200439453125,-0.0009926552884280682,-0.0602465383708477,-0.03352120518684387
1711550512085159200,4.5041591796875,0.0527634471654892,-0.06085740402340889,-0.04818195849657059
1711550512104118000,4.523117919921875,0.08147408813238144,-0.052916161715984344,-0.029856016859412193
1711550512123076900,4.542076904296875,-0.0058795735239982605,-0.07002037763595581,-0.008781181648373604
1711550512142035500,4.561035400390625,-0.05688678100705147,-0.091400645673275,-0.00603228947147727
1711550512160994300,4.579994384765625,-0.022983787581324577,-0.09781472384929657,-0.00022907429956831038
1711550512179953200,4.598953125,0.0017562361899763346,-0.033368486911058426,-0.008170315995812416
1711550512198912000,4.617912109375,-0.009850194677710533,0.030466880649328232,-0.022525638341903687
1711550512217870800,4.636870849609375,-0.024816380813717842,0.050319984555244446,-0.04024071618914604
1711550512236829700,4.65582958984375,-0.019624030217528343,0.03627009689807892,-0.0527634471654892
1711550512255788500,4.67478857421875,-0.007406735327094793,0.010919207707047462,-0.05734493210911751
1711550512274747400,4.693747314453125,-0.01107192412018776,-0.0016035200096666813,-0.0527634471654892
1711550512293706200,4.712706298828125,-0.014126247726380825,-0.00679587060585618,-0.022220205515623093
1711550512312665000,4.7316650390625,-0.005574141163378954,0.018860450014472008,0.01870773360133171
1711550512331624200,4.750624267578125,-0.0034361144062131643,0.03535379841923714,0.06818778067827225
1711550512350583000,4.7695830078125,0.0066431546583771706,0.024663666263222694,0.10361793637275696
1711550512369542000,4.7885419921875,0.02130390889942646,0.005421424750238657,0.095982126891613
1711550512388500700,4.807500732421875,0.018555017188191414,-0.0345902182161808,0.07002037763595581
1711550512407459600,4.82645947265625,0.0011453714687377214,-0.06696604937314987,0.050778135657310486
1711550512426418400,4.84541845703125,-0.00038179047987796366,-0.06696604937314987,0.024205517023801804
1711550512445377300,4.864377197265625,0.00022907429956831038,-0.04192059487104416,-0.005421424750238657
1711550512464336100,4.883336181640625,0.0017562361899763346,-0.011682788841426373,-0.029245151206851006
1711550512483295000,4.902294921875,0.00022907429956831038,0.012140937149524689,-0.040546149015426636
1711550512502253800,4.92125390625,0.011530072428286076,0.010613775812089443,-0.0371863916516304
1711550512521212700,4.940212646484375,0.020998476073145866,-0.003741546766832471,-0.037491824477910995
1711550512540171500,4.959171630859375,0.01763872057199478,-0.023594651371240616,-0.029856016859412193
1711550512559130400,4.97813037109375,0.003283398225903511,-0.0602465383708477,-0.020082179456949234
1711550512578089200,4.997089111328125,-0.0058795735239982605,-0.049861837178468704,-0.01000291109085083
1711550512597048000,5.016048095703125,0.03138317912817001,-0.017486004158854485,-0.01611155830323696
1711550512616007000,5.0350068359375,0.027717988938093185,-0.004963276442140341,-0.0191658828407526
1711550512634965800,5.0539658203125,-0.006490438245236874,-0.011988221667706966,-0.03565923124551773
1711550512653924600,5.072924560546875,-0.00038179047987796366,-0.01718057133257389,-0.04176788032054901
1711550512672883500,5.091883544921875,0.01824958436191082,0.010919207707047462,-0.04512763395905495
1711550512691842300,5.11084228515625,0.009697478264570236,0.04512763395905495,-0.03779725730419159
1711550512710801200,5.12980126953125,0.0005345066892914474,0.06406444311141968,-0.013668099418282509
1711550512729760000,5.148760009765625,0.009086613543331623,0.07506000995635986,0.02695440873503685
1711550512748718800,5.16771875,0.013362666592001915,0.07139482349157333,0.06360629200935364
1711550512767677700,5.186677734375,0.008781181648373604,0.008170315995812416,0.07521272450685501
1711550512786636800,5.20563671875,0.039018988609313965,-0.02084576152265072,0.06604975461959839
1711550512805595600,5.224595703125,0.04940368980169296,-0.004963276442140341,0.021456625312566757
1711550512824554500,5.243554443359375,0.013057234697043896,0.01672242395579815,-0.03413207083940506
1711550512843513300,5.262513427734375,-0.010461059398949146,0.04848739132285118,-0.083306685090065
1711550512862472200,5.28147216796875,-0.01259908638894558,0.08208495378494263,-0.12576179206371307
1711550512881431000,5.30043115234375,-0.01259908638894558,0.08910989761352539,-0.15202897787094116
1711550512900390000,5.319389892578125,-0.01718057133257389,0.09949459880590439,-0.1446985900402069
1711550512919348700,5.3383486328125,-0.03306305781006813,0.10743584483861923,-0.09796743839979172
1711550512938307600,5.3573076171875,-0.04253146052360535,0.1196531355381012,-0.00511599238961935
1711550512957266400,5.376266357421875,-0.03306305781006813,0.17340923845767975,0.08132137358188629
1711550512976225300,5.395225341796875,-0.040088001638650894,0.20609050989151,0.1274416595697403
1711550512995184000,5.41418408203125,-0.061162836849689484,0.12576179206371307,0.22212570905685425
1711550513014143000,5.43314306640625,-0.03764454275369644,0.054901473224163055,0.30856308341026306
1711550513033101800,5.452101806640625,-0.01107192412018776,0.013057234697043896,0.32475098967552185
1711550513052060700,5.471060791015625,-0.0031306820455938578,0.019471315667033195,0.2819904685020447
1711550513071019800,5.490019775390625,-0.030314164236187935,0.017333287745714188,0.2242637276649475
1711550513089978600,5.508978515625,-0.046807512640953064,0.0631481483578682,0.14912736415863037
1711550513108937500,5.5279375,0.008781181648373604,0.12820523977279663,0.02237292192876339
1711550513127896300,5.546896240234375,0.0005345066892914474,0.16668972373008728,-0.09277509152889252
1711550513146855200,5.565855224609375,-0.07429642975330353,0.19998185336589813,-0.19998185336589813
1711550513165814000,5.58481396484375,-0.08773545175790787,0.24426954984664917,-0.29161158204078674
1711550513184772900,5.60377294921875,-0.06299543380737305,0.29069527983665466,-0.32734715938568115
1711550513203731700,5.622731689453125,-0.023594651371240616,0.3349829614162445,-0.2928332984447479
1711550513222690600,5.641690673828125,0.04482220485806465,0.3774380683898926,-0.23144139349460602
1711550513241649400,5.6606494140625,0.015195261687040329,0.3453676700592041,-0.14225514233112335
1711550513260608500,5.6796083984375,-0.05352702736854553,0.21433718502521515,-0.029245151206851006
1711550513279567400,5.6985673828125,-0.033368486911058426,0.09491311758756638,0.08162680268287659
1711550513298526200,5.717526123046875,0.053374309092760086,0.03810269013047218,0.13874267041683197
1711550513317485000,5.736485107421875,0.06986765563488007,0.04298960790038109,0.15951207280158997
1711550513336444000,5.75544384765625,-0.02023489587008953,0.08636100590229034,0.15554144978523254
1711550513355402800,5.77440283203125,-0.07215840369462967,0.10987929999828339,0.15981750190258026
1711550513374361600,5.793361572265625,0.012751801870763302,0.1303432732820511,0.09964732080698013
1711550513393320400,5.812320556640625,0.09124792367219925,0.14805835485458374,0.0016035200096666813
1711550513412279300,5.831279296875,0.017944153398275375,0.170965775847435,-0.09980003535747528
1711550513431238400,5.85023828125,-0.08376483619213104,0.16363540291786194,-0.19540037214756012
1711550513450197200,5.869197265625,-0.07704532146453857,0.16485713422298431,-0.27511823177337646
1711550513469156000,5.888156005859375,0.005421424750238657,0.18501566350460052,-0.298331081867218
1711550513488115000,5.907114990234375,0.05215258151292801,0.23907721042633057,-0.27145302295684814
1711550513507073800,5.92607373046875,-0.0016035200096666813,0.27633994817733765,-0.24488042294979095
1711550513526032600,5.94503271484375,-0.08407026529312134,0.2063959389925003,-0.18409937620162964
1711550513544991700,5.96399169921875,-0.033979352563619614,0.1346193253993988,-0.10590868443250656
1711550513563950600,5.98295068359375,0.05612320080399513,0.09002619981765747,-0.028634287416934967
1711550513582909400,6.001909423828125,0.060093823820352554,0.17676898837089539,0.06482802331447601
1711550513601868300,6.020868408203125,0.06101011857390404,0.32215481996536255,0.07796161621809006
1711550513620827100,6.0398271484375,0.009392046369612217,0.3713294267654419,0.08559742569923401
1711550513639786000,6.058785888671875,-0.09781472384929657,0.3187950551509857,0.10331250727176666
1711550513658745000,6.0777451171875,-0.08987347781658173,0.21097742021083832,0.1476002037525177
1711550513677704000,6.096703857421875,0.042073313146829605,0.12728895246982574,0.08956804871559143
1711550513696662800,6.115662841796875,0.08025235682725906,-0.00038179047987796366,-0.011224640533328056
1711550513715621600,6.13462158203125,0.003283398225903511,-0.05994110554456711,-0.05978839099407196
1711550513734580500,6.15358056640625,-0.003741546766832471,-0.021456625312566757,-0.04451677203178406
1711550513753539300,6.172539306640625,0.050319984555244446,-0.05994110554456711,-0.03535379841923714
1711550513772498400,6.19149853515625,0.09246965497732162,-0.0703258067369461,-0.0836121141910553
1711550513791457300,6.210457275390625,0.10804671049118042,-0.03520108386874199,-0.11384992301464081
1711550513810416000,6.229416015625,0.10865757614374161,0.04451677203178406,-0.10682497918605804
1711550513829375000,6.248375,0.05887209251523018,0.1245400533080101,-0.10865757614374161
1711550513848334000,6.267333984375,0.003283398225903511,0.14317142963409424,-0.13736821711063385
1711550513867293000,6.28629296875,0.039018988609313965,0.1141553521156311,-0.14378230273723602
1711550513886251800,6.305251708984375,0.07658717036247253,0.15447242558002472,-0.11690424382686615
1711550513905210600,6.324210693359375,0.060704685747623444,0.17890702188014984,-0.08666644245386124
1711550513924169500,6.34316943359375,0.06895136088132858,0.2112828493118286,-0.0423787422478199
1711550513943128300,6.36212841796875,0.12026400119066238,0.1291215419769287,-0.007864884100854397
1711550513962087400,6.38108740234375,0.16730059683322906,-0.10392337292432785,-0.001450803829357028
1711550513981046300,6.40004638671875,0.16882775723934174,-0.2807687222957611,0.04436405375599861
1711550514000005000,6.419005126953125,0.1608865112066269,-0.32963791489601135,0.12377647310495377
1711550514018964000,6.4379638671875,0.150196373462677,-0.19219332933425903,0.11064288020133972
1711550514037923000,6.456923095703125,0.06498073786497116,0.022525638341903687,0.12591449916362762
1711550514056882000,6.4758818359375,-0.01565340906381607,0.16760602593421936,0.12438733875751495
1711550514075840800,6.4948408203125,0.03504836559295654,0.2430478185415268,0.07368556410074234
1711550514094800000,6.5137998046875,0.11262819170951843,0.2479347437620163,-0.007864884100854397
1711550514113758700,6.5327587890625,0.0475710928440094,0.2176969349384308,-0.08544471114873886
1711550514132717600,6.551717529296875,-0.055970486253499985,0.17799071967601776,-0.13736821711063385
1711550514151676700,6.5706767578125,-0.07735075056552887,0.12728895246982574,-0.11598794907331467
1711550514170635500,6.589635498046875,0.03321577236056328,0.14653119444847107,-0.0784197673201561
1711550514189594400,6.608594482421875,0.1141553521156311,0.1300378441810608,-0.061620984226465225
1711550514208553200,6.62755322265625,0.0524580143392086,0.06467530876398087,-0.0295505840331316
1711550514227512300,6.64651220703125,0.05429060757160187,-0.03520108386874199,-0.009086613543331623
1711550514246471200,6.66547119140625,0.13614648580551147,-0.07643445581197739,0.03733910992741585
1711550514265430000,6.684429931640625,0.11262819170951843,-0.06360629200935364,0.07735075056552887
1711550514284389000,6.70338916015625,0.06650790572166443,-0.10697769373655319,0.04253146052360535
1711550514303348000,6.722347900390625,0.06131555140018463,-0.15951207280158997,-0.08636100590229034
1711550514322306800,6.741306884765625,0.045738499611616135,-0.05688678100705147,-0.1446985900402069
1711550514341266000,6.760265869140625,0.015500693581998348,0.05887209251523018,-0.13370302319526672
1711550514360224800,6.779224853515625,0.0057268571108579636,0.2008981555700302,-0.12851068377494812
1711550514379183900,6.798183837890625,0.017333287745714188,0.2836703360080719,-0.12851068377494812
1711550514398142700,6.817142822265625,0.010613775812089443,0.2888626754283905,-0.14836378395557404
1711550514417101600,6.8361015625,-0.03306305781006813,0.2519053518772125,-0.11568251997232437
1711550514436060400,6.855060302734375,-0.04711294546723366,0.24060437083244324,-0.06895136088132858
1711550514455019500,6.87401953125,-0.03428478538990021,0.1712712198495865,-0.04940368980169296
1711550514473978400,6.892978271484375,0.012751801870763302,0.04085158184170723,0.021151192486286163
1711550514492937500,6.9119375,0.10102175921201706,-0.13843722641468048,0.0449749194085598
1711550514511896300,6.930896240234375,0.12820523977279663,-0.3161988854408264,0.02848157100379467
1711550514530855200,6.949855224609375,0.034437503665685654,-0.2713003158569336,0.05352702736854553
1711550514549814300,6.968814208984375,-0.0012980876490473747,-0.11491893976926804,0.04253146052360535
1711550514568773000,6.987773193359375,0.035964664071798325,0.114460788667202,0.0012980876490473747
1711550514587732000,7.00673193359375,0.03810269013047218,0.2372446060180664,0.016569707542657852
1711550514606691000,7.025691162109375,0.043600473552942276,0.24488042294979095,-0.04024071618914604
1711550514625650000,7.04464990234375,0.09827287495136261,0.060093823820352554,-0.14103341102600098
1711550514644609000,7.063609130859375,0.10682497918605804,-0.19738568365573883,-0.23999349772930145
1711550514663568000,7.08256787109375,0.030772313475608826,-0.3064250349998474,-0.2690095901489258
1711550514682527000,7.10152685546875,-0.0031306820455938578,-0.26335906982421875,-0.18348850309848785
1711550514701485800,7.12048583984375,0.021609341725707054,-0.1118646115064621,-0.06711876392364502
1711550514720444700,7.139444580078125,0.07017309218645096,0.016416991129517555,0.025121813639998436
1711550514739403800,7.15840380859375,0.11537708342075348,0.032910339534282684,0.09353867173194885
1711550514758362600,7.177362548828125,0.08391755074262619,0.015806125476956367,0.11369720846414566
1711550514777321700,7.19632177734375,0.012751801870763302,-0.010155626572668552,0.1222493126988411
1711550514796280800,7.21528076171875,-0.039477135986089706,-0.03825540840625763,0.12927426397800446
1711550514815239700,7.23423974609375,-0.038560837507247925,0.014278964139521122,0.09812015295028687
1711550514834198500,7.253198486328125,-0.05169443041086197,0.030772313475608826,0.06391172856092453
1711550514853157600,7.27215771484375,-0.038560837507247925,0.050319984555244446,0.01107192412018776
1711550514872116500,7.291116455078125,-0.031841326504945755,0.11018473654985428,-0.024052800610661507
1711550514891075600,7.31007568359375,-0.06757691502571106,0.15813761949539185,-0.034437503665685654
1711550514910034400,7.329034423828125,-0.07368556410074234,0.17402009665966034,-0.020998476073145866
1711550514928993500,7.34799365234375,-0.07185296714305878,0.1401171088218689,0.014126247726380825
1711550514947952400,7.366952392578125,-0.043142326176166534,0.10774127393960953,0.03428478538990021
1711550514966911500,7.385911376953125,-0.029703300446271896,0.07903063297271729,0.037949975579977036
1711550514985870300,7.404870361328125,-0.06452259421348572,0.03871355578303337,0.027870705351233482
1711550515004829400,7.423829345703125,-0.06268999725580215,0.0423787422478199,0.01626427471637726
1711550515023788500,7.44278857421875,-0.03367391973733902,0.09002619981765747,-0.017944153398275375
1711550515042747400,7.461747314453125,0.004199695307761431,0.07964149862527847,-0.07047852128744125
1711550515061706200,7.480706298828125,0.05581776797771454,0.0005345066892914474,-0.1092684343457222
1711550515080665300,7.499665283203125,0.026801692321896553,-0.049250971525907516,-0.13828451931476593
1711550515099624400,7.51862451171875,-0.060551971197128296,-0.05566505342721939,-0.13706278800964355
1711550515118583300,7.537583251953125,-0.11247547715902328,-0.0501672700047493,-0.057955797761678696
1711550515137542400,7.55654248046875,-0.081015944480896,0.013057234697043896,0.04344775900244713
1711550515156501200,7.575501220703125,0.0057268571108579636,0.06925679743289948,0.0862082913517952
1711550515175460400,7.59446044921875,0.053985174745321274,0.042684175074100494,0.11094831675291061
1711550515194419200,7.613419189453125,0.0191658828407526,-0.051389001309871674,0.1677587330341339
1711550515213378300,7.63237841796875,-0.026343543082475662,-0.131717711687088,0.21296273171901703
1711550515232337400,7.65133740234375,-0.05474875494837761,-0.16103923320770264,0.19555309414863586
1711550515251296300,7.670296142578125,-0.07215840369462967,-0.15523600578308105,0.12927426397800446
1711550515270255400,7.68925537109375,-0.06940951198339462,-0.09750928729772568,0.03153589367866516
1711550515289214200,7.708214111328125,-0.05841394513845444,-0.03917170315980911,-0.03840812295675278
1711550515308173300,7.72717333984375,-0.03764454275369644,0.015195261687040329,-0.05001455545425415
1711550515327132400,7.74613232421875,0.004199695307761431,0.0371863916516304,-0.030466880649328232
1711550515346091300,7.76509130859375,0.034437503665685654,-0.012904518283903599,-0.012140937149524689
1711550515365050400,7.78405029296875,0.024663666263222694,-0.0807105079293251,0.027870705351233482
1711550515384009500,7.803009521484375,-0.014737112447619438,-0.11552979797124863,0.0758235901594162
1711550515402968300,7.82196826171875,-0.05658135190606117,-0.17203480005264282,0.15645773708820343
1711550515421927400,7.840927490234375,-0.04802924394607544,-0.21265730261802673,0.24350596964359283
1711550515440886300,7.85988623046875,0.015195261687040329,-0.19646938145160675,0.2713003158569336
1711550515459845400,7.878845458984375,0.03779725730419159,-0.1372154951095581,0.22853977978229523
1711550515478804500,7.897804443359375,-0.01259908638894558,-0.08743002265691757,0.14698933064937592
1711550515497763300,7.916763427734375,-0.052916161715984344,-0.04741837829351425,0.07887791097164154
1711550515516722400,7.935722412109375,-0.038560837507247925,0.0524580143392086,-0.028328854590654373
1711550515535681500,7.954681640625,-0.01259908638894558,0.12118030339479446,-0.09460768103599548
1711550515554640600,7.973640625,0.0005345066892914474,0.1291215419769287,-0.15202897787094116
1711550515573599500,7.992599609375,0.027717988938093185,0.11140646785497665,-0.18990258872509003
1711550515592558600,8.01155859375,0.048792824149131775,0.0784197673201561,-0.21983496844768524
1711550515611517400,8.030517333984376,0.00022907429956831038,0.02893971838057041,-0.2173915058374405
1711550515630476500,8.0494765625,-0.04192059487104416,-0.03581194952130318,-0.16821688413619995
1711550515649435600,8.068435546875,-0.05261072888970375,-0.09262236952781677,-0.07994692772626877
1711550515668394500,8.08739453125,-0.06696604937314987,-0.1265253722667694,0.02695440873503685
1711550515687353600,8.106353515625,-0.07612902671098709,-0.18028147518634796,0.12896881997585297
1711550515706312700,8.125312744140626,-0.04711294546723366,-0.19799654185771942,0.16531528532505035
1711550515725271600,8.144271484375,-0.028787001967430115,-0.17447824776172638,0.16684244573116302
1711550515744230700,8.163230712890625,-0.05108356848359108,-0.14546217024326324,0.1888335794210434
1711550515763189800,8.182189697265626,-0.08284853398799896,-0.1369100660085678,0.21723878383636475
1711550515782148900,8.20114892578125,-0.10239620506763458,-0.11491893976926804,0.21846051514148712
1711550515801107700,8.220107666015625,-0.10972658544778824,-0.14149154722690582,0.21693335473537445
1711550515820066800,8.23906689453125,-0.07185296714305878,-0.15157082676887512,0.18791727721691132
1711550515839026000,8.25802587890625,-0.024205517023801804,-0.13324488699436188,0.15554144978523254
1711550515857985000,8.276985107421876,-0.019013166427612305,-0.12988512217998505,0.14362958073616028
1711550515876944000,8.29594384765625,-0.03611737862229347,-0.12591449916362762,0.13660463690757751
1711550515895903000,8.314903076171875,-0.037033677101135254,-0.10514509677886963,0.10056361556053162
1711550515914862000,8.333862060546876,-0.026038112118840218,-0.05688678100705147,0.0550541877746582
1711550515933821200,8.3528212890625,0.002672533504664898,0.02649625949561596,0.018402300775051117
1711550515952780000,8.371780029296875,0.019471315667033195,0.06986765563488007,-0.004505127668380737
1711550515971739100,8.3907392578125,0.021914774551987648,0.09155336022377014,0.01259908638894558
1711550515990698200,8.4096982421875,0.02649625949561596,0.0884990319609642,-0.0057268571108579636
1711550516009657300,8.4286572265625,-0.0058795735239982605,-0.01259908638894558,-0.0005345066892914474
1711550516028616400,8.447616455078125,-0.0449749194085598,-0.11125374585390091,0.041615162044763565
1711550516047575300,8.4665751953125,-0.026343543082475662,-0.14912736415863037,0.0910952091217041
1711550516066534400,8.485534423828126,0.020082179456949234,-0.21021384000778198,0.12591449916362762
1711550516085493500,8.504493408203125,0.07383827865123749,-0.3000109791755676,0.14424043893814087
1711550516104452600,8.52345263671875,0.11110103130340576,-0.26274821162223816,0.13599377870559692
1711550516123411500,8.542411376953124,0.07872519642114639,-0.1735619604587555,0.12896881997585297
1711550516142370600,8.56137060546875,-0.01259908638894558,-0.13355031609535217,0.17081306874752045
1711550516161329700,8.58032958984375,-0.05413788929581642,-0.11858412623405457,0.20013457536697388
1711550516180288800,8.599288818359375,-0.03245219215750694,-0.07887791097164154,0.1375209391117096
1711550516199247600,8.61824755859375,0.05154171586036682,-0.009850194677710533,0.03550651669502258
1711550516218206700,8.637206787109376,0.11293362826108932,0.0576503649353981,-0.06101011857390404
1711550516237165800,8.656165771484375,0.07261654734611511,0.09094249457120895,-0.12392919510602951
1711550516256125000,8.675125,0.004810560029000044,0.0683404952287674,-0.14928008615970612
1711550516275084000,8.694083984375,-0.014431680552661419,0.01977674663066864,-0.14653119444847107
1711550516294043100,8.713043212890625,0.007254019379615784,0.005421424750238657,-0.1443931609392166
1711550516313002000,8.732001953125,0.009086613543331623,0.04390590637922287,-0.13920080661773682
1711550516331961000,8.750961181640625,-0.012293653562664986,0.03535379841923714,-0.06925679743289948
1711550516350920200,8.769920166015625,-0.011988221667706966,0.009086613543331623,0.019624030217528343
1711550516369879300,8.78887939453125,0.0023671009112149477,-0.06268999725580215,0.10025817900896072
1711550516388838100,8.807838134765625,0.04329504072666168,-0.1115591824054718,0.14393500983715057
1711550516407797200,8.82679736328125,0.05367974191904068,-0.12530364096164703,0.15462514758110046
1711550516426756400,8.84575634765625,0.024663666263222694,-0.09781472384929657,0.14607304334640503
1711550516445715500,8.864715576171875,0.021914774551987648,-0.041004300117492676,0.1014799103140831
1711550516464674600,8.883674560546876,0.021914774551987648,-0.026648975908756256,0.03825540840625763
1711550516483633700,8.902633544921875,0.007864884100854397,-0.02542724646627903,-0.04298960790038109
1711550516502592500,8.921592529296875,0.0191658828407526,-0.03428478538990021,-0.12362375855445862
1711550516521551600,8.940551513671876,0.03840812295675278,-0.02176205813884735,-0.14164426922798157
1711550516540510700,8.9595107421875,0.022525638341903687,-0.00038179047987796366,-0.14194969832897186
1711550516559469800,8.9784697265625,0.006337722297757864,0.01763872057199478,-0.13645191490650177
1711550516578429000,8.997428955078124,0.00847574882209301,0.042073313146829605,-0.13095413148403168
1711550516597388000,9.016387939453125,0.013668099418282509,0.0683404952287674,-0.13064870238304138
1711550516616347000,9.035346923828126,0.020693045109510422,0.06650790572166443,-0.1352301836013794
1711550516635306000,9.054305908203125,0.030161447823047638,0.06406444311141968,-0.14805835485458374
1711550516654265000,9.07326513671875,0.037491824477910995,0.0527634471654892,-0.1550832986831665
1711550516673224200,9.09222412109375,0.027107125148177147,0.029856016859412193,-0.14225514233112335
1711550516692183000,9.11118310546875,0.010919207707047462,0.006337722297757864,-0.10743584483861923
1711550516711142100,9.13014208984375,0.01977674663066864,-0.0006872228696011007,-0.06711876392364502
1711550516730101200,9.149101318359374,0.01763872057199478,-0.0077121676877141,-0.019471315667033195
1711550516749060400,9.168060302734375,-0.0019089524867013097,-0.02542724646627903,0.022983787581324577
1711550516768019500,9.18701953125,-0.00954476185142994,-0.05566505342721939,0.04650207981467247
1711550516786977800,9.205977783203124,-0.002825249684974551,-0.0907897800207138,0.0553596206009388
1711550516805937400,9.2249375,-0.006185005884617567,-0.09812015295028687,0.05474875494837761
1711550516824896500,9.243896484375,-0.0397825688123703,-0.0862082913517952,0.03581194952130318
1711550516843855600,9.262855712890625,-0.049250971525907516,-0.047723811119794846,0.008933897130191326
1711550516862814700,9.281814697265625,-0.02695440873503685,0.003283398225903511,-0.02741255611181259
1711550516881773800,9.30077392578125,-0.04344775900244713,0.017333287745714188,-0.04818195849657059
1711550516900733000,9.31973291015625,-0.04344775900244713,0.04634936526417732,-0.08788817375898361
1711550516919691800,9.33869189453125,-0.030314164236187935,0.05306887626647949,-0.10713040828704834
1711550516938651000,9.35765087890625,-0.05780307948589325,0.03932442143559456,-0.08910989761352539
1711550516957610000,9.37660986328125,-0.07002037763595581,0.04512763395905495,-0.06986765563488007
1711550516976569000,9.395569091796874,-0.03672824427485466,0.051847148686647415,-0.03413207083940506
1711550516995528000,9.41452783203125,-0.00679587060585618,0.05062541738152504,0.004657844081521034
1711550517014487000,9.433487060546875,-0.008017600513994694,0.053374309092760086,0.029397867619991302
1711550517033446100,9.452446044921874,-0.024510949850082397,0.0322994738817215,0.052916161715984344
1711550517052405200,9.4714052734375,-0.04069886729121208,0.004199695307761431,0.05566505342721939
1711550517071364400,9.4903642578125,-0.04955640435218811,-0.02848157100379467,0.050778135657310486
1711550517090323500,9.509323486328125,-0.05566505342721939,-0.026648975908756256,0.04130972921848297
1711550517109282300,9.5282822265625,-0.04405862092971802,-0.0058795735239982605,0.04833467677235603
1711550517128241400,9.547241455078124,-0.033979352563619614,0.020387612283229828,0.05841394513845444
1711550517147200500,9.566200439453125,-0.034895651042461395,0.03565923124551773,0.06452259421348572
1711550517166159600,9.58515966796875,-0.030925029888749123,0.021609341725707054,0.07307469844818115
1711550517185118700,9.60411865234375,-0.028176138177514076,0.019471315667033195,0.06482802331447601
1711550517204077800,9.623077880859375,-0.047723811119794846,0.013057234697043896,0.06207913160324097
1711550517223036700,9.64203662109375,-0.05169443041086197,-0.026038112118840218,0.07490729540586472
1711550517241995800,9.660995849609375,-0.0449749194085598,-0.02848157100379467,0.05780307948589325
1711550517260955000,9.679954833984375,-0.06757691502571106,-0.020540328696370125,0.027870705351233482
1711550517279914000,9.6989140625,-0.08681915700435638,0.01183550525456667,0.0009926552884280682
1711550517298872800,9.717872802734375,-0.06391172856092453,0.07108938694000244,-0.025274530053138733
1711550517317832000,9.73683203125,-0.03672824427485466,0.08513928204774857,-0.03657552972435951
1711550517336791000,9.755791015625,-0.06085740402340889,0.047265663743019104,-0.04940368980169296
1711550517355750100,9.774750244140625,-0.07521272450685501,0.03810269013047218,-0.050319984555244446
1711550517374709200,9.793709228515626,-0.029397867619991302,0.08666644245386124,-0.0527634471654892
1711550517393668400,9.81266845703125,0.010919207707047462,0.1453094631433487,-0.03657552972435951
1711550517412627200,9.831627197265625,0.02893971838057041,0.17340923845767975,-0.02649625949561596
1711550517431586300,9.85058642578125,0.03504836559295654,0.13187043368816376,-0.016416991129517555
1711550517450545400,9.86954541015625,0.003283398225903511,0.07078395783901215,0.011682788841426373
1711550517469504500,9.88850439453125,-0.012293653562664986,0.04482220485806465,0.06177370250225067
1711550517488463600,9.907463623046874,0.004810560029000044,0.047265663743019104,0.116751529276371
1711550517507422700,9.926422607421875,0.020998476073145866,0.020387612283229828,0.12286017835140228
1711550517526381600,9.945381591796876,-0.03886627033352852,-0.019624030217528343,0.10331250727176666
1711550517545340700,9.964340576171875,-0.10697769373655319,-0.011377356946468353,0.08193223923444748
1711550517564299800,9.9832998046875,-0.0910952091217041,0.030772313475608826,0.06849320977926254
1711550517583259000,10.0022587890625,0.01030834298580885,0.09766200929880142,0.055970486253499985
1711550517602217700,10.0212177734375,0.11140646785497665,0.1547778695821762,0.0012980876490473747
1711550517621176800,10.0401767578125,0.09185878932476044,0.21464261412620544,-0.05826122686266899
1711550517640136000,10.059135986328124,-0.021456625312566757,0.25007277727127075,-0.11843141168355942
1711550517659095000,10.078094970703125,-0.08345939964056015,0.1960112303495407,-0.13828451931476593
1711550517678054100,10.09705419921875,-0.02848157100379467,0.10132719576358795,-0.12637265026569366
1711550517697013200,10.11601318359375,0.08055779337882996,0.013668099418282509,-0.11690424382686615
1711550517715972000,10.13497216796875,0.07261654734611511,-0.022983787581324577,-0.093691386282444
1711550517734931200,10.15393115234375,-0.00038179047987796366,0.020998476073145866,-0.044211339205503464
1711550517753890300,10.172890380859375,0.03535379841923714,0.07536543905735016,0.020540328696370125
1711550517772849200,10.19184912109375,0.13584105670452118,0.08819360285997391,0.08498656004667282
1711550517791808300,10.210808349609374,0.12179116904735565,0.06345357745885849,0.11858412623405457
1711550517810767400,10.229767333984375,0.011530072428286076,-0.011682788841426373,0.11247547715902328
1711550517829726500,10.2487265625,0.018555017188191414,-0.09384410083293915,0.05352702736854553
1711550517848685600,10.267685546875,0.12728895246982574,-0.20196716487407684,0.01626427471637726
1711550517867644700,10.286644775390625,0.12576179206371307,-0.25327980518341064,0.0019089524867013097
1711550517886603500,10.305603515625,-0.00679587060585618,-0.235564723610878,-0.013057234697043896
1711550517905562600,10.324562744140625,-0.053832460194826126,-0.17050762474536896,-0.030772313475608826
1711550517924521700,10.343521728515626,0.021609341725707054,-0.0397825688123703,-0.06711876392364502
1711550517943480800,10.362480712890624,0.07964149862527847,0.129426971077919,-0.09980003535747528
1711550517962439700,10.381439697265625,0.06650790572166443,0.22075125575065613,-0.12820523977279663
1711550517981398800,10.400398681640626,0.023747367784380913,0.22838707268238068,-0.15813761949539185
1711550518000358000,10.41935791015625,-0.02023489587008953,0.17310380935668945,-0.18471023440361023
1711550518019317000,10.43831689453125,-0.047723811119794846,0.1043815165758133,-0.2173915058374405
1711550518038276000,10.457276123046874,-0.0022143847309052944,0.0524580143392086,-0.19753839075565338
1711550518057235000,10.47623486328125,0.08727730810642242,0.06131555140018463,-0.15294526517391205
1711550518076194000,10.495194091796876,0.12698352336883545,0.09277509152889252,-0.09644027799367905
1711550518095153200,10.514153076171874,0.09552398324012756,0.1398116797208786,-0.04909825697541237
1711550518114112300,10.5331123046875,0.0035888305865228176,0.11812597513198853,0.033368486911058426
1711550518133071400,10.5520712890625,-0.03672824427485466,0.02893971838057041,0.1222493126988411
1711550518152030200,10.5710302734375,0.03107774630188942,-0.026648975908756256,0.13935352861881256
1711550518170989300,10.5899892578125,0.060093823820352554,-0.030925029888749123,0.1378263682126999
1711550518189948400,10.608948486328124,0.013668099418282509,0.017027854919433594,0.15615230798721313
1711550518208907500,10.627907470703125,-0.021151192486286163,0.08636100590229034,0.16195552051067352
1711550518227866400,10.646866455078126,-0.02542724646627903,0.05917752534151077,0.14057525992393494
1711550518246825500,10.665825439453124,-0.0006872228696011007,0.05306887626647949,0.07857248187065125
1711550518265784600,10.68478466796875,-0.01259908638894558,-0.02756527252495289,0.02176205813884735
1711550518284743700,10.70374365234375,0.010919207707047462,-0.04283689334988594,-0.03413207083940506
1711550518303702800,10.722702880859375,0.09308052062988281,-0.00038179047987796366,-0.11262819170951843
1711550518322662000,10.741661865234375,0.07567087560892105,0.05459604039788246,-0.1303432732820511
1711550518341620700,10.760620849609374,0.001450803829357028,0.07689260691404343,-0.09124792367219925
1711550518360579800,10.779579833984375,0.04390590637922287,0.012446369975805283,-0.006337722297757864
1711550518379539000,10.7985390625,0.1352301836013794,-0.0859028622508049,0.07368556410074234
1711550518398498000,10.817498046875,0.16149736940860748,-0.07643445581197739,0.07460185885429382
1711550518417457000,10.836456787109375,0.09552398324012756,-0.02909243479371071,0.07368556410074234
1711550518436416000,10.855416015625,0.01611155830323696,0.04634936526417732,0.11461350321769714
1711550518455375000,10.874375,-0.026648975908756256,0.001450803829357028,0.11247547715902328
1711550518474334200,10.893334228515625,0.02283107116818428,-0.04069886729121208,0.05108356848359108
1711550518493293300,10.912293212890624,0.09460768103599548,-0.0077121676877141,0.018402300775051117
1711550518512252400,10.93125244140625,0.104076087474823,0.13339759409427643,-0.0017562361899763346
1711550518531211300,10.950211181640626,-0.006185005884617567,0.17310380935668945,-0.02283107116818428
1711550518550170400,10.96917041015625,-0.05658135190606117,0.10315979272127151,-0.02741255611181259
1711550518569129500,10.98812939453125,0.035964664071798325,0.029245151206851006,-0.07506000995635986
1711550518588088300,11.00708837890625,0.10499238222837448,-0.008017600513994694,-0.07780890166759491
1711550518607047400,11.02604736328125,0.050319984555244446,0.007254019379615784,-0.057955797761678696
1711550518626006500,11.045006591796875,-0.026343543082475662,-0.0025198173243552446,-0.023136503994464874
1711550518644965600,11.063965576171874,-0.0016035200096666813,0.01030834298580885,0.008323032408952713
1711550518663924700,11.0829248046875,0.07933606207370758,0.08239039033651352,0.022067490965127945
1711550518682883800,11.1018837890625,0.10010546445846558,0.17157664895057678,0.040088001638650894
1711550518701843000,11.120843017578125,0.06895136088132858,0.18959715962409973,0.061162836849689484
1711550518720801800,11.1398017578125,0.010919207707047462,0.09063705801963806,0.06879864633083344
1711550518739761000,11.158760986328126,-0.031841326504945755,0.0017562361899763346,0.0034361144062131643
1711550518758720000,11.177719970703125,-0.017486004158854485,-0.03581194952130318,-0.05917752534151077
1711550518777679000,11.19667919921875,-0.02390008419752121,-0.05230529606342316,-0.07597630470991135
1711550518796638200,11.21563818359375,-0.04222602769732475,-0.03764454275369644,-0.08208495378494263
1711550518815597300,11.234597412109375,-0.02390008419752121,-0.07215840369462967,-0.07506000995635986
1711550518834556200,11.25355615234375,-0.0193185992538929,-0.04283689334988594,-0.0524580143392086
1711550518853515300,11.272515380859375,-0.016875140368938446,0.024052800610661507,-0.040546149015426636
1711550518872474400,11.291474365234375,-0.0019089524867013097,0.07475458085536957,-0.020693045109510422
1711550518891433500,11.31043359375,-0.004963276442140341,0.11171189695596695,-0.019471315667033195
1711550518910392600,11.329392578125,-0.00954476185142994,0.15141810476779938,-0.03993528336286545
1711550518929351700,11.3483515625,-0.0077121676877141,0.17524182796478271,-0.08636100590229034
1711550518948310500,11.367310546875,-0.01107192412018776,0.1349247545003891,-0.10957387089729309
1711550518967270000,11.386269775390625,-0.031230462715029716,0.05917752534151077,-0.08605557680130005
1711550518986228700,11.405228759765626,-0.03581194952130318,0.0011453714687377214,-0.05154171586036682
1711550519005187800,11.424187744140625,0.01183550525456667,-0.03581194952130318,-0.0576503649353981
1711550519024147000,11.44314697265625,0.04787652567028999,-0.053832460194826126,-0.09246965497732162
1711550519043106000,11.46210595703125,0.02283107116818428,-0.017486004158854485,-0.07383827865123749
1711550519062065200,11.481065185546875,0.0066431546583771706,0.00847574882209301,0.008628465235233307
1711550519081024300,11.500024169921875,0.020693045109510422,0.01977674663066864,0.06910407543182373
1711550519099983400,11.5189833984375,0.041157014667987823,0.010919207707047462,0.0910952091217041
1711550519118942500,11.5379423828125,0.04085158184170723,0.047265663743019104,0.05474875494837761
1711550519137901600,11.556901611328126,-0.00007635809743078426,0.05306887626647949,0.019624030217528343
1711550519156860400,11.5758603515625,-0.054443322122097015,0.06039925664663315,0.005574141163378954
1711550519175819500,11.594819580078125,-0.10422880202531815,0.11384992301464081,0.003741546766832471
1711550519194778600,11.613778564453124,-0.0862082913517952,0.15416699647903442,0.00679587060585618
1711550519213737700,11.63273779296875,-0.03428478538990021,0.15355613827705383,-0.0066431546583771706
1711550519232696800,11.65169677734375,-0.05169443041086197,0.18257221579551697,-0.053985174745321274
1711550519251656000,11.670656005859374,-0.13141228258609772,0.2170860767364502,-0.0939968153834343
1711550519270615000,11.689614990234375,-0.16684244573116302,0.23480114340782166,-0.10682497918605804
1711550519289574100,11.70857421875,-0.0962875634431839,0.22014039754867554,-0.11751510947942734
1711550519308533200,11.727533203125,-0.004352411720901728,0.16394083201885223,-0.12728895246982574
1711550519327492400,11.746492431640625,-0.01259908638894558,0.13156500458717346,-0.1553887277841568
1711550519346451500,11.765451416015624,-0.08254310488700867,0.104076087474823,-0.16424626111984253
1711550519365410600,11.78441064453125,-0.09873101860284805,0.1291215419769287,-0.12698352336883545
1711550519384369700,11.80336962890625,-0.07307469844818115,0.150196373462677,-0.07506000995635986
1711550519403328800,11.822328857421875,-0.06452259421348572,0.1303432732820511,-0.010919207707047462
1711550519422288000,11.841287841796875,-0.07918334752321243,0.05429060757160187,0.07979421317577362
1711550519441247000,11.8602470703125,-0.031230462715029716,0.005421424750238657,0.14118611812591553
1711550519460205800,11.879205810546875,0.050319984555244446,0.024052800610661507,0.1372154951095581
1711550519479165200,11.898165283203125,0.09338594973087311,0.05673406645655632,0.13355031609535217
1711550519498124300,11.917124267578124,0.03321577236056328,0.0576503649353981,0.15095995366573334
1711550519517083400,11.93608349609375,-0.03611737862229347,0.040546149015426636,0.13660463690757751
1711550519536041700,11.955041748046876,-0.03917170315980911,-0.01870773360133171,0.08315397053956985
1711550519555001300,11.97400146484375,-0.0058795735239982605,-0.09353867173194885,0.05933023989200592
1711550519573960700,11.992960693359375,0.013057234697043896,-0.15157082676887512,0.0703258067369461
1711550519592919800,12.011919921875,0.024052800610661507,-0.15065452456474304,0.08865175396203995
1711550519611879000,12.03087890625,0.02496909722685814,-0.12072215229272842,0.08284853398799896
1711550519630838000,12.049838134765626,0.016416991129517555,-0.033368486911058426,0.043753188103437424
1711550519649797000,12.068797119140624,0.009392046369612217,-0.03825540840625763,0.04650207981467247
1711550519668756200,12.087756103515625,0.014584396965801716,-0.09231694042682648,0.08468113094568253
1711550519687715300,12.10671533203125,0.0191658828407526,-0.1372154951095581,0.09781472384929657
1711550519706674400,12.12567431640625,0.013362666592001915,-0.20502148568630219,0.10239620506763458
1711550519725633500,12.144633544921875,0.001450803829357028,-0.25877758860588074,0.08773545175790787
1711550519744592600,12.163592529296874,0.02496909722685814,-0.22884522378444672,0.06879864633083344
1711550519763551700,12.1825517578125,0.02741255611181259,-0.14882193505764008,0.0193185992538929
1711550519782510800,12.2015107421875,0.013057234697043896,-0.07521272450685501,-0.023441936820745468
1711550519801470000,12.220469970703125,-0.018402300775051117,-0.021456625312566757,-0.046654798090457916
1711550519820429000,12.239428955078125,-0.03550651669502258,-0.006185005884617567,-0.06620246917009354
1711550519839388200,12.25838818359375,-0.023594651371240616,-0.0193185992538929,-0.09124792367219925
1711550519858347500,12.277347412109375,0.02588539570569992,-0.031230462715029716,-0.08758273720741272
1711550519877306400,12.296306396484376,0.051847148686647415,-0.04283689334988594,-0.07108938694000244
1711550519896265700,12.315265625,0.03779725730419159,-0.053832460194826126,-0.044211339205503464
1711550519915224800,12.334224853515625,0.0035888305865228176,-0.06666062027215958,-0.023136503994464874
1711550519934184000,12.353183837890626,-0.03306305781006813,-0.08987347781658173,0.012904518283903599
1711550519953143000,12.37214306640625,-0.027259841561317444,-0.13599377870559692,0.07521272450685501
1711550519972102100,12.39110205078125,0.026801692321896553,-0.13416117429733276,0.12499820441007614
1711550519991061200,12.410061279296874,0.050319984555244446,-0.1372154951095581,0.1689804643392563
1711550520010020400,12.429020263671875,0.014278964139521122,-0.19646938145160675,0.21815508604049683
1711550520028979700,12.447979736328126,-0.0550541877746582,-0.19555309414863586,0.2346484363079071
1711550520047938600,12.4669384765625,-0.11400263756513596,-0.19097159802913666,0.22395829856395721
1711550520066898000,12.48589794921875,-0.13629920780658722,-0.20654866099357605,0.2138790339231491
1711550520085857000,12.50485693359375,-0.08681915700435638,-0.14393500983715057,0.18761184811592102
1711550520104816000,12.523816162109375,-0.022983787581324577,-0.1115591824054718,0.14332415163516998
1711550520123775200,12.542775146484376,-0.049861837178468704,-0.18577924370765686,0.12011128664016724
1711550520142734300,12.561734375,-0.106366828083992,-0.1842520833015442,0.06635518372058868
1711550520161693400,12.580693359375,-0.11308634281158447,-0.18455752730369568,0.040088001638650894
1711550520180652800,12.59965283203125,-0.05719221383333206,-0.19677481055259705,0.04864010959863663
1711550520199612000,12.61861181640625,0.05123628303408623,-0.21235187351703644,0.06666062027215958
1711550520218571000,12.637571044921875,0.08544471114873886,-0.20166173577308655,0.0910952091217041
1711550520237530000,12.656530029296874,0.02649625949561596,-0.131717711687088,0.10270164161920547
1711550520256489200,12.6754892578125,-0.0077121676877141,-0.1326340138912201,0.13324488699436188
1711550520275448300,12.6944482421875,0.010613775812089443,-0.12957969307899475,0.14057525992393494
1711550520294407700,12.71340771484375,0.020998476073145866,-0.11430807411670685,0.14576761424541473
1711550520313366800,12.73236669921875,0.0243582334369421,-0.12469277530908585,0.1369100660085678
1711550520332326000,12.751325927734374,0.0680350661277771,-0.15859577059745789,0.06940951198339462
1711550520351285000,12.770284912109375,0.10529781877994537,-0.22182027995586395,-0.0023671009112149477
1711550520370244400,12.789244384765626,0.07933606207370758,-0.18791727721691132,-0.042684175074100494
1711550520389203500,12.808203369140625,0.04482220485806465,-0.08223766833543777,-0.08666644245386124
1711550520408162600,12.82716259765625,0.057039499282836914,0.017333287745714188,-0.12056943774223328
1711550520427121700,12.84612158203125,0.050930850207805634,0.06192641705274582,-0.07872519642114639
1711550520446081000,12.8650810546875,-0.010766491293907166,0.0732274129986763,0.03245219215750694
1711550520465040100,12.8840400390625,-0.041004300117492676,0.018860450014472008,0.1476002037525177
1711550520483999200,12.902999267578124,-0.00038179047987796366,-0.031841326504945755,0.1885281354188919
1711550520502958300,12.921958251953125,0.03962985426187515,-0.04039343446493149,0.19249875843524933
1711550520521917700,12.940917724609376,0.034437503665685654,-0.04253146052360535,0.1836412250995636
1711550520540876800,12.959876708984375,0.025579962879419327,-0.033368486911058426,0.16500984132289886
1711550520559836000,12.9788359375,0.00511599238961935,-0.046807512640953064,0.14362958073616028
1711550520578795000,12.997794921875,0.025274530053138733,0.01611155830323696,0.06727148592472076
1711550520597754400,13.01675439453125,0.08239039033651352,0.053985174745321274,-0.04390590637922287
1711550520616713500,13.03571337890625,0.0836121141910553,0.0985783040523529,-0.12301289290189743
1711550520635672800,13.0546728515625,0.045738499611616135,0.1340084671974182,-0.16302454471588135
1711550520654632000,13.0736318359375,0.05673406645655632,0.10468695312738419,-0.19326233863830566
1711550520673591000,13.092591064453124,0.104076087474823,0.0527634471654892,-0.20945025980472565
1711550520692550100,13.111550048828125,0.11720968037843704,0.007254019379615784,-0.1908188909292221
1711550520711509500,13.130509521484376,0.08086322247982025,-0.02328922040760517,-0.15661045908927917
1711550520730468600,13.149468505859375,0.05520690605044365,-0.06849320977926254,-0.0939968153834343
1711550520749427700,13.168427734375,0.06345357745885849,-0.08895718306303024,-0.013362666592001915
1711550520768387000,13.187386962890624,0.07108938694000244,-0.08009964227676392,0.044669486582279205
1711550520787346200,13.20634619140625,0.0732274129986763,-0.04711294546723366,0.06085740402340889
1711550520806305500,13.225305419921876,0.09216422587633133,-0.004963276442140341,0.061162836849689484
1711550520825264600,13.2442646484375,0.07475458085536957,0.01763872057199478,0.06360629200935364
1711550520844223700,13.2632236328125,0.03932442143559456,0.03107774630188942,0.06940951198339462
1711550520863182800,13.282182861328126,0.0295505840331316,0.01977674663066864,0.08743002265691757
1711550520882142200,13.30114208984375,0.03565923124551773,0.0057268571108579636,0.049250971525907516
1711550520901101300,13.320101318359375,0.08666644245386124,-0.007406735327094793,-0.00847574882209301
1711550520920060400,13.339060302734374,0.11354449391365051,0.004810560029000044,-0.04787652567028999
1711550520939019800,13.358019775390625,0.05429060757160187,0.03962985426187515,-0.07383827865123749
1711550520957979000,13.376978759765626,-0.008933897130191326,0.003283398225903511,-0.0985783040523529
1711550520976938200,13.395938232421875,0.012140937149524689,-0.030925029888749123,-0.1037706509232521
1711550520995897300,13.4148974609375,0.07231111824512482,-0.025732679292559624,-0.08544471114873886
1711550521014856400,13.4338564453125,0.07108938694000244,-0.02848157100379467,-0.03413207083940506
1711550521033815800,13.45281591796875,0.025579962879419327,-0.031841326504945755,0.01870773360133171
1711550521052775000,13.47177490234375,0.0029779658652842045,-0.03672824427485466,0.06910407543182373
1711550521071734300,13.490734375,0.006948587018996477,-0.025732679292559624,0.1170569658279419
1711550521090693400,13.509693359375,0.030772313475608826,-0.027870705351233482,0.15401428937911987
1711550521109652700,13.52865283203125,0.053985174745321274,-0.057497646659612656,0.16928590834140778
1711550521128611800,13.54761181640625,0.05520690605044365,-0.09017891436815262,0.14332415163516998
1711550521147571000,13.566571044921876,0.01824958436191082,-0.12133301794528961,0.08865175396203995
1711550521166530300,13.5855302734375,-0.02390008419752121,-0.11766783148050308,0.036422811448574066
1711550521185489400,13.604489501953125,-0.04589121788740158,-0.07338013499975204,-0.015500693581998348
1711550521204448500,13.623448486328124,-0.021456625312566757,-0.026038112118840218,-0.06131555140018463
1711550521223407900,13.642407958984375,-0.021151192486286163,0.025274530053138733,-0.11049016565084457
1711550521242367000,13.661366943359376,-0.029397867619991302,0.03871355578303337,-0.14378230273723602
1711550521261326300,13.680326416015625,-0.026038112118840218,0.04176788032054901,-0.1559995859861374
1711550521280285400,13.699285400390625,-0.046807512640953064,0.03657552972435951,-0.14866921305656433
1711550521299244800,13.718244873046874,-0.07460185885429382,0.02283107116818428,-0.12026400119066238
1711550521318204000,13.737203857421875,-0.070631243288517,0.000839939049910754,-0.07261654734611511
1711550521337163000,13.7561630859375,-0.05871937796473503,-0.0006872228696011007,-0.015500693581998348
1711550521356122400,13.775122314453125,-0.04955640435218811,0.020387612283229828,0.04405862092971802
1711550521375081500,13.79408154296875,-0.03550651669502258,0.03107774630188942,0.08315397053956985
1711550521394040800,13.813040771484374,-0.047723811119794846,0.01672242395579815,0.0965929925441742
1711550521413000000,13.832,-0.09384410083293915,-0.00954476185142994,0.09995274990797043
1711550521431959300,13.850959228515626,-0.07918334752321243,0.0017562361899763346,0.08009964227676392
1711550521450918400,13.86991845703125,-0.07857248187065125,-0.020540328696370125,0.09476039558649063
1711550521469877500,13.88887744140625,-0.11461350321769714,-0.019624030217528343,0.08773545175790787
1711550521488836900,13.9078369140625,-0.10239620506763458,-0.023594651371240616,0.07612902671098709
1711550521507796000,13.9267958984375,-0.0651334598660469,-0.017486004158854485,0.06666062027215958
1711550521526755300,13.94575537109375,-0.04344775900244713,0.026190826669335365,0.019013166427612305
1711550521545714400,13.96471435546875,-0.07154753804206848,0.06528617441654205,-0.056428633630275726
1711550521564673500,13.983673583984375,-0.10056361556053162,0.06742420047521591,-0.1300378441810608
1711550521583633000,14.0026328125,-0.07796161621809006,0.05123628303408623,-0.1856265366077423
1711550521602592000,14.021592041015625,-0.04833467677235603,0.083306685090065,-0.21525347232818604
1711550521621551400,14.04055126953125,-0.018096869811415672,0.13309216499328613,-0.19876012206077576
1711550521640510500,14.059510498046874,0.03657552972435951,0.16882775723934174,-0.1608865112066269
1711550521659469600,14.078469482421875,0.04176788032054901,0.13187043368816376,-0.10560324788093567
1711550521678429000,14.097428955078126,-0.024510949850082397,0.05581776797771454,-0.041157014667987823
1711550521697388000,14.116387939453125,-0.0553596206009388,-0.027870705351233482,0.026343543082475662
1711550521716347400,14.135347412109375,-0.04344775900244713,-0.10239620506763458,0.09262236952781677
1711550521735306500,14.154306396484374,-0.054443322122097015,-0.13324488699436188,0.1476002037525177
1711550521754265900,14.173265869140625,-0.081015944480896,-0.12163844704627991,0.16103923320770264
1711550521773225000,14.192224853515626,-0.09903645515441895,-0.08926261961460114,0.16500984132289886
1711550521792184000,14.21118408203125,-0.07002037763595581,-0.0602465383708477,0.147905632853508
1711550521811143400,14.230143310546875,0.00022907429956831038,-0.04711294546723366,0.10697769373655319
1711550521830102500,14.2491025390625,0.05734493210911751,-0.02237292192876339,0.0077121676877141
1711550521849062000,14.268061767578125,0.0295505840331316,-0.022067490965127945,-0.08513928204774857
1711550521868021000,14.28702099609375,-0.012293653562664986,0.07750347256660461,-0.17218750715255737
1711550521886980400,14.30598046875,-0.0016035200096666813,0.1810450553894043,-0.23510658740997314
1711550521905939500,14.324939453125,0.04818195849657059,0.22044582664966583,-0.252210795879364
1711550521924898800,14.34389892578125,0.11171189695596695,0.23999349772930145,-0.24060437083244324
1711550521943858000,14.36285791015625,0.09766200929880142,0.20456334948539734,-0.1804341822862625
1711550521962817300,14.3818173828125,0.00511599238961935,0.11171189695596695,-0.09918916970491409
1711550521981776400,14.4007763671875,-0.06849320977926254,0.0035888305865228176,-0.02283107116818428
1711550522000735700,14.41973583984375,-0.028176138177514076,-0.05199986323714256,0.07704532146453857
1711550522019694800,14.43869482421875,0.046654798090457916,-0.05688678100705147,0.1579848974943161
1711550522038654000,14.457654052734375,0.09644027799367905,0.00603228947147727,0.1778380125761032
1711550522057613300,14.47661328125,0.05367974191904068,0.047265663743019104,0.16134466230869293
1711550522076572400,14.495572509765625,0.013057234697043896,0.03260490670800209,0.13141228258609772
1711550522095531800,14.51453173828125,0.030772313475608826,-0.01107192412018776,0.07246383279561996
1711550522114491000,14.533490966796874,0.07903063297271729,-0.03764454275369644,-0.03168861195445061
1711550522133450000,14.552449951171875,0.07475458085536957,-0.014126247726380825,-0.1407279670238495
1711550522152409300,14.571409423828126,0.008170315995812416,0.0628427118062973,-0.22502730786800385
1711550522171368400,14.590368408203124,-0.03428478538990021,0.12545634806156158,-0.24182608723640442
1711550522190327800,14.609327880859375,-0.0025198173243552446,0.14683662354946136,-0.1966221034526825
1711550522209287000,14.628286865234376,0.06650790572166443,0.12118030339479446,-0.11079560220241547
1711550522228246300,14.647246337890625,0.11293362826108932,0.05367974191904068,-0.021914774551987648
1711550522247205400,14.666205322265625,0.09033162891864777,0.003894262947142124,0.06360629200935364
1711550522266164500,14.68516455078125,0.02893971838057041,-0.0019089524867013097,0.11827868968248367
1711550522285123800,14.704123779296875,0.012140937149524689,-0.026343543082475662,0.15034909546375275
1711550522304083000,14.7230830078125,0.047265663743019104,-0.04741837829351425,0.16623157262802124
1711550522323042300,14.742042236328125,0.07689260691404343,-0.024816380813717842,0.1530979871749878
1711550522342001400,14.76100146484375,0.05520690605044365,-0.011682788841426373,0.16989676654338837
1711550522360960500,14.77996044921875,0.04604393243789673,0.016416991129517555,0.1417969912290573
1711550522379920000,14.798919921875,0.0576503649353981,0.006948587018996477,0.05871937796473503
1711550522398879000,14.81787890625,0.04696023091673851,-0.0031306820455938578,-0.050930850207805634
1711550522417838300,14.83683837890625,0.016416991129517555,0.013973532244563103,-0.1495855152606964
1711550522436797400,14.85579736328125,-0.0019089524867013097,0.03779725730419159,-0.19570580124855042
1711550522455756800,14.8747568359375,0.04604393243789673,0.11568251997232437,-0.23480114340782166
1711550522474716000,14.8937158203125,0.08758273720741272,0.18501566350460052,-0.2726747691631317
1711550522493675000,14.912675048828126,0.07047852128744125,0.1859319657087326,-0.28031057119369507
1711550522512634400,14.93163427734375,0.028634287416934967,0.1300378441810608,-0.23021966218948364
1711550522531593500,14.950593505859375,-0.022678354755043983,0.055512335151433945,-0.12851068377494812
1711550522550552800,14.969552734375,-0.0058795735239982605,0.04787652567028999,-0.018555017188191414
1711550522569512000,14.988511962890625,0.07903063297271729,0.03565923124551773,0.04802924394607544
1711550522588471000,15.007470947265626,0.1352301836013794,0.023747367784380913,0.08376483619213104
1711550522607430400,15.026430419921875,0.09002619981765747,0.00755945174023509,0.13080142438411713
1711550522626389500,15.045389404296875,-0.0025198173243552446,0.00022907429956831038,0.1885281354188919
1711550522645348900,15.064348876953124,-0.00679587060585618,-0.008933897130191326,0.23251040279865265
1711550522664308000,15.083307861328125,0.03413207083940506,-0.06910407543182373,0.1378263682126999
1711550522683267000,15.10226708984375,0.04329504072666168,-0.11950042098760605,0.016875140368938446
1711550522702226400,15.121226318359374,0.023441936820745468,-0.04528035223484039,-0.06192641705274582
1711550522721185500,15.140185546875,-0.006185005884617567,0.03932442143559456,-0.07017309218645096
1711550522740145000,15.159144775390626,-0.012904518283903599,0.05062541738152504,-0.04543306678533554
1711550522759104000,15.17810400390625,0.048792824149131775,0.06895136088132858,-0.05062541738152504
1711550522778063400,15.1970634765625,0.03107774630188942,0.08513928204774857,-0.06528617441654205
1711550522797022500,15.2160224609375,-0.07215840369462967,0.09277509152889252,0.00679587060585618
1711550522815981600,15.234981689453125,-0.027259841561317444,0.07139482349157333,0.10728313028812408
1711550522834941000,15.25394091796875,0.06101011857390404,0.0371863916516304,0.12713623046875
1711550522853900000,15.272900146484375,0.06223184987902641,0.013668099418282509,0.0807105079293251
1711550522872859400,15.291859375,-0.041615162044763565,-0.004963276442140341,0.059024810791015625
1711550522891818500,15.310818603515624,-0.10086904466152191,0.015806125476956367,0.09873101860284805
1711550522910777600,15.329777587890625,-0.025732679292559624,0.08391755074262619,0.05474875494837761
1711550522929737000,15.348737060546876,0.0683404952287674,0.11873684078454971,-0.057955797761678696
1711550522948696000,15.367696044921875,0.08697187155485153,0.08452841639518738,-0.11690424382686615
1711550522967655400,15.386655517578125,-0.06604975461959839,-0.05566505342721939,-0.04787652567028999
1711550522986614500,15.405614501953124,-0.12286017835140228,-0.12988512217998505,-0.011224640533328056
1711550523005573600,15.42457373046875,-0.04955640435218811,-0.14607304334640503,-0.09552398324012756
1711550523024533000,15.443532958984376,-0.013209951110184193,-0.09812015295028687,-0.18196134269237518
1711550523043492000,15.4624921875,-0.015958841890096664,-0.033368486911058426,-0.13858994841575623
1711550523062451500,15.481451416015625,0.026190826669335365,0.01824958436191082,-0.07261654734611511
1711550523081410600,15.50041064453125,0.03627009689807892,0.041157014667987823,-0.06711876392364502
1711550523100369700,15.51936962890625,-0.03153589367866516,0.035964664071798325,-0.06864593178033829
1711550523119329000,15.5383291015625,-0.059635672718286514,0.09613484144210815,-0.05520690605044365
1711550523138288000,15.5572880859375,-0.091400645673275,0.09002619981765747,0.033368486911058426
1711550523157247200,15.576247314453125,-0.10850485414266586,0.13920080661773682,0.025732679292559624
1711550523176206600,15.59520654296875,-0.10178534686565399,0.1660788655281067,-0.05826122686266899
1711550523195165700,15.614165771484375,-0.08315397053956985,0.17157664895057678,-0.10529781877994537
1711550523214124800,15.633124755859376,-0.05261072888970375,0.13217586278915405,-0.09246965497732162
1711550523233084200,15.652084228515625,-0.027870705351233482,0.11262819170951843,-0.09918916970491409
1711550523252043300,15.671043212890625,-0.022678354755043983,0.15355613827705383,-0.16302454471588135
1711550523271002600,15.690002685546874,-0.09170607477426529,0.1495855152606964,-0.1911243200302124
1711550523289961700,15.708961669921875,-0.10758855938911438,0.16149736940860748,-0.16821688413619995
1711550523308920800,15.7279208984375,-0.08407026529312134,0.13736821711063385,-0.1092684343457222
1711550523327880200,15.746880126953124,-0.05994110554456711,0.13706278800964355,-0.07261654734611511
1711550523346839300,15.76583935546875,-0.02756527252495289,0.14866921305656433,-0.06864593178033829
1711550523365798700,15.784798583984376,-0.024205517023801804,0.13584105670452118,-0.028328854590654373
1711550523384757800,15.8037578125,-0.030925029888749123,0.12179116904735565,0.01718057133257389
1711550523403716900,15.822716796875,0.01030834298580885,0.08544471114873886,0.007406735327094793
1711550523422676000,15.841676025390624,0.053374309092760086,-0.010155626572668552,-0.03474293276667595
1711550523441635300,15.86063525390625,0.06559160351753235,-0.0965929925441742,-0.021914774551987648
1711550523460594400,15.879594482421876,0.05459604039788246,-0.08315397053956985,0.03275762498378754
1711550523479553500,15.898553466796875,0.06711876392364502,0.020998476073145866,0.08193223923444748
1711550523498513000,15.917512939453125,0.05123628303408623,0.13278673589229584,0.06482802331447601
1711550523517472000,15.936471923828124,-0.00954476185142994,0.2063959389925003,0.0657443255186081
1711550523536431400,15.955431396484375,-0.04130972921848297,0.2012035846710205,0.11858412623405457
1711550523555390500,15.974390380859376,0.012446369975805283,0.1654679924249649,0.14026983082294464
1711550523574349600,15.993349609375,0.03413207083940506,0.10529781877994537,0.09476039558649063
1711550523593309000,16.012308837890625,-0.05322159454226494,0.08269581943750381,0.04039343446493149
1711550523612268000,16.03126806640625,-0.11308634281158447,0.16394083201885223,0.008628465235233307
1711550523631227400,16.050227294921875,-0.04405862092971802,0.20761767029762268,-0.04146244749426842
1711550523650186500,16.0691865234375,0.017944153398275375,0.13706278800964355,-0.10651954263448715
1711550523669145600,16.0881455078125,0.020082179456949234,0.06711876392364502,-0.14928008615970612
1711550523688104700,16.107104736328125,-0.010155626572668552,0.037491824477910995,-0.1602756530046463
1711550523707064000,16.12606396484375,-0.05841394513845444,0.055512335151433945,-0.170965775847435
1711550523726023200,16.145023193359375,-0.10453423857688904,0.08147408813238144,-0.15905392169952393
1711550523744982500,16.163982421875,-0.12408190965652466,0.07567087560892105,-0.07780890166759491
1711550523763941600,16.182941650390624,-0.08376483619213104,0.10346522182226181,-0.08452841639518738
1711550523782900700,16.201900634765625,-0.055970486253499985,0.19234605133533478,-0.05948295816779137
1711550523801860000,16.220860107421874,-0.09170607477426529,0.27542364597320557,-0.00847574882209301
1711550523820819200,16.239819091796875,-0.15615230798721313,0.27664539217948914,0.02176205813884735
1711550523839778600,16.258778564453124,-0.15584687888622284,0.22899793088436127,0.041004300117492676
1711550523858737700,16.277737548828124,-0.095982126891613,0.15966477990150452,0.059635672718286514
1711550523877696800,16.29669677734375,-0.05719221383333206,0.07964149862527847,0.053832460194826126
1711550523896656100,16.31565625,-0.05933023989200592,-0.024510949850082397,0.0193185992538929
1711550523915615200,16.334615234375,-0.08040507882833481,-0.012293653562664986,-0.10224349051713943
1711550523934574300,16.35357421875,-0.11247547715902328,0.08208495378494263,-0.2121991515159607
1711550523953533700,16.37253369140625,-0.14149154722690582,0.21403174102306366,-0.2216675579547882
1711550523972492800,16.391492919921873,-0.15890119969844818,0.2876409590244293,-0.1508072465658188
1711550523991452200,16.4104521484375,-0.15676318109035492,0.24152065813541412,-0.05978839099407196
1711550524010411300,16.429411376953126,-0.1472947746515274,0.08697187155485153,-0.024663666263222694
1711550524029370400,16.448370361328124,-0.12621992826461792,-0.08926261961460114,0.02695440873503685
1711550524048329700,16.467329833984376,-0.08804088830947876,-0.17722713947296143,0.11400263756513596
1711550524067288800,16.486288818359377,-0.04436405375599861,-0.235564723610878,0.2618319094181061
1711550524086248000,16.505248046875,0.007864884100854397,-0.2086866796016693,0.32444554567337036
1711550524105207300,16.524207275390626,0.019471315667033195,-0.17539454996585846,0.28901541233062744
1711550524124166400,16.54316650390625,0.003894262947142124,-0.194025918841362,0.2294560819864273
1711550524143125500,16.56212548828125,-0.011682788841426373,-0.2502254843711853,0.18455752730369568
1711550524162084900,16.5810849609375,-0.004352411720901728,-0.23098324239253998,0.18058690428733826
1711550524181044000,16.6000439453125,0.011224640533328056,-0.2092975378036499,0.0965929925441742
1711550524200003300,16.61900341796875,-0.026038112118840218,-0.24350596964359283,-0.03138317912817001
1711550524218962400,16.63796240234375,-0.09476039558649063,-0.2871828079223633,-0.11323905736207962
1711550524237921800,16.656921875,-0.09353867173194885,-0.27863070368766785,-0.09613484144210815
1711550524256881000,16.675880859375,-0.04558578506112099,-0.22304199635982513,-0.06589704006910324
1711550524275840000,16.694840087890626,-0.026343543082475662,-0.14118611812591553,-0.050930850207805634
1711550524294799400,16.71379931640625,-0.037033677101135254,-0.10270164161920547,-0.06711876392364502
1711550524313758500,16.732758544921875,-0.0651334598660469,-0.08529199659824371,-0.0784197673201561
1711550524332717800,16.7517177734375,-0.06727148592472076,-0.07918334752321243,-0.03565923124551773
1711550524351677000,16.770677001953125,-0.007101302966475487,-0.05871937796473503,-0.004505127668380737
1711550524370636300,16.78963623046875,0.05581776797771454,-0.028176138177514076,-0.01030834298580885
1711550524389595400,16.808595458984374,0.05612320080399513,-0.018402300775051117,-0.04940368980169296
1711550524408554800,16.8275546875,-0.00038179047987796366,-0.014737112447619438,-0.07567087560892105
1711550524427513900,16.846513916015624,-0.05352702736854553,-0.03764454275369644,-0.035964664071798325
1711550524446473200,16.86547314453125,-0.06482802331447601,-0.12072215229272842,0.012293653562664986
1711550524465432300,16.884432373046874,-0.04864010959863663,-0.16623157262802124,0.011682788841426373
1711550524484391700,16.9033916015625,-0.02023489587008953,-0.1530979871749878,-0.017333287745714188
1711550524503350800,16.922350830078123,-0.027870705351233482,-0.1424078494310379,0.006490438245236874
1711550524522310000,16.941309814453124,-0.09262236952781677,-0.08926261961460114,0.05719221383333206
1711550524541269200,16.960269287109377,-0.1011744812130928,-0.08956804871559143,0.10972658544778824
1711550524560228400,16.979228271484374,-0.021151192486286163,-0.14668390154838562,0.10758855938911438
1711550524579187700,16.998187744140626,0.05917752534151077,-0.2141844630241394,0.0807105079293251
1711550524598146800,17.017146728515623,0.0888044685125351,-0.19555309414863586,0.05413788929581642
1711550524617106000,17.03610595703125,0.06101011857390404,-0.1424078494310379,0.05047270283102989
1711550524636065300,17.055065185546876,0.00603228947147727,-0.06879864633083344,0.049250971525907516
1711550524655024400,17.0740244140625,-0.046196650713682175,-0.027870705351233482,0.06727148592472076
1711550524673983700,17.092983642578126,-0.05627591907978058,-0.0703258067369461,0.07124210149049759
1711550524692943000,17.111943115234375,-0.0058795735239982605,-0.15370884537696838,0.06391172856092453
1711550524711902200,17.130902099609376,0.0784197673201561,-0.24258968234062195,0.09476039558649063
1711550524730861600,17.149861572265625,0.16363540291786194,-0.27985242009162903,0.07368556410074234
1711550524749820700,17.168820556640625,0.13370302319526672,-0.30520331859588623,0.06666062027215958
1711550524768779800,17.18777978515625,0.03627009689807892,-0.29970553517341614,0.09262236952781677
1711550524787739100,17.2067392578125,0.012446369975805283,-0.275270938873291,0.13660463690757751
1711550524806698200,17.2256982421875,0.05001455545425415,-0.20318889617919922,0.183030366897583
1711550524825657600,17.24465771484375,0.04696023091673851,-0.16134466230869293,0.21051926910877228
1711550524844616700,17.26361669921875,0.05612320080399513,-0.19188790023326874,0.2202931046485901
1711550524863576000,17.282576171875,0.08941533416509628,-0.2041051983833313,0.21662792563438416
1711550524882535400,17.301535400390627,0.03565923124551773,-0.22304199635982513,0.2044106274843216
1711550524901494500,17.32049462890625,-0.006490438245236874,-0.19708025455474854,0.14943279325962067
1711550524920453600,17.33945361328125,-0.02390008419752121,-0.12408190965652466,0.052916161715984344
1711550524939413000,17.3584130859375,-0.03611737862229347,-0.046196650713682175,-0.03107774630188942
1711550524958372000,17.3773720703125,0.017333287745714188,0.03871355578303337,-0.10560324788093567
1711550524977331500,17.39633154296875,0.047265663743019104,0.023136503994464874,-0.13889537751674652
1711550524996290800,17.415290771484376,0.001450803829357028,-0.011988221667706966,-0.15141810476779938
1711550525015250000,17.43425,-0.033368486911058426,-0.040088001638650894,-0.15905392169952393
1711550525034209300,17.453209228515625,0.018860450014472008,-0.03733910992741585,-0.19509494304656982
1711550525053168400,17.47216845703125,0.10499238222837448,-0.041004300117492676,-0.22655446827411652
1711550525072127700,17.491127685546875,0.10682497918605804,-0.05841394513845444,-0.1712712198495865
1711550525091086800,17.5100869140625,0.05978839099407196,-0.06788235157728195,-0.1346193253993988
1711550525110046200,17.529046142578125,0.0295505840331316,-0.06788235157728195,-0.12759438157081604
1711550525129005300,17.54800537109375,0.020082179456949234,-0.027259841561317444,-0.11507165431976318
1711550525147964700,17.566964599609374,0.03260490670800209,-0.01259908638894558,-0.07231111824512482
1711550525166923800,17.585923828125,0.0631481483578682,-0.059024810791015625,0.02084576152265072
1711550525185883100,17.604883056640624,0.0628427118062973,-0.14515674114227295,0.10331250727176666
1711550525204842500,17.623842529296876,0.035964664071798325,-0.22120940685272217,0.16745330393314362
1711550525223801600,17.642801513671873,0.0066431546583771706,-0.23189954459667206,0.19982914626598358
1711550525242761000,17.661760986328126,-0.014431680552661419,-0.13813179731369019,0.16989676654338837
1711550525261720000,17.680719970703127,0.000839939049910754,-0.08468113094568253,0.11033745110034943
1711550525280679400,17.699679443359376,0.041157014667987823,-0.06940951198339462,0.05413788929581642
1711550525299638500,17.718638427734376,0.03168861195445061,-0.10239620506763458,0.0031306820455938578
1711550525318598000,17.737597900390625,-0.00954476185142994,-0.11308634281158447,-0.04818195849657059
1711550525337557000,17.756556884765626,-0.03153589367866516,-0.06421715766191483,-0.12362375855445862
1711550525356516400,17.775516357421875,-0.05352702736854553,0.020082179456949234,-0.16210824251174927
1711550525375475700,17.794475830078124,-0.06696604937314987,0.09582941234111786,-0.1608865112066269
1711550525394434800,17.813434814453124,-0.04589121788740158,0.09460768103599548,-0.12331832945346832
1711550525413394200,17.832394287109373,-0.014431680552661419,0.02588539570569992,-0.04940368980169296
1711550525432353500,17.851353515625,-0.013209951110184193,-0.06910407543182373,0.025121813639998436
1711550525451312600,17.870312744140627,-0.028787001967430115,-0.10881029069423676,0.07429642975330353
1711550525470272000,17.88927197265625,-0.0553596206009388,-0.10239620506763458,0.09812015295028687
1711550525489231000,17.908231201171876,-0.07368556410074234,-0.07154753804206848,0.10911571979522705
1711550525508190500,17.9271904296875,-0.08132137358188629,-0.0602465383708477,0.1164461001753807
1711550525527149600,17.946149658203126,-0.0657443255186081,-0.05658135190606117,0.10514509677886963
1711550525546109000,17.96510888671875,-0.04864010959863663,-0.05871937796473503,0.08162680268287659
1711550525565068300,17.984068359375,-0.06360629200935364,-0.07002037763595581,0.041004300117492676
1711550525584027400,18.00302734375,-0.07796161621809006,-0.04436405375599861,0.003741546766832471
1711550525602986800,18.02198681640625,-0.06940951198339462,-0.017486004158854485,-0.0295505840331316
1711550525621945900,18.04094580078125,-0.05719221383333206,0.004505127668380737,-0.058566659688949585
1711550525640905200,18.0599052734375,-0.0501672700047493,0.013362666592001915,-0.08422297984361649
1711550525659864600,18.078864501953124,-0.04405862092971802,0.018860450014472008,-0.09827287495136261
1711550525678823700,18.09782373046875,-0.04864010959863663,0.03138317912817001,-0.093691386282444
1711550525697783000,18.116782958984373,-0.04253146052360535,0.04085158184170723,-0.08116865903139114
1711550525716742400,18.135742431640626,-0.04253146052360535,0.03413207083940506,-0.05948295816779137
1711550525735701500,18.154701416015627,-0.06238456442952156,-0.004046979360282421,-0.013668099418282509
1711550525754660900,18.173660888671876,-0.02695440873503685,-0.022067490965127945,0.02328922040760517
1711550525773620200,18.1926201171875,-0.0077121676877141,-0.06452259421348572,0.08254310488700867
1711550525792579300,18.211579345703125,-0.02542724646627903,-0.1014799103140831,0.13538290560245514
1711550525811538700,18.23053857421875,-0.039477135986089706,-0.09445496648550034,0.16042836010456085
1711550525830498000,18.249498046875,-0.03428478538990021,-0.06635518372058868,0.1631772518157959
1711550525849457200,18.26845703125,-0.030925029888749123,-0.0602465383708477,0.15187625586986542
1711550525868416500,18.28741650390625,-0.037033677101135254,-0.06391172856092453,0.13446660339832306
1711550525887375600,18.306375732421873,-0.038560837507247925,-0.06482802331447601,0.08987347781658173
1711550525906335000,18.3253349609375,-0.057497646659612656,-0.04741837829351425,0.040088001638650894
1711550525925294300,18.34429443359375,-0.06330086290836334,-0.04864010959863663,0.011988221667706966
1711550525944253400,18.36325341796875,-0.026648975908756256,-0.04528035223484039,-0.011224640533328056
1711550525963212800,18.382212890625,0.021609341725707054,-0.07154753804206848,-0.01977674663066864
1711550525982172200,18.401172119140625,0.042684175074100494,-0.09445496648550034,-0.020998476073145866
1711550526001131300,18.42013134765625,0.02496909722685814,-0.12316560745239258,-0.012751801870763302
1711550526020090600,18.439090576171875,-0.03581194952130318,-0.08926261961460114,0.00038179047987796366
1711550526039050000,18.458050048828124,-0.06177370250225067,-0.021456625312566757,0.013209951110184193
1711550526058009000,18.477009033203124,-0.014126247726380825,0.011530072428286076,0.0022143847309052944
1711550526076968400,18.495968505859373,0.04634936526417732,0.0035888305865228176,0.004046979360282421
1711550526095927800,18.514927734375,0.07017309218645096,-0.034895651042461395,0.014126247726380825
1711550526114887000,18.533886962890627,0.05001455545425415,-0.029703300446271896,0.015042545273900032
1711550526133846300,18.55284619140625,-0.02328922040760517,0.06345357745885849,-0.027717988938093185
1711550526152805600,18.5718056640625,-0.026648975908756256,0.09094249457120895,-0.05367974191904068
1711550526171764700,18.5907646484375,0.08697187155485153,0.114460788667202,-0.09246965497732162
1711550526190724000,18.60972412109375,0.15263983607292175,0.07444914430379868,-0.1141553521156311
1711550526209683500,18.628683349609375,0.08727730810642242,0.034437503665685654,-0.12392919510602951
1711550526228642600,18.647642578125,0.023747367784380913,0.02283107116818428,-0.11110103130340576
1711550526247602000,18.666601806640625,0.05154171586036682,0.05948295816779137,-0.08300124853849411
1711550526266561000,18.68556103515625,0.10499238222837448,0.09644027799367905,-0.027717988938093185
1711550526285520400,18.704520263671874,0.14805835485458374,0.08452841639518738,0.05810851231217384
1711550526304479700,18.723479736328127,0.11384992301464081,0.1251509189605713,0.11919499188661575
1711550526323438800,18.74243896484375,0.03260490670800209,0.14836378395557404,0.1530979871749878
1711550526342398200,18.761398193359376,0.0322994738817215,0.11843141168355942,0.17050762474536896
1711550526361357600,18.780357666015625,0.09460768103599548,0.07933606207370758,0.1424078494310379
1711550526380316700,18.799316650390626,0.04848739132285118,0.05429060757160187,0.08009964227676392
1711550526399276000,18.818276123046875,-0.1164461001753807,-0.03825540840625763,0.021151192486286163
1711550526418235400,18.8372353515625,-0.15615230798721313,-0.12438733875751495,-0.0029779658652842045
1711550526437194500,18.856194580078125,0.01824958436191082,-0.06604975461959839,-0.03413207083940506
1711550526456153900,18.87515380859375,0.18959715962409973,0.11507165431976318,-0.09063705801963806
1711550526475113200,18.89411328125,0.1401171088218689,0.261984646320343,-0.11507165431976318
1711550526494072300,18.913072265625,-0.08162680268287659,0.3087157905101776,-0.13278673589229584
1711550526513031700,18.93203173828125,-0.19280420243740082,0.17890702188014984,-0.1498909443616867
1711550526531991000,18.950990966796876,-0.05688678100705147,0.030772313475608826,-0.16791145503520966
1711550526550950100,18.9699501953125,0.19814926385879517,0.02802342176437378,-0.1816559135913849
1711550526569909500,18.988909423828126,0.2690095901489258,0.1508072465658188,-0.18684826791286469
1711550526588868900,19.007868896484375,0.06986765563488007,0.26687154173851013,-0.19356778264045715
1711550526607828000,19.026827880859376,-0.11003202199935913,0.22899793088436127,-0.1498909443616867
1711550526626787300,19.045787353515625,-0.03917170315980911,0.16210824251174927,-0.07872519642114639
1711550526645746700,19.06474658203125,0.16241367161273956,0.09918916970491409,-0.043600473552942276
1711550526664705800,19.083705810546874,0.2580140233039856,0.05459604039788246,-0.020693045109510422
1711550526683665000,19.102664794921875,0.170965775847435,0.06925679743289948,0.007406735327094793
1711550526702624300,19.121624267578124,0.06131555140018463,0.09827287495136261,0.08956804871559143
1711550526721583600,19.14058349609375,0.04329504072666168,0.0836121141910553,0.1530979871749878
1711550526740542700,19.159542724609373,0.07200568914413452,-0.033368486911058426,0.13019055128097534
1711550526759502000,19.178502197265626,0.08575014024972916,-0.12774710357189178,0.09170607477426529
1711550526778461400,19.19746142578125,0.10987929999828339,-0.08498656004667282,0.04253146052360535
1711550526797420500,19.216420654296876,0.0836121141910553,0.03107774630188942,0.02023489587008953
1711550526816380000,19.2353798828125,0.03107774630188942,0.14683662354946136,0.012293653562664986
1711550526835339300,19.25433935546875,0.07139482349157333,0.1966221034526825,0.01779143698513508
1711550526854298400,19.27329833984375,0.12759438157081604,0.19509494304656982,-0.004810560029000044
1711550526873257700,19.2922578125,0.10346522182226181,0.09338594973087311,-0.03352120518684387
1711550526892217000,19.311217041015624,0.05215258151292801,-0.03886627033352852,-0.061620984226465225
1711550526911176200,19.33017626953125,0.07078395783901215,-0.09506583213806152,-0.09185878932476044
1711550526930135600,19.349135498046873,0.11598794907331467,-0.09170607477426529,-0.06192641705274582
1711550526949095000,19.368094970703126,0.10224349051713943,-0.03550651669502258,-0.02496909722685814
1711550526968054000,19.387053955078127,0.04634936526417732,0.035964664071798325,0.01107192412018776
1711550526987013000,19.40601318359375,0.024663666263222694,0.015500693581998348,0.07460185885429382
1711550527005972500,19.424972412109376,0.11140646785497665,-0.014126247726380825,0.08804088830947876
1711550527024931800,19.443931884765625,0.19417864084243774,0.014278964139521122,-0.030466880649328232
1711550527043891000,19.462890869140626,0.09033162891864777,-0.022067490965127945,-0.10651954263448715
1711550527062850300,19.481850341796875,-0.06146826967597008,-0.03153589367866516,-0.08727730810642242
1711550527081809700,19.5008095703125,-0.07918334752321243,0.014278964139521122,-0.05917752534151077
1711550527100768800,19.519768798828125,-0.06238456442952156,0.14317142963409424,-0.10254892706871033
1711550527119728000,19.53872802734375,-0.0449749194085598,0.26167920231819153,-0.1764635592699051
1711550527138687200,19.557687255859374,-0.03306305781006813,0.3157407343387604,-0.18287764489650726
1711550527157646600,19.576646484375,-0.053832460194826126,0.27542364597320557,-0.14592032134532928
1711550527176606000,19.59560595703125,-0.06635518372058868,0.17402009665966034,-0.1251509189605713
1711550527195565000,19.61456494140625,-0.003741546766832471,0.11843141168355942,-0.14805835485458374
1711550527214524400,19.6335244140625,0.00511599238961935,0.13187043368816376,-0.16638429462909698
1711550527233483800,19.65248388671875,-0.043142326176166534,0.20731224119663239,-0.1706603467464447
1711550527252443000,19.67144287109375,-0.05719221383333206,0.1807396113872528,-0.10346522182226181
1711550527271402000,19.690402099609376,0.018555017188191414,0.16913318634033203,-0.04787652567028999
1711550527290361300,19.709361328125,0.06772962957620621,0.13828451931476593,0.004352411720901728
1711550527309320700,19.72832080078125,0.023136503994464874,0.13125957548618317,0.021456625312566757
1711550527328279800,19.74727978515625,-0.04222602769732475,0.10987929999828339,0.02695440873503685
1711550527347239200,19.7662392578125,-0.011377356946468353,0.11537708342075348,0.03367391973733902
1711550527366198300,19.7851982421875,0.08452841639518738,0.16974404454231262,-0.0017562361899763346
1711550527385157600,19.80415771484375,0.09063705801963806,0.21067199110984802,-0.023136503994464874
1711550527404117000,19.823116943359373,0.009086613543331623,0.14836378395557404,0.010766491293907166
1711550527423076000,19.842076171875,0.01977674663066864,0.11843141168355942,-0.027717988938093185
1711550527442035200,19.86103515625,0.06559160351753235,0.07994692772626877,-0.08727730810642242
1711550527460994600,19.87999462890625,0.03840812295675278,0.07628174126148224,-0.08575014024972916
1711550527479954000,19.898953857421876,0.03260490670800209,0.11018473654985428,0.04436405375599861
1711550527498913000,19.9179130859375,0.037491824477910995,0.07658717036247253,0.3061196208000183
1711550527517872400,19.936872314453126,0.1453094631433487,0.023441936820745468,0.5364156365394592
1711550527536830700,19.955830810546875,0.3154352903366089,0.0524580143392086,0.5400808453559875
1711550527555790800,19.974790771484376,0.23419028520584106,0.08605557680130005,0.4548651874065399
1711550527574750200,19.993750244140625,0.03413207083940506,0.19387321174144745,0.4191296100616455
1711550527593709300,20.012709228515625,-0.03611737862229347,0.27145302295684814,0.3885863721370697
1711550527612668700,20.031668701171874,0.07200568914413452,0.3242928385734558,0.18700097501277924
1711550527631627800,20.050627685546875,0.08636100590229034,0.18868085741996765,-0.06406444311141968
1711550527650587100,20.069587158203124,-0.08345939964056015,0.05429060757160187,-0.226859912276268
1711550527669546200,20.088546142578124,-0.12438733875751495,-0.026648975908756256,-0.2903898358345032
1711550527688505600,20.107505615234373,-0.0553596206009388,-0.0807105079293251,-0.33162322640419006
1711550527707464700,20.126464599609374,-0.015347977168858051,-0.057497646659612656,-0.3603338599205017
1711550527726424000,20.145424072265627,-0.029397867619991302,0.12026400119066238,-0.4287507236003876
1711550527745383200,20.164383056640624,-0.057497646659612656,0.2787834107875824,-0.4855611324310303
1711550527764342500,20.183342529296876,-0.08987347781658173,0.33712100982666016,-0.49105891585350037
1711550527783302000,20.202302001953125,-0.0859028622508049,0.2946659028530121,-0.4385245442390442
1711550527802261000,20.221260986328126,-0.06268999725580215,0.10499238222837448,-0.34200790524482727
1711550527821220000,20.24022021484375,-0.08376483619213104,-0.14088068902492523,-0.2485456019639969
1711550527840179500,20.259179443359375,-0.12072215229272842,-0.2456440031528473,-0.18990258872509003
1711550527859138600,20.278138671875,-0.12927426397800446,-0.21051926910877228,-0.09674570709466934
1711550527878098000,20.297097900390625,-0.11033745110034943,-0.0965929925441742,0.05413788929581642
1711550527897057300,20.316057373046874,-0.11919499188661575,0.0295505840331316,0.13141228258609772
1711550527916016400,20.335016357421875,-0.07612902671098709,0.07047852128744125,0.16745330393314362
1711550527934975700,20.353975830078124,0.03840812295675278,0.07261654734611511,0.16409355401992798
1711550527953934800,20.372934814453124,0.05062541738152504,0.11659881472587585,0.10697769373655319
1711550527972894000,20.39189404296875,-0.046807512640953064,0.06101011857390404,0.05261072888970375
1711550527991853300,20.410853271484374,-0.16165009140968323,0.008781181648373604,0.027870705351233482
1711550528010812400,20.4298125,-0.18119776248931885,-0.047723811119794846,0.014126247726380825
1711550528029771800,20.448771728515624,-0.131717711687088,-0.10025817900896072,-0.022220205515623093
1711550528048731100,20.467731201171876,-0.12927426397800446,-0.1375209391117096,-0.02741255611181259
1711550528067690200,20.486690185546873,-0.19219332933425903,-0.17081306874752045,-0.008170315995812416
1711550528086649600,20.505649658203126,-0.1986074149608612,-0.15951207280158997,0.04344775900244713
1711550528105608700,20.524608642578126,-0.13813179731369019,-0.14424043893814087,0.0397825688123703
1711550528124567800,20.54356787109375,-0.059024810791015625,-0.13416117429733276,0.040088001638650894
1711550528143527200,20.562527099609376,-0.010766491293907166,-0.09995274990797043,0.0755181610584259
1711550528162486300,20.581486328125,-0.08712458610534668,-0.015958841890096664,0.05994110554456711
1711550528181445600,20.600445556640626,-0.20593778789043427,0.021609341725707054,0.04802924394607544
1711550528200405000,20.619405029296875,-0.2135736048221588,0.05612320080399513,0.0501672700047493
1711550528219364000,20.638364013671875,-0.14973822236061096,0.0023671009112149477,0.022067490965127945
1711550528238323500,20.657323486328124,-0.08926261961460114,-0.025732679292559624,-0.036880962550640106
1711550528257282600,20.676282470703125,-0.053832460194826126,-0.018096869811415672,-0.10743584483861923
1711550528276241700,20.69524169921875,-0.06971494108438492,-0.009850194677710533,-0.12392919510602951
1711550528295201000,20.714200927734375,-0.1170569658279419,0.03260490670800209,-0.12606722116470337
1711550528314160000,20.73316015625,-0.1323285847902298,0.013973532244563103,-0.08544471114873886
1711550528333119500,20.752119384765624,-0.11522436887025833,-0.0025198173243552446,-0.034437503665685654
1711550528352078600,20.77107861328125,-0.09873101860284805,-0.023594651371240616,-0.01000291109085083
1711550528371038000,20.790037841796874,-0.09017891436815262,-0.0553596206009388,0.012904518283903599
1711550528389997000,20.8089970703125,-0.09384410083293915,-0.07429642975330353,0.059024810791015625
1711550528408956400,20.827956298828123,-0.10881029069423676,-0.08315397053956985,0.10453423857688904
1711550528427915500,20.84691552734375,-0.11552979797124863,-0.12499820441007614,0.14698933064937592
1711550528446875000,20.865875,-0.10361793637275696,-0.16684244573116302,0.1989128440618515
1711550528465834000,20.884833984375,-0.05627591907978058,-0.15920662879943848,0.2554178237915039
1711550528484793300,20.90379345703125,-0.0034361144062131643,-0.15584687888622284,0.30398157238960266
1711550528503752400,20.92275244140625,0.02283107116818428,-0.15370884537696838,0.3262781500816345
1711550528522711600,20.941711669921876,-0.009850194677710533,-0.17447824776172638,0.3229183852672577
1711550528541671000,20.9606708984375,-0.034895651042461395,-0.14882193505764008,0.33910632133483887
1711550528560630000,20.979630126953126,-0.01107192412018776,-0.05719221383333206,0.3363574147224426
1711550528579589400,20.99858935546875,-0.0022143847309052944,-0.02542724646627903,0.3064250349998474
1711550528598548500,21.017548583984375,-0.06452259421348572,-0.013209951110184193,0.2554178237915039
1711550528617507800,21.0365078125,-0.10514509677886963,0.01611155830323696,0.22090397775173187
1711550528636467000,21.055467041015625,-0.0807105079293251,-0.03306305781006813,0.22182027995586395
1711550528655426300,21.07442626953125,-0.004046979360282421,-0.06452259421348572,0.25358524918556213
1711550528674385400,21.093385498046874,0.14133884012699127,-0.12163844704627991,0.22365286946296692
1711550528693344800,21.1123447265625,0.17829616367816925,-0.2874882221221924,0.2251800298690796
1711550528712303900,21.131303955078124,0.08086322247982025,-0.40721774101257324,0.2300669401884079
1711550528731263200,21.15026318359375,0.03962985426187515,-0.4059959948062897,0.24594943225383759
1711550528750222300,21.169222412109374,0.04787652567028999,-0.3125337064266205,0.2599993348121643
1711550528769181700,21.188181640625,0.07139482349157333,-0.17692171037197113,0.2297615110874176
1711550528788140800,21.207140869140623,0.06620246917009354,-0.1014799103140831,0.17478369176387787
1711550528807100000,21.226099853515624,0.028634287416934967,-0.05169443041086197,0.13843722641468048
1711550528826059300,21.245059326171877,0.035964664071798325,-0.03428478538990021,0.116751529276371
1711550528845018400,21.264018310546874,0.10499238222837448,-0.116751529276371,0.061162836849689484
1711550528863977700,21.282977783203126,0.16699515283107758,-0.25938844680786133,0.01107192412018776
1711550528882937000,21.30193701171875,0.18806999921798706,-0.3427715003490448,-0.039018988609313965
1711550528901896200,21.320896240234376,0.14408773183822632,-0.3366628587245941,-0.04909825697541237
1711550528920855300,21.339855224609376,0.10315979272127151,-0.22792892158031464,-0.05367974191904068
1711550528939814700,21.358814697265625,0.07017309218645096,-0.06177370250225067,-0.02283107116818428
1711550528958773800,21.377773681640626,0.020387612283229828,0.06528617441654205,0.03306305781006813
1711550528977733000,21.396733154296875,-0.025121813639998436,0.06711876392364502,0.06788235157728195
1711550528996692200,21.415692138671876,-0.0025198173243552446,0.011530072428286076,0.10728313028812408
1711550529015651600,21.434651611328125,0.03168861195445061,-0.0397825688123703,0.13538290560245514
1711550529034610700,21.453610595703125,0.04940368980169296,-0.06177370250225067,0.14546217024326324
1711550529053570000,21.472570068359374,0.057955797761678696,-0.04130972921848297,0.09873101860284805
1711550529072529200,21.491529052734375,0.050930850207805634,0.009392046369612217,0.005574141163378954
1711550529091488500,21.510488525390624,0.04329504072666168,0.01824958436191082,-0.06039925664663315
1711550529110447600,21.529447509765625,0.0005345066892914474,0.013668099418282509,-0.08636100590229034
1711550529129407000,21.548406982421874,0.004505127668380737,0.045738499611616135,-0.114460788667202
1711550529148366000,21.567365966796874,0.046654798090457916,0.08300124853849411,-0.13217586278915405
1711550529167325400,21.586325439453127,0.06375901401042938,0.10682497918605804,-0.12087486684322357
1711550529186284500,21.605284423828124,0.07261654734611511,0.0884990319609642,-0.08544471114873886
1711550529205244000,21.624243896484376,0.08116865903139114,0.021609341725707054,-0.05948295816779137
1711550529224203000,21.643203125,0.08177952468395233,-0.08407026529312134,-0.013057234697043896
1711550529243162400,21.662162353515626,0.09094249457120895,-0.13080142438411713,0.04222602769732475
1711550529262121500,21.68112158203125,0.11598794907331467,-0.10361793637275696,0.06421715766191483
1711550529281080800,21.700080810546876,0.10132719576358795,-0.05352702736854553,0.06330086290836334
1711550529300040000,21.7190400390625,0.062537282705307,-0.0006872228696011007,0.0501672700047493
1711550529318999300,21.737999267578125,0.02283107116818428,-0.009850194677710533,0.027870705351233482
1711550529337958700,21.756958740234374,0.008170315995812416,-0.047723811119794846,-0.011224640533328056
1711550529356917800,21.775917724609375,0.013362666592001915,-0.0709366723895073,-0.043600473552942276
1711550529375876900,21.794876953125,0.02649625949561596,-0.07124210149049759,-0.06375901401042938
1711550529394836200,21.813836181640625,0.03535379841923714,-0.02390008419752121,-0.0732274129986763
1711550529413795300,21.83279541015625,0.02283107116818428,0.03627009689807892,-0.06650790572166443
1711550529432754700,21.851754638671874,-0.004046979360282421,0.047265663743019104,-0.03504836559295654
1711550529451714000,21.870714111328127,-0.0006872228696011007,0.02802342176437378,0.021151192486286163
1711550529470673200,21.889673095703124,-0.0012980876490473747,-0.07857248187065125,0.07704532146453857
1711550529489632500,21.908632568359376,0.02283107116818428,-0.12316560745239258,0.08743002265691757
1711550529508591600,21.927591552734373,0.03779725730419159,-0.13110685348510742,0.08987347781658173
1711550529527551000,21.946551025390626,-0.00007635809743078426,-0.08376483619213104,0.07918334752321243
1711550529546510000,21.965510009765627,-0.03581194952130318,-0.050778135657310486,0.0550541877746582
1711550529565469400,21.984469482421876,-0.030314164236187935,-0.04130972921848297,0.022678354755043983
1711550529584428500,22.003428466796876,-0.011377356946468353,-0.03550651669502258,-0.013668099418282509
1711550529603388000,22.022387939453125,-0.008017600513994694,-0.024510949850082397,-0.0527634471654892
1711550529622347000,22.041346923828126,-0.029703300446271896,-0.010155626572668552,-0.08636100590229034
1711550529641306400,22.060306396484375,-0.05719221383333206,0.012140937149524689,-0.10102175921201706
1711550529660265700,22.079265625,-0.06085740402340889,0.020387612283229828,-0.09552398324012756
1711550529679224800,22.098224853515624,-0.027259841561317444,0.03871355578303337,-0.10010546445846558
1711550529698184200,22.11718408203125,-0.002825249684974551,0.03932442143559456,-0.10346522182226181
1711550529717143300,22.136143310546874,-0.03000873140990734,0.042684175074100494,-0.09552398324012756
1711550529736102700,22.1551025390625,-0.07490729540586472,0.035964664071798325,-0.07139482349157333
1711550529755061800,22.174061767578124,-0.08407026529312134,0.006948587018996477,-0.041157014667987823
1711550529774021000,22.193021240234376,-0.06635518372058868,-0.025732679292559624,-0.014278964139521122
1711550529792980200,22.211980224609373,-0.02909243479371071,-0.059635672718286514,0.02542724646627903
1711550529811939600,22.230939697265626,-0.021456625312566757,-0.05169443041086197,0.04741837829351425
1711550529830899000,22.24989892578125,-0.049861837178468704,-0.041004300117492676,0.07338013499975204
1711550529849858000,22.268858154296876,-0.06330086290836334,-0.037033677101135254,0.08284853398799896
1711550529868817400,22.2878173828125,-0.07979421317577362,-0.03214675933122635,0.06421715766191483
1711550529887776800,22.30677685546875,-0.09384410083293915,-0.03061959706246853,0.052916161715984344
1711550529906735900,22.32573583984375,-0.04894553869962692,-0.008323032408952713,0.015958841890096664
1711550529925695200,22.3446953125,-0.03367391973733902,0.015806125476956367,-0.011530072428286076
1711550529944654300,22.363654296875,-0.07490729540586472,0.030772313475608826,-0.0371863916516304
1711550529963613700,22.38261376953125,-0.0910952091217041,0.0319940410554409,-0.06650790572166443
1711550529982572800,22.40157275390625,-0.081015944480896,0.04787652567028999,-0.0888044685125351
1711550530001532200,22.4205322265625,-0.07704532146453857,0.0524580143392086,-0.08819360285997391
1711550530020491500,22.439491455078127,-0.06452259421348572,0.04146244749426842,-0.06772962957620621
1711550530039450600,22.45845068359375,-0.05169443041086197,0.01763872057199478,-0.05215258151292801
1711550530058410000,22.477409912109376,-0.0703258067369461,0.017027854919433594,-0.03474293276667595
1711550530077369000,22.496369140625,-0.08926261961460114,0.058566659688949585,-0.032910339534282684
1711550530096328400,22.515328369140626,-0.091400645673275,0.13309216499328613,-0.057955797761678696
1711550530115287800,22.534287841796875,-0.10942115634679794,0.20273074507713318,-0.07078395783901215
1711550530134247000,22.553246826171875,-0.12408190965652466,0.284586638212204,-0.07506000995635986
1711550530153206300,22.572206298828124,-0.1066722646355629,0.3762163519859314,-0.042073313146829605
1711550530172165600,22.59116552734375,-0.10789398849010468,0.41470083594322205,0.00007635809743078426
1711550530191124700,22.610124755859374,-0.13935352861881256,0.33192864060401917,0.02848157100379467
1711550530210084000,22.629083984375,-0.11217004805803299,0.16210824251174927,0.04039343446493149
1711550530229043500,22.64804345703125,-0.0077121676877141,0.024052800610661507,0.02390008419752121
1711550530248002600,22.66700244140625,0.07231111824512482,-0.006185005884617567,-0.003283398225903511
1711550530266962000,22.6859619140625,0.05917752534151077,0.033826638013124466,-0.06345357745885849
1711550530285921300,22.70492138671875,-0.030314164236187935,0.02588539570569992,-0.12301289290189743
1711550530304880400,22.72388037109375,-0.04283689334988594,0.07567087560892105,-0.17493639886379242
1711550530323839700,22.74283984375,0.021914774551987648,0.10041090101003647,-0.20273074507713318
1711550530342798800,22.761798828125,0.007254019379615784,0.09002619981765747,-0.15935935080051422
1711550530361758200,22.78075830078125,-0.030314164236187935,0.04176788032054901,-0.1196531355381012
1711550530380717600,22.799717529296874,-0.015042545273900032,-0.07429642975330353,-0.0631481483578682
1711550530399676700,22.8186767578125,0.025274530053138733,-0.12255474925041199,-0.003283398225903511
1711550530418636000,22.837635986328124,0.05978839099407196,-0.059635672718286514,0.04650207981467247
1711550530437595400,22.856595458984376,0.029856016859412193,0.027107125148177147,0.09567669779062271
