time,seconds_elapsed,z,y,x
1711072661629209600,0.147209716796875,4.645665168762207,5.484349727630615,4.59421968460083
1711072661648168400,0.16616845703125,4.508078098297119,6.009573936462402,4.942375183105469
1711072661667127300,0.185127197265625,4.179064750671387,6.168696880340576,5.258227825164795
1711072661686086100,0.204086181640625,3.025724172592163,8.264809608459473,5.986842155456543
1711072661705045000,0.223044921875,3.700500249862671,6.189035892486572,5.318048477172852
1711072661724003800,0.24200390625,3.9218363761901855,6.928418159484863,6.178267955780029
1711072661742963000,0.260962890625,3.9314076900482178,7.23589563369751,6.376872539520264
1711072661761921800,0.279921875,3.3954153060913086,7.696514129638672,5.684150218963623
1711072661780880600,0.298880615234375,2.8701908588409424,7.521838188171387,6.16271448135376
1711072661799839500,0.317839599609375,2.3294129371643066,8.22293472290039,6.337390899658203
1711072661818798300,0.33679833984375,2.3401806354522705,8.203792572021484,6.565905570983887
1711072661837757200,0.355757080078125,1.9250258207321167,8.194221496582031,6.534798622131348
1711072661856716000,0.374716064453125,1.7359927892684937,8.279166221618652,5.996413707733154
1711072661875675000,0.3936748046875,1.5254244804382324,8.423932075500488,5.669793128967285
1711072661894633700,0.4126337890625,1.196411371231079,9.046066284179688,5.582455158233643
1711072661913592600,0.431592529296875,0.8662018179893494,9.212367057800293,5.401797294616699
1711072661932551400,0.450551513671875,0.5850451588630676,9.639486312866211,5.613562107086182
1711072661951510300,0.46951025390625,0.6305087804794312,9.753145217895508,5.840879917144775
1711072661970469000,0.48846923828125,0.7549355626106262,10.436295509338379,5.682953834533691
1711072661989428000,0.507427978515625,0.9475577473640442,10.949556350708008,5.48793888092041
1711072662008386800,0.52638671875,0.7130611538887024,10.876575469970703,5.100301265716553
1711072662027345700,0.545345703125,0.3409772217273712,10.935199737548828,4.95074987411499
1711072662046304500,0.564304443359375,0.1579262912273407,10.63968563079834,4.937589645385742
1711072662065263400,0.583263427734375,0.5407779216766357,9.890732765197754,5.0356950759887695
1711072662084222200,0.60222216796875,0.8207381963729858,9.166903495788574,5.248656272888184
1711072662103181000,0.62118115234375,0.9320043921470642,8.80798053741455,5.645864963531494
1711072662122140000,0.640139892578125,1.4847464561462402,8.776873588562012,4.9986066818237305
1711072662141098800,0.6590986328125,1.911865234375,8.367700576782227,5.023731231689453
1711072662160057600,0.6780576171875,2.8354947566986084,8.273183822631836,4.491328239440918
1711072662179016700,0.6970166015625,2.3030917644500732,7.694121360778809,3.22552490234375
1711072662197975600,0.7159755859375,2.3617160320281982,7.308876991271973,3.260220766067505
1711072662216934400,0.734934326171875,2.335394859313965,7.051648139953613,2.8677978515625
1711072662235893200,0.753893310546875,2.2540390491485596,6.839883327484131,3.696911096572876
1711072662254852000,0.77285205078125,1.765903115272522,6.464210510253906,4.893322467803955
1711072662273811000,0.79181103515625,1.719243049621582,6.318248271942139,5.72123908996582
1711072662292769800,0.810769775390625,1.8508483171463013,6.206982135772705,6.425925254821777
1711072662311728600,0.829728759765625,1.7395820617675781,5.997610092163086,7.375875949859619
1711072662330687700,0.848687744140625,1.6474584341049194,6.232106685638428,8.522037506103516
1711072662349646600,0.867646484375,1.581655740737915,6.374479293823242,9.739984512329102
1711072662368605400,0.88660546875,1.734796404838562,5.499902725219727,10.441082000732422
1711072662387564300,0.905564208984375,1.6737794876098633,4.551148891448975,10.788041114807129
1711072662406523100,0.924523193359375,1.7012969255447388,4.543970108032227,10.425528526306152
1711072662425482000,0.94348193359375,1.3351950645446777,4.291527271270752,8.849854469299316
1711072662444441000,0.962441162109375,0.6137589812278748,3.4121651649475098,8.438288688659668
1711072662463400000,0.98139990234375,0.5838487148284912,3.2506494522094727,8.823533058166504
1711072662482358800,1.00035888671875,1.0683952569961548,4.459024906158447,10.336994171142578
1711072662501317600,1.019317626953125,1.8556339740753174,4.235296249389648,10.378868103027344
1711072662520276500,1.0382763671875,2.3030917644500732,3.4851462841033936,9.084351539611816
1711072662539235600,1.057235595703125,1.5254244804382324,3.5784661769866943,9.111868858337402
1711072662558194400,1.0761943359375,1.062413215637207,3.865604877471924,9.942177772521973
1711072662577153300,1.0951533203125,1.545763373374939,3.001796007156372,9.851250648498535
1711072662596112100,1.114112060546875,1.1820544004440308,2.5782663822174072,9.058030128479004
1711072662615071000,1.133071044921875,0.4534398913383484,2.8797619342803955,8.621339797973633
1711072662634030000,1.152030029296875,0.763310432434082,2.682354211807251,8.59621524810791
1711072662652989000,1.170989013671875,0.7489534616470337,2.3054845333099365,8.781659126281738
1711072662671947800,1.18994775390625,0.2392822653055191,2.59621262550354,9.164510726928711
1711072662690907000,1.208906982421875,0.641276478767395,2.414358139038086,9.050851821899414
1711072662709865700,1.22786572265625,1.057627558708191,1.9226330518722534,8.390432357788086
1711072662728824600,1.246824462890625,0.6508477330207825,2.421536445617676,8.928817749023438
1711072662747783400,1.265783447265625,0.8745766878128052,2.4287149906158447,10.066604614257812
1711072662766742500,1.284742431640625,1.4177473783493042,2.152343988418579,10.526026725769043
1711072662785701400,1.303701416015625,1.2598211765289307,2.376072883605957,10.198209762573242
1711072662804660200,1.32266015625,0.8626125454902649,2.688336133956909,10.097711563110352
1711072662823619000,1.341619140625,0.6149554252624512,2.7661030292510986,9.93260669708252
1711072662842578000,1.360577880859375,0.6221339106559753,2.6057839393615723,9.270991325378418
1711072662861537000,1.379537109375,0.8626125454902649,2.2121646404266357,8.218149185180664
1711072662880495900,1.398495849609375,0.5647061467170715,2.555534601211548,7.160521984100342
1711072662899454700,1.417454833984375,0.3840480446815491,2.5746772289276123,7.427321434020996
1711072662918413800,1.436413818359375,1.179661512374878,2.4717857837677,8.4502534866333
1711072662937372700,1.45537255859375,1.0037890672683716,3.2745778560638428,10.090533256530762
1711072662956331500,1.47433154296875,1.00259268283844,2.991028308868408,11.178071022033691
1711072662975290600,1.49329052734375,1.2849457263946533,2.128415822982788,10.585846900939941
1711072662994249500,1.51224951171875,-0.19381862878799438,2.372483730316162,9.503094673156738
1711072663013208300,1.531208251953125,-1.3004990816116333,2.913261651992798,9.074779510498047
1711072663032167400,1.55016748046875,-0.48095735907554626,2.6608188152313232,8.85942554473877
1711072663051126300,1.569126220703125,0.33379876613616943,2.5674986839294434,10.074979782104492
1711072663070085000,1.588085205078125,0.8662018179893494,2.8223342895507812,10.53200912475586
1711072663089044000,1.6070439453125,1.1330015659332275,2.551945447921753,10.39083194732666
1711072663108003000,1.626003173828125,1.1545369625091553,2.9072794914245605,9.899106979370117
1711072663126962000,1.6449619140625,1.4464613199234009,3.2231321334838867,9.650253295898438
1711072663145921000,1.663921142578125,1.5254244804382324,2.8833513259887695,9.373882293701172
1711072663164880000,1.6828798828125,1.4943177700042725,2.7361927032470703,8.71346378326416
1711072663183838700,1.701838623046875,1.6307085752487183,2.572284460067749,8.671588897705078
1711072663202797800,1.7207978515625,1.573280930519104,2.8103702068328857,9.038887977600098
1711072663221756700,1.739756591796875,1.31365966796875,2.59621262550354,8.907281875610352
1711072663240715500,1.758715576171875,1.0193424224853516,1.8759729862213135,8.277970314025879
1711072663259674400,1.77767431640625,0.5467599630355835,1.8137595653533936,8.14516830444336
1711072663278633500,1.796633544921875,0.4091726839542389,2.4765713214874268,8.682356834411621
1711072663297592300,1.81559228515625,0.6675975322723389,2.8139593601226807,9.389435768127441
1711072663316551400,1.834551513671875,1.1617153882980347,2.1822543144226074,9.66102123260498
1711072663335510300,1.85351025390625,1.2047861814498901,2.531606435775757,9.393025398254395
1711072663354469400,1.872469482421875,0.8003991842269897,3.2518460750579834,8.563912391662598
1711072663373428200,1.89142822265625,0.6879364848136902,2.9108686447143555,8.425128936767578
1711072663392387000,1.910386962890625,0.8279166221618652,2.8773691654205322,9.128618240356445
1711072663411346200,1.92934619140625,1.0396814346313477,3.4337005615234375,9.480362892150879
1711072663430305000,1.948304931640625,1.1617153882980347,4.00319242477417,9.001798629760742
1711072663449263900,1.967263916015625,1.8508483171463013,3.6813576221466064,8.560322761535645
1711072663468223000,1.986222900390625,2.33180570602417,3.053241729736328,7.452445983886719
1711072663487181800,2.005181884765625,1.526620864868164,3.5509488582611084,7.217949390411377
1711072663506141000,2.024140869140625,1.2430713176727295,4.707878589630127,8.056633949279785
1711072663525099800,2.043099853515625,1.5302101373672485,5.630311489105225,7.903493404388428
1711072663544059000,2.062058837890625,1.9262222051620483,5.836094379425049,7.816154956817627
1711072663563017700,2.081017822265625,1.3244273662567139,5.698507308959961,7.51585578918457
1711072663581976600,2.0999765625,1.4656038284301758,6.424728870391846,8.23968505859375
1711072663600935700,2.118935791015625,1.7802600860595703,7.22034215927124,9.365508079528809
1711072663619894500,2.13789453125,1.8089739084243774,7.287341594696045,9.470791816711426
1711072663638853600,2.156853515625,1.7778671979904175,6.413960933685303,10.055837631225586
1711072663657812500,2.1758125,2.30069899559021,5.583651542663574,10.194621086120605
1711072663676771600,2.194771484375,2.8893332481384277,5.335994720458984,9.284152030944824
1711072663695730400,2.21373046875,3.1130621433258057,5.151747226715088,9.177671432495117
1711072663714689300,2.232689208984375,2.774477958679199,4.593023300170898,8.518448829650879
1711072663733648400,2.2516484375,1.6067804098129272,4.067798614501953,7.829315662384033
1711072663752607200,2.270607177734375,0.5623133182525635,5.213960647583008,7.53858757019043
1711072663771566300,2.28956640625,0.7322037220001221,6.97986364364624,7.1162543296813965
1711072663790525200,2.308525146484375,1.94297194480896,7.11146879196167,7.569694519042969
1711072663809484300,2.327484375,2.334198474884033,6.288337707519531,8.380861282348633
1711072663828443100,2.346443115234375,2.2205393314361572,6.49770975112915,8.675178527832031
1711072663847402200,2.36540234375,1.5517455339431763,6.449853420257568,7.630711555480957
1711072663866361000,2.384361083984375,0.5623133182525635,6.837490558624268,6.045466423034668
1711072663885320200,2.4033203125,0.4462614357471466,8.608179092407227,5.8851470947265625
1711072663904279000,2.422279052734375,1.3184453248977661,9.56889820098877,6.592226505279541
1711072663923238100,2.441238037109375,2.4837498664855957,8.831908226013184,7.512266635894775
1711072663942197000,2.460197021484375,4.718646049499512,8.240880966186523,8.737391471862793
1711072663961155800,2.47915576171875,2.447857618331909,8.338987350463867,9.647860527038574
1711072663980115000,2.498114990234375,0.698704183101654,8.358129501342773,8.303094863891602
1711072663999074000,2.517073974609375,2.115255117416382,7.617550849914551,5.962913990020752
1711072664018033000,2.536032958984375,2.084148406982422,6.498906135559082,4.242474555969238
1711072664036992000,2.554991943359375,2.4263222217559814,6.492924213409424,3.5712878704071045
1711072664055950800,2.573950927734375,3.0317063331604004,7.395018577575684,3.9661035537719727
1711072664074909700,2.59290966796875,3.7052857875823975,7.922635555267334,6.317051887512207
1711072664093868800,2.611868896484375,4.230510234832764,7.0923261642456055,8.37846851348877
1711072664112828000,2.630827880859375,3.2578279972076416,6.245266914367676,8.571090698242188
1711072664131786800,2.649786865234375,2.0446670055389404,5.799005508422852,7.122236728668213
1711072664150745900,2.668745849609375,1.4799607992172241,6.56829833984375,6.011966705322266
1711072664169704700,2.68770458984375,1.3124631643295288,7.983652591705322,5.746363639831543
1711072664188663800,2.706663818359375,1.566102385520935,7.714460372924805,5.54177713394165
1711072664207622700,2.72562255859375,3.1621150970458984,6.052644729614258,4.657629489898682
1711072664226581800,2.744581787109375,4.009174346923828,5.531009674072266,5.212764263153076
1711072664245540600,2.76354052734375,4.226921081542969,6.067001819610596,6.153143405914307
1711072664264499700,2.782499755859375,3.8189449310302734,6.591030120849609,6.235695838928223
1711072664283458600,2.80145849609375,3.889533281326294,6.019145488739014,5.552545070648193
1711072664302417700,2.820417724609375,3.8799619674682617,5.994020938873291,5.264209747314453
1711072664321376500,2.83937646484375,3.87876558303833,5.946164131164551,5.161318302154541
1711072664340335600,2.858335693359375,3.9182469844818115,5.927021503448486,5.024927616119385
1711072664359294500,2.87729443359375,4.040280818939209,5.800201892852783,4.807180881500244
1711072664378253600,2.896253662109375,4.012763500213623,5.458028316497803,4.071387767791748
1711072664397212400,2.91521240234375,3.8943188190460205,5.382654666900635,3.8213376998901367
1711072664416171500,2.934171630859375,4.037888050079346,5.706881999969482,4.340580463409424
1711072664435130600,2.953130615234375,4.067798614501953,6.180660724639893,4.566701889038086
1711072664454089500,2.97208935546875,4.146761417388916,6.555137634277344,4.588237285614014
1711072664473048600,2.991048583984375,4.392025947570801,6.727420806884766,5.033302307128906
1711072664492007400,3.01000732421875,4.7473602294921875,7.188039302825928,6.000002861022949
1711072664510966500,3.028966552734375,5.79780912399292,7.7455668449401855,6.880561351776123
1711072664529925400,3.04792529296875,7.038487911224365,9.31166934967041,7.451249599456787
1711072664548884500,3.066884521484375,8.014759063720703,10.522438049316406,8.38684368133545
1711072664567843300,3.08584326171875,8.904889106750488,10.269994735717773,8.330612182617188
1711072664586802400,3.104802490234375,10.87298583984375,10.898110389709473,8.827122688293457
1711072664605761500,3.123761474609375,10.357333183288574,12.138789176940918,9.494720458984375
1711072664624720400,3.142720458984375,10.326226234436035,10.704292297363281,8.86660385131836
1711072664643679500,3.161679443359375,11.58126163482666,9.961320877075195,8.72183895111084
1711072664662638300,3.180638427734375,13.016955375671387,10.785648345947266,9.456435203552246
1711072664681597400,3.199597412109375,12.459427833557129,8.780462265014648,7.786244869232178
1711072664700556300,3.218556396484375,10.0343017578125,6.631708145141602,5.818148136138916
1711072664719515400,3.237515380859375,6.892525672912598,3.2650065422058105,4.171886444091797
1711072664738474500,3.256474609375,5.623133182525635,1.7060825824737549,4.145565032958984
1711072664757433300,3.275433349609375,5.058426856994629,1.6474584341049194,3.8727834224700928
1711072664776392400,3.294392333984375,5.921039581298828,2.20737886428833,3.263810157775879
1711072664795351300,3.313351318359375,6.897311210632324,1.7647067308425903,2.779263496398926
1711072664814310400,3.332310302734375,7.727620601654053,1.852044701576233,1.8005990982055664
1711072664833269500,3.35126953125,6.866204738616943,2.612962245941162,0.6711867451667786
1711072664852228400,3.370228271484375,5.554937839508057,3.572484254837036,0.5623133182525635
1711072664871187200,3.389187255859375,5.9509501457214355,3.1788649559020996,1.7312071323394775
1711072664890146300,3.408146240234375,5.423332691192627,3.6777684688568115,4.094119548797607
1711072664909105400,3.42710546875,6.472585201263428,3.239881753921509,5.140979290008545
1711072664928064300,3.446064208984375,6.484549522399902,3.146561861038208,4.60139799118042
1711072664947023400,3.4650234375,7.635497093200684,3.280559778213501,3.562912940979004
1711072664965982200,3.483982177734375,7.746763229370117,4.3310089111328125,2.33180570602417
1711072664984941300,3.50294140625,5.314459323883057,6.098108291625977,2.287538528442383
1711072665003900400,3.521900390625,5.395814895629883,5.643472194671631,2.4885356426239014
1711072665022859300,3.540859375,6.004788398742676,4.247260093688965,2.65842604637146
1711072665041818400,3.559818359375,6.656832695007324,4.063013076782227,2.5160529613494873
1711072665060777200,3.578777099609375,6.799205780029297,4.8191447257995605,1.8664016723632812
1711072665079736300,3.597736328125,6.090929985046387,5.193621635437012,1.0863415002822876
1711072665098695400,3.6166953125,5.344369411468506,5.536991596221924,0.8889335989952087
1711072665117654300,3.635654296875,5.160121917724609,6.10169792175293,0.9619147181510925
1711072665136613400,3.65461328125,5.270191669464111,6.564708709716797,0.7920243144035339
1711072665155572500,3.673572509765625,5.8683977127075195,6.063412666320801,0.6484549641609192
1711072665174531300,3.69253125,5.8133625984191895,5.832505226135254,0.26919254660606384
1711072665193490400,3.711490478515625,4.579862594604492,6.546762943267822,0.3122633695602417
1711072665212449300,3.73044921875,5.30129861831665,6.111268997192383,1.2478569746017456
1711072665231408400,3.749408447265625,5.825326919555664,6.449853420257568,1.4081761837005615
1711072665250367500,3.768367431640625,6.129215240478516,6.646064758300781,1.4859428405761719
1711072665269326300,3.787326416015625,6.149554252624512,6.796812534332275,2.2133610248565674
1711072665288285400,3.806285400390625,6.20219612121582,6.991827964782715,2.4885356426239014
1711072665307244300,3.825244384765625,6.173482418060303,6.9104719161987305,2.7254250049591064
1711072665326203400,3.844203369140625,6.398407936096191,7.496713161468506,2.9216363430023193
1711072665345162500,3.86316259765625,6.57547664642334,8.153543472290039,2.664407968521118
1711072665364121300,3.882121337890625,6.156732559204102,9.266205787658691,2.2648067474365234
1711072665383080400,3.90108056640625,5.72123908996582,8.191828727722168,2.187039852142334
1711072665402039600,3.92003955078125,6.957131862640381,7.221538543701172,1.6965112686157227
1711072665420998400,3.938998291015625,6.757331371307373,7.47637414932251,1.679761528968811
1711072665439957500,3.95795751953125,5.730810165405273,7.501499176025391,1.755135416984558
1711072665458916400,3.976916259765625,5.296513080596924,7.420143127441406,1.466800332069397
1711072665477875500,3.99587548828125,4.864608287811279,8.140382766723633,1.0959128141403198
1711072665496834600,4.01483447265625,5.111069202423096,7.77188777923584,1.5541383028030396
1711072665515793400,4.03379345703125,5.069194793701172,7.312466144561768,1.0839486122131348
1711072665534752500,4.05275244140625,4.816751956939697,7.359126091003418,0.4007977843284607
1711072665553711400,4.07171142578125,4.449453830718994,7.8077802658081055,-0.1782652884721756
1711072665572670500,4.09067041015625,4.157529354095459,8.443074226379395,-0.6185446381568909
1711072665591629600,4.109629638671875,2.7050859928131104,9.022137641906738,-1.5828521251678467
1711072665610588700,4.128588623046875,3.3571300506591797,8.717052459716797,-1.3938192129135132
1711072665629547500,4.147547607421875,4.106083869934082,8.189435958862305,-1.2035897970199585
1711072665648506600,4.166506591796875,4.3752760887146,7.932207107543945,-1.2813565731048584
1711072665667465500,4.185465576171875,3.589233875274658,8.151150703430176,-1.8137595653533936
1711072665686424600,4.204424560546875,4.3417768478393555,7.746763229370117,-1.6366907358169556
1711072665705383700,4.2233837890625,5.107480049133301,7.733603000640869,-0.40319061279296875
1711072665724342500,4.242342529296875,4.7126641273498535,8.075776100158691,-0.4498506486415863
1711072665743301600,4.261301513671875,4.743771076202393,9.395418167114258,-0.10169496387243271
1711072665762260700,4.2802607421875,5.532206058502197,9.891928672790527,0.4295116662979126
1711072665781219600,4.299219482421875,6.452246189117432,10.999805450439453,1.1150553226470947
1711072665800178700,4.3181787109375,7.328019142150879,12.727423667907715,1.7216359376907349
1711072665819137800,4.3371376953125,7.424928665161133,12.031112670898438,1.6582261323928833
1711072665838096600,4.3560966796875,6.428318023681641,8.352147102355957,1.9106688499450684
1711072665857055700,4.3750556640625,4.597808837890625,5.891129493713379,3.2446675300598145
1711072665876014600,4.3940146484375,3.9732820987701416,6.107679843902588,4.651647090911865
1711072665894973700,4.4129736328125,4.49252462387085,5.667400360107422,6.113661766052246
1711072665913932800,4.431932861328125,5.67338228225708,4.8191447257995605,5.9784674644470215
1711072665932892000,4.450891845703125,5.60399055480957,4.101297855377197,5.1565327644348145
1711072665951850800,4.469850830078125,4.734199523925781,3.9828531742095947,4.911268711090088
1711072665970809900,4.488809814453125,3.1178479194641113,4.232903480529785,5.168497085571289
1711072665989769000,4.50776904296875,2.2061824798583984,4.274777889251709,5.358726501464844
1711072666008727800,4.526727783203125,1.8807586431503296,4.382454872131348,6.2775702476501465
1711072666027687000,4.54568701171875,2.1296122074127197,4.9531426429748535,8.120043754577637
1711072666046645800,4.564645751953125,2.080559253692627,5.276174068450928,9.365508079528809
1711072666065604900,4.58360498046875,2.0985054969787598,5.154139995574951,9.109476089477539
1711072666084564000,4.60256396484375,1.820937991142273,4.681557655334473,7.60080099105835
1711072666103522800,4.621522705078125,1.2454642057418823,4.249652862548828,6.667600154876709
1711072666122482000,4.64048193359375,0.8171489238739014,5.422136306762695,7.907082557678223
1711072666141441000,4.65944091796875,1.423729419708252,5.511867046356201,10.02712345123291
1711072666160400100,4.678400146484375,2.678765058517456,5.126622676849365,11.335997581481934
1711072666179359000,4.69735888671875,2.720639228820801,4.840680122375488,11.13619613647461
1711072666198318000,4.716318115234375,1.5948163270950317,5.338387489318848,11.83011531829834
1711072666217277200,4.735277099609375,1.168893814086914,5.014159679412842,11.326425552368164
1711072666236236000,4.754236083984375,0.5694918036460876,4.628915309906006,9.762716293334961
1711072666255195100,4.773195068359375,-0.589830756187439,4.40757942199707,8.928817749023438
1711072666274154000,4.792154052734375,-0.5850451588630676,3.8572301864624023,8.928817749023438
1711072666293113000,4.811113037109375,0.031106693670153618,2.8689942359924316,9.138189315795898
1711072666312072200,4.830072265625,0.3577269911766052,2.537588357925415,9.795019149780273
1711072666331031000,4.849031005859375,0.4378865361213684,2.6297121047973633,10.258030891418457
1711072666349990100,4.867990234375,0.15194423496723175,2.583052158355713,9.890732765197754
1711072666368949200,4.88694921875,-0.3696911036968231,2.3976082801818848,9.243474006652832
1711072666387908400,4.905908447265625,-0.8267202377319336,2.3222343921661377,9.131011009216309
1711072666406867200,4.9248671875,-0.7573283910751343,2.3222343921661377,9.09990406036377
1711072666425826300,4.943826416015625,-0.5335994362831116,1.9094724655151367,8.82114028930664
1711072666444785400,4.962785400390625,-0.9978070259094238,1.6211373805999756,8.292326927185059
1711072666463744300,4.981744140625,-1.0636097192764282,1.3962119817733765,8.593822479248047
1711072666482703400,5.000703369140625,-0.8027920126914978,1.4476577043533325,8.95513916015625
1711072666501662500,5.019662353515625,-0.7812566161155701,1.211964726448059,9.184849739074707
1711072666520621300,5.038621337890625,-0.5467599630355835,0.9379864931106567,10.186245918273926
1711072666539580400,5.057580322265625,-0.5084748268127441,1.1772687435150146,10.730612754821777
1711072666558539300,5.076539306640625,-0.4701896607875824,1.451246976852417,10.920842170715332
1711072666577498400,5.095498291015625,-0.09212367236614227,1.0612168312072754,11.625529289245605
1711072666596457500,5.11445751953125,-0.259621262550354,0.6376872062683105,11.759527206420898
1711072666615416600,5.13341650390625,-0.711864709854126,0.6520441770553589,11.447263717651367
1711072666634375400,5.15237548828125,-0.5862415432929993,0.6580262184143066,10.329814910888672
1711072666653334500,5.17133447265625,-0.7824530005455017,0.8757730722427368,9.608379364013672
1711072666672293600,5.190293701171875,-0.8159525394439697,0.7166503667831421,9.510273933410645
1711072666691252700,5.209252685546875,-0.8997012972831726,0.3936193287372589,9.273384094238281
1711072666710211600,5.228211669921875,-0.8075776696205139,0.18544375896453857,9.056833267211914
1711072666729170700,5.247170654296875,-0.4905286431312561,0.48095735907554626,8.61057186126709
1711072666748129800,5.2661298828125,-0.12681959569454193,0.44386860728263855,8.827122688293457
1711072666767088600,5.285088623046875,0.537188708782196,-0.34695929288864136,8.562715530395508
1711072666786047700,5.3040478515625,-0.5300102233886719,-0.09930214285850525,7.234699249267578
1711072666805006800,5.3230068359375,-0.7501499056816101,1.0767701864242554,7.959724426269531
1711072666823965700,5.341965576171875,0.20099709928035736,1.275374412536621,9.768698692321777
1711072666842924800,5.3609248046875,0.5754738450050354,0.33738797903060913,10.743773460388184
1711072666861883600,5.379883544921875,0.9607182741165161,-0.4414757788181305,11.631510734558105
1711072666880842800,5.3988427734375,0.576670229434967,0.15672987699508667,11.83849048614502
1711072666899801900,5.4178017578125,0.15912270545959473,0.7680960893630981,11.115857124328613
1711072666918761000,5.436760986328125,-0.015553346835076809,1.1222338676452637,10.246066093444824
1711072666937719800,5.4557197265625,-0.48813581466674805,0.9750752449035645,8.922835350036621
1711072666956679000,5.474678955078125,-1.3902299404144287,0.18065811693668365,8.287541389465332
1711072666975638000,5.493637939453125,-1.5326029062271118,-0.6352944374084473,8.889336585998535
1711072666994596900,5.512596923828125,-1.1174482107162476,-0.5994020700454712,9.899106979370117
1711072667013556000,5.531555908203125,-0.5527420043945312,-0.03349951654672623,10.638489723205566
1711072667032515000,5.55051513671875,-0.2512463629245758,0.25244277715682983,10.608579635620117
1711072667051474200,5.56947412109375,-0.12921242415905,0.04666004329919815,9.789037704467773
1711072667070433000,5.58843310546875,-0.7429714202880859,0.1818545162677765,9.263813018798828
1711072667089392000,5.60739208984375,-0.8506484627723694,0.13160525262355804,9.8871431350708
1711072667108351200,5.626351318359375,-0.623330295085907,-0.10767702013254166,10.022337913513184
1711072667127310000,5.64531005859375,-0.11246266216039658,-0.3278166949748993,9.92423152923584
1711072667146269200,5.664269287109375,0.5108676552772522,-0.25004997849464417,10.133604049682617
1711072667165228300,5.683228271484375,0.08853443711996078,-0.41156548261642456,10.28315544128418
1711072667184187100,5.702187255859375,-0.32183465361595154,-0.37447673082351685,10.53081226348877
1711072667203146200,5.721146240234375,0.15194423496723175,0.11724831163883209,10.894521713256836
1711072667222105300,5.740105224609375,-0.3206382393836975,-0.013160524889826775,9.944570541381836
1711072667241064200,5.759064208984375,-0.4295116662979126,-0.43190449476242065,8.002795219421387
1711072667260023300,5.778023193359375,-0.5383850932121277,0.11844471842050552,6.227321147918701
1711072667278982400,5.796982421875,0.5647061467170715,1.0612168312072754,8.606983184814453
1711072667297941200,5.815941162109375,0.4893322288990021,0.672383189201355,10.99143123626709
1711072667316900400,5.834900390625,-0.005982056725770235,0.04187439754605293,12.008380889892578
1711072667335859500,5.853859375,0.397208571434021,-0.04785645380616188,12.04666519165039
1711072667354818600,5.872818603515625,0.25004997849464417,0.36610186100006104,11.175678253173828
1711072667373777400,5.89177734375,-0.10887342691421509,0.5934200286865234,9.748359680175781
1711072667392736500,5.910736572265625,-0.40797626972198486,0.6795616149902344,8.919246673583984
1711072667411695600,5.929695556640625,0.04785645380616188,0.5694918036460876,9.011369705200195
1711072667430654500,5.948654541015625,-0.08733802288770676,0.4426721930503845,9.774680137634277
1711072667449613600,5.967613525390625,-0.1663011759519577,0.23688943684101105,10.230513572692871
1711072667468572700,5.98657275390625,0.275174617767334,-0.24287149310112,10.491331100463867
1711072667487531800,6.00553173828125,0.625723123550415,-0.6819544434547424,10.766505241394043
1711072667506490600,6.02449072265625,0.3888336718082428,-0.4534398913383484,10.350153923034668
1711072667525449700,6.04344970703125,-0.016749758273363113,0.37447673082351685,9.531808853149414
1711072667544408800,6.062408935546875,-0.26201409101486206,0.4127618968486786,8.664410591125488
1711072667563368000,6.081367919921875,-1.3387842178344727,-0.537188708782196,8.798408508300781
1711072667582327000,6.1003271484375,-1.867598056793213,-1.892722725868225,10.086943626403809
1711072667601286000,6.119285888671875,-1.6366907358169556,-2.2887349128723145,11.385049819946289
1711072667620245000,6.138244873046875,-1.1473584175109863,-0.8279166221618652,11.054841041564941
1711072667639204000,6.1572041015625,-0.3122633695602417,0.3768695592880249,9.475577354431152
1711072667658163200,6.1761630859375,0.08733802288770676,-0.12681959569454193,8.70508861541748
1711072667677122300,6.195122314453125,-0.15194423496723175,-0.9882357716560364,9.237491607666016
1711072667696081200,6.2140810546875,-0.43908295035362244,-0.865005373954773,9.976874351501465
1711072667715040300,6.233040283203125,-0.4247260093688965,-0.2967100143432617,10.258030891418457
1711072667733999400,6.251999267578125,0.1663011759519577,-0.0323031060397625,10.063015937805176
1711072667752958500,6.27095849609375,0.15672987699508667,-0.1459621787071228,9.69093132019043
1711072667771917300,6.289917236328125,0.05144568532705307,-0.3445664644241333,9.455238342285156
1711072667790876400,6.30887646484375,-0.10887342691421509,0.07657032459974289,9.577272415161133
1711072667809835500,6.32783544921875,0.32542386651039124,0.34576287865638733,9.82373332977295
1711072667828794400,6.34679443359375,0.7597211599349976,0.45104706287384033,10.005587577819824
1711072667847753500,6.36575341796875,0.33499518036842346,0.41515472531318665,9.897911071777344
1711072667866712600,6.384712646484375,0.48574298620224,0.5359922647476196,9.7938232421875
1711072667885671700,6.403671630859375,0.7262216806411743,0.7872386574745178,10.080962181091309
1711072667904630800,6.422630859375,1.1425727605819702,0.9726824164390564,10.162318229675293
1711072667923590000,6.44158984375,1.2849457263946533,1.046859860420227,10.231709480285645
1711072667942548700,6.460548828125,1.3603196144104004,1.1880364418029785,10.219745635986328
1711072667961507800,6.4795078125,0.6137589812278748,1.3770694732666016,10.424331665039062
1711072667980467000,6.498467041015625,0.7166503667831421,0.9690931439399719,10.328619003295898
1711072667999426000,6.517426025390625,0.8626125454902649,0.9032905697822571,9.633503913879395
1711072668018385200,6.53638525390625,1.2681959867477417,1.1904292106628418,9.702896118164062
1711072668037344300,6.55534423828125,0.8410771489143372,1.2179467678070068,9.944570541381836
1711072668056303400,6.574303466796875,0.607776939868927,0.7094719409942627,9.774680137634277
1711072668075262200,6.59326220703125,0.50129634141922,0.18903298676013947,9.346364974975586
1711072668094221300,6.61222119140625,0.43190449476242065,0.17587246000766754,8.846264839172363
1711072668113180400,6.631180419921875,0.6747759580612183,0.09571290761232376,8.376075744628906
1711072668132139500,6.650139404296875,0.7621139883995056,-0.3852444589138031,8.126026153564453
1711072668151098600,6.6690986328125,0.550349235534668,-0.5635097622871399,7.573283672332764
1711072668170057700,6.6880576171875,0.6436693072319031,-0.45583271980285645,7.349554538726807
1711072668189016600,6.7070166015625,-0.2871387302875519,-0.2763710021972656,7.178467750549316
1711072668207975700,6.7259755859375,-0.27397820353507996,-0.16749759018421173,7.568498134613037
1711072668226934800,6.744934814453125,0.5335994362831116,-0.2967100143432617,8.975478172302246
1711072668245894000,6.763893798828125,0.8590233325958252,-0.7022934556007385,9.81655502319336
1711072668264853000,6.78285302734375,0.44027936458587646,-0.9978070259094238,9.042476654052734
1711072668283812000,6.80181201171875,0.008374879136681557,-0.9846464991569519,8.58066177368164
1711072668302771200,6.820771240234375,-0.01196411345154047,-0.8243274092674255,9.114261627197266
1711072668321730300,6.839730224609375,0.4905286431312561,-1.2693923711776733,9.600004196166992
1711072668340689200,6.858689208984375,1.2945170402526855,-1.903490424156189,9.192028045654297
1711072668359648300,6.877648193359375,1.695314884185791,-2.337787628173828,8.833105087280273
1711072668378607400,6.896607421875,1.6235301494598389,-1.832902193069458,9.212367057800293
1711072668397566500,6.91556640625,1.3770694732666016,-1.8783657550811768,9.255437850952148
1711072668416525600,6.934525634765625,1.1593226194381714,-2.181057929992676,8.595019340515137
1711072668435484700,6.953484619140625,0.867398202419281,-1.7587246894836426,8.243273735046387
1711072668454443800,6.97244384765625,0.7010970115661621,-2.451446771621704,9.371489524841309
1711072668473403000,6.99140283203125,1.3555340766906738,-4.051048755645752,9.369096755981445
1711072668492362000,7.010362060546875,1.7742780447006226,-3.8392839431762695,8.237292289733887
1711072668511321000,7.029321044921875,1.412961721420288,-2.2265214920043945,7.719245910644531
1711072668530280200,7.0482802734375,1.3794622421264648,-1.7838492393493652,8.642875671386719
1711072668549239300,7.0672392578125,1.695314884185791,-3.2650065422058105,9.844072341918945
1711072668568198400,7.086198486328125,1.6163517236709595,-4.301098823547363,10.831111907958984
1711072668587157500,7.105157470703125,1.2454642057418823,-3.81655216217041,10.591829299926758
1711072668606116400,7.124116455078125,1.5517455339431763,-3.0269205570220947,10.593026161193848
1711072668625075700,7.14307568359375,2.583052158355713,-3.5330026149749756,10.863414764404297
1711072668644034800,7.162034912109375,2.228914260864258,-4.304687976837158,11.155339241027832
1711072668662993700,7.18099365234375,2.2325034141540527,-4.687539577484131,10.569097518920898
1711072668681952800,7.199952880859375,1.6701902151107788,-4.482953071594238,10.27597713470459
1711072668700911900,7.218911865234375,1.470389485359192,-4.920839786529541,9.797411918640137
1711072668719871000,7.23787109375,1.3627125024795532,-5.656632900238037,9.05563735961914
1711072668738830000,7.256830078125,1.6079767942428589,-5.758327484130859,8.453842163085938
1711072668757789200,7.2757890625,1.545763373374939,-5.391029357910156,8.02791976928711
1711072668776748300,7.294748291015625,1.397408366203308,-4.886143684387207,8.453842163085938
1711072668795707400,7.313707275390625,1.475175142288208,-4.851448059082031,9.528220176696777
1711072668814666500,7.33266650390625,1.399801254272461,-4.758127689361572,9.952945709228516
1711072668833625600,7.35162548828125,1.6534404754638672,-5.3970112800598145,9.157332420349121
1711072668852584700,7.370584716796875,1.5146567821502686,-6.038288116455078,7.8317084312438965
1711072668871543800,7.389543701171875,1.0444670915603638,-5.532206058502197,7.903493404388428
1711072668890503000,7.4085029296875,1.7647067308425903,-5.665007591247559,8.670392990112305
1711072668909462000,7.4274619140625,2.386840581893921,-5.6590256690979,8.904889106750488
1711072668928421000,7.446421142578125,2.060220241546631,-5.490331649780273,8.124829292297363
1711072668947380200,7.465380126953125,1.4524433612823486,-6.137589931488037,8.001599311828613
1711072668966339300,7.48433935546875,1.2801600694656372,-5.461617469787598,8.70628547668457
1711072668985298400,7.50329833984375,2.118844509124756,-5.866004943847656,8.025527000427246
1711072669004257500,7.522257568359375,1.5134602785110474,-6.3014984130859375,8.00518798828125
1711072669023216600,7.541216552734375,1.3148560523986816,-6.281159400939941,8.172685623168945
1711072669042175700,7.56017578125,2.038684844970703,-6.019145488739014,8.321041107177734
1711072669061134800,7.579134765625,2.365305185317993,-5.992824077606201,7.871190071105957
1711072669080094000,7.598093994140625,1.4177473783493042,-6.680760860443115,7.752745151519775
1711072669099053000,7.617052978515625,1.412961721420288,-7.323233604431152,7.569694519042969
1711072669118012200,7.63601220703125,1.770688772201538,-7.436892986297607,7.500302791595459
1711072669136971300,7.65497119140625,2.321038007736206,-6.226124286651611,7.350750923156738
1711072669155930400,7.673930419921875,2.3437697887420654,-6.380461692810059,7.798209190368652
1711072669174889500,7.692889404296875,2.3700907230377197,-6.9822564125061035,7.154539585113525
1711072669193848600,7.7118486328125,2.20737886428833,-7.130611419677734,6.314659118652344
1711072669212807700,7.7308076171875,1.3591232299804688,-7.782655715942383,5.948556900024414
1711072669231766800,7.749766845703125,0.8733802437782288,-7.8424763679504395,6.819544315338135
1711072669250726000,7.768725830078125,1.6630117893218994,-7.439285755157471,6.97986364364624
1711072669269685000,7.78768505859375,2.196611166000366,-7.067201614379883,5.985645771026611
1711072669288644000,7.80664404296875,2.0063817501068115,-7.489534854888916,5.600401401519775
1711072669307603200,7.825603271484375,1.5649060010910034,-7.4464640617370605,5.657829284667969
1711072669326562300,7.844562255859375,1.6103696823120117,-6.890132904052734,7.4739813804626465
1711072669345521400,7.863521484375,2.5531418323516846,-7.434499740600586,7.884350776672363
1711072669364480500,7.88248046875,1.7718851566314697,-7.320840835571289,6.914061069488525
1711072669383439600,7.901439697265625,1.6965112686157227,-6.953542709350586,5.96889591217041
1711072669402398700,7.920398681640625,2.163111686706543,-6.811169624328613,7.179664134979248
1711072669421357800,7.93935791015625,2.730210542678833,-6.075376510620117,7.792226791381836
1711072669440317000,7.95831689453125,2.5292134284973145,-6.6592254638671875,7.231110095977783
1711072669459276000,7.977276123046875,2.012363910675049,-7.369893550872803,6.711867332458496
1711072669478235100,7.996235107421875,1.7611174583435059,-7.082755088806152,6.004788398742676
1711072669497194200,8.0151943359375,1.781456470489502,-6.6831536293029785,7.313662528991699
1711072669516153300,8.0341533203125,1.275374412536621,-6.697510719299316,7.877171993255615
1711072669535112400,8.053112548828125,0.7202396392822266,-7.657032489776611,7.4979095458984375
1711072669554071600,8.072071533203125,0.2763710021972656,-8.014759063720703,6.276373863220215
1711072669573030700,8.09103076171875,-0.10887342691421509,-8.116454124450684,5.7858452796936035
1711072669591989800,8.10998974609375,0.4785645306110382,-7.320840835571289,6.867401123046875
1711072669610948900,8.128948974609376,0.6807580590248108,-7.741977691650391,6.089733600616455
1711072669629908000,8.147907958984375,0.44745782017707825,-8.568697929382324,5.745167255401611
1711072669648867000,8.1668671875,0.592223584651947,-9.419346809387207,4.993820667266846
1711072669667826200,8.185826171875,0.5024927258491516,-8.851051330566406,4.386044025421143
1711072669686785300,8.204785400390625,1.3112667798995972,-7.606783390045166,6.118447303771973
1711072669705744400,8.223744384765626,2.4287149906158447,-6.173482418060303,7.539783954620361
1711072669724703500,8.242703369140624,3.104687452316284,-6.829115867614746,7.88913631439209
1711072669743662600,8.26166259765625,2.008774518966675,-7.380661487579346,7.617550849914551
1711072669762621700,8.28062158203125,0.8530412912368774,-7.427321434020996,6.62931489944458
1711072669781580800,8.299580810546875,1.1569297313690186,-7.349554538726807,6.778866767883301
1711072669800540000,8.318539794921875,0.9798609018325806,-7.582854747772217,6.256034851074219
1711072669819499000,8.3374990234375,0.15553347766399384,-7.184450149536133,5.827719688415527
1711072669838458000,8.3564580078125,0.39960137009620667,-7.022934436798096,6.357729911804199
1711072669857417200,8.375417236328126,0.7130611538887024,-7.587640762329102,6.309873104095459
1711072669876376300,8.394376220703125,0.6604190468788147,-7.569694519042969,6.022734642028809
1711072669895335400,8.41333544921875,0.5515456199645996,-7.546962738037109,5.955735683441162
1711072669914294500,8.43229443359375,0.8350951075553894,-7.733603000640869,6.833901405334473
1711072669933253600,8.451253662109375,0.9427721500396729,-7.375875949859619,7.256234645843506
1711072669952212700,8.470212646484375,1.0863415002822876,-8.094919204711914,7.083951473236084
1711072669971171800,8.489171875,0.8901300430297852,-8.279166221618652,6.695117950439453
1711072669990131000,8.508130859375,1.0947163105010986,-7.932207107543945,6.134000778198242
1711072670009090000,8.527090087890626,1.1330015659332275,-7.77188777923584,6.199803352355957
1711072670028049200,8.546049072265625,1.0348957777023315,-7.312466144561768,6.099305152893066
1711072670047008300,8.56500830078125,0.7190431952476501,-7.328019142150879,6.094519138336182
1711072670065967400,8.58396728515625,0.6807580590248108,-7.489534854888916,6.222535133361816
1711072670084926500,8.602926513671875,0.6496513485908508,-7.3292155265808105,6.179464340209961
1711072670103885600,8.621885498046876,0.5455635786056519,-7.463213920593262,6.106483459472656
1711072670122844700,8.6408447265625,0.5742774605751038,-7.552944660186768,6.563512325286865
1711072670141803800,8.6598037109375,0.6664010882377625,-7.677371501922607,6.178267955780029
1711072670160763000,8.678762939453126,0.7597211599349976,-8.111668586730957,6.096911907196045
1711072670179722000,8.697721923828125,0.9786644577980042,-7.849654674530029,6.081358909606934
1711072670198681000,8.71668115234375,1.0648061037063599,-7.767102241516113,5.994020938873291
1711072670217640200,8.73564013671875,1.215553879737854,-7.835297584533691,6.131608009338379
1711072670236599300,8.754599365234375,0.7357929348945618,-7.696514129638672,6.070590972900391
1711072670255558400,8.773558349609376,0.5826523303985596,-7.829315662384033,5.413761138916016
1711072670274517500,8.792517578125,0.22133609652519226,-8.176275253295898,5.2115678787231445
1711072670293476600,8.8114765625,0.11246266216039658,-8.090133666992188,5.375475883483887
1711072670312435700,8.830435791015624,0.2967100143432617,-8.315058708190918,5.672185897827148
1711072670331394800,8.849394775390625,0.5216353535652161,-8.554341316223145,5.796612739562988
1711072670350354000,8.86835400390625,0.729810893535614,-8.22413158416748,5.7164530754089355
1711072670369313000,8.88731298828125,0.7800601720809937,-7.507481098175049,5.958128452301025
1711072670388272000,8.906272216796875,1.0121639966964722,-7.161718368530273,6.928418159484863
1711072670407231200,8.925231201171876,1.5158531665802002,-7.328019142150879,7.596015453338623
1711072670426190300,8.9441904296875,1.5170495510101318,-7.396214962005615,7.463213920593262
1711072670445149400,8.9631494140625,1.0552347898483276,-7.355536937713623,6.735795974731445
1711072670464108500,8.982108642578124,0.7513462901115417,-7.41535758972168,6.044270038604736
1711072670483067600,9.001067626953125,0.4701896607875824,-7.5326056480407715,5.734399318695068
1711072670502026800,9.02002685546875,0.21296121180057526,-7.94297456741333,5.96889591217041
1711072670520985900,9.03898583984375,-0.45224347710609436,-8.361719131469727,5.962913990020752
1711072670539945000,9.057945068359375,-0.20578274130821228,-7.841279983520508,5.979663848876953
1711072670558904000,9.076904052734376,0.3852444589138031,-8.134400367736816,5.777470111846924
1711072670577863200,9.09586328125,0.19980068504810333,-8.067401885986328,5.714060306549072
1711072670596822300,9.114822265625,0.25244277715682983,-8.455039024353027,5.430510997772217
1711072670615781400,9.133781494140624,0.363709032535553,-8.173882484436035,5.411368370056152
1711072670634740500,9.152740478515625,0.6951149702072144,-7.8628153800964355,5.990431308746338
1711072670653699600,9.171699462890626,0.6879364848136902,-7.5433735847473145,6.709474563598633
1711072670672658700,9.19065869140625,0.576670229434967,-7.306483745574951,6.945167541503906
1711072670691617800,9.20961767578125,0.5575276613235474,-7.572087287902832,6.811169624328613
1711072670710577000,9.228576904296874,0.43549370765686035,-7.775477409362793,6.491727828979492
1711072670729536000,9.247535888671875,0.519242525100708,-7.762316703796387,6.16271448135376
1711072670748495000,9.2664951171875,0.46061834692955017,-8.008777618408203,5.566901683807373
1711072670767454200,9.2854541015625,0.17347964644432068,-8.477770805358887,5.350351333618164
1711072670786413300,9.304413330078125,0.3768695592880249,-8.58784008026123,5.653043270111084
1711072670805372400,9.323372314453126,1.0301101207733154,-7.518248558044434,6.284748554229736
1711072670824331500,9.34233154296875,1.7790635824203491,-7.045666217803955,6.971488952636719
1711072670843290600,9.36129052734375,1.8305093050003052,-6.921239376068115,7.59362268447876
1711072670862249700,9.380249755859374,1.3052847385406494,-6.976274490356445,7.148557662963867
1711072670881208800,9.399208740234375,0.9367900490760803,-7.621140003204346,6.305087566375732
1711072670900168000,9.41816796875,0.6137589812278748,-8.171489715576172,5.7619171142578125
1711072670919127000,9.437126953125,0.23688943684101105,-8.585447311401367,5.371886730194092
1711072670938086100,9.456086181640625,-0.037088751792907715,-8.068597793579102,5.296513080596924
1711072670957045200,9.475045166015626,0.7238288521766663,-7.899903774261475,5.869594097137451
1711072670976004400,9.49400439453125,1.332802176475525,-7.88076114654541,6.583851337432861
1711072670994963500,9.51296337890625,1.2526426315307617,-7.36032247543335,6.6939215660095215
1711072671013922600,9.531922607421874,1.275374412536621,-7.2921271324157715,6.449853420257568
1711072671032881700,9.550881591796875,1.2406785488128662,-7.861618995666504,5.985645771026611
1711072671051840800,9.5698408203125,0.5180460810661316,-7.9142608642578125,5.7619171142578125
1711072671070800000,9.5887998046875,0.3026920557022095,-8.2157564163208,5.643472194671631
1711072671089759000,9.607759033203125,0.6340979933738708,-8.330612182617188,5.186442852020264
1711072671108718000,9.626718017578124,0.6293123364448547,-8.072187423706055,4.9639105796813965
1711072671127677200,9.64567724609375,0.8207381963729858,-8.075776100158691,5.4281182289123535
1711072671146636000,9.664635986328125,0.8458628058433533,-8.019545555114746,5.970092296600342
1711072671165595400,9.683595458984374,0.7393822073936462,-7.694121360778809,6.198606967926025
1711072671184554500,9.702554443359375,0.8721838593482971,-7.700103282928467,6.308676719665527
1711072671203513300,9.721513427734376,1.0205388069152832,-7.65583610534668,6.346961975097656
1711072671222472700,9.74047265625,0.9451649188995361,-7.5565338134765625,6.44387149810791
1711072671241431600,9.759431640625,0.8291130661964417,-7.4225358963012695,6.55992317199707
1711072671260390700,9.778390625,0.794417142868042,-7.641479015350342,6.616154670715332
1711072671279350000,9.79735009765625,0.8662018179893494,-7.8628153800964355,6.329015731811523
1711072671298308900,9.816308837890626,0.8781659007072449,-7.898707389831543,5.7547383308410645
1711072671317268000,9.83526806640625,0.6711867451667786,-7.9381890296936035,5.422136306762695
1711072671336227000,9.85422705078125,0.672383189201355,-7.885547161102295,5.7619171142578125
1711072671355186200,9.873186279296876,0.6281159520149231,-7.76470947265625,6.1363935470581055
1711072671374145300,9.892145263671875,0.7657032608985901,-7.6977105140686035,6.503692150115967
1711072671393104400,9.9111044921875,0.8015955686569214,-7.509873867034912,7.225128173828125
1711072671412063500,9.9300634765625,0.7094719409942627,-7.409375190734863,6.946363925933838
1711072671431022600,9.949022705078125,0.8841479420661926,-8.111668586730957,5.918646812438965
1711072671449981700,9.967981689453126,0.5395814776420593,-7.6737823486328125,5.365904808044434
1711072671468940800,9.98694091796875,0.42831525206565857,-7.830512046813965,6.082555294036865
1711072671487900000,10.00589990234375,0.4953143000602722,-7.5804619789123535,6.507281303405762
1711072671506859000,10.02485888671875,0.3601198196411133,-7.588837146759033,6.678368091583252
1711072671525818000,10.043818115234375,0.27397820353507996,-7.769495010375977,6.653243541717529
1711072671544777200,10.062777099609375,0.4055834412574768,-7.558926582336426,6.775277137756348
1711072671563736300,10.081736328125,0.6185446381568909,-7.869993686676025,6.271588325500488
1711072671582695400,10.1006953125,0.4366901218891144,-7.758727550506592,6.0263237953186035
1711072671601654500,10.119654541015626,0.5479564070701599,-7.737192153930664,5.8612189292907715
1711072671620613600,10.138613525390625,0.711864709854126,-7.81974458694458,5.846862316131592
1711072671639572700,10.15757275390625,0.5946164131164551,-7.82692289352417,6.08614444732666
1711072671658531600,10.176531494140624,0.7286145091056824,-7.635497093200684,6.433103561401367
1711072671677491000,10.195490966796875,0.6269195079803467,-7.637889862060547,6.5874409675598145
1711072671696449800,10.21444970703125,0.7920243144035339,-7.494320392608643,6.885347366333008
1711072671715409000,10.233408935546874,1.0803594589233398,-7.385447025299072,6.617351055145264
1711072671734368000,10.252367919921875,1.0648061037063599,-7.494320392608643,6.239284992218018
1711072671753327000,10.2713271484375,0.8745766878128052,-7.812565803527832,6.293123722076416
1711072671772286200,10.2902861328125,0.7537391185760498,-7.482356548309326,6.441478729248047
1711072671791245300,10.309245361328125,0.8602197170257568,-7.459624767303467,6.732206344604492
1711072671810204400,10.328204345703124,0.8578268885612488,-7.720442295074463,6.535995006561279
1711072671829163500,10.34716357421875,0.7429714202880859,-7.6666035652160645,6.338587284088135
1711072671848122600,10.36612255859375,0.8350951075553894,-7.634300708770752,6.094519138336182
1711072671867081700,10.385081787109375,0.9104689955711365,-7.625925540924072,6.193821430206299
1711072671886040800,10.404040771484375,0.9343972206115723,-7.668996810913086,6.276373863220215
1711072671904999700,10.422999755859376,0.8733802437782288,-7.7563347816467285,6.1950178146362305
1711072671923959000,10.441958984375,0.6855437159538269,-7.665407180786133,6.131608009338379
1711072671942918100,10.460918212890626,0.8315058946609497,-7.69531774520874,6.051448345184326
1711072671961877000,10.479876953125,0.7872386574745178,-7.782655715942383,6.332605361938477
1711072671980836000,10.498836181640625,0.8195417523384094,-7.629515171051025,6.362515449523926
1711072671999795200,10.517795166015626,0.8015955686569214,-7.618747234344482,6.297909259796143
1711072672018754300,10.53675439453125,0.727418065071106,-7.585247993469238,6.278766632080078
1711072672037713400,10.55571337890625,0.7238288521766663,-7.7216386795043945,6.120840549468994
1711072672056672500,10.574672607421874,0.7968099117279053,-7.712067604064941,6.111268997192383
1711072672075631600,10.593631591796875,0.7369893789291382,-7.661818027496338,6.252445697784424
1711072672094590700,10.6125908203125,0.9607182741165161,-7.562515735626221,6.375676155090332
1711072672113549800,10.6315498046875,1.1593226194381714,-7.561319351196289,5.982056617736816
1711072672132509000,10.650509033203125,0.9571290612220764,-7.700103282928467,5.737988471984863
1711072672151468000,10.669468017578126,0.6544370055198669,-7.684549808502197,6.088537216186523
1711072672170427100,10.68842724609375,0.8231309652328491,-7.5326056480407715,6.570691108703613
1711072672189386200,10.70738623046875,1.1485549211502075,-7.406982421875,6.75374174118042
1711072672208345000,10.726344970703124,0.9320043921470642,-7.552944660186768,6.452246189117432
1711072672227304200,10.74530419921875,0.8721838593482971,-7.477570533752441,6.2189459800720215
1711072672246263300,10.76426318359375,0.9332008361816406,-7.445267677307129,6.564708709716797
1711072672265222400,10.783222412109374,0.9678967595100403,-7.395018577575684,6.8554368019104
1711072672284181500,10.802181396484375,0.9367900490760803,-7.375875949859619,6.704689025878906
1711072672303140600,10.821140625,0.8446664214134216,-7.472784996032715,6.564708709716797
1711072672322099700,10.840099609375,0.7058826684951782,-7.551748275756836,6.372086524963379
1711072672341058800,10.859058837890625,0.7800601720809937,-7.549355506896973,6.333801746368408
1711072672360018000,10.878017822265624,0.7657032608985901,-7.3878397941589355,6.574280261993408
1711072672378977000,10.89697705078125,0.7238288521766663,-7.45364236831665,6.708278179168701
1711072672397936000,10.91593603515625,0.698704183101654,-7.599604606628418,6.565905570983887
1711072672416895200,10.934895263671875,0.8386843204498291,-7.466803073883057,6.452246189117432
1711072672435854300,10.953854248046875,1.1724830865859985,-7.488338470458984,6.62213659286499
1711072672454813400,10.9728134765625,0.9930213689804077,-7.401000499725342,6.440282344818115
1711072672473772300,10.991772216796875,0.9643075466156006,-7.477570533752441,6.296712875366211
1711072672492731600,11.010731689453126,0.9702895879745483,-7.41535758972168,6.331408500671387
1711072672511690800,11.029690673828124,1.0492527484893799,-7.511070251464844,6.52044153213501
1711072672530649600,11.048649658203125,1.0109676122665405,-7.5565338134765625,6.468996047973633
1711072672549608700,11.067608642578126,0.9152546525001526,-7.546962738037109,6.238088607788086
1711072672568567800,11.08656787109375,0.9702895879745483,-7.613961696624756,6.16271448135376
1711072672587527000,11.10552685546875,1.0157532691955566,-7.489534854888916,6.416353702545166
1711072672606486000,11.124486083984374,1.0121639966964722,-7.441678524017334,6.601797580718994
1711072672625445000,11.143445068359375,1.007378339767456,-7.477570533752441,6.594619274139404
1711072672644404200,11.162404296875,0.9619147181510925,-7.5565338134765625,6.269195556640625
1711072672663363300,11.18136328125,1.0660024881362915,-7.551748275756836,5.986842155456543
1711072672682322400,11.200322509765625,0.9822536706924438,-7.710870742797852,6.169893264770508
1711072672701281500,11.219281494140626,1.0193424224853516,-7.349554538726807,6.589833736419678
1711072672720240600,11.23824072265625,1.246660590171814,-7.313662528991699,6.772884368896484
1711072672739199700,11.25719970703125,1.1341979503631592,-7.342376232147217,6.826723098754883
1711072672758158800,11.276158935546874,1.046859860420227,-7.393822193145752,6.610172748565674
1711072672777118000,11.295117919921875,1.1772687435150146,-7.688138961791992,6.412764549255371
1711072672796077000,11.3140771484375,1.0683952569961548,-7.739584922790527,6.098108291625977
1711072672815036200,11.3330361328125,0.9762716293334961,-7.430910587310791,6.156732559204102
1711072672833995300,11.351995361328125,1.0121639966964722,-7.3639116287231445,6.592226505279541
1711072672852954400,11.370954345703124,0.9655039310455322,-7.343572616577148,6.814758777618408
1711072672871913500,11.38991357421875,0.8697910308837891,-7.404589653015137,6.625725746154785
1711072672890872600,11.40887255859375,0.6915257573127747,-7.381857872009277,6.222535133361816
1711072672909831700,11.427831787109374,0.7286145091056824,-7.65583610534668,6.027520179748535
1711072672928790800,11.446790771484375,0.7884350419044495,-7.715656757354736,5.966503143310547
1711072672947750000,11.46575,0.8482556343078613,-7.636693477630615,6.028716564178467
1711072672966709000,11.484708984375,0.7932206988334656,-7.558926582336426,6.072983741760254
1711072672985668000,11.503668212890625,0.6508477330207825,-7.6737823486328125,6.047859191894531
1711072673004627200,11.522627197265624,0.5072783827781677,-7.8388872146606445,6.0023956298828125
1711072673023586300,11.54158642578125,0.37447673082351685,-8.169096946716309,5.848058700561523
1711072673042545400,11.56054541015625,0.36251261830329895,-8.353343963623047,5.469992637634277
1711072673061504500,11.57950439453125,0.46779683232307434,-7.852047443389893,5.529813289642334
1711072673080463600,11.598463623046875,0.8291130661964417,-7.716853141784668,6.08614444732666
1711072673099422700,11.617422607421876,0.9427721500396729,-7.794619560241699,6.604190349578857
1711072673118381800,11.6363818359375,0.9499505758285522,-7.6630144119262695,6.695117950439453
1711072673137341000,11.6553408203125,0.9655039310455322,-7.607979774475098,6.646064758300781
1711072673156300000,11.674300048828124,1.0372886657714844,-8.019545555114746,6.278766632080078
1711072673175259100,11.693259033203125,0.9595218896865845,-7.750352382659912,5.733202934265137
1711072673194218200,11.71221826171875,1.042074203491211,-7.859225749969482,5.697310924530029
1711072673213177300,11.73117724609375,1.0600204467773438,-7.916653633117676,5.913861274719238
1711072673232136400,11.750136474609375,0.9092726111412048,-7.6151580810546875,6.168696880340576
1711072673251095600,11.769095458984374,0.7094719409942627,-7.566105365753174,6.382854461669922
1711072673270054700,11.7880546875,0.6544370055198669,-7.7802629470825195,6.440282344818115
1711072673289013800,11.807013671875,0.5814558863639832,-7.672585964202881,6.178267955780029
1711072673307972900,11.825972900390624,0.5431707501411438,-8.043473243713379,5.8337016105651855
1711072673326932000,11.844931884765625,0.42711883783340454,-8.094919204711914,5.8372907638549805
1711072673345891000,11.86389111328125,0.39481574296951294,-7.980063438415527,5.995217323303223
1711072673364850400,11.882850341796875,0.4713860750198364,-7.947760581970215,6.035895347595215
1711072673383809500,11.9018095703125,0.5539384484291077,-8.09252643585205,6.137589931488037
1711072673402768600,11.9207685546875,0.46061834692955017,-7.971688747406006,6.094519138336182
1711072673421727700,11.939727783203125,0.6544370055198669,-7.932207107543945,5.7750773429870605
1711072673440686800,11.958686767578126,0.8566305041313171,-8.097311973571777,5.807380676269531
1711072673459646000,11.97764599609375,0.7908278703689575,-8.02193832397461,5.959324836730957
1711072673478605000,11.99660498046875,0.8111668825149536,-7.8424763679504395,6.175875186920166
1711072673497564200,12.015564208984374,0.7932206988334656,-7.983652591705322,6.068198204040527
1711072673516523300,12.034523193359375,0.8039883971214294,-7.981259822845459,5.773880958557129
1711072673535482600,12.053482666015626,0.745364248752594,-8.410771369934082,5.430510997772217
1711072673554441500,12.07244140625,0.7860422134399414,-8.10807991027832,5.225924491882324
1711072673573400800,12.09140087890625,1.0492527484893799,-7.732406139373779,5.8851470947265625
1711072673592359700,12.110359619140626,0.7561319470405579,-7.957331657409668,6.439085960388184
1711072673611319000,12.129319091796875,0.7728816866874695,-8.056633949279785,6.244070529937744
1711072673630278100,12.148278076171875,0.4773681163787842,-8.100900650024414,5.877968788146973
1711072673649237200,12.1672373046875,0.3409772217273712,-8.093722343444824,5.563312530517578
1711072673668196400,12.1861962890625,0.6460621356964111,-8.300702095031738,5.1768717765808105
1711072673687155500,12.205155517578126,0.7334001660346985,-7.770691394805908,5.649454116821289
1711072673706114600,12.224114501953125,0.43908295035362244,-8.074580192565918,5.873183250427246
1711072673725073700,12.24307373046875,0.19740787148475647,-8.376075744628906,5.9198431968688965
1711072673744033000,12.262032958984374,-0.031106693670153618,-8.469395637512207,5.639883041381836
1711072673762992000,12.2809921875,0.003589233849197626,-8.325826644897461,5.166104316711426
1711072673781951200,12.299951171875,0.10648060590028763,-8.595019340515137,5.267798900604248
1711072673800910300,12.318910400390624,0.5515456199645996,-7.919046401977539,5.851647853851318
1711072673819869400,12.337869384765625,0.45224347710609436,-8.048258781433105,5.850451469421387
1711072673838828500,12.35682861328125,0.4630111753940582,-8.059026718139648,5.7786664962768555
1711072673857787600,12.37578759765625,0.5072783827781677,-8.093722343444824,5.838487148284912
1711072673876747000,12.3947470703125,0.6771687865257263,-8.280363082885742,5.759523868560791
1711072673895706000,12.4137060546875,0.41994038224220276,-7.868797302246094,5.79780912399292
1711072673914665200,12.432665283203125,0.41994038224220276,-8.033902168273926,5.61116886138916
1711072673933624300,12.451624267578126,0.3840480446815491,-8.167900085449219,5.749952793121338
1711072673952583400,12.47058349609375,0.3433700501918793,-8.35573673248291,5.933003902435303
1711072673971542500,12.48954248046875,0.381655216217041,-8.401200294494629,5.636293888092041
1711072673990501600,12.508501708984374,0.39481574296951294,-8.094919204711914,5.251049518585205
1711072674009460700,12.527460693359375,0.5359922647476196,-8.26121997833252,5.319244861602783
1711072674028420000,12.546420166015626,0.39481574296951294,-8.47896671295166,5.460421085357666
1711072674047379000,12.56537890625,0.18065811693668365,-8.055437088012695,5.732006549835205
1711072674066338300,12.58433837890625,0.40319061279296875,-8.170292854309082,6.008377552032471
1711072674085297400,12.60329736328125,0.4821537733078003,-8.210970878601074,5.856433391571045
1711072674104256500,12.622256591796875,0.41515472531318665,-8.043473243713379,5.801398277282715
1711072674123215600,12.641215576171875,0.4546363055706024,-8.056633949279785,5.594419479370117
1711072674142174700,12.6601748046875,0.2847459018230438,-8.220541954040527,5.637490272521973
1711072674161134000,12.679134033203125,0.17587246000766754,-8.421539306640625,5.61954402923584
1711072674180093200,12.69809326171875,0.15194423496723175,-8.153543472290039,5.815755367279053
1711072674199052300,12.71705224609375,0.45942193269729614,-8.164310455322266,5.574080467224121
1711072674218011400,12.736011474609375,0.23210379481315613,-8.220541954040527,5.174479007720947
1711072674236970500,12.754970458984374,0.17347964644432068,-8.445467948913574,5.2737812995910645
1711072674255929600,12.7739296875,0.3242274820804596,-8.068597793579102,5.625525951385498
1711072674274888700,12.792888671875,0.30987054109573364,-8.23011302947998,5.901896953582764
1711072674293847800,12.811847900390624,0.32662028074264526,-8.225327491760254,5.869594097137451
1711072674312807200,12.83080712890625,0.24406790733337402,-8.225327491760254,5.501099109649658
1711072674331766300,12.849766357421874,0.02632104977965355,-8.297112464904785,5.2977094650268555
1711072674350725400,12.868725341796875,0.24646073579788208,-8.1224365234375,5.6685967445373535
1711072674369684500,12.8876845703125,0.4630111753940582,-7.8424763679504395,5.714060306549072
1711072674388643600,12.9066435546875,0.2356930375099182,-8.598608016967773,5.533402442932129
1711072674407602700,12.925602783203125,0.20458634197711945,-8.26839828491211,5.26181697845459
1711072674426561800,12.944561767578126,0.05503492057323456,-8.534002304077148,5.223531723022461
1711072674445521200,12.963521240234375,0.1986042857170105,-8.218149185180664,5.631507873535156
1711072674464480300,12.982480224609375,0.24167509377002716,-8.275577545166016,5.637490272521973
1711072674483439400,13.001439453125,0.3278166949748993,-8.281558990478516,5.489135265350342
1711072674502398500,13.0203984375,0.1746760457754135,-8.128418922424316,6.282355785369873
1711072674521357600,13.039357666015626,0.3290131092071533,-7.81974458694458,6.492924213409424
1711072674540316700,13.058316650390625,0.03469592705368996,-7.902296543121338,7.054041385650635
1711072674559275800,13.07727587890625,0.12083754688501358,-7.795815944671631,7.7730841636657715
1711072674578235000,13.09623486328125,0.2919243574142456,-7.933403491973877,7.0755767822265625
1711072674597194200,13.1151943359375,-0.11964113265275955,-8.257631301879883,4.754538536071777
1711072674616153300,13.1341533203125,-0.2189432680606842,-8.715856552124023,4.256831645965576
1711072674635112400,13.153112548828124,0.7465606927871704,-8.864211082458496,3.0484559535980225
1711072674654071600,13.172071533203125,1.657029628753662,-9.757930755615234,2.1714866161346436
1711072674673030700,13.19103076171875,1.8687944412231445,-7.936992645263672,5.772684574127197
1711072674691990000,13.209989990234375,1.29810631275177,-8.088936805725098,7.621140003204346
1711072674710949000,13.22894921875,1.5469598770141602,-6.579065799713135,8.880961418151855
1711072674729908200,13.247908203125,2.985046148300171,-6.649653911590576,7.8628153800964355
1711072674748867300,13.266867431640625,1.0241280794143677,-7.9657063484191895,5.990431308746338
1711072674767826400,13.285826416015626,-0.364905446767807,-8.173882484436035,5.602794170379639
1711072674786785500,13.30478564453125,-0.5718846321105957,-8.285148620605469,6.3493547439575195
1711072674805744600,13.32374462890625,-1.2490534782409668,-8.312665939331055,6.759724140167236
1711072674824703700,13.342703857421874,-1.9046868085861206,-8.86660385131836,5.781059741973877
1711072674843663000,13.3616630859375,-1.568495273590088,-8.731410026550293,5.4867424964904785
1711072674862622200,13.380622314453126,-1.2562319040298462,-7.759923934936523,6.464210510253906
1711072674881581300,13.399581298828124,-1.085145115852356,-8.166703224182129,6.503692150115967
1711072674900540400,13.41854052734375,-2.3880369663238525,-8.973084449768066,4.82751989364624
1711072674919499500,13.43749951171875,-2.1607189178466797,-8.481359481811523,5.995217323303223
1711072674938459000,13.456458984375,-2.8043880462646484,-7.980063438415527,7.746763229370117
1711072674957417700,13.475417724609375,-1.1126625537872314,-8.508877754211426,7.192824840545654
1711072674976377000,13.494377197265624,-3.032902717590332,-9.09990406036377,6.263213157653809
1711072674995336200,13.513336181640625,-2.4981069564819336,-7.60080099105835,6.68435001373291
1711072675014295300,13.53229541015625,-2.225325107574463,-8.048258781433105,8.781659126281738
1711072675033254400,13.55125439453125,-4.353740692138672,-8.3629150390625,8.281558990478516
1711072675052213500,13.570213623046875,-2.768495798110962,-7.04207706451416,8.019545555114746
1711072675071172600,13.589172607421874,-1.92741858959198,-5.74397087097168,8.26241683959961
1711072675090132000,13.608132080078125,-3.5808591842651367,-6.222535133361816,9.270991325378418
1711072675109091000,13.627091064453126,-5.910272121429443,-6.290730953216553,8.639286041259766
1711072675128050200,13.64605029296875,-3.541377544403076,-5.639883041381836,8.209774017333984
1711072675147009300,13.66500927734375,-3.3882367610931396,-4.321437835693359,10.467402458190918
1711072675165968400,13.683968505859376,-2.6189444065093994,-1.8161523342132568,11.052447319030762
1711072675184927500,13.702927490234375,-2.926422119140625,-2.007578134536743,10.189835548400879
1711072675203886600,13.721886474609375,-4.869394302368164,-5.032105922698975,8.023134231567383
1711072675222846000,13.740845947265624,-5.42572546005249,-5.361119270324707,9.82373332977295
1711072675241804800,13.7598046875,-5.2115678787231445,-2.2097716331481934,9.21834945678711
1711072675260764200,13.77876416015625,-5.469992637634277,-0.8913264274597168,9.126225471496582
1711072675279723300,13.79772314453125,-4.871787071228027,-2.2480568885803223,10.48534870147705
1711072675298682400,13.816682373046875,-3.4683964252471924,-1.7647067308425903,9.223134994506836
1711072675317641500,13.835641357421874,-4.698307037353516,-0.6687939167022705,8.870193481445312
1711072675336600600,13.8546005859375,-4.932804107666016,-0.24526432156562805,7.326822757720947
1711072675355559700,13.8735595703125,-4.445864677429199,0.16869398951530457,8.801998138427734
1711072675374518800,13.892518798828124,-4.466203689575195,0.8709874153137207,10.133604049682617
1711072675393478100,13.91147802734375,-4.399204254150391,-1.568495273590088,8.482556343078613
1711072675412437000,13.93043701171875,-4.2987060546875,0.6783652305603027,6.686742782592773
1711072675431396400,13.949396240234375,-3.0795626640319824,3.5617165565490723,9.083154678344727
1711072675450355500,13.96835546875,-5.241477966308594,2.609373092651367,7.494320392608643
1711072675469314600,13.987314453125,-3.0520453453063965,3.531806230545044,6.561119556427002
1711072675488273700,14.006273681640625,-2.4945175647735596,4.249652862548828,7.129415035247803
1711072675507232800,14.025232666015626,-1.6582261323928833,6.227321147918701,6.524031162261963
1711072675526191900,14.04419189453125,-1.2813565731048584,6.900900363922119,6.770491600036621
1711072675545151000,14.06315087890625,-2.389233350753784,6.215356826782227,8.554341316223145
1711072675564110000,14.082110107421874,-3.269792079925537,6.3732829093933105,9.482755661010742
1711072675583069200,14.101069091796875,-3.1106693744659424,4.490131855010986,6.7310099601745605
1711072675602028300,14.1200283203125,-2.9479575157165527,4.466203689575195,6.351747512817383
1711072675620987400,14.1389873046875,-2.124826431274414,4.627718925476074,7.070790767669678
1711072675639946500,14.157946533203125,-2.764906644821167,5.3216376304626465,6.071787357330322
1711072675658905900,14.17690576171875,-2.304288148880005,7.013363361358643,6.984649181365967
1711072675677864700,14.19586474609375,-1.6713865995407104,5.441278457641602,4.301098823547363
1711072675696824000,14.214823974609375,-0.7178468108177185,4.863411903381348,6.125626087188721
1711072675715783000,14.233782958984374,-0.5060819983482361,4.240081787109375,4.579862594604492
1711072675734742300,14.2527421875,-0.4534398913383484,7.026523590087891,6.428318023681641
1711072675753701400,14.271701416015626,0.04785645380616188,7.058826923370361,6.003592014312744
1711072675772660500,14.290660400390625,0.8123632669448853,6.323033809661865,5.60399055480957
1711072675791619600,14.30961962890625,1.6031911373138428,4.7712883949279785,3.59043025970459
1711072675810578700,14.32857861328125,-1.25144624710083,7.3639116287231445,3.946960926055908
1711072675829537800,14.347537841796875,-0.039481572806835175,7.319644451141357,7.036095142364502
1711072675848497000,14.366496826171876,1.552941918373108,1.9286150932312012,3.7914273738861084
1711072675867456000,14.3854560546875,4.218546390533447,4.241278171539307,3.6370904445648193
1711072675886415000,14.4044150390625,-0.12083754688501358,10.101301193237305,4.599005222320557
1711072675905374200,14.423374267578126,1.5541383028030396,5.30847692489624,7.402196884155273
1711072675924333300,14.442333251953125,3.926621913909912,6.000002861022949,4.157529354095459
1711072675943292400,14.46129248046875,4.11924409866333,8.585447311401367,4.411168575286865
1711072675962251500,14.48025146484375,1.5002998113632202,4.388436794281006,3.957728624343872
1711072675981210600,14.499210693359375,0.0011964113218709826,4.1144585609436035,4.201796531677246
1711072676000169700,14.518169677734376,1.3914263248443604,5.26899528503418,4.944767951965332
1711072676019128800,14.53712890625,-0.1746760457754135,4.709074974060059,5.647061347961426
1711072676038088000,14.556087890625,-3.2685956954956055,1.597209095954895,4.156332969665527
1711072676057047000,14.575047119140624,2.093719720840454,5.997610092163086,5.227120876312256
1711072676076006100,14.594006103515625,-2.6847469806671143,9.730413436889648,2.5328028202056885
1711072676094965200,14.61296533203125,-2.7601208686828613,3.541377544403076,4.954339504241943
1711072676113924400,14.63192431640625,-1.0923235416412354,7.542177200317383,8.937192916870117
1711072676132883500,14.650883544921875,0.3900300860404968,9.547362327575684,9.873982429504395
1711072676151842600,14.669842529296876,-0.7190431952476501,3.90987229347229,6.620940208435059
1711072676170801700,14.6888017578125,-5.146961688995361,4.527220249176025,1.4727823734283447
1711072676189760800,14.7077607421875,-5.789434432983398,6.835097789764404,7.162914752960205
1711072676208720000,14.726719970703124,-2.2337000370025635,2.8175487518310547,11.198410034179688
1711072676227679000,14.745678955078125,-2.9970104694366455,2.1547367572784424,10.913663864135742
1711072676246638000,14.76463818359375,-5.307280540466309,3.266202926635742,8.257631301879883
1711072676265597200,14.78359716796875,-6.049055576324463,1.155733346939087,6.455835342407227
1711072676284556300,14.802556396484375,-7.258627414703369,3.996013879776001,6.705885410308838
1711072676303515600,14.821515625,-1.0755738019943237,-0.3038884699344635,10.99860954284668
1711072676322474500,14.840474609375,-2.9204399585723877,-3.541377544403076,7.312466144561768
1711072676341433900,14.859433837890625,-7.118647575378418,3.3343982696533203,10.451848983764648
1711072676360392700,14.878392822265624,-2.764906644821167,3.9589250087738037,11.105090141296387
1711072676379352000,14.89735205078125,-1.6402798891067505,-4.198207378387451,9.43609619140625
1711072676398311200,14.916311279296876,-5.84446907043457,-6.665207386016846,8.073383331298828
1711072676417270300,14.935270263671875,-5.870790481567383,-0.035892341285943985,8.49452018737793
1711072676436229400,14.9542294921875,-3.0891339778900146,-1.3076776266098022,9.710074424743652
1711072676455188500,14.9731884765625,-4.876572608947754,-5.836094379425049,8.220541954040527
1711072676474147600,14.992147705078125,-4.764110088348389,-2.968296527862549,13.320843696594238
1711072676493106700,15.011106689453126,1.8915263414382935,-3.2482566833496094,13.521841049194336
1711072676512065800,15.030065673828124,-5.563312530517578,-5.686542987823486,8.184649467468262
1711072676531025000,15.04902490234375,-6.7070817947387695,-3.0867412090301514,10.238887786865234
1711072676549984000,15.06798388671875,0.13998012244701385,-4.481756687164307,7.055237770080566
1711072676568943000,15.086943115234375,-5.278566837310791,-7.5708909034729,5.556134223937988
1711072676587902200,15.105902099609375,-4.644468784332275,-5.523830890655518,7.893921852111816
1711072676606861300,15.124861328125,-3.183650493621826,-2.9419753551483154,15.080764770507812
1711072676625820400,15.1438203125,1.1234302520751953,-5.077569484710693,11.710474014282227
1711072676644779500,15.162779541015626,-2.458625316619873,-6.278766632080078,6.281159400939941
1711072676663738600,15.181738525390625,-3.6155550479888916,-5.102694511413574,8.349754333496094
1711072676682697700,15.20069775390625,-2.5639095306396484,-6.448657035827637,9.847661972045898
1711072676701656800,15.21965673828125,-1.9381862878799438,-7.010970115661621,5.571687698364258
1711072676720616000,15.238615966796875,-6.206982135772705,-3.9182469844818115,5.4173502922058105
1711072676739575000,15.257574951171875,-0.9248259663581848,-5.746363639831543,9.45164966583252
1711072676758534100,15.2765341796875,-0.20817556977272034,-8.935996055603027,12.206984519958496
1711072676777493200,15.2954931640625,-3.3056845664978027,-8.74337387084961,8.758927345275879
1711072676796452400,15.314452392578126,-3.9984066486358643,-7.231110095977783,2.908475875854492
1711072676815411500,15.333411376953125,0.5000999569892883,-6.713063716888428,4.8538408279418945
1711072676834370600,15.35237060546875,0.7968099117279053,-7.012166976928711,10.518848419189453
1711072676853330000,15.371329833984374,-0.45104706287384033,-7.101897716522217,10.48534870147705
1711072676872288800,15.390288818359375,-3.297309637069702,-7.171289443969727,6.247660160064697
1711072676891247900,15.409247802734376,-1.2059825658798218,-7.003791809082031,3.9840497970581055
1711072676910207000,15.42820703125,-0.1746760457754135,-5.812166213989258,7.9657063484191895
1711072676929166000,15.447166015625,1.1114661693572998,-7.403393268585205,9.104690551757812
1711072676948125400,15.46612548828125,-0.5132604837417603,-7.412964344024658,7.8556365966796875
1711072676967084300,15.485084228515625,-3.170490026473999,-6.939185619354248,7.335197925567627
1711072676986043600,15.504043701171875,-4.1623148918151855,-8.650053977966309,5.962913990020752
1711072677005002500,15.52300244140625,-1.3674981594085693,-9.474381446838379,4.8813581466674805
1711072677023961600,15.541961669921875,0.16151553392410278,-8.164310455322266,5.1182475090026855
1711072677042921000,15.5609208984375,-0.6747759580612183,-7.417750358581543,6.337390899658203
1711072677061879800,15.5798798828125,-1.2131611108779907,-7.59362268447876,8.3629150390625
1711072677080839200,15.598839111328125,-0.9547362327575684,-8.218149185180664,8.019545555114746
1711072677099798000,15.617798095703124,-0.8410771489143372,-6.838686943054199,6.727420806884766
1711072677118757000,15.636757080078125,-0.04666004329919815,-7.138986587524414,5.858826160430908
1711072677137716500,15.655716552734376,-1.1545369625091553,-8.037490844726562,6.687939167022705
1711072677156675300,15.67467529296875,1.1210373640060425,-8.415556907653809,7.513463020324707
1711072677175634700,15.693634765625,-1.1425727605819702,-7.445267677307129,8.298309326171875
1711072677194593500,15.712593505859376,-1.2897313833236694,-8.749356269836426,6.515655994415283
1711072677213552600,15.731552734375,2.2719850540161133,-8.009973526000977,5.8851470947265625
1711072677232512000,15.750511962890625,2.68953275680542,-5.808577060699463,10.526026725769043
1711072677251470800,15.769470947265624,-0.07896314561367035,-6.758527755737305,10.817951202392578
1711072677270430000,15.788429931640625,-1.3519448041915894,-8.97667407989502,7.241877555847168
1711072677289389000,15.80738916015625,-1.9334007501602173,-8.94676399230957,6.0466628074646
1711072677308348200,15.82634814453125,-1.4991034269332886,-8.025527000427246,6.329015731811523
1711072677327307500,15.8453076171875,-1.1102696657180786,-7.670193195343018,6.869793891906738
1711072677346266400,15.864266357421876,-2.076970100402832,-8.220541954040527,7.814958572387695
1711072677365225500,15.8832255859375,-3.2135608196258545,-9.09392261505127,7.616354465484619
1711072677384184600,15.9021845703125,-2.7696921825408936,-10.591829299926758,6.190232276916504
1711072677403143700,15.921143798828124,-2.1475582122802734,-9.76391315460205,6.246463298797607
1711072677422103000,15.94010302734375,-2.7565317153930664,-7.740781307220459,7.223931789398193
1711072677441062000,15.959061767578126,-3.728017568588257,-7.53140926361084,8.334200859069824
1711072677460021000,15.97802099609375,-4.061816215515137,-7.383054256439209,9.452845573425293
1711072677478980000,15.99697998046875,-4.920839786529541,-8.001599311828613,7.885547161102295
1711072677497939200,16.015939208984374,-3.7016966342926025,-7.988438606262207,7.019345283508301
1711072677516898600,16.034898681640627,-3.115455150604248,-6.981060028076172,7.816154956817627
1711072677535857400,16.053857421875,-5.016552448272705,-5.752345561981201,8.423932075500488
1711072677554816500,16.07281640625,-0.5551348328590393,-3.601198196411133,11.948559761047363
1711072677573775600,16.091775634765625,-3.88594388961792,-3.2004003524780273,10.788041114807129
1711072677592734700,16.110734619140626,-6.570691108703613,-2.3976082801818848,7.171289443969727
1711072677611694000,16.129694091796875,-4.208974838256836,-5.079962253570557,7.204789161682129
1711072677630653000,16.14865283203125,-2.438286304473877,-5.629115104675293,11.145768165588379
1711072677649612000,16.167612060546876,-3.6610186100006104,-2.310270309448242,11.11346435546875
1711072677668571100,16.186571044921877,-4.981856822967529,-2.6273193359375,7.628318786621094
1711072677687530200,16.2055302734375,-3.9972102642059326,-2.60339093208313,9.722038269042969
1711072677706489600,16.224489501953126,-4.7712883949279785,-0.7525427341461182,12.392428398132324
1711072677725448400,16.243448486328123,-5.711667537689209,-1.568495273590088,9.693324089050293
1711072677744407800,16.26240771484375,-5.377869129180908,-3.4480574131011963,6.055037498474121
1711072677763366700,16.28136669921875,-5.414957523345947,-0.2560320198535919,8.166703224182129
1711072677782326000,16.300325927734374,-4.315455436706543,1.511067509651184,10.673185348510742
1711072677801285000,16.31928515625,-3.7112679481506348,0.48095735907554626,9.798608779907227
1711072677820244000,16.338243896484375,-4.217350006103516,-0.6747759580612183,7.1856465339660645
1711072677839203300,16.357203369140624,-5.221138954162598,2.2719850540161133,8.742177963256836
1711072677858162200,16.376162109375,-4.867001056671143,3.869194269180298,8.6907320022583
1711072677877121500,16.39512158203125,-3.5736806392669678,3.7328033447265625,7.769495010375977
1711072677896080600,16.41408056640625,-2.194218397140503,2.389233350753784,6.25723123550415
1711072677915039700,16.433039794921875,-3.2997024059295654,4.04985237121582,7.28255558013916
1711072677933998800,16.451998779296876,-3.2745778560638428,6.485745906829834,8.087740898132324
1711072677952958000,16.4709580078125,-4.938786029815674,5.339583873748779,6.021538257598877
1711072677971917000,16.4899169921875,-2.8929226398468018,4.128815650939941,5.420939922332764
1711072677990876200,16.508876220703126,0.48454657196998596,4.275974273681641,6.424728870391846
1711072678009835300,16.527835205078127,0.17228323221206665,6.573083877563477,4.068994998931885
1711072678028794400,16.54679443359375,-0.7405785918235779,8.940781593322754,5.010570526123047
1711072678047753500,16.56575341796875,0.31106695532798767,6.768098831176758,5.590830326080322
1711072678066712600,16.584712646484373,-0.5204389095306396,4.4961137771606445,4.863411903381348
1711072678085671700,16.603671630859374,0.8817551732063293,4.018745422363281,2.861815929412842
1711072678104630800,16.622630859375,-1.2047861814498901,8.702695846557617,2.169093608856201
1711072678123590000,16.64158984375,-0.2919243574142456,5.645864963531494,6.256034851074219
1711072678142549000,16.660549072265624,3.363112211227417,5.039284706115723,4.895715236663818
1711072678161508000,16.679508056640625,4.737788677215576,6.424728870391846,4.4997029304504395
1711072678180467200,16.69846728515625,3.067598581314087,5.972485542297363,3.9625144004821777
1711072678199426300,16.71742626953125,0.06580262631177902,4.849055290222168,4.431507587432861
1711072678218385400,16.736385498046875,-0.2021935135126114,6.227321147918701,6.043073654174805
1711072678237344500,16.755344482421876,2.344966173171997,4.643272399902344,5.55733060836792
1711072678256303600,16.7743037109375,3.9038901329040527,5.773880958557129,2.537588357925415
1711072678275262700,16.7932626953125,3.954139471054077,6.942774772644043,4.078566074371338
1711072678294221800,16.812221923828126,3.4791641235351562,7.345965385437012,6.570691108703613
1711072678313181000,16.831180908203127,3.954139471054077,6.2189459800720215,5.172086238861084
1711072678332140000,16.85014013671875,5.218746185302734,6.631708145141602,4.019941806793213
1711072678351099100,16.86909912109375,3.3020951747894287,10.5152587890625,4.459024906158447
1711072678370058200,16.888058349609373,2.366501569747925,4.604987144470215,5.456831932067871
1711072678389017300,16.907017333984374,-0.7668996453285217,1.7670994997024536,4.284348964691162
1711072678407976400,16.9259765625,-1.9860427379608154,0.9607182741165161,2.8977081775665283
1711072678426935800,16.944935791015624,-0.8817551732063293,7.226324558258057,7.027719974517822
1711072678445895000,16.96389501953125,-1.7790635824203491,8.251648902893066,8.25523853302002
1711072678464854000,16.98285400390625,2.366501569747925,8.132007598876953,5.4556355476379395
1711072678483813000,17.001813232421874,0.5455635786056519,5.528616905212402,2.2983062267303467
1711072678502772200,17.020772216796875,-1.0241280794143677,5.2941203117370605,4.639683246612549
1711072678521731300,17.0397314453125,-3.8225340843200684,2.6428725719451904,6.697510719299316
1711072678540690400,17.0586904296875,-2.6213371753692627,3.208775281906128,6.833901405334473
1711072678559649500,17.0776494140625,-5.4520463943481445,10.88016414642334,6.715456962585449
1711072678578608600,17.096608642578126,-2.3605196475982666,4.453042984008789,7.3160552978515625
1711072678597567700,17.115567626953126,0.23210379481315613,-4.043870449066162,4.459024906158447
1711072678616527000,17.134527099609375,-10.542776107788086,4.625326156616211,4.128815650939941
1711072678635486200,17.153486328125,-3.889533281326294,9.686145782470703,12.606586456298828
1711072678654445300,17.1724453125,0.30628129839897156,1.648654818534851,10.847861289978027
1711072678673404400,17.191404296875,-5.533402442932129,-1.3160524368286133,9.07717227935791
1711072678692363500,17.210363525390626,-5.335994720458984,-0.519242525100708,9.962516784667969
1711072678711322600,17.229322509765623,-3.1202406883239746,-1.368694543838501,7.792226791381836
1711072678730282000,17.248281982421876,-6.179464340209961,-1.4835500717163086,7.877171993255615
1711072678749240800,17.26724072265625,-6.226124286651611,-1.3854442834854126,10.559526443481445
1711072678768200200,17.2862001953125,-3.4025938510894775,-2.874976396560669,9.734002113342285
1711072678787159300,17.3051591796875,-6.507281303405762,-3.607180118560791,10.091729164123535
1711072678806118400,17.324118408203127,-5.151747226715088,-6.186643123626709,11.564512252807617
1711072678825077500,17.343077392578124,-2.8139593601226807,-6.135197162628174,10.96750259399414
1711072678844036600,17.36203662109375,-3.985246181488037,-5.150550842285156,11.088339805603027
1711072678862996000,17.380995849609373,-4.4243292808532715,-4.851448059082031,8.577073097229004
1711072678881955000,17.399955078125,-4.346562385559082,-5.3970112800598145,7.165307521820068
1711072678900914200,17.4189140625,-4.8574299812316895,-4.7796630859375,9.259027481079102
1711072678919873300,17.437873291015624,-1.6761722564697266,-5.581258773803711,10.566704750061035
1711072678938832400,17.456832275390624,-0.8111668825149536,-6.25723123550415,9.633503913879395
1711072678957791500,17.47579150390625,-6.798008918762207,-8.47298526763916,9.135796546936035
1711072678976750800,17.494750732421874,-5.72123908996582,-9.985248565673828,8.85344409942627
1711072678995710000,17.5137099609375,-0.14835500717163086,-4.577469825744629,9.68494987487793
1711072679014669000,17.5326689453125,0.10408778488636017,-3.7567315101623535,8.863015174865723
1711072679033628200,17.551628173828124,-2.0578274726867676,-7.04925537109375,8.056633949279785
1711072679052587500,17.57058740234375,-4.600201606750488,-8.982656478881836,7.2335028648376465
1711072679071546400,17.58954638671875,1.6977076530456543,-7.287341594696045,7.122236728668213
1711072679090505700,17.608505615234375,-1.7383856773376465,-5.3216376304626465,6.580262184143066
1711072679109464800,17.62746484375,-5.570491313934326,-7.627122402191162,7.121040344238281
1711072679128424000,17.646423828125,-1.5397813320159912,-10.912467956542969,7.086344242095947
1711072679147383000,17.665383056640625,-0.0023928226437419653,-8.09850788116455,7.304090976715088
1711072679166342400,17.68434228515625,-1.6342978477478027,-4.813162803649902,7.22871732711792
1711072679185301500,17.703301513671875,-1.5996019840240479,-5.400600910186768,7.3639116287231445
1711072679204260600,17.722260498046875,-0.5838487148284912,-7.133004188537598,8.02074146270752
1711072679223219700,17.7412197265625,-0.914058268070221,-8.441878318786621,7.2430739402771
1711072679242178800,17.7601787109375,-1.4895321130752563,-8.636893272399902,5.499902725219727
1711072679261138000,17.779137939453125,-3.297309637069702,-7.65583610534668,5.026124000549316
1711072679280097300,17.79809716796875,-1.2837493419647217,-7.165307521820068,6.051448345184326
1711072679299056400,17.817056396484375,0.3565305769443512,-6.6831536293029785,8.483752250671387
1711072679318015500,17.836015380859376,0.10767702013254166,-7.989634990692139,8.827122688293457
1711072679336974600,17.854974609375,-1.1593226194381714,-8.169096946716309,5.8851470947265625
1711072679355933700,17.87393359375,-2.706282377243042,-5.816951751708984,6.616154670715332
1711072679374892800,17.892892822265626,-2.709871530532837,-8.267202377319336,7.177271366119385
1711072679393852200,17.91185205078125,0.9367900490760803,-8.840283393859863,7.081558704376221
1711072679412811300,17.930811279296876,-0.2189432680606842,-8.23011302947998,5.213960647583008
1711072679431770400,17.949770263671876,-3.3786656856536865,-7.7730841636657715,6.33499813079834
1711072679450729500,17.9687294921875,-2.4562325477600098,-7.1748785972595215,7.7216386795043945
1711072679469688800,17.987688720703126,2.0997018814086914,-5.8851470947265625,9.860821723937988
1711072679488648000,18.00664794921875,5.431707382202148,-4.503292083740234,9.455238342285156
1711072679507607000,18.02560693359375,4.72582483291626,-4.36809778213501,11.303693771362305
1711072679526566100,18.044566162109376,1.770688772201538,-5.044070243835449,12.447463035583496
1711072679545525200,18.063525146484373,-2.135594129562378,-7.237092018127441,10.068997383117676
1711072679564484600,18.082484619140626,-1.695314884185791,-9.012566566467285,7.043273448944092
1711072679583443700,18.101443603515627,-1.4715858697891235,-8.416753768920898,7.318448066711426
1711072679602402800,18.12040283203125,-0.625723123550415,-7.454838752746582,8.420342445373535
1711072679621362000,18.13936181640625,-1.8652052879333496,-7.386643409729004,9.17288589477539
1711072679640321000,18.158321044921873,-1.2801600694656372,-8.861818313598633,7.852047443389893
1711072679659280100,18.177280029296874,-3.1202406883239746,-9.621540069580078,6.86381196975708
1711072679678239500,18.196239501953126,-2.390429735183716,-8.349754333496094,5.8097734451293945
1711072679697198600,18.215198486328124,-3.3607194423675537,-8.483752250671387,5.9198431968688965
1711072679716157700,18.23415771484375,-2.530410051345825,-9.150154113769531,5.717649936676025
1711072679735116800,18.25311669921875,-3.775874137878418,-8.132007598876953,8.523234367370605
1711072679754076200,18.272076171875,-3.2685956954956055,-7.841279983520508,8.662017822265625
1711072679773035000,18.291034912109374,-6.926024913787842,-5.4041900634765625,8.383254051208496
1711072679791994400,18.309994384765623,0.7381857633590698,-4.308277130126953,8.47178840637207
1711072679810953500,18.328953369140624,-3.9385859966278076,-6.096911907196045,6.802794933319092
1711072679829912600,18.34791259765625,-2.816352367401123,-8.024331092834473,7.8041911125183105
1711072679848871700,18.36687158203125,-3.2518460750579834,-6.154339790344238,10.319047927856445
1711072679867831000,18.3858310546875,-3.8189449310302734,-5.948556900024414,8.883354187011719
1711072679886790100,18.4047900390625,-4.013959884643555,-6.214160442352295,8.45743179321289
1711072679905749200,18.423749267578124,-5.314459323883057,-3.586841106414795,10.923234939575195
1711072679924708400,18.442708251953125,-2.9694929122924805,-5.216353416442871,10.089336395263672
1711072679943667500,18.46166748046875,-5.085944652557373,-5.023731231689453,6.760920524597168
1711072679962626600,18.48062646484375,-3.34995174407959,-2.4885356426239014,7.500302791595459
1711072679981586000,18.4995859375,-1.5828521251678467,-0.3720839321613312,12.549158096313477
1711072680000545000,18.518544921875,-2.9491539001464844,-0.760917603969574,13.155738830566406
1711072680019504000,18.537504150390625,-6.331408500671387,-1.9202401638031006,8.318648338317871
1711072680038463200,18.556463134765625,-7.853243827819824,-4.755734920501709,3.596412420272827
1711072680057422300,18.57542236328125,-6.177071571350098,-2.6536402702331543,8.520841598510742
1711072680076381700,18.594381591796875,-1.6103696823120117,-0.28594231605529785,14.110475540161133
1711072680095340800,18.6133408203125,-2.9754750728607178,1.2801600694656372,12.843475341796875
1711072680114300000,18.6322998046875,-3.3379876613616943,0.009571290574967861,7.101897716522217
1711072680133259000,18.651259033203125,-5.102694511413574,0.7286145091056824,6.106483459472656
1711072680152218000,18.670218017578126,-4.021138668060303,2.612962245941162,9.613164901733398
1711072680171177200,18.68917724609375,-3.267399311065674,3.372683525085449,10.980663299560547
1711072680190136600,18.708136474609375,-4.278367042541504,1.057627558708191,8.37129020690918
1711072680209095700,18.727095703125,-6.4319071769714355,3.0580272674560547,5.398207664489746
1711072680228054800,18.7460546875,-4.534399032592773,4.876572608947754,6.033502101898193
1711072680247014000,18.765013916015626,-1.353141188621521,5.933003902435303,8.159524917602539
1711072680265973000,18.783972900390626,-1.0959128141403198,4.113262176513672,6.348158359527588
1711072680284932000,18.80293212890625,-1.5900306701660156,4.660022258758545,4.517649173736572
1711072680303891200,18.82189111328125,-0.32542386651039124,7.984848976135254,6.826723098754883
1711072680322850300,18.840850341796877,0.10408778488636017,5.697310924530029,6.413960933685303
1711072680341809700,18.8598095703125,-2.0506489276885986,4.602594375610352,2.4981069564819336
1711072680360768800,18.878768798828126,-1.211964726448059,4.588237285614014,4.244867324829102
1711072680379728000,18.897727783203123,0.5539384484291077,8.160721778869629,7.768298625946045
1711072680398687000,18.91668701171875,1.3914263248443604,7.028916358947754,4.339384078979492
1711072680417646000,18.93564599609375,2.8462624549865723,5.322834014892578,4.001996040344238
1711072680436605200,18.954605224609374,0.7920243144035339,6.305087566375732,4.621737003326416
1711072680455564300,18.973564208984374,-0.4019941985607147,6.111268997192383,5.6685967445373535
1711072680474523600,18.992523681640623,0.9475577473640442,6.4079790115356445,6.129215240478516
1711072680493482500,19.011482421875,3.2207393646240234,6.001199245452881,3.896711587905884
1711072680512441900,19.03044189453125,2.4705893993377686,7.350750923156738,3.0795626640319824
1711072680531401000,19.04940087890625,1.3986048698425293,6.461817741394043,6.200999736785889
1711072680550360000,19.068360107421874,3.0340991020202637,6.165107727050781,6.271588325500488
1711072680569319200,19.087319091796875,3.1645078659057617,7.362715244293213,4.417150497436523
1711072680588278300,19.1062783203125,3.1477582454681396,5.79780912399292,3.744767427444458
1711072680607237400,19.1252373046875,1.6091731786727905,5.2354960441589355,5.1218366622924805
1711072680626196500,19.144196533203125,-0.5252245664596558,6.478567123413086,7.314858913421631
1711072680645155600,19.163155517578126,3.315255880355835,4.508078098297119,4.301098823547363
1711072680664114700,19.18211474609375,5.146961688995361,7.657032489776611,4.067798614501953
1711072680683073800,19.20107373046875,4.140779495239258,9.914660453796387,6.151947021484375
1711072680702033200,19.220033203125,1.3722838163375854,5.127819061279297,6.013163089752197
1711072680720992300,19.2389921875,0.6317051649093628,3.6227335929870605,4.77248477935791
1711072680739951400,19.257951416015626,3.304488182067871,3.1752755641937256,4.411168575286865
1711072680758910500,19.276910400390626,2.2600209712982178,6.904489517211914,3.6299118995666504
1711072680777869600,19.29586962890625,-0.17347964644432068,4.569094657897949,5.026124000549316
1711072680796828700,19.31482861328125,-3.1956145763397217,6.678368091583252,3.142972469329834
1711072680815787800,19.333787841796877,0.6831508874893188,5.923432350158691,5.255835056304932
1711072680834747000,19.352746826171874,-0.4713860750198364,-0.040677983313798904,7.405786037445068
1711072680853706000,19.3717060546875,-5.14576530456543,4.577469825744629,3.4085757732391357
1711072680872665000,19.3906650390625,-4.576273441314697,12.970294952392578,4.864608287811279
1711072680891624400,19.40962451171875,-3.565305709838867,7.864011764526367,8.160721778869629
1711072680910583600,19.42858349609375,-0.25004997849464417,-4.211368083953857,9.30449104309082
1711072680929542700,19.447542724609374,-6.892525672912598,0.2632105052471161,4.615755081176758
1711072680948501800,19.466501708984374,-5.4795637130737305,10.722238540649414,8.281558990478516
1711072680967460900,19.4854609375,-3.6131622791290283,3.566502094268799,9.908679008483887
1711072680986420000,19.504419921875,-5.217549800872803,-1.322034478187561,7.7730841636657715
1711072681005379000,19.523379150390625,-4.234099864959717,-2.517249345779419,11.24746322631836
1711072681024338400,19.54233837890625,-5.422136306762695,-1.4608181715011597,9.424132347106934
1711072681043297300,19.56129736328125,-6.010770320892334,1.7455641031265259,10.321440696716309
1711072681062256600,19.580256591796875,-8.35573673248291,1.8987047672271729,7.8317084312438965
1711072681081215700,19.5992158203125,-4.320241451263428,-2.6799614429473877,10.077372550964355
1711072681100174800,19.6181748046875,-2.7493531703948975,-5.784648895263672,10.882556915283203
1711072681119134000,19.637134033203125,-2.124826431274414,-3.483949661254883,10.626524925231934
1711072681138093000,19.656093017578126,-7.887939929962158,-0.035892341285943985,12.05623722076416
1711072681157052200,19.67505224609375,-5.565705299377441,-1.820937991142273,9.841679573059082
1711072681176011300,19.69401123046875,-4.098905086517334,-7.2574310302734375,7.509873867034912
1711072681194970600,19.712970703125,-3.8333017826080322,-8.662017822265625,7.7455668449401855
1711072681213929700,19.7319296875,-5.229514122009277,-2.1774685382843018,10.17428207397461
1711072681232888800,19.750888916015626,-4.015156269073486,-0.6532405614852905,13.021740913391113
1711072681251848000,19.769847900390626,-1.8041882514953613,-6.538387775421143,7.428517818450928
1711072681270807000,19.78880712890625,-5.197210788726807,-6.403193473815918,6.888936519622803
1711072681289766100,19.80776611328125,-3.3643085956573486,-3.363112211227417,11.621939659118652
1711072681308725200,19.826725341796877,-0.3074777126312256,-5.647061347961426,13.775480270385742
1711072681327684600,19.8456845703125,-2.3976082801818848,-9.828518867492676,7.574480056762695
1711072681346643500,19.8646435546875,-8.0291166305542,-4.5236310958862305,4.730610370635986
1711072681365602800,19.883602783203123,-0.9116654396057129,-3.2590243816375732,7.106683254241943
1711072681384562000,19.90256201171875,0.3529413342475891,-8.900103569030762,9.460023880004883
1711072681403521000,19.92152099609375,-3.559323787689209,-8.309076309204102,9.418149948120117
1711072681422480100,19.940480224609374,-4.035495281219482,-5.00578498840332,8.651249885559082
1711072681441439200,19.959439208984374,-2.1164517402648926,-4.140779495239258,7.007380962371826
1711072681460398300,19.9783984375,0.4331009089946747,-5.270191669464111,7.864011764526367
1711072681479357400,19.997357421875,1.4333007335662842,-6.516852378845215,9.579665184020996
1711072681498316800,20.01631689453125,-1.8161523342132568,-6.403193473815918,9.367900848388672
1711072681517275600,20.035275634765625,-3.656233072280884,-5.858826160430908,7.46919584274292
1711072681536235000,20.054235107421874,-3.243471145629883,-6.498906135559082,7.076773166656494
1711072681555193900,20.07319384765625,-2.520838737487793,-7.99083137512207,7.2095746994018555
1711072681574153200,20.0921533203125,-2.555534601211548,-8.263612747192383,6.777669906616211
1711072681593112300,20.1111123046875,-3.2410783767700195,-8.025527000427246,5.26899528503418
1711072681612071400,20.130071533203125,-1.0061819553375244,-6.508477687835693,5.96889591217041
1711072681631030500,20.149030517578126,0.9954141974449158,-5.182853698730469,9.56052303314209
1711072681649989600,20.16798974609375,0.5694918036460876,-7.083951473236084,9.168100357055664
1711072681668948700,20.18694873046875,-1.7623138427734375,-7.52423095703125,6.649653911590576
1711072681687907800,20.205907958984376,-4.600201606750488,-6.7657060623168945,6.623332977294922
1711072681706867200,20.2248671875,-2.025524377822876,-7.818548202514648,5.535795211791992
1711072681725826000,20.243825927734374,-1.0301101207733154,-8.244470596313477,5.702096462249756
1711072681744785400,20.262785400390626,-2.0757737159729004,-6.367300987243652,7.495516777038574
1711072681763744300,20.281744140625,-3.733999729156494,-7.63310432434082,7.594819068908691
1711072681782703600,20.30070361328125,0.07657032459974289,-8.025527000427246,7.264609336853027
1711072681801662700,20.319662841796877,0.5431707501411438,-7.8113694190979,6.7070817947387695
1711072681820621800,20.338621826171874,-2.358126640319824,-8.542376518249512,5.314459323883057
1711072681839581000,20.357580810546875,-2.66560435295105,-7.341179847717285,6.165107727050781
1711072681858540000,20.3765400390625,1.3268201351165771,-8.616554260253906,7.708477973937988
1711072681877499100,20.3954990234375,-2.282752752304077,-8.651249885559082,7.052844524383545
1711072681896458200,20.414458251953125,-1.8089739084243774,-7.130611419677734,4.54636287689209
1711072681915417300,20.433417236328125,0.8039883971214294,-3.4995031356811523,8.434700012207031
1711072681934376400,20.45237646484375,8.200202941894531,-2.366501569747925,13.972887992858887
1711072681953335600,20.47133544921875,6.425925254821777,-3.9768712520599365,15.750755310058594
1711072681972295000,20.490294921875,0.4570291340351105,-5.79780912399292,10.922039031982422
1711072681991253800,20.509253662109376,-2.6668007373809814,-7.9968132972717285,7.502695560455322
1711072682010213000,20.528213134765625,-2.6739792823791504,-10.204192161560059,6.051448345184326
1711072682029172200,20.547172119140626,-1.4476577043533325,-10.053443908691406,6.838686943054199
1711072682048131300,20.56613134765625,-1.4679967164993286,-7.501499176025391,8.74337387084961
1711072682067090400,20.58509033203125,-1.5649060010910034,-7.4979095458984375,8.998209953308105
1711072682086049500,20.604049560546876,-2.764906644821167,-9.343972206115723,7.837690353393555
1711072682105008600,20.623008544921873,-2.9694929122924805,-10.417153358459473,6.175875186920166
1711072682123967700,20.6419677734375,-2.4562325477600098,-8.624929428100586,5.763113498687744
1711072682142926800,20.6609267578125,-1.7359927892684937,-8.85942554473877,6.943971157073975
1711072682161886000,20.679885986328124,-3.056830883026123,-9.698110580444336,6.021538257598877
1711072682180845000,20.698844970703124,-3.0005996227264404,-8.635697364807129,5.956932067871094
1711072682199804200,20.71780419921875,-2.8175487518310547,-7.844869136810303,6.888936519622803
1711072682218763300,20.73676318359375,-4.054637908935547,-6.512066841125488,7.911868095397949
1711072682237722600,20.75572265625,-0.008374879136681557,-5.408975601196289,10.521241188049316
1711072682256681500,20.774681396484375,-2.89890456199646,-5.9916276931762695,8.952746391296387
1711072682275640800,20.793640869140624,-2.7349963188171387,-6.93320369720459,7.451249599456787
1711072682294599700,20.812599609375,-3.817748546600342,-6.4426751136779785,6.39721155166626
1711072682313559000,20.83155908203125,-4.661218643188477,-4.985445976257324,7.406982421875
1711072682332518100,20.85051806640625,-3.8727834224700928,-6.130411624908447,7.920242786407471
1711072682351477200,20.869477294921875,-2.4610180854797363,-6.802794933319092,10.024730682373047
1711072682370436400,20.888436279296876,-1.8711873292922974,-6.501298904418945,9.80937671661377
1711072682389395500,20.9073955078125,-3.975674867630005,-3.507878065109253,8.770891189575195
1711072682408354600,20.9263544921875,-3.992424488067627,-3.682554006576538,8.440681457519531
1711072682427313700,20.945313720703126,-4.968696117401123,-3.6430723667144775,9.731609344482422
1711072682446272800,20.964272705078123,-4.009174346923828,-3.799802303314209,9.293723106384277
1711072682465232000,20.98323193359375,-5.533402442932129,-4.922036170959473,6.5288166999816895
1711072682484191000,21.00219091796875,-4.961517810821533,-2.4047868251800537,8.965906143188477
1711072682503150300,21.021150390625,-1.4991034269332886,-1.089930772781372,12.803994178771973
1711072682522109200,21.040109130859374,-1.714457392692566,-0.5682953596115112,11.590832710266113
1711072682541068500,21.059068603515627,-5.544169902801514,-1.1341979503631592,6.483353137969971
1711072682560027400,21.07802734375,-5.054837703704834,-0.2105683982372284,6.440282344818115
1711072682578986800,21.09698681640625,-3.544966697692871,0.8147560954093933,10.328619003295898
1711072682597945900,21.11594580078125,-2.700300455093384,0.6125625967979431,13.773087501525879
1711072682616905000,21.134905029296874,-6.020341873168945,0.21176479756832123,7.6474609375
1711072682635864000,21.153864013671875,-6.034698486328125,-0.4175475537776947,4.894518852233887
1711072682654823200,21.1728232421875,-2.7625136375427246,1.3399807214736938,9.005388259887695
1711072682673782300,21.1917822265625,-1.1413763761520386,3.135794162750244,12.201003074645996
1711072682692741400,21.210741455078125,-2.286342144012451,4.569094657897949,9.426525115966797
1711072682711700500,21.229700439453126,-5.335994720458984,3.043670415878296,4.593023300170898
1711072682730659600,21.24865966796875,-5.252245903015137,1.7766708135604858,5.399404525756836
1711072682749618700,21.26761865234375,-1.887937068939209,4.390829563140869,9.04845905303955
1711072682768578000,21.286578125,0.6005984544754028,8.244470596313477,8.33300495147705
1711072682787537000,21.305536865234377,-0.6855437159538269,7.2681989669799805,6.096911907196045
1711072682806496300,21.324496337890626,-0.8614161610603333,4.722235679626465,4.42193603515625
1711072682825455400,21.343455322265626,-0.4630111753940582,6.774080753326416,6.865008354187012
1711072682844414500,21.36241455078125,0.003589233849197626,8.112865447998047,8.288737297058105
1711072682863373600,21.38137353515625,-1.1629117727279663,4.433900356292725,3.0317063331604004
1711072682882332700,21.400332763671877,-0.6352944374084473,4.603790760040283,5.2151570320129395
1711072682901291800,21.419291748046874,1.1700903177261353,5.581258773803711,6.569494724273682
1711072682920251000,21.4382509765625,1.1270195245742798,6.705885410308838,4.978267669677734
1711072682939210000,21.4572099609375,1.6773686408996582,7.343572616577148,5.309673309326172
1711072682958169000,21.476169189453124,1.5864413976669312,5.8851470947265625,5.715256690979004
1711072682977128200,21.495128173828125,2.830709218978882,5.3970112800598145,5.570491313934326
1711072682996087300,21.51408740234375,2.0518453121185303,5.723631858825684,4.95912504196167
1711072683015046400,21.53304638671875,1.1186445951461792,7.9489569664001465,5.054837703704834
1711072683034005800,21.552005859375,1.9046868085861206,6.038288116455078,6.348158359527588
1711072683052964600,21.570964599609376,2.420340061187744,3.7543387413024902,4.6372904777526855
1711072683071924000,21.589924072265624,2.915654420852661,4.887340068817139,6.089733600616455
1711072683090883000,21.608883056640625,2.0398812294006348,9.702896118164062,5.1050872802734375
1711072683109842200,21.62784228515625,2.4011974334716797,5.454439163208008,5.773880958557129
1711072683128801300,21.64680126953125,3.0556344985961914,3.3846476078033447,5.874379634857178
1711072683147760400,21.665760498046875,3.5258240699768066,3.9744784832000732,4.727021217346191
1711072683166719500,21.684719482421876,4.524827480316162,7.929814338684082,5.551348686218262
1711072683185678600,21.7036787109375,4.380061626434326,7.4979095458984375,4.934000492095947
1711072683204637700,21.7226376953125,1.1162517070770264,4.509274482727051,5.136193752288818
1711072683223596800,21.7415966796875,-0.7345965504646301,0.5180460810661316,6.092126369476318
1711072683242556200,21.76055615234375,3.5377883911132812,2.6524438858032227,6.110072612762451
1711072683261515300,21.779515380859376,1.667797327041626,9.17886734008789,3.3607194423675537
1711072683280474400,21.798474365234377,0.6807580590248108,2.2815563678741455,3.45882511138916
1711072683299433500,21.81743359375,-2.5076780319213867,9.656235694885254,3.8524444103240967
1711072683318392600,21.836392578125,0.3577269911766052,9.220742225646973,8.6033935546875
1711072683337351700,21.8553515625,0.6520441770553589,2.744567632675171,6.574280261993408
1711072683356310800,21.874310791015624,-2.5232315063476562,-0.040677983313798904,3.8799619674682617
1711072683375270000,21.893269775390625,-3.221935749053955,4.728217601776123,5.374279499053955
1711072683394229200,21.912229248046874,-5.218746185302734,7.642675399780273,4.199403762817383
1711072683413188400,21.931188232421874,-5.781059741973877,7.569694519042969,6.124429702758789
1711072683432147500,21.9501474609375,-2.3222343921661377,1.7527425289154053,8.892925262451172
1711072683451106600,21.9691064453125,-5.6685967445373535,-0.9104689955711365,9.128618240356445
1711072683470066000,21.98806591796875,-5.580062389373779,3.4301111698150635,10.052248001098633
1711072683489025000,22.00702490234375,-4.40757942199707,6.597012042999268,12.593425750732422
1711072683507984100,22.025984130859374,-3.686143398284912,1.4895321130752563,8.34138011932373
1711072683526943200,22.044943115234375,-3.596412420272827,-3.084348440170288,8.768498420715332
1711072683545902300,22.06390234375,-3.3415768146514893,-3.951746702194214,8.462217330932617
1711072683564861700,22.08286181640625,-5.715256690979004,0.059820566326379776,9.050851821899414
1711072683583820800,22.10182080078125,-6.45822811126709,1.8185452222824097,10.752148628234863
1711072683602780000,22.12077978515625,-3.4229328632354736,-3.7387852668762207,9.002995491027832
1711072683621739000,22.139739013671875,-5.447260856628418,-6.983452796936035,8.688339233398438
1711072683640698000,22.158697998046875,-6.835097789764404,-3.188436269760132,10.494919776916504
1711072683659657500,22.177657470703124,-2.2193429470062256,-0.8458628058433533,13.213166236877441
1711072683678616600,22.196616455078125,-3.9637107849121094,-4.024727821350098,8.219346046447754
1711072683697575700,22.21557568359375,-4.436293125152588,-6.330212116241455,6.120840549468994
1711072683716534800,22.23453466796875,-3.9218363761901855,-4.6301116943359375,9.718449592590332
1711072683735494100,22.253494140625,-2.166700839996338,-2.9455647468566895,12.650853157043457
1711072683754453200,22.272453369140624,-2.775674343109131,-4.789234638214111,8.956335067749023
1711072683773412400,22.291412353515625,-6.795616149902344,-6.515655994415283,6.81595516204834
1711072683792371500,22.310371337890626,-4.2209391593933105,-6.805187702178955,8.544769287109375
1711072683811330800,22.329330810546875,-0.9559326171875,-5.633901119232178,10.642078399658203
1711072683830290000,22.3482900390625,-2.8187451362609863,-2.937189817428589,9.32722282409668
1711072683849249000,22.3672490234375,-3.012563705444336,-5.274977684020996,9.65503978729248
1711072683868208000,22.3862080078125,-1.97407865524292,-9.53659439086914,9.078369140625
1711072683887167500,22.40516748046875,-2.3018953800201416,-6.647261142730713,9.351150512695312
1711072683906126600,22.424126708984375,-2.581855535507202,-3.9194436073303223,8.834300994873047
1711072683925085700,22.443085693359375,-3.500699520111084,-5.631507873535156,6.756134510040283
1711072683944045000,22.462045166015624,-0.4139583110809326,-7.267002582550049,7.934599876403809
1711072683963004200,22.481004150390625,-0.7872386574745178,-8.175078392028809,8.60459041595459
1711072683981963300,22.49996337890625,-2.709871530532837,-6.416353702545166,6.744170665740967
1711072684000922600,22.518922607421874,-2.4634108543395996,-4.802394866943359,7.716853141784668
1711072684019881700,22.5378818359375,-2.2576282024383545,-6.391229152679443,7.897511005401611
1711072684038840800,22.5568408203125,0.04187439754605293,-7.456035137176514,6.853044033050537
1711072684057800000,22.575800048828125,0.2105683982372284,-6.973881721496582,7.280162811279297
1711072684076759300,22.59475927734375,-0.9343972206115723,-8.079365730285645,7.645068168640137
1711072684095718400,22.613718505859374,-1.6079767942428589,-7.555337429046631,7.359126091003418
1711072684114677500,22.632677490234375,-3.0963125228881836,-7.032505512237549,7.6498541831970215
1711072684133636600,22.65163671875,-2.304288148880005,-8.562715530395508,4.9160542488098145
1711072684152596000,22.670595947265625,-2.0853450298309326,-8.100900650024414,4.001996040344238
1711072684171555000,22.68955517578125,-2.2301106452941895,-7.2574310302734375,6.275177478790283
1711072684190514200,22.70851416015625,0.21655045449733734,-7.782655715942383,8.281558990478516
1711072684209473500,22.7274736328125,1.222732424736023,-6.872186660766602,9.528220176696777
1711072684228432600,22.7464326171875,-1.4009976387023926,-6.8171515464782715,8.082955360412598
1711072684247391700,22.765391845703125,-2.720639228820801,-7.11146879196167,6.059823513031006
1711072684266350800,22.784350830078125,-2.2887349128723145,-7.812565803527832,4.9399824142456055
1711072684285310200,22.803310302734374,-0.17228323221206665,-8.723034858703613,5.100301265716553
1711072684304269300,22.822269287109375,-2.4921247959136963,-8.120043754577637,5.7511491775512695
1711072684323228700,22.841228759765624,-4.2556352615356445,-8.38684368133545,6.491727828979492
1711072684342187800,22.860187744140624,-1.007378339767456,-9.193224906921387,6.589833736419678
1711072684361147000,22.87914697265625,-0.3206382393836975,-8.688339233398438,6.339783668518066
1711072684380106000,22.89810595703125,-2.094916343688965,-8.35453987121582,5.194818019866943
1711072684399065000,22.917065185546875,-0.7393822073936462,-8.548358917236328,5.285745143890381
1711072684418024400,22.9360244140625,-1.1413763761520386,-8.709874153137207,7.491927623748779
1711072684436983600,22.954983642578124,-1.8041882514953613,-7.037291526794434,8.86780071258545
1711072684455943000,22.97394287109375,1.4321043491363525,-4.590630054473877,7.597211837768555
1711072684474902000,22.992902099609374,7.485945701599121,-2.3641088008880615,11.67577838897705
1711072684493861000,23.011861083984375,7.203592777252197,-1.911865234375,15.836896896362305
1711072684512820200,23.0308203125,3.315255880355835,-5.30847692489624,12.06221866607666
1711072684531779600,23.049779541015624,-2.2432711124420166,-8.511270523071289,8.368897438049316
1711072684550738700,23.06873876953125,-2.7218358516693115,-10.517651557922363,6.116054534912109
1711072684569697800,23.08769775390625,-0.747757077217102,-10.314262390136719,5.333601474761963
1711072684588657200,23.1066572265625,-0.8697910308837891,-9.830911636352539,6.581458568572998
1711072684607616300,23.1256162109375,-1.9728822708129883,-8.612964630126953,6.909275531768799
1711072684626575400,23.144575439453124,-1.7288143634796143,-7.343572616577148,7.901100158691406
1711072684645534500,23.163534423828125,-1.4883357286453247,-9.074779510498047,7.603193759918213
1711072684664493800,23.182493896484374,-1.6510475873947144,-9.913464546203613,5.173282623291016
1711072684683453000,23.201452880859375,-1.94297194480896,-9.864411354064941,4.4135613441467285
1711072684702412300,23.220412353515623,-2.2229323387145996,-10.600204467773438,4.851448059082031
1711072684721371400,23.239371337890624,-3.838087558746338,-8.72183895111084,5.44845724105835
1711072684740330500,23.25833056640625,-3.0340991020202637,-7.106683254241943,6.984649181365967
1711072684759289600,23.27728955078125,-4.286741733551025,-7.106683254241943,8.13798999786377
1711072684778249000,23.2962490234375,-1.6630117893218994,-8.273183822631836,7.664210796356201
1711072684797208000,23.3152080078125,-3.3176486492156982,-7.664210796356201,7.436892986297607
1711072684816167200,23.334167236328124,-2.524427890777588,-6.880561351776123,6.168696880340576
1711072684835126500,23.35312646484375,-2.5471596717834473,-5.589633464813232,6.660421848297119
1711072684854085600,23.372085693359374,-1.5074782371520996,-5.815755367279053,9.883553504943848
1711072684873044700,23.391044677734374,-3.985246181488037,-6.508477687835693,10.579865455627441
1711072684892003800,23.41000390625,-3.845266103744507,-6.961917400360107,7.379465103149414
1711072684910963200,23.428963134765624,-4.25084924697876,-6.991827964782715,3.6131622791290283
1711072684929922300,23.44792236328125,-3.5090744495391846,-5.436492919921875,7.343572616577148
1711072684948881400,23.46688134765625,-1.8580267429351807,-6.55992317199707,11.185249328613281
1711072684967840800,23.4858408203125,-2.6249263286590576,-6.501298904418945,10.99143123626709
1711072684986799900,23.5047998046875,-3.671786308288574,-4.813162803649902,8.103293418884277
1711072685005759000,23.523759033203124,-4.587040901184082,-3.5234313011169434,6.196214199066162
1711072685024718300,23.54271826171875,-4.615755081176758,-3.5569307804107666,7.152146816253662
1711072685043677400,23.561677490234374,-4.6887359619140625,-3.7435710430145264,8.423932075500488
1711072685062636500,23.580636474609374,-3.273381471633911,-3.294916868209839,9.259027481079102
1711072685081595600,23.599595703125,-2.633301258087158,-1.2251251935958862,10.755738258361816
1711072685100555000,23.618554931640624,-2.194218397140503,-0.5216353535652161,10.561919212341309
1711072685119514000,23.63751416015625,-3.157329559326172,-1.490728497505188,8.609375953674316
1711072685138473200,23.65647314453125,-5.630311489105225,-1.9645073413848877,6.358926296234131
1711072685157432600,23.6754326171875,-5.660222053527832,-1.2945170402526855,6.943971157073975
1711072685176391700,23.6943916015625,-2.775674343109131,-0.14835500717163086,11.097911834716797
1711072685195350800,23.713350830078124,-0.9595218896865845,0.9619147181510925,12.77767276763916
1711072685214310000,23.732309814453124,-1.1497513055801392,1.124626636505127,10.067801475524902
1711072685233269200,23.751269287109373,-3.339184045791626,1.7922241687774658,8.898907661437988
1711072685252228400,23.770228271484374,-5.648257732391357,1.4261223077774048,8.197810173034668
1711072685271187500,23.7891875,-3.8572301864624023,0.8398807644844055,8.851051330566406
1711072685290146800,23.808146728515624,-1.6713865995407104,2.043470621109009,9.726823806762695
1711072685309106000,23.82710595703125,-3.851248025894165,3.2626137733459473,7.558926582336426
1711072685328065000,23.84606494140625,-4.457828521728516,1.7276179790496826,6.248856544494629
1711072685347024400,23.8650244140625,-3.8739798069000244,2.581855535507202,7.530212879180908
1711072685365983500,23.8839833984375,-2.764906644821167,4.1036906242370605,9.205188751220703
1711072685384942600,23.902942626953124,-2.4610180854797363,4.794020175933838,9.32602596282959
1711072685403901700,23.921901611328124,-2.3569302558898926,4.603790760040283,7.916653633117676
1711072685422861000,23.940861083984377,-0.45224347710609436,5.917450428009033,7.627122402191162
1711072685441820200,23.959820068359374,-2.210968017578125,3.1645078659057617,5.004588603973389
1711072685460779300,23.978779296875,0.2560320198535919,7.420143127441406,8.555537223815918
1711072685479738400,23.99773828125,-0.20817556977272034,4.923232555389404,7.165307521820068
1711072685498697700,24.01669775390625,0.898504912853241,6.410371780395508,6.409175395965576
1711072685517656800,24.03565673828125,0.3026920557022095,5.249852657318115,6.1950178146362305
1711072685536616000,24.054615966796874,2.4502503871917725,7.850851058959961,8.684749603271484
1711072685555575000,24.073574951171874,0.5156532526016235,7.623532772064209,6.330212116241455
1711072685574534400,24.092534423828123,1.4967105388641357,5.19960355758667,6.872186660766602
1711072685593493500,24.111493408203124,0.5635097622871399,4.512863636016846,6.955935478210449
1711072685612452600,24.13045263671875,0.364905446767807,6.294320106506348,7.280162811279297
1711072685631411700,24.14941162109375,-0.010767702013254166,5.781059741973877,6.872186660766602
1711072685650371000,24.16837109375,-0.005982056725770235,4.5786662101745605,7.641479015350342
1711072685669330200,24.187330078125,-0.7776673436164856,4.88853645324707,6.915257453918457
1711072685688289300,24.206289306640624,0.37806597352027893,4.944767951965332,7.440482139587402
1711072685707248400,24.225248291015625,2.4083759784698486,5.515456199645996,8.622536659240723
1711072685726207500,24.24420751953125,4.187439441680908,3.9565322399139404,6.1399827003479
1711072685745166800,24.263166748046874,3.8572301864624023,4.555934429168701,4.862215518951416
1711072685764126000,24.2821259765625,1.7682958841323853,4.185046672821045,4.930410861968994
1711072685783085000,24.3010849609375,1.7455641031265259,4.371686935424805,7.518248558044434
1711072685802044200,24.320044189453125,2.861815929412842,5.200799942016602,7.134200572967529
1711072685821003500,24.33900341796875,4.109673023223877,4.232903480529785,5.278566837310791
1711072685839962600,24.357962646484374,4.053441524505615,3.352344512939453,4.34536600112915
1711072685858921700,24.376921630859375,-0.11006984114646912,3.970889091491699,2.6009981632232666
1711072685877880800,24.395880859375,1.679761528968811,5.60399055480957,8.8438720703125
