time,seconds_elapsed,z,y,x
1710954526061044200,0.042044189453125,0,0,0
1710954526080002800,0.0610029296875,-0.12731313705444336,-0.06505870819091797,-0.14687615633010864
1710954526098961700,0.079961669921875,-0.08518362045288086,0.00975179672241211,-0.32973000407218933
1710954526117920500,0.09892041015625,0.31291913986206055,0.29288673400878906,0.2901979982852936
1710954526136879400,0.11787939453125,0.5823841094970703,0.3296833038330078,1.1091811656951904
1710954526155838000,0.136837890625,0.8870530128479004,0.19173002243041992,0.9873077869415283
1710954526174796800,0.155796875,0.429013729095459,-0.10950231552124023,0.5976290702819824
1710954526193755400,0.17475537109375,0.786841869354248,-0.16794443130493164,0.20315182209014893
1710954526212714200,0.19371435546875,0.11102962493896484,-0.06161308288574219,0.1448965072631836
1710954526231673000,0.212673095703125,-0.042127132415771484,0.4002504348754883,0.5394147634506226
1710954526250631700,0.231631591796875,0.00757598876953125,0.3375668525695801,0.19828176498413086
1710954526269590500,0.250590576171875,0.02846384048461914,0.30875539779663086,0.21011638641357422
1710954526288549400,0.26954931640625,0.2146592140197754,0.5684680938720703,0.22742080688476562
1710954526307508200,0.28850830078125,-0.9506888389587402,0.7172107696533203,-1.1011935472488403
1710954526326466800,0.307466796875,-0.29201841354370117,0.1205449104309082,-0.8258535861968994
1710954526345425700,0.32642578125,-0.1566004753112793,-1.017568588256836,-1.278602957725525
1710954526364384300,0.34538427734375,-0.4734325408935547,-0.16861724853515625,-0.9396766424179077
1710954526383343000,0.364343017578125,-0.3423442840576172,0.4482154846191406,-1.376958966255188
1710954526402302000,0.383302001953125,-0.32208728790283203,0.08313703536987305,0.4017908573150635
1710954526421260500,0.402260498046875,-0.25305843353271484,-0.6465539932250977,0.8672230243682861
1710954526440219400,0.421219482421875,0.25719499588012695,-0.3261699676513672,0.17913222312927246
1710954526459178000,0.440177978515625,0.04155588150024414,-0.6139254570007324,0.4548327922821045
1710954526478137000,0.45913720703125,-0.27509355545043945,-0.8907880783081055,0.9720571041107178
1710954526497095700,0.478095703125,-0.09249067306518555,-0.23259878158569336,0.9337592124938965
1710954526516054500,0.497054443359375,-0.28380680084228516,0.03444385528564453,0.6222143173217773
1710954526535013000,0.51601318359375,-0.3007373809814453,-0.5774774551391602,0.8090925216674805
1710954526553972000,0.534971923828125,-0.4635896682739258,-0.28321075439453125,0.5617086887359619
1710954526572930800,0.553930908203125,-0.5218467712402344,-0.9203171730041504,-0.5505154132843018
1710954526591889400,0.572889404296875,-0.5241236686706543,-0.46180152893066406,-0.34219956398010254
1710954526610848300,0.59184814453125,0.23898077011108398,0.11660909652709961,1.0785152912139893
1710954526629807000,0.61080712890625,0.6271271705627441,0.07076168060302734,1.2063255310058594
1710954526648765700,0.629765625,1.186924934387207,0.14236021041870117,0.46287059783935547
1710954526667724500,0.648724609375,0.525909423828125,-0.025791168212890625,0.809117317199707
1710954526686683400,0.667683349609375,-0.3993339538574219,-0.6169204711914062,-0.8984861373901367
1710954526705642000,0.68664208984375,-1.273482322692871,-0.8420758247375488,-2.264129638671875
1710954526724600800,0.705600830078125,-0.6550707817077637,1.062696933746338,0.16211557388305664
1710954526743559700,0.7245595703125,0.3003668785095215,-0.021541118621826172,-0.1471996307373047
1710954526762518300,0.743518310546875,0.21832799911499023,0.34447669982910156,0.7713608741760254
1710954526781477000,0.76247705078125,0.4704723358154297,0.28803253173828125,2.048579692840576
1710954526800436000,0.78143603515625,0.4660677909851074,0.09843826293945312,-0.09732580184936523
1710954526819394600,0.80039453125,-0.11879253387451172,-0.8975563049316406,-1.5925579071044922
1710954526838353400,0.819353515625,-0.2195572853088379,-0.5452446937561035,-0.35683488845825195
1710954526857312300,0.838312255859375,0.6474742889404297,0.07612037658691406,1.2192420959472656
1710954526876270800,0.857270751953125,1.5932207107543945,-0.0671687126159668,0.8675751686096191
1710954526895229700,0.876229736328125,1.3587288856506348,0.6601824760437012,0.04765796661376953
1710954526914188500,0.8951884765625,0.3684711456298828,1.0090899467468262,0.2543210983276367
1710954526933147400,0.9141474609375,-0.3100118637084961,0.5850381851196289,-0.39101219177246094
1710954526952106000,0.93310595703125,-0.5219950675964355,-0.5873503684997559,-1.734086036682129
1710954526971064800,0.95206494140625,-0.23434066772460938,0.06000566482543945,-0.01722431182861328
1710954526990023700,0.971023681640625,0.013851165771484375,0.49458837509155273,0.4450068473815918
1710954527008982300,0.989982177734375,0.010800361633300781,0.6422677040100098,-1.0772666931152344
1710954527027941000,1.008941162109375,-0.8799529075622559,0.10876226425170898,-1.5639028549194336
1710954527046900000,1.02789990234375,-0.0472102165222168,0.6248440742492676,0.18846654891967773
1710954527065858800,1.04685888671875,0.7221283912658691,0.27649927139282227,-0.2988600730895996
1710954527084817400,1.0658173828125,0.15961360931396484,0.7289714813232422,-0.5463590621948242
1710954527103776300,1.0847763671875,0.12460923194885254,0.22093772888183594,1.377220630645752
1710954527122735000,1.103735107421875,1.2901976108551025,0.17171716690063477,1.3619670867919922
1710954527141694000,1.12269384765625,0.547874927520752,-0.2650942802429199,0.0003647804260253906
1710954527160652800,1.14165283203125,-0.24232029914855957,0.3744468688964844,-0.5988407135009766
1710954527179611400,1.160611328125,-0.6997969150543213,0.9313254356384277,-0.2807297706604004
1710954527198570200,1.1795703125,0.5540885925292969,-0.1522665023803711,2.4394845962524414
1710954527217529000,1.198529052734375,0.233076810836792,0.4643735885620117,-0.592738151550293
1710954527236487700,1.21748779296875,-0.33681726455688477,0.24213695526123047,-2.015087604522705
1710954527255446500,1.236446533203125,-0.2391681671142578,0.3633918762207031,-0.6277756690979004
1710954527274405400,1.2554052734375,1.0915861129760742,-1.0388407707214355,0.4624357223510742
1710954527293364200,1.2743642578125,0.8229246139526367,0.22870540618896484,1.4752168655395508
1710954527312323000,1.293322998046875,-0.0010390281677246094,0.48049211502075195,-0.1537008285522461
1710954527331281700,1.31228173828125,0.29697108268737793,-0.007091999053955078,-0.3712787628173828
1710954527350240500,1.331240478515625,0.23735427856445312,0.18156147003173828,-0.4577455520629883
1710954527369199400,1.350199462890625,-0.10153555870056152,0.24230098724365234,-0.6442990303039551
1710954527388158200,1.369158203125,-0.3620438575744629,0.3724040985107422,-0.5783147811889648
1710954527407117000,1.388116943359375,0.13437414169311523,-0.33835840225219727,-0.6402583122253418
1710954527426076000,1.407075927734375,0.9185583591461182,-0.12060546875,0.8370876312255859
1710954527445034500,1.426034423828125,1.567225456237793,-0.02207326889038086,2.5746192932128906
1710954527463993300,1.444993408203125,1.4643406867980957,0.83349609375,2.9350147247314453
1710954527482952200,1.4639521484375,0.6214702129364014,0.9127511978149414,2.9462661743164062
1710954527501911000,1.4829111328125,0.01910710334777832,0.950139045715332,1.8695459365844727
1710954527520870000,1.501869873046875,-1.0997707843780518,1.149336576461792,-1.0045671463012695
1710954527539828700,1.520828857421875,-1.4945213794708252,1.2255926132202148,-1.7674570083618164
1710954527558787600,1.53978759765625,-1.2769510746002197,0.6947979927062988,-2.2806825637817383
1710954527577746400,1.558746337890625,-1.0662598609924316,0.25427675247192383,-2.238069534301758
1710954527596705000,1.577705078125,-1.1928331851959229,0.2038249969482422,-2.635341167449951
1710954527615663900,1.596663818359375,-0.2756178379058838,-0.6409449577331543,-1.3026037216186523
1710954527634622700,1.615622802734375,0.21436738967895508,-0.9116177558898926,0.57763671875
1710954527653581600,1.63458154296875,0.30902624130249023,-0.5231609344482422,1.622532844543457
1710954527672540400,1.65354052734375,0.18053531646728516,-0.6138801574707031,2.485623359680176
1710954527691499300,1.672499267578125,0.4497406482696533,-1.3246269226074219,3.861980438232422
1710954527710458000,1.6914580078125,0.7322170734405518,-1.991584300994873,2.7371110916137695
1710954527729417000,1.7104169921875,0.3025965690612793,-1.983863353729248,1.0284814834594727
1710954527748375800,1.729375732421875,-1.0203099250793457,-1.6331572532653809,0.8663129806518555
1710954527767334700,1.748334716796875,-1.5214927196502686,-0.6030755043029785,-0.5969429016113281
1710954527786293500,1.76729345703125,-0.4320251941680908,-0.09783792495727539,-1.4697895050048828
1710954527805252000,1.786252197265625,0.04497504234313965,-0.08370304107666016,-0.5476689338684082
1710954527824211000,1.8052109375,-0.8116581439971924,0.4759035110473633,-1.1370811462402344
1710954527843169800,1.824169677734375,0.030367136001586914,1.0875701904296875,-0.029122352600097656
1710954527862128600,1.843128662109375,1.1011669635772705,1.7105159759521484,0.15887832641601562
1710954527881087500,1.86208740234375,1.9491479396820068,0.9627656936645508,0.8090858459472656
1710954527900046300,1.88104638671875,0.7438740730285645,0.831423282623291,0.21116256713867188
1710954527919005200,1.900005126953125,0.1859574317932129,0.6517376899719238,0.40137481689453125
1710954527937964000,1.918964111328125,-0.7123565673828125,0.33482789993286133,0.29434680938720703
1710954527956923000,1.9379228515625,-0.5608940124511719,0.21235322952270508,-0.09270238876342773
1710954527975881700,1.9568818359375,0.2379589080810547,0.21911001205444336,-0.16732215881347656
1710954527994840600,1.975840576171875,0.3238365650177002,0.5178170204162598,0.6383256912231445
1710954528013799400,1.99479931640625,0.12426114082336426,0.3581547737121582,0.5135769844055176
1710954528032758300,2.01375830078125,-1.591667652130127,0.5717401504516602,-3.5996694564819336
1710954528051717000,2.032717041015625,0.3245868682861328,0.886497974395752,-3.7918920516967773
1710954528070676000,2.051676025390625,1.3043606281280518,1.509993553161621,-1.0300750732421875
1710954528089634800,2.070634765625,0.4337167739868164,1.329033374786377,1.1749029159545898
1710954528108593700,2.08959375,-3.849668264389038,-0.18841075897216797,-0.6893582344055176
1710954528127552500,2.108552490234375,-2.409602642059326,-0.2084202766418457,-2.950850009918213
1710954528146511400,2.127511474609375,-1.23826003074646,-0.8469347953796387,-2.426158905029297
1710954528165470200,2.14647021484375,-0.3884502649307251,-1.6070036888122559,0.1991596221923828
1710954528184429000,2.165428955078125,0.0007464736700057983,-1.6194019317626953,2.29892635345459
1710954528203388000,2.184387939453125,0.29016613960266113,-0.33058786392211914,2.3809499740600586
1710954528222346800,2.2033466796875,0.5098503828048706,-0.4854550361633301,1.3670148849487305
1710954528241305600,2.2223056640625,1.0894733667373657,-1.5926761627197266,0.9969081878662109
1710954528260264400,2.241264404296875,-0.3124450445175171,-1.1457910537719727,1.1380033493041992
1710954528279223300,2.260223388671875,0.040129244327545166,-0.0147247314453125,1.1331138610839844
1710954528298182400,2.279182373046875,-0.02263110876083374,1.0328373908996582,1.2648029327392578
1710954528317141200,2.298141357421875,-0.3521665334701538,0.7676420211791992,-0.017953872680664062
1710954528336100000,2.31710009765625,-1.356276035308838,0.20850181579589844,-1.922389030456543
1710954528355059000,2.336058837890625,-1.2149492502212524,0.2907109260559082,-1.8302316665649414
1710954528374017800,2.355017822265625,0.3251227140426636,0.00806427001953125,-0.28850603103637695
1710954528392976600,2.3739765625,1.882164716720581,-0.33460283279418945,1.9289917945861816
1710954528411935500,2.392935546875,1.2016558647155762,0.39696359634399414,0.3056197166442871
1710954528430894300,2.411894287109375,-0.4216010570526123,0.6930909156799316,-0.09489250183105469
1710954528449853200,2.430853271484375,-0.3196127414703369,0.044629573822021484,-0.7275261878967285
1710954528468812000,2.44981201171875,-0.02173304557800293,0.12393474578857422,0.12153196334838867
1710954528487771000,2.46877099609375,-0.6725356578826904,0.34141063690185547,-0.10543012619018555
1710954528506729700,2.487729736328125,-0.0623471736907959,-0.540283203125,0.45714759826660156
1710954528525688600,2.5066884765625,0.3531789779663086,-0.35126829147338867,-0.6829648017883301
1710954528544647400,2.5256474609375,0.22362279891967773,-0.21391677856445312,0.09518909454345703
1710954528563606300,2.544606201171875,0.15364623069763184,0.6670212745666504,0.30573463439941406
1710954528582565000,2.563565185546875,0.10156607627868652,0.5784525871276855,0.3347134590148926
1710954528601524000,2.58252392578125,0.524949312210083,0.2296733856201172,0.4441380500793457
1710954528620483000,2.601483154296875,1.3464984893798828,-0.15466976165771484,1.6846537590026855
1710954528639442000,2.62044189453125,1.9243195056915283,-0.25702905654907227,2.2938599586486816
1710954528658400800,2.63940087890625,1.158254861831665,-0.08966636657714844,2.2081375122070312
1710954528677359600,2.658359619140625,0.7291965484619141,0.25474023818969727,1.4947175979614258
1710954528696318500,2.677318359375,0.9742417335510254,0.43438148498535156,2.021702289581299
1710954528715277300,2.69627734375,1.303371548652649,0.3665485382080078,2.1597275733947754
1710954528734236200,2.715236083984375,-0.0778810977935791,0.46370458602905273,1.275892734527588
1710954528753195000,2.734195068359375,-1.2568650245666504,0.6083207130432129,-0.4845848083496094
1710954528772153900,2.75315380859375,-0.9592635631561279,0.5295157432556152,-0.45226049423217773
1710954528791112700,2.77211279296875,-0.5257564783096313,0.08463478088378906,0.9533586502075195
1710954528810071800,2.79107177734375,-0.5540986657142639,-0.05991029739379883,1.1489105224609375
1710954528829030700,2.81003076171875,-0.35734376311302185,-0.6311402320861816,0.8258962631225586
1710954528847989500,2.828989501953125,-0.428780734539032,-0.07297801971435547,1.1905651092529297
1710954528866948400,2.8479482421875,-1.111271858215332,0.03353071212768555,-0.38056278228759766
1710954528885907200,2.8669072265625,-1.7710137367248535,-0.6350312232971191,-1.0143470764160156
1710954528904866000,2.885865966796875,-1.293468713760376,-0.9378533363342285,-1.521028995513916
1710954528923825000,2.904824951171875,-1.2630221843719482,-0.115509033203125,-1.2307186126708984
1710954528942784000,2.923783935546875,-0.9222860336303711,-0.053037166595458984,-1.0961971282958984
1710954528961742800,2.942742919921875,-0.5782077312469482,-0.15088987350463867,-0.9473252296447754
1710954528980701700,2.96170166015625,-0.6891576051712036,-0.2831587791442871,-0.37480831146240234
1710954528999660500,2.98066064453125,-0.0786890983581543,0.19678831100463867,0.4165935516357422
1710954529018619400,2.999619384765625,0.1274731159210205,0.04731607437133789,0.22712421417236328
1710954529037578200,3.018578125,-0.8260419368743896,-0.622795581817627,-1.1059632301330566
1710954529056537300,3.037537353515625,-2.03617525100708,-0.9028620719909668,-1.6993470191955566
1710954529075496200,3.05649609375,-1.3644661903381348,0.2082056999206543,-0.9825234413146973
1710954529094455000,3.075455078125,-0.6794722080230713,0.21419858932495117,-0.3487715721130371
1710954529113414000,3.094413818359375,-0.32442617416381836,-0.06687545776367188,-0.9936866760253906
1710954529132372700,3.113372802734375,-0.5776312351226807,-0.36506223678588867,-1.2254204750061035
1710954529151331800,3.132331787109375,-0.6015417575836182,-0.4397401809692383,-0.8784375190734863
1710954529170290700,3.151290771484375,-0.06430912017822266,0.07634353637695312,-0.1722249984741211
1710954529189249500,3.17024951171875,3.151937961578369,0.06120634078979492,1.8150115013122559
1710954529208208400,3.18920849609375,2.2137036323547363,0.704777717590332,2.314746379852295
1710954529227167200,3.208167236328125,1.763963222503662,0.46202850341796875,2.137253761291504
1710954529246126300,3.227126220703125,0.7014750242233276,0.4742131233215332,0.5078530311584473
1710954529265085200,3.246085205078125,-0.1941967010498047,0.5817098617553711,-1.0518527030944824
1710954529284044000,3.2650439453125,-0.993809700012207,0.5198197364807129,-1.9048833847045898
1710954529303003000,3.2840029296875,-1.158997654914856,0.3368077278137207,-1.4375710487365723
1710954529321961700,3.302961669921875,-1.1289094686508179,0.004483222961425781,-0.7213654518127441
1710954529340920800,3.3219208984375,-0.35137081146240234,-0.3380460739135742,0.5438570976257324
1710954529359879700,3.340879638671875,0.34543025493621826,-0.5221033096313477,1.793661117553711
1710954529378838500,3.359838623046875,0.0035134553909301758,-0.871976375579834,1.239699363708496
1710954529397797400,3.37879736328125,0.39366060495376587,-0.8814206123352051,0.6303720474243164
1710954529416756200,3.397756103515625,0.4745938181877136,-0.044864654541015625,0.47673797607421875
1710954529435715000,3.416715087890625,0.4424576759338379,0.5147128105163574,-0.29287099838256836
1710954529454674200,3.435674072265625,0.1613675355911255,0.3245563507080078,-0.46770572662353516
1710954529473633000,3.454633056640625,-0.2860798239707947,0.21846485137939453,-0.3952360153198242
1710954529492591900,3.473591796875,-0.44781363010406494,0.6428060531616211,-0.8739995956420898
1710954529511550700,3.49255078125,-0.5899536609649658,0.4727296829223633,-1.168940544128418
1710954529530509600,3.511509521484375,-0.6923553943634033,0.04538774490356445,-1.3017020225524902
1710954529549468700,3.53046875,-0.13559657335281372,0.0005097389221191406,-0.15867328643798828
1710954529568427500,3.549427490234375,0.6819870471954346,0.0926971435546875,1.120410442352295
1710954529587386400,3.568386474609375,1.286449670791626,-0.13496637344360352,2.011152744293213
1710954529606345200,3.58734521484375,1.0229662656784058,-0.11668062210083008,1.24821138381958
1710954529625304300,3.60630419921875,0.2133179008960724,0.13915109634399414,0.4264564514160156
1710954529644263200,3.62526318359375,-0.2527226209640503,0.2364506721496582,0.021804332733154297
1710954529663222000,3.644221923828125,-0.1944485306739807,-0.0883169174194336,-0.2412242889404297
1710954529682180900,3.663180908203125,-0.24936114251613617,-0.20496559143066406,-0.3029813766479492
1710954529701140000,3.682139892578125,-0.019300788640975952,-0.07718420028686523,0.029481887817382812
1710954529720098800,3.701098876953125,0.06548404693603516,0.1658320426940918,0.3047642707824707
1710954529739057700,3.7200576171875,-0.06283408403396606,0.11516666412353516,0.33870649337768555
1710954529758016800,3.739016845703125,-0.3468180298805237,-0.2883725166320801,-0.24341487884521484
1710954529776975600,3.7579755859375,-0.43908458948135376,-0.44138193130493164,-0.7003254890441895
1710954529795934500,3.7769345703125,-0.6977102160453796,-0.057366371154785156,-0.42723655700683594
1710954529814893300,3.795893310546875,-0.7019656896591187,-0.11383199691772461,0.08034563064575195
1710954529833852200,3.81485205078125,-0.1926460862159729,-0.4048185348510742,-0.4608011245727539
1710954529852811000,3.83381103515625,-0.09349328279495239,-0.5363945960998535,-0.044811248779296875
1710954529871770000,3.85277001953125,-0.36269861459732056,0.04791593551635742,0.21727800369262695
1710954529890729000,3.87172900390625,-0.18635153770446777,-0.1156001091003418,-0.3314242362976074
1710954529909687800,3.890687744140625,0.23331701755523682,0.08873510360717773,-0.28180980682373047
1710954529928647000,3.90964697265625,-0.10659068822860718,0.15130329132080078,0.9195289611816406
1710954529947605800,3.928605712890625,0.05520838499069214,0.3115978240966797,1.0542383193969727
1710954529966564600,3.947564697265625,1.0132898092269897,0.3151712417602539,-0.620539665222168
1710954529985523700,3.966523681640625,0.08051395416259766,0.3148059844970703,0.08538341522216797
1710954530004482600,3.985482666015625,-0.2327793836593628,0.7904810905456543,0.2660179138183594
1710954530023441400,4.00444140625,0.23548483848571777,0.7895722389221191,-0.2653484344482422
1710954530042400300,4.023400146484375,0.34048521518707275,0.21289968490600586,-0.33032798767089844
1710954530061359400,4.042359375,0.0417628288269043,-0.16236352920532227,-0.35544586181640625
1710954530080318200,4.061318115234375,-1.0332849025726318,0.030378341674804688,-0.9435615539550781
1710954530099277000,4.080277099609375,0.8021391034126282,-0.4641532897949219,-0.22582149505615234
1710954530118236000,4.09923583984375,0.7311525344848633,-0.0348973274230957,0.8634357452392578
1710954530137195000,4.118195068359375,0.3395864963531494,0.27373838424682617,1.0517816543579102
1710954530156153900,4.13715380859375,-0.19230413436889648,0.3500089645385742,0.4437875747680664
1710954530175112700,4.15611279296875,-0.4021949768066406,0.24480009078979492,0.33287906646728516
1710954530194071600,4.175071533203125,1.1955289840698242,0.1779332160949707,0.5782928466796875
1710954530213030700,4.19403076171875,-0.3343367576599121,0.38915395736694336,-0.588984489440918
1710954530231989500,4.212989501953125,0.6456862688064575,-0.6366710662841797,-0.4963564872741699
1710954530250948400,4.2319482421875,0.8509461879730225,-0.017924785614013672,1.2361278533935547
1710954530269907500,4.250907470703125,0.5635932683944702,0.5125961303710938,1.1082448959350586
1710954530288866300,4.2698662109375,0.08323419094085693,-0.2027425765991211,0.5893182754516602
1710954530307825200,4.2888251953125,-0.10239982604980469,-0.5029487609863281,0.4496192932128906
1710954530326784300,4.3077841796875,0.08064937591552734,0.7717814445495605,0.7149658203125
1710954530345743000,4.3267431640625,0.1227579116821289,1.0012402534484863,0.7281227111816406
1710954530364702000,4.345701904296875,0.01838374137878418,0.0561070442199707,-0.2085566520690918
1710954530383660800,4.364660888671875,-0.5079805850982666,-0.467893123626709,-1.0219368934631348
1710954530402620000,4.383619873046875,-0.8121938705444336,0.1605687141418457,-0.8900046348571777
1710954530421578800,4.402578857421875,-0.22417926788330078,-0.17356300354003906,-0.5199990272521973
1710954530440537600,4.42153759765625,0.31755542755126953,-0.9981694221496582,0.2140192985534668
1710954530459496700,4.44049658203125,-0.9737224578857422,0.37167787551879883,-0.6685309410095215
1710954530478455600,4.45945556640625,-0.36647868156433105,-0.3798093795776367,-0.8766212463378906
1710954530497414400,4.478414306640625,-0.40238285064697266,-0.7667655944824219,-0.5920281410217285
1710954530516373500,4.49737353515625,-0.11326289176940918,-0.24199724197387695,-0.1529378890991211
1710954530535332400,4.516332275390625,0.15704631805419922,-0.33614301681518555,0.5875473022460938
1710954530554291200,4.535291259765625,-0.09790444374084473,0.11885547637939453,1.3540911674499512
1710954530573250300,4.554250244140625,0.08089280128479004,-0.30776262283325195,1.1231822967529297
1710954530592209200,4.573209228515625,0.42972445487976074,-0.9836735725402832,-0.10760831832885742
1710954530611168000,4.59216796875,-0.8551844358444214,-0.45331764221191406,-0.7130880355834961
1710954530630126800,4.611126953125,-0.5691125392913818,-0.14888620376586914,-0.016406536102294922
1710954530649086000,4.6300859375,0.15504908561706543,0.40165185928344727,0.44155311584472656
1710954530668044800,4.649044921875,0.20067834854125977,0.2242436408996582,-0.5131926536560059
1710954530687003600,4.668003662109375,-0.7937376499176025,-0.3480720520019531,-0.3613758087158203
1710954530705962800,4.686962646484375,0.0020074844360351562,-0.5092372894287109,0.22662925720214844
1710954530724921600,4.705921630859375,0.5845630168914795,0.11931324005126953,0.8384556770324707
1710954530743880400,4.72488037109375,0.5502135753631592,0.26203203201293945,0.7905268669128418
1710954530762839600,4.743839599609375,-0.3703131675720215,-0.07529401779174805,-0.16646385192871094
1710954530781798400,4.76279833984375,-1.0989689826965332,0.24096918106079102,-0.7523398399353027
1710954530800757500,4.781757568359375,-0.5815639495849609,0.9009318351745605,-0.636380672454834
1710954530819716400,4.80071630859375,0.26067280769348145,0.5760087966918945,-0.2677297592163086
1710954530838675200,4.81967529296875,-0.8961179256439209,-0.28864288330078125,0.1233510971069336
1710954530857634000,4.838634033203125,0.5348918437957764,-0.24045991897583008,0.9067258834838867
1710954530876593200,4.85759326171875,1.635329246520996,-0.39841127395629883,0.3673992156982422
1710954530895552000,4.876552001953125,-0.15093326568603516,0.19598007202148438,0.3054080009460449
1710954530914510800,4.8955107421875,-0.5804288387298584,-0.7211384773254395,0.09128093719482422
1710954530933470000,4.914469970703125,0.16997408866882324,0.2349381446838379,0.36951351165771484
1710954530952428800,4.9334287109375,0.23050594329833984,0.6214137077331543,0.22862720489501953
1710954530971387600,4.9523876953125,-0.024803638458251953,-0.002079486846923828,-0.4832587242126465
1710954530990346800,4.9713466796875,-1.0802602767944336,0.285214900970459,-0.7041568756103516
1710954531009305600,4.9903056640625,-0.6223206520080566,0.17652606964111328,-0.39293861389160156
1710954531028264400,5.009264404296875,-0.36206912994384766,-0.1059122085571289,-1.0658607482910156
1710954531047223300,5.028223388671875,-0.12445187568664551,-0.34695911407470703,-1.291081428527832
1710954531066182400,5.047182373046875,-0.327406644821167,-0.35276031494140625,-0.18665409088134766
1710954531085141200,5.066141357421875,-0.11232972145080566,0.01402139663696289,0.6936168670654297
1710954531104100400,5.085100341796875,0.09808945655822754,0.06675004959106445,0.054912567138671875
1710954531123059200,5.10405908203125,-0.057615041732788086,-0.06688213348388672,-0.727470874786377
1710954531142018000,5.12301806640625,0.14848566055297852,-0.21410751342773438,-0.6706409454345703
1710954531160977200,5.14197705078125,0.03680086135864258,0.05272674560546875,-0.607172966003418
1710954531179936000,5.16093603515625,0.6554741859436035,0.3562145233154297,-0.37679100036621094
1710954531198895000,5.17989501953125,0.3287777900695801,0.7049436569213867,-0.23496484756469727
1710954531217854000,5.19885400390625,0.6255981922149658,0.24179935455322266,0.13338661193847656
1710954531236812800,5.217812744140625,0.4644317626953125,0.08256101608276367,-0.04039812088012695
1710954531255771600,5.236771728515625,0.4324963092803955,0.473268985748291,0.3062291145324707
1710954531274730800,5.255730712890625,0.34714245796203613,0.8570494651794434,0.07687759399414062
1710954531293689600,5.274689697265625,0.12889134883880615,1.2080965042114258,-0.41915035247802734
1710954531312648400,5.2936484375,-0.060808420181274414,1.1272554397583008,-0.4003787040710449
1710954531331607600,5.312607666015625,-0.14187955856323242,0.8019275665283203,-0.13002395629882812
1710954531350566400,5.33156640625,0.24753236770629883,0.5591750144958496,0.07599735260009766
1710954531369525500,5.350525390625,0.5271002054214478,0.31572914123535156,0.09096908569335938
1710954531388484400,5.369484375,0.6378945112228394,-0.04109382629394531,0.04439353942871094
1710954531407443200,5.388443115234375,0.09276175498962402,-0.13026905059814453,-0.19260692596435547
1710954531426402000,5.407402099609375,-0.25830549001693726,-0.38120603561401367,-0.06702232360839844
1710954531445361200,5.426361083984375,0.07227998971939087,-0.44580602645874023,-0.04903602600097656
1710954531464320000,5.445320068359375,1.1821318864822388,-0.05959510803222656,0.13159465789794922
1710954531483279000,5.464279052734375,1.8771183490753174,0.24950838088989258,0.4605884552001953
1710954531502238000,5.483238037109375,1.5322937965393066,0.7789335250854492,0.7874794006347656
1710954531521196800,5.50219677734375,1.2008273601531982,1.1560769081115723,0.25139331817626953
1710954531540156000,5.521156005859375,1.0445711612701416,0.9869232177734375,-0.49549007415771484
1710954531559114800,5.54011474609375,0.5521809458732605,0.9538631439208984,-0.9656505584716797
1710954531578073900,5.559073974609375,0.31768566370010376,1.006474494934082,-0.9419093132019043
1710954531597032700,5.57803271484375,0.18794405460357666,0.5472302436828613,-0.9339919090270996
1710954531615991600,5.596991455078125,-0.37596750259399414,0.6100890636444092,-0.795295238494873
1710954531634950400,5.615950439453125,-0.9165621995925903,0.9007699489593506,-0.5276899337768555
1710954531653909500,5.634909423828125,-0.7193646430969238,0.7317795753479004,0.6310129165649414
1710954531672868400,5.653868408203125,0.8399851322174072,-0.02529001235961914,2.088977813720703
1710954531691827500,5.672827392578125,1.8643096685409546,-0.4810647964477539,2.1940717697143555
1710954531710786300,5.691786376953125,1.2149217128753662,-0.3054201602935791,1.0978660583496094
1710954531729745200,5.7107451171875,0.5732042789459229,-0.06220674514770508,0.07346725463867188
1710954531748704300,5.729704345703125,-0.04198026657104492,0.3278226852416992,-0.4855060577392578
1710954531767663000,5.7486630859375,-1.679105520248413,1.1186089515686035,-1.0030536651611328
1710954531786622000,5.7676220703125,-2.3576366901397705,1.603638768196106,-0.8903570175170898
1710954531805581000,5.7865810546875,-1.3870582580566406,1.071349024772644,-0.4838371276855469
1710954531824540000,5.805539794921875,0.032706260681152344,-0.09678864479064941,-0.23839473724365234
1710954531843498800,5.824498779296875,0.1354207992553711,-0.7912819385528564,-0.18349552154541016
1710954531862457900,5.843457763671875,-0.20122337341308594,-0.26551270484924316,0.0592041015625
1710954531881416700,5.862416748046875,-1.6197681427001953,0.4290652275085449,-0.044226646423339844
1710954531900375800,5.881375732421875,-1.6650028228759766,-0.3397958278656006,0.06862068176269531
1710954531919334700,5.900334716796875,-0.9332327842712402,-0.8193850517272949,-0.42804527282714844
1710954531938293500,5.91929345703125,-0.9966912269592285,0.012317895889282227,-0.28046607971191406
1710954531957252600,5.938252685546875,-1.226670742034912,0.1977289915084839,0.4827127456665039
1710954531976211500,5.95721142578125,-0.8171882629394531,-1.0875773429870605,1.0380983352661133
1710954531995170600,5.976170654296875,-0.18572664260864258,-1.129753589630127,0.6012954711914062
1710954532014129400,5.99512939453125,-0.17993783950805664,-0.26662224531173706,0.7621269226074219
1710954532033088500,6.014088623046875,0.18741655349731445,-0.3859105706214905,0.5376834869384766
1710954532052047400,6.03304736328125,0.22161102294921875,-0.5725605487823486,0.39019298553466797
1710954532071006200,6.052006103515625,-0.26044797897338867,-0.2615014314651489,0.7880315780639648
1710954532089965300,6.07096533203125,-0.2542996406555176,0.2167486846446991,0.5002403259277344
1710954532108924200,6.089924072265625,-0.5638642311096191,0.294166624546051,-0.0034399032592773438
1710954532127883000,6.108883056640625,-0.9295363426208496,-0.5042003989219666,-0.11446762084960938
1710954532146842000,6.127842041015625,-1.0192961692810059,-0.9783601760864258,-0.09885787963867188
1710954532165801000,6.146801025390625,-0.9244375228881836,-0.5605623722076416,-0.14195632934570312
1710954532184760000,6.165760009765625,-0.8562936782836914,-0.4417112469673157,0.16834545135498047
1710954532203719000,6.184718994140625,-0.5998425483703613,-0.4441671371459961,0.5933980941772461
1710954532222678000,6.203677978515625,0.07730484008789062,-0.6370370984077454,0.8212337493896484
1710954532241636900,6.222636962890625,0.4369983673095703,-0.02619802951812744,0.41605472564697266
1710954532260595700,6.241595703125,-1.3473997116088867,-0.3630105257034302,-0.7787809371948242
1710954532279554800,6.260554931640625,-1.891397476196289,-0.8521426916122437,-1.2971086502075195
1710954532298513700,6.279513671875,-1.9656476974487305,-0.5487028956413269,-1.350327491760254
1710954532317472800,6.29847265625,-1.787459373474121,-0.18986207246780396,-0.9803056716918945
1710954532336431600,6.317431640625,-1.5893774032592773,0.07890349626541138,-0.8461971282958984
1710954532355390700,6.336390625,-1.984555721282959,-0.10587871074676514,-0.5912437438964844
1710954532374349600,6.355349609375,-0.1639862060546875,-0.6664700508117676,0.5868234634399414
1710954532393308700,6.37430859375,1.0054054260253906,-1.0043666362762451,1.9779300689697266
1710954532412267500,6.393267578125,0.16553020477294922,-0.2806621789932251,1.7317495346069336
1710954532431226600,6.4122265625,-0.45635461807250977,0.27441883087158203,0.8224048614501953
1710954532450185500,6.431185546875,-0.2549304962158203,0.1913456916809082,-0.5331029891967773
1710954532469144600,6.45014453125,1.0553810596466064,0.9895768761634827,-0.7280817031860352
1710954532488103400,6.469103515625,2.1447629928588867,3.3809757232666016,0.41193485260009766
1710954532507062300,6.488062255859375,3.1216421127319336,4.414013862609863,0.7455549240112305
1710954532526021400,6.507021484375,3.945767641067505,3.3169407844543457,-0.13180065155029297
1710954532544980500,6.52598046875,3.88208270072937,1.6897203922271729,-1.3219413757324219
1710954532563939300,6.544939208984375,2.832333564758301,1.0669739246368408,-2.5412673950195312
1710954532582898400,6.5638984375,1.4456844329833984,0.8639917373657227,-3.1041173934936523
1710954532601857300,6.582857177734375,0.8064422607421875,0.701134204864502,-2.471466541290283
1710954532620816400,6.60181640625,0.36554408073425293,1.5544846057891846,-1.040989875793457
1710954532639775200,6.620775146484375,-0.3134493827819824,2.7568607330322266,0.60150146484375
1710954532658734300,6.639734375,-0.4820218086242676,2.3525328636169434,1.1870803833007812
1710954532677693200,6.658693115234375,0.1750631332397461,0.2416176199913025,0.5853548049926758
1710954532696652300,6.67765234375,0.9371423721313477,-1.9741909503936768,0.23646926879882812
1710954532715611100,6.696611083984375,0.6962952613830566,-1.582354187965393,0.6894617080688477
1710954532734570200,6.7155703125,-0.8182773590087891,-0.15236333012580872,0.5663022994995117
1710954532753529300,6.734529296875,-2.2329020500183105,0.536395251750946,1.1573829650878906
1710954532772488200,6.75348828125,-1.394463062286377,-0.4298079013824463,1.8792352676391602
1710954532791447300,6.772447265625,0.030868053436279297,-0.8757795095443726,1.1435585021972656
1710954532810406100,6.79140625,0.24025869369506836,-0.9401512145996094,-0.5811753273010254
1710954532829365200,6.810365234375,0.019512653350830078,-0.16554448008537292,-1.7480707168579102
1710954532848324000,6.829323974609375,-1.508690357208252,0.008136272430419922,-3.1767425537109375
1710954532867283200,6.848283203125,-1.3351454734802246,-0.6556837558746338,-4.817570209503174
1710954532886242000,6.867241943359375,-1.1972508430480957,-1.0366452932357788,-3.9844675064086914
1710954532905201200,6.886201171875,-0.6941380500793457,-1.1602520942687988,-1.9670510292053223
1710954532924160300,6.90516015625,-0.8118758201599121,-0.8835338354110718,-0.022918701171875
1710954532943119000,6.924119140625,-0.632535457611084,-4.882891654968262,4.134139060974121
1710954532962078200,6.943078125,1.8474445343017578,1.9864634275436401,10.411300659179688
1710954532981037000,6.962037109375,-0.46694087982177734,-0.11069327592849731,1.5261974334716797
1710954532999996200,6.98099609375,-0.6507725715637207,-0.0387226939201355,0.49273109436035156
1710954533018955300,6.999955322265625,-1.1567134857177734,-0.04968315362930298,0.08001899719238281
1710954533037914400,7.018914306640625,-0.24492502212524414,-0.010275542736053467,0.03876018524169922
1710954533056873200,7.037873291015625,0.01729106903076172,0.08167511224746704,-0.02176666259765625
1710954533075832300,7.056832275390625,-0.0002422332763671875,0.16152805089950562,-0.6077861785888672
1710954533094791200,7.075791259765625,0.2528705596923828,0.1069154143333435,-0.5271072387695312
1710954533113750300,7.094750244140625,0.4732213020324707,0.07645577192306519,-0.5074844360351562
1710954533132709400,7.11370947265625,0.5751900672912598,0.04039871692657471,-0.47709131240844727
1710954533151668200,7.132668212890625,0.2911224365234375,0.03754317760467529,-0.3247232437133789
1710954533170627300,7.15162744140625,0.24857234954833984,0.11671054363250732,0.06345558166503906
1710954533189586400,7.17058642578125,-0.4697732925415039,-0.01538240909576416,0.2622098922729492
1710954533208545300,7.189545166015625,0.10036182403564453,0.09294694662094116,0.43200254440307617
1710954533227504400,7.20850439453125,0.1438145637512207,-0.16544055938720703,0.435915470123291
1710954533246463500,7.22746337890625,-0.02211475372314453,-0.0575861930847168,-0.39766740798950195
1710954533265422600,7.246422607421875,0.38671875,0.011647224426269531,-0.9731345176696777
1710954533284381400,7.26538134765625,0.22182941436767578,0.00852060317993164,0.28880882263183594
1710954533303340500,7.284340576171875,-0.5620613098144531,0.0412830114364624,0.8039975166320801
1710954533322299600,7.303299560546875,-0.7923407554626465,0.012688815593719482,0.8730969429016113
1710954533341258500,7.322258544921875,-0.1645340919494629,0.03294825553894043,0.35785913467407227
1710954533360217600,7.341217529296875,-0.03903532028198242,-0.038181841373443604,0.28456544876098633
1710954533379176700,7.3601767578125,0.3479948043823242,-3.5089244842529297,0.44834470748901367
1710954533398135800,7.3791357421875,-0.5260353088378906,-0.8962093591690063,0.3072628974914551
1710954533417094700,7.3980947265625,-1.111821174621582,-0.8152367472648621,0.34593915939331055
1710954533436053800,7.4170537109375,-1.6996521949768066,-1.2150717973709106,1.1130318641662598
1710954533455012900,7.436012939453125,-1.1410341262817383,-0.45254406332969666,1.307999610900879
1710954533473972000,7.454971923828125,-1.1062688827514648,0.47001945972442627,1.431434154510498
1710954533492930800,7.473930908203125,-0.6905350685119629,0.20925933122634888,0.7866940498352051
1710954533511890000,7.492889892578125,-0.13806676864624023,-0.2923809885978699,0.4527907371520996
1710954533530849000,7.51184912109375,-0.1564807891845703,-0.2865673303604126,0.3599667549133301
1710954533549808000,7.53080810546875,-0.4484691619873047,-0.00295257568359375,-0.2001795768737793
1710954533568767000,7.54976708984375,-0.7056517601013184,-0.11475741863250732,-0.45637989044189453
1710954533587726000,7.56872607421875,-0.6089110374450684,-0.515717625617981,-0.7027735710144043
1710954533606685200,7.587685302734375,-0.6014189720153809,-0.477463960647583,-0.9262042045593262
1710954533625644300,7.606644287109375,-0.3986392021179199,0.27492082118988037,-0.623161792755127
1710954533644603100,7.62560302734375,-0.25594663619995117,0.9358214139938354,-0.519129753112793
1710954533663562200,7.644562255859375,-0.021529197692871094,1.4180817604064941,-0.4585294723510742
1710954533682521300,7.663521240234375,0.18669366836547852,1.5970538854599,-0.24561643600463867
1710954533701480400,7.68248046875,0.10836124420166016,1.3486089706420898,-0.3229694366455078
1710954533720439600,7.701439453125,-0.24056482315063477,1.1732211112976074,-0.25108909606933594
1710954533739398400,7.7203984375,-0.45873546600341797,1.00205397605896,0.2587928771972656
1710954533758357500,7.739357421875,-0.4699110984802246,0.5963232517242432,0.44957876205444336
1710954533777316600,7.758316650390625,-0.14295530319213867,0.4137592315673828,0.24930810928344727
1710954533796275700,7.777275634765625,0.14012527465820312,0.3437957763671875,0.35544824600219727
1710954533815234800,7.79623486328125,0.4065823554992676,0.3502938747406006,0.903480052947998
1710954533834194000,7.81519384765625,0.3180418014526367,0.40416669845581055,0.9411611557006836
1710954533853153000,7.834153076171875,0.05631065368652344,0.49951934814453125,0.7882299423217773
1710954533872111900,7.85311181640625,-0.31151342391967773,0.7654232978820801,0.4820070266723633
1710954533891071000,7.872071044921875,-0.2317061424255371,0.7688798904418945,0.29257726669311523
1710954533910030000,7.891030029296875,0.29611921310424805,0.8583507537841797,0.48931360244750977
1710954533928989200,7.9099892578125,0.5264992713928223,1.1375198364257812,0.9871983528137207
1710954533947948300,7.9289482421875,-0.10191679000854492,0.803095817565918,0.9037027359008789
1710954533966907400,7.947907470703125,-0.16412115097045898,0.2900271415710449,0.9184165000915527
1710954533985866500,7.966866455078125,-0.286224365234375,-0.022027969360351562,0.30118560791015625
1710954534004825600,7.98582568359375,-1.1885056495666504,-0.07375144958496094,-1.0792503356933594
1710954534023784400,8.004784423828125,-1.7365694046020508,0.4683070182800293,-1.8924322128295898
1710954534042743600,8.02374365234375,-1.516674518585205,0.5739550590515137,-2.2072644233703613
1710954534061702700,8.04270263671875,-1.2257781028747559,0.5453176498413086,-1.9327363967895508
1710954534080661800,8.061661865234376,-1.2959961891174316,0.3793983459472656,-1.7865610122680664
1710954534099620900,8.080620849609375,-0.009711265563964844,0.051276206970214844,-0.4210958480834961
1710954534118580000,8.099580078125,1.7677417993545532,-0.527646541595459,1.3811516761779785
1710954534137539000,8.1185390625,1.7993305921554565,-0.5149211883544922,2.2414350509643555
1710954534156498200,8.137498291015625,0.42668431997299194,0.1256108283996582,1.1534743309020996
1710954534175457300,8.156457275390625,-0.6899545192718506,0.7681384086608887,-1.112222671508789
1710954534194416400,8.17541650390625,-0.9635605216026306,1.0880141258239746,-2.6357407569885254
1710954534213375500,8.19437548828125,-0.5225088596343994,1.365415096282959,-2.8995962142944336
1710954534232334300,8.213334228515626,0.35423967242240906,1.9710702896118164,-2.3915653228759766
1710954534251293700,8.232293701171875,1.9277186393737793,0.9664225578308105,-1.7789688110351562
1710954534270252800,8.251252685546875,2.1997528076171875,1.3797640800476074,-0.1734910011291504
1710954534289211600,8.270211669921874,-1.9338568449020386,2.626434803009033,0.15043973922729492
1710954534308170800,8.289170654296875,-0.8688554763793945,1.5605740547180176,-0.5151357650756836
1710954534327130000,8.308130126953126,1.278802514076233,0.05759429931640625,-0.1336040496826172
1710954534346089000,8.3270888671875,1.4517189264297485,0.6199193000793457,0.7685632705688477
1710954534365048000,8.346048095703125,1.0711597204208374,0.4645962715148926,1.4150166511535645
1710954534384007200,8.365007080078126,0.682655930519104,-0.40340185165405273,0.5993623733520508
1710954534402966300,8.38396630859375,0.20702946186065674,-1.175316333770752,-0.594733715057373
1710954534421925400,8.40292529296875,-0.3469120264053345,-0.593055248260498,-0.7015266418457031
1710954534440884500,8.421884521484374,-0.16576790809631348,0.021379947662353516,0.08671140670776367
1710954534459843600,8.440843505859375,0.2598862648010254,-1.1531009674072266,1.156564712524414
1710954534478802700,8.459802734375,1.2900856733322144,-1.3230090141296387,1.5324244499206543
1710954534497761800,8.47876171875,1.2482426166534424,-0.7172794342041016,1.7730636596679688
1710954534516721000,8.497720947265625,0.518310546875,0.04495668411254883,1.1187500953674316
1710954534535680000,8.516679931640626,0.18474072217941284,0.5915780067443848,0.09081649780273438
1710954534554639000,8.53563916015625,-0.3017221689224243,0.5579805374145508,-0.3709836006164551
1710954534573598200,8.55459814453125,-0.34276020526885986,0.0481414794921875,-0.02672863006591797
1710954534592557300,8.573557373046874,-0.16209709644317627,0.01913738250732422,0.21782922744750977
1710954534611516400,8.592516357421875,-0.27076274156570435,0.06182575225830078,0.0998382568359375
1710954534630475500,8.6114755859375,-0.3374474048614502,-0.03798198699951172,-0.3789486885070801
1710954534649434600,8.6304345703125,-0.5873693823814392,-0.42591428756713867,-0.854011058807373
1710954534668393700,8.649393798828125,-0.7328622937202454,-0.712132453918457,-0.8356509208679199
1710954534687352800,8.668352783203124,-0.3836188316345215,-0.4528493881225586,-0.5442361831665039
1710954534706312000,8.68731201171875,-0.39770108461380005,-0.1322946548461914,-0.1772017478942871
1710954534725271000,8.70627099609375,-0.30817896127700806,0.3208580017089844,-0.11239194869995117
1710954534744230100,8.725230224609374,-0.23931407928466797,0.34518861770629883,-0.16750288009643555
1710954534763189200,8.744189208984375,-0.1977940797805786,-0.09792613983154297,0.10192441940307617
1710954534782148400,8.7631484375,0.05082714557647705,-0.2561192512512207,0.41881465911865234
1710954534801107500,8.782107421875,0.09787857532501221,-0.13135719299316406,0.4599618911743164
1710954534820066600,8.801066650390625,0.014088273048400879,-0.03364753723144531,0.3740673065185547
1710954534839025700,8.820025634765624,-0.012531518936157227,0.01086568832397461,0.13555908203125
1710954534857984800,8.83898486328125,0.30462217330932617,0.22315216064453125,0.09403514862060547
1710954534876944000,8.85794384765625,0.22331100702285767,0.15878725051879883,0.18790388107299805
1710954534895903000,8.876903076171875,-0.04843556880950928,0.025133132934570312,0.016791343688964844
1710954534914862000,8.895862060546875,-0.03884387016296387,0.14285802841186523,-0.27968788146972656
1710954534933821200,8.9148212890625,-0.09602117538452148,-0.16808462142944336,-0.37969303131103516
1710954534952780300,8.9337802734375,-0.057767391204833984,-0.6473484039306641,0.23600387573242188
1710954534971739400,8.952739501953126,0.33308231830596924,-0.48764562606811523,0.7270650863647461
1710954534990698500,8.971698486328124,0.2577754855155945,-0.5119462013244629,0.7867755889892578
1710954535009657600,8.99065771484375,0.16105735301971436,-0.2818937301635742,0.3308572769165039
1710954535028616700,9.00961669921875,-0.09429126977920532,0.2264556884765625,-0.23876667022705078
1710954535047575800,9.028575927734375,-0.1563572883605957,0.24075555801391602,-0.4594135284423828
1710954535066535000,9.047534912109375,-0.0757671594619751,0.2963733673095703,-0.30483341217041016
1710954535085494300,9.066494384765624,0.04063904285430908,0.3959050178527832,-0.02235126495361328
1710954535104453000,9.085453125,0.11120110750198364,0.34987974166870117,0.09063243865966797
1710954535123412500,9.10441259765625,0.08837980031967163,0.1450948715209961,0.0971059799194336
1710954535142371300,9.123371337890624,0.025539159774780273,0.09259700775146484,0.043715476989746094
1710954535161330700,9.14233056640625,-0.01197826862335205,0.1573963165283203,-0.31398487091064453
1710954535180289800,9.161289794921874,-0.11395806074142456,-0.01720142364501953,-0.47508764266967773
1710954535199248600,9.18024853515625,-0.13576948642730713,-0.12310791015625,-0.26538848876953125
1710954535218208000,9.1992080078125,-0.05486422777175903,-0.11655426025390625,0.08788585662841797
1710954535237166800,9.218166748046874,0.1045374870300293,-0.14195013046264648,0.20882225036621094
1710954535256126200,9.237126220703125,0.08434164524078369,-0.12355375289916992,0.13668441772460938
1710954535275085300,9.256085205078126,0.05681943893432617,-0.022308349609375,0.12871074676513672
1710954535294044400,9.27504443359375,-0.06629472970962524,-0.04177379608154297,0.4736061096191406
1710954535313003500,9.29400341796875,-0.1166454553604126,0.05709695816040039,0.5712642669677734
1710954535331962600,9.312962646484374,-0.05525332689285278,0.09409284591674805,0.19291400909423828
1710954535350921700,9.331921630859375,-0.14556068181991577,-0.019864559173583984,-0.046418190002441406
1710954535369880800,9.350880859375,-0.1474279761314392,-0.2080230712890625,0.109710693359375
1710954535388840000,9.36983984375,-0.07144176959991455,-0.35807037353515625,0.3332786560058594
1710954535407799000,9.388799072265625,0.015122652053833008,-0.20868730545043945,0.10746574401855469
1710954535426758100,9.407758056640626,-0.12391304969787598,-0.28409528732299805,-0.060486793518066406
1710954535445717200,9.42671728515625,-0.1135326623916626,-0.08700227737426758,-0.13712120056152344
1710954535464676400,9.44567626953125,-0.06487607955932617,0.07343244552612305,-0.1026773452758789
1710954535483635500,9.464635498046874,-0.02227342128753662,0.1684713363647461,-0.015317916870117188
1710954535502594600,9.483594482421875,0.04135352373123169,0.2415614128112793,0.10202598571777344
1710954535521553700,9.5025537109375,-0.005766034126281738,0.03586292266845703,0.2763986587524414
1710954535540512800,9.5215126953125,0.07480865716934204,-0.1250467300415039,-0.025572776794433594
1710954535559471900,9.540471923828125,0.04071703553199768,-0.10823249816894531,-0.3918471336364746
1710954535578431000,9.559430908203124,-0.13248422741889954,0.08935403823852539,-0.36216306686401367
1710954535597390000,9.57839013671875,-0.19982340931892395,0.09276103973388672,0.0643301010131836
1710954535616349200,9.59734912109375,-0.07549488544464111,0.09249258041381836,0.17126226425170898
1710954535635308500,9.61630859375,0.02016720175743103,0.10742807388305664,-0.03767204284667969
1710954535654267400,9.635267333984375,0.018524229526519775,0.053934574127197266,-0.3487234115600586
1710954535673226500,9.6542265625,0.02009686827659607,0.11191272735595703,-0.40570831298828125
1710954535692185600,9.673185546875,0.00010156631469726562,0.2313694953918457,-0.30947351455688477
1710954535711144700,9.692144775390625,0.09720605611801147,0.2444314956665039,-0.24250268936157227
1710954535730104000,9.71110400390625,0.15010692179203033,0.1922922134399414,-0.15018701553344727
1710954535749063000,9.73006298828125,0.15655162930488586,0.18921804428100586,0.04148435592651367
1710954535768022300,9.749022216796876,0.021701574325561523,-0.046380043029785156,0.18787717819213867
1710954535786981000,9.767981201171875,0.057689547538757324,-0.1281290054321289,0.15197420120239258
1710954535805940500,9.7869404296875,-0.04350745677947998,-0.30345726013183594,0.10015106201171875
1710954535824899600,9.805899658203124,-0.008163079619407654,-0.17244577407836914,0.10671472549438477
1710954535843858700,9.824858642578125,0.08745364844799042,-0.06976699829101562,0.09177207946777344
1710954535862817800,9.84381787109375,0.010763123631477356,-0.20113801956176758,0.20969915390014648
1710954535881777000,9.86277685546875,0.00037041306495666504,0.09399080276489258,0.2745223045349121
1710954535900736000,9.881736083984375,-0.08859409391880035,0.21290302276611328,0.3046998977661133
1710954535919695000,9.900695068359376,-0.005864977836608887,-0.04117441177368164,0.25339365005493164
1710954535938654200,9.919654296875,0.09272298961877823,-0.19652652740478516,0.08024024963378906
1710954535957613300,9.93861328125,-0.013917595148086548,-0.10092639923095703,-0.09464311599731445
1710954535976572400,9.957572509765624,-0.12585017085075378,0.017586231231689453,-0.44832324981689453
1710954535995531500,9.976531494140625,-0.11560843884944916,0.055631160736083984,-0.46503353118896484
1710954536014490600,9.99549072265625,-0.1162186712026596,0.14008712768554688,-0.19289684295654297
1710954536033449700,10.01444970703125,-0.029803017154335976,0.23136472702026367,-0.20193147659301758
1710954536052408800,10.033408935546875,-0.03513569012284279,-0.3083372116088867,-0.4425063133239746
1710954536071368000,10.052367919921876,-0.1171632707118988,-0.5039710998535156,-0.4155693054199219
1710954536090327000,10.0713271484375,-0.250871866941452,-0.5866937637329102,-0.3058738708496094
1710954536109286100,10.0902861328125,-0.5106209516525269,-0.8605451583862305,0.15184545516967773
1710954536128245200,10.109245361328124,-0.4799685478210449,-0.9238781929016113,0.8377170562744141
1710954536147204400,10.128204345703125,-0.22525839507579803,-0.665626049041748,1.2630324363708496
1710954536166163500,10.14716357421875,-0.11126555502414703,-0.8216161727905273,1.1728200912475586
1710954536185122600,10.16612255859375,-0.23715010285377502,-0.795013427734375,1.0908808708190918
1710954536204081700,10.18508154296875,-0.20977607369422913,-0.16017580032348633,1.0708670616149902
1710954536223040800,10.204040771484374,-0.01554042100906372,0.6598725318908691,0.8594980239868164
1710954536242000000,10.222999755859375,0.0019823312759399414,1.2212586402893066,0.5855093002319336
1710954536260959000,10.241958984375,0.019104599952697754,1.1523780822753906,0.02269124984741211
1710954536279918000,10.26091796875,0.07864844799041748,1.0483293533325195,-0.16695642471313477
1710954536298877200,10.279877197265625,0.09559869766235352,1.1417999267578125,-0.6077775955200195
1710954536317836300,10.298836181640626,-0.12655222415924072,1.6876330375671387,-0.7381172180175781
1710954536336795400,10.31779541015625,-0.03948962688446045,1.7421770095825195,-1.000669002532959
1710954536355754500,10.33675439453125,0.37796688079833984,1.4174408912658691,-0.9894967079162598
1710954536374713600,10.355713623046874,0.481874942779541,1.1524710655212402,-0.6672101020812988
1710954536393672700,10.374672607421875,0.1903289556503296,0.8361620903015137,-0.5555305480957031
1710954536412631800,10.3936318359375,-0.02544224262237549,0.14223337173461914,-0.7667617797851562
1710954536431591000,10.4125908203125,-0.11068415641784668,-0.2628974914550781,-1.1662788391113281
1710954536450550000,10.431550048828125,0.23735451698303223,-0.19722843170166016,-1.7378411293029785
1710954536469509000,10.450509033203126,-0.5583701133728027,0.19400262832641602,-0.6728057861328125
1710954536488468200,10.46946826171875,-0.08864867687225342,0.23137664794921875,0.18284368515014648
1710954536507427300,10.48842724609375,0.8050134181976318,-0.27863454818725586,0.15431928634643555
1710954536526386400,10.507386474609374,0.265700101852417,-0.42736196517944336,0.22596502304077148
1710954536545345500,10.526345458984375,-0.24240541458129883,-0.06960868835449219,0.30619239807128906
1710954536564305000,10.545304931640626,-0.08373850584030151,-0.03510236740112305,0.2766885757446289
1710954536583263700,10.564263671875,0.08837860822677612,0.045182228088378906,0.30623817443847656
1710954536602222800,10.583222900390625,0.2706703543663025,0.23965787887573242,0.4996342658996582
1710954536621182000,10.602181884765624,0.36567193269729614,0.26682376861572266,0.7085371017456055
1710954536640141000,10.62114111328125,0.2888444662094116,0.21346330642700195,0.6150059700012207
1710954536659100400,10.640100341796876,0.08523982763290405,0.3182253837585449,0.2140789031982422
1710954536678059300,10.659059326171874,-0.0315130352973938,0.34243011474609375,-0.09261322021484375
1710954536697018400,10.678018310546875,-0.13832223415374756,0.27579164505004883,-0.21421051025390625
1710954536715977500,10.6969775390625,-0.16023683547973633,0.15722274780273438,-0.2690725326538086
1710954536734936600,10.7159365234375,-0.1712285280227661,-0.010194778442382812,-0.17548370361328125
1710954536753896000,10.73489599609375,-0.04887533187866211,0.07235479354858398,0.034949302673339844
1710954536772854800,10.753854736328124,0.2783169746398926,0.06024885177612305,0.2770085334777832
1710954536791814100,10.772814208984375,0.5419120192527771,-0.09435701370239258,0.3608541488647461
1710954536810773000,10.79177294921875,0.3178069591522217,-0.19985437393188477,-0.04933309555053711
1710954536829732000,10.810732177734375,-0.15295091271400452,-0.09282445907592773,-0.5683341026306152
1710954536848691500,10.82969140625,-0.4587141275405884,0.02435922622680664,-0.4846229553222656
1710954536867650300,10.848650390625,-0.22561049461364746,0.02102041244506836,-0.05474281311035156
1710954536886609700,10.867609619140625,0.11061877012252808,0.0018901824951171875,0.31635189056396484
1710954536905568500,10.886568603515625,0.17366963624954224,0.005133628845214844,0.3608675003051758
1710954536924527600,10.905527587890624,0.0680585503578186,-0.2186441421508789,0.041140079498291016
1710954536943487000,10.924487060546875,-0.045491814613342285,-0.17815780639648438,-0.3249492645263672
1710954536962445800,10.94344580078125,-0.12368196249008179,0.12649250030517578,-0.5134072303771973
1710954536981405200,10.9624052734375,-0.13805025815963745,0.28805017471313477,-0.4229769706726074
1710954537000364000,10.981364013671875,-0.04416581988334656,0.2729153633117676,-0.08466911315917969
1710954537019323100,11.0003232421875,0.056574225425720215,0.24598121643066406,0.14466571807861328
1710954537038282500,11.019282470703125,0.09465885162353516,0.1592884063720703,0.08081817626953125
1710954537057241300,11.038241455078126,0.02561315894126892,0.01122283935546875,-0.2536482810974121
1710954537076200700,11.05720068359375,-0.06250828504562378,0.05108499526977539,-0.38721561431884766
1710954537095159600,11.07615966796875,-0.0625084638595581,0.0020232200622558594,-0.31323719024658203
1710954537114119000,11.095118896484376,0.08870518207550049,0.0401153564453125,-0.06260061264038086
1710954537133078000,11.114078125,0.17132049798965454,0.0408625602722168,0.15076589584350586
1710954537152037000,11.133037109375,0.15745031833648682,0.06653785705566406,0.28983640670776367
1710954537170996200,11.151996337890624,0.09880957007408142,0.12189769744873047,0.3375129699707031
1710954537189955300,11.170955322265625,0.13956108689308167,0.0907583236694336,0.2624173164367676
1710954537208914400,11.18991455078125,0.12897437810897827,-0.016669750213623047,0.14625835418701172
1710954537227873500,11.20887353515625,0.04467347264289856,0.09647321701049805,0.1705307960510254
1710954537246832600,11.22783251953125,-0.01520422101020813,0.20249414443969727,0.21357440948486328
1710954537265791700,11.246791748046874,0.036710381507873535,0.15274381637573242,0.2319803237915039
1710954537284750800,11.265750732421875,0.073754221200943,0.16506195068359375,0.22025251388549805
1710954537303710000,11.2847099609375,0.0921119749546051,0.06673240661621094,0.19824457168579102
1710954537322669000,11.3036689453125,0.14393803477287292,-0.013813972473144531,0.03361654281616211
1710954537341628200,11.322628173828125,0.046664416790008545,0.025693893432617188,-0.07561731338500977
1710954537360587300,11.341587158203126,-0.0015387237071990967,0.11621570587158203,-0.10239982604980469
1710954537379546400,11.36054638671875,-0.01179814338684082,0.16439485549926758,-0.06782054901123047
1710954537398505500,11.37950537109375,0.06877371668815613,0.07504892349243164,-0.03894233703613281
1710954537417464600,11.398464599609374,0.12075558304786682,0.07569265365600586,-0.03370952606201172
1710954537436423700,11.417423583984375,0.06256243586540222,0.09577655792236328,-0.11867141723632812
1710954537455382800,11.4363828125,0.036172881722450256,0.19808387756347656,-0.18224716186523438
1710954537474342000,11.455341796875,0.03347557783126831,0.30400896072387695,-0.21046972274780273
1710954537493301200,11.47430126953125,0.03097425401210785,0.5046987533569336,-0.31342363357543945
1710954537512260000,11.493260009765624,-0.1132393404841423,0.5712289810180664,-0.12967920303344727
1710954537531219500,11.512219482421875,-0.3118826448917389,0.5911798477172852,0.11621665954589844
1710954537550178600,11.531178466796876,-0.04678158462047577,0.1831068992614746,0.26282787322998047
1710954537569137700,11.5501376953125,0.18125171959400177,-0.19307708740234375,0.17926788330078125
1710954537588096800,11.5690966796875,0.20166248083114624,-0.5198497772216797,0.24131536483764648
1710954537607056000,11.588055908203126,0.48342785239219666,-1.0652399063110352,0.7320380210876465
1710954537626015000,11.607014892578125,0.535750150680542,-1.2550277709960938,1.6005053520202637
1710954537644974000,11.62597412109375,0.605962872505188,-1.6616754531860352,1.313161849975586
1710954537663933200,11.64493310546875,0.1994229406118393,-2.4409422874450684,0.8554549217224121
1710954537682892300,11.663892333984375,-0.16478273272514343,-4.178913116455078,-0.2430887222290039
1710954537701851600,11.6828515625,-0.16382011771202087,-6.325787544250488,-2.4817209243774414
1710954537720810500,11.701810546875,-0.2720520794391632,-8.392152786254883,-4.05231237411499
1710954537739769900,11.720769775390625,-1.162645936012268,-9.343799591064453,-4.353543281555176
1710954537758729000,11.73972900390625,-1.5693671703338623,-5.130385875701904,-4.185969352722168
1710954537777688000,11.75868798828125,-0.70478755235672,0.48631715774536133,-3.0847225189208984
1710954537796647200,11.777647216796876,0.1995900273323059,4.240180015563965,-1.8239660263061523
1710954537815606300,11.796606201171874,1.279674768447876,4.843906879425049,0.3936338424682617
1710954537834565600,11.815565673828125,1.8378753662109375,1.2256629467010498,2.732614517211914
1710954537853524700,11.834524658203126,0.6658327579498291,-1.5682973861694336,2.5129804611206055
1710954537872483800,11.85348388671875,0.2066776156425476,-2.1887238025665283,0.5639219284057617
1710954537891443000,11.87244287109375,-1.3238544464111328,-2.8601813316345215,0.15714645385742188
1710954537910402000,11.891402099609374,-2.150729179382324,-3.661133289337158,0.9970865249633789
1710954537929361200,11.910361083984375,-0.07604026794433594,-2.6303677558898926,1.8675708770751953
1710954537948320500,11.929320556640626,1.4312208890914917,-0.2673270106315613,2.3967103958129883
1710954537967279400,11.948279296875,1.62167489528656,1.196642518043518,2.261495590209961
1710954537986238700,11.96723876953125,0.8832650184631348,1.4281041622161865,0.6640253067016602
1710954538005197800,11.98619775390625,-0.03354144096374512,1.693042516708374,-0.302978515625
1710954538024157000,12.005156982421875,-0.5961027145385742,1.4873378276824951,0.15617847442626953
1710954538043116000,12.024115966796876,0.20914435386657715,-0.1827455759048462,0.033814430236816406
1710954538062075400,12.043075439453125,1.6705396175384521,-0.8873081207275391,-0.7717809677124023
1710954538081034200,12.0620341796875,0.6662472486495972,0.7183020114898682,-1.0269804000854492
1710954538099993600,12.08099365234375,-0.5456713438034058,2.1269724369049072,-0.511805534362793
1710954538118952700,12.09995263671875,-0.6352760791778564,1.8742127418518066,0.30543041229248047
1710954538137911800,12.118911865234375,0.6565461158752441,-0.2606234550476074,0.6353683471679688
1710954538156871000,12.137870849609374,0.9140236377716064,-0.8317651748657227,0.8895034790039062
1710954538175830300,12.156830322265625,0.2663235664367676,-0.28562355041503906,1.2522783279418945
1710954538194789400,12.175789306640626,-0.13188421726226807,-0.2457876205444336,1.4618282318115234
1710954538213748500,12.19474853515625,-0.2397005558013916,-1.9399960041046143,1.2824583053588867
1710954538232707600,12.21370751953125,-0.2087041139602661,-3.504394054412842,0.723210334777832
1710954538251667000,12.2326669921875,0.36761558055877686,-3.6974151134490967,0.2538290023803711
1710954538270626000,12.2516259765625,-0.30229008197784424,-2.393923759460449,0.1376481056213379
1710954538289585200,12.270585205078126,-0.8721851110458374,-0.8088698387145996,0.16289710998535156
1710954538308544300,12.289544189453125,-1.0138120651245117,-1.2057485580444336,0.05898284912109375
1710954538327503600,12.308503662109375,-0.7635180354118347,-3.2363200187683105,-1.0823392868041992
1710954538346462700,12.327462646484374,0.028822660446166992,-3.375429630279541,-1.8350749015808105
1710954538365421800,12.346421875,-0.04788142442703247,-2.191372871398926,-1.7610116004943848
1710954538384381000,12.365380859375,0.11635537445545197,-1.3965950012207031,-1.8863468170166016
1710954538403340300,12.38434033203125,0.10799689590930939,-0.9649291038513184,-3.20155930519104
1710954538422299400,12.40329931640625,0.25542333722114563,-0.17519569396972656,-3.6085262298583984
1710954538441258500,12.422258544921876,0.6718387007713318,-0.9927253723144531,-2.625847101211548
1710954538460217600,12.441217529296875,0.29112720489501953,-1.0204648971557617,-1.6914267539978027
1710954538479177000,12.460177001953125,0.2539485692977905,-0.5958576202392578,-1.8503673076629639
1710954538498136000,12.479135986328124,1.0238027572631836,-1.8190207481384277,-1.5825533866882324
1710954538517095200,12.49809521484375,1.8004237413406372,-1.7654504776000977,-1.7095623016357422
1710954538536054300,12.51705419921875,1.2490769624710083,-0.49115562438964844,-3.3410074710845947
1710954538555013600,12.536013671875,0.6147480607032776,0.7724370956420898,-5.976644515991211
1710954538573972700,12.55497265625,0.8988319635391235,-0.46221160888671875,-5.556856155395508
1710954538592931800,12.573931884765624,1.4818974733352661,-1.5694026947021484,-3.8329148292541504
1710954538611891200,12.59289111328125,1.201465368270874,-0.9044551849365234,-3.299365758895874
1710954538630850300,12.611850341796876,0.24771642684936523,0.38983821868896484,-4.491617202758789
1710954538649809400,12.630809326171875,0.058146923780441284,0.3932781219482422,-4.8353962898254395
1710954538668768500,12.6497685546875,0.43692031502723694,-0.12973785400390625,-4.405463218688965
1710954538687727900,12.668727783203124,0.27967825531959534,-0.1813039779663086,-4.34168815612793
1710954538706687000,12.68768701171875,-0.3194820284843445,-0.24610328674316406,-4.133025646209717
1710954538725646300,12.706646240234376,-0.3526826500892639,0.2646608352661133,-3.6568658351898193
1710954538744605400,12.72560546875,-0.05761585757136345,0.6508731842041016,-2.7519145011901855
1710954538763564500,12.744564453125,0.18470773100852966,0.4330329895019531,-1.9134626388549805
1710954538782524000,12.76352392578125,0.42611974477767944,0.1720895767211914,-2.097775459289551
1710954538801483000,12.78248291015625,0.10766288638114929,0.3596487045288086,-2.3454902172088623
1710954538820442000,12.801442138671876,-0.9452413320541382,0.780029296875,-1.9250528812408447
1710954538839401200,12.820401123046874,-1.1136600971221924,1.5356988906860352,-1.5075669288635254
1710954538858360600,12.839360595703125,0.2648075819015503,0.24010181427001953,-0.9061794281005859
1710954538877319700,12.858319580078126,1.0033321380615234,-1.4451041221618652,-0.6517271995544434
1710954538896279000,12.877279052734375,0.6007112860679626,-1.521463394165039,-0.9208378791809082
1710954538915238100,12.896238037109375,-0.6589066982269287,-1.0043253898620605,-1.1370620727539062
1710954538934197500,12.915197509765624,-1.8173913955688477,-0.3585996627807617,-1.0918359756469727
1710954538953156600,12.934156494140625,-0.7213869094848633,-0.8627686500549316,-0.36925172805786133
1710954538972115700,12.95311572265625,1.3748464584350586,-1.8515901565551758,0.5997347831726074
1710954538991075000,12.972074951171875,1.1171876192092896,-1.449145793914795,0.8911466598510742
1710954539010034200,12.9910341796875,-0.6154656410217285,1.4304389953613281,1.1858701705932617
1710954539028993500,13.00999365234375,-0.7547138929367065,2.375113010406494,0.9331178665161133
1710954539047952600,13.02895263671875,1.4111295938491821,1.0133566856384277,-0.05262279510498047
1710954539066911700,13.047911865234376,1.0845729112625122,0.124053955078125,-0.8656778335571289
1710954539085871000,13.06687109375,-0.7146767377853394,0.6478757858276367,-0.3889617919921875
1710954539104830200,13.085830322265625,-0.6813715696334839,0.4191555976867676,-0.11158466339111328
1710954539123789600,13.10478955078125,1.6092374324798584,-1.2669730186462402,-0.6344575881958008
1710954539142748700,13.123748779296875,1.5550377368927002,-2.3214709758758545,-1.5061616897583008
1710954539161707800,13.142707763671876,-0.8229528665542603,-1.7432408332824707,-2.2389092445373535
1710954539180667100,13.161667236328125,-2.4031982421875,0.06668353080749512,-2.273196220397949
1710954539199626200,13.180626220703125,-0.6300629377365112,0.0680398941040039,-1.7782535552978516
1710954539218585600,13.199585693359374,1.4346028566360474,-1.3063268661499023,-1.375478744506836
1710954539237544700,13.218544677734375,0.4730243682861328,-2.397207021713257,-1.3430900573730469
1710954539256504000,13.237504150390626,-0.8091708421707153,-0.902808427810669,-0.6132984161376953
1710954539275463200,13.256463134765625,0.3236196041107178,0.8751788139343262,0.029898643493652344
1710954539294422300,13.27542236328125,1.5719077587127686,0.05793073773384094,-0.33112430572509766
1710954539313381600,13.294381591796874,0.17523688077926636,-1.3303613662719727,-0.6140556335449219
1710954539332340700,13.3133408203125,-1.4799731969833374,-1.4729868173599243,-0.3285846710205078
1710954539351300000,13.332300048828126,-0.16388332843780518,0.4337404668331146,0.21993350982666016
1710954539370259200,13.35125927734375,2.0261573791503906,0.16881930828094482,0.6505641937255859
1710954539389218300,13.37021826171875,1.1348997354507446,-1.4194374084472656,-0.06070423126220703
1710954539408177700,13.389177734375,-0.6809770464897156,-1.9691709280014038,-1.0197267532348633
1710954539427136800,13.40813671875,-0.8600716590881348,0.7579998970031738,-0.1892566680908203
1710954539446096100,13.42709619140625,0.30511677265167236,0.3047459125518799,1.1592960357666016
1710954539465055500,13.446055419921874,1.2560917139053345,-2.2325217723846436,1.873307228088379
1710954539484014600,13.4650146484375,0.6165358424186707,-3.3232693672180176,2.5433969497680664
1710954539502974000,13.483973876953126,-0.3461354374885559,-1.4712882041931152,4.68303108215332
1710954539521933000,13.50293310546875,-2.1505565643310547,-1.659555196762085,6.434792518615723
1710954539540892200,13.52189208984375,-1.0625523328781128,-5.611903667449951,6.101385116577148
1710954539559851500,13.5408515625,2.480252504348755,-6.923227787017822,4.301446914672852
1710954539578810600,13.559810546875,1.009209156036377,-3.509488582611084,2.534360885620117
1710954539597770000,13.57877001953125,-1.5099624395370483,0.9494678974151611,-0.7017536163330078
1710954539616729000,13.59772900390625,-1.8324707746505737,1.9437437057495117,-3.8626770973205566
1710954539635688400,13.6166884765625,0.49410945177078247,0.28313684463500977,-3.4833765029907227
1710954539654647600,13.6356474609375,1.3597965240478516,-0.007214546203613281,-0.8896608352661133
1710954539673607000,13.65460693359375,1.1380459070205688,0.006608009338378906,0.5139169692993164
1710954539692566000,13.67356591796875,0.15542501211166382,-0.49677419662475586,0.06850337982177734
1710954539711525400,13.692525390625,-0.6679915189743042,-0.9537467956542969,-0.5938472747802734
1710954539730484500,13.711484375,-0.9753220081329346,-1.1215400695800781,-0.6878747940063477
1710954539749443800,13.73044384765625,-0.45239555835723877,-1.0940532684326172,-0.26667308807373047
1710954539768403000,13.74940283203125,0.01202043890953064,-1.1316900253295898,0.1300830841064453
1710954539787362000,13.768362060546876,0.09506994485855103,-0.49106836318969727,-0.07050323486328125
1710954539806321400,13.7873212890625,-0.06122615933418274,0.11258745193481445,-0.5600519180297852
1710954539825280800,13.80628076171875,-0.0884506106376648,0.9499955177307129,-0.7449874877929688
1710954539844240000,13.825239990234374,0.30267345905303955,1.2766122817993164,-0.6539506912231445
1710954539863199200,13.84419921875,0.7904055714607239,0.4034857749938965,-0.48375892639160156
1710954539882158300,13.863158447265626,0.771446168422699,-0.09814929962158203,-0.6072707176208496
1710954539901117700,13.88211767578125,0.2827804386615753,0.14436674118041992,-1.0060029029846191
1710954539920076800,13.901076904296875,0.12734362483024597,-0.04900312423706055,-0.9402461051940918
1710954539939036000,13.920035888671874,0.1912747174501419,-0.5927653312683105,-0.6072092056274414
1710954539957995300,13.938995361328125,0.6559123992919922,-0.8877344131469727,-0.42403125762939453
1710954539976954600,13.95795458984375,0.732708215713501,-1.6892647743225098,-0.0034923553466796875
1710954539995913700,13.976913818359375,0.6179185509681702,-3.4423999786376953,0.4663724899291992
1710954540014873000,13.995873046875,0.24678204953670502,-4.758314609527588,0.4019937515258789
1710954540033832200,14.014832275390624,0.05552017316222191,-5.551344394683838,-0.5870742797851562
1710954540052791600,14.03379150390625,-0.7656276226043701,-6.459938049316406,-1.3507165908813477
1710954540071750700,14.052750732421876,-1.4369537830352783,-6.716483116149902,-1.3867788314819336
1710954540090709800,14.071709716796875,-0.48172950744628906,-4.291999816894531,-0.9469146728515625
1710954540109669000,14.090669189453125,0.4230663776397705,-0.8590059280395508,-0.5179958343505859
1710954540128628500,14.10962841796875,0.9496732950210571,2.0433788299560547,-0.1621847152709961
1710954540147587600,14.128587646484375,1.3328819274902344,2.9923057556152344,0.3555030822753906
1710954540166547000,14.147546875,1.0046796798706055,0.8231445550918579,1.2919683456420898
1710954540185506000,14.166506103515625,0.4905553162097931,-0.6727578639984131,1.4460220336914062
1710954540204465400,14.18546533203125,-0.14146864414215088,-1.238948941230774,0.9991016387939453
1710954540223424500,14.204424560546874,-1.2688112258911133,-1.1638565063476562,0.6170978546142578
1710954540242383600,14.223383544921875,-2.0894722938537598,-0.5919759273529053,-0.023944854736328125
1710954540261343000,14.242343017578126,-1.5919723510742188,-1.7436280250549316,0.09265422821044922
1710954540280302300,14.26130224609375,-0.17862260341644287,-2.207695960998535,1.1224555969238281
1710954540299261400,14.280261474609375,1.0299491882324219,-0.6332457661628723,1.8416357040405273
1710954540318220800,14.299220703125,1.3103244304656982,0.7827791571617126,2.221766471862793
1710954540337180000,14.318179931640625,0.6896407604217529,0.3652314245700836,1.865220069885254
1710954540356139300,14.33713916015625,0.1875845193862915,-0.6574729681015015,0.7140913009643555
1710954540375098400,14.356098388671874,0.06140589714050293,0.10250449180603027,-0.013774871826171875
1710954540394057500,14.375057373046875,-0.032779693603515625,0.45635533332824707,-0.11748600006103516
1710954540413016800,14.394016845703124,-0.1693781614303589,0.14876270294189453,0.2400341033935547
1710954540431976200,14.41297607421875,-0.03105902671813965,-0.8616617918014526,0.6629219055175781
1710954540450935300,14.431935302734376,0.1950613260269165,-1.432274580001831,0.5820941925048828
1710954540469894700,14.450894775390625,0.4633074998855591,-0.4632289409637451,0.21088886260986328
1710954540488853800,14.469853759765625,0.22527170181274414,0.6592607498168945,0.7980527877807617
1710954540507813000,14.488813232421874,0.11365747451782227,-0.41915082931518555,0.7416458129882812
1710954540526772200,14.507772216796875,0.177071213722229,-1.7530913352966309,-0.37679576873779297
1710954540545731300,14.5267314453125,0.2667825222015381,-1.46181058883667,-0.993011474609375
1710954540564690700,14.545690673828124,-0.15831208229064941,-1.075192928314209,-0.9163942337036133
1710954540583650000,14.564650146484375,-0.14888012409210205,-0.9634037017822266,-0.9613075256347656
1710954540602609200,14.583609130859376,-0.2588362693786621,-0.9476919174194336,-1.3797731399536133
1710954540621568500,14.602568603515625,-0.421381413936615,-1.2765703201293945,-2.025435447692871
1710954540640527600,14.621527587890625,-0.3763018846511841,-1.3335866928100586,-1.985682487487793
1710954540659487000,14.640487060546874,-0.5422927141189575,-1.0627059936523438,-1.7935700416564941
1710954540678446000,14.659446044921875,-0.5103799104690552,-0.1864604949951172,-1.779423713684082
1710954540697405200,14.6784052734375,0.03778243064880371,-0.10385370254516602,-1.7566132545471191
1710954540716364500,14.697364501953125,0.7219284772872925,-0.8682632446289062,-1.3678994178771973
1710954540735323600,14.71632373046875,0.515733540058136,-0.35790014266967773,-1.3934497833251953
1710954540754283000,14.735282958984374,0.135280579328537,0.582028865814209,-1.748072624206543
1710954540773242000,14.7542421875,0.43327826261520386,-0.3551192283630371,-2.511495590209961
1710954540792201500,14.773201416015626,0.732224702835083,-0.5766644477844238,-2.646881341934204
1710954540811160800,14.792160888671875,0.07200226187705994,0.543055534362793,-1.68281888961792
1710954540830120000,14.811119873046875,0.557523250579834,0.4323444366455078,-1.5051116943359375
1710954540849079000,14.8300791015625,1.2486077547073364,-0.5945529937744141,-1.7239012718200684
1710954540868038400,14.849038330078125,0.7459932565689087,-0.08252811431884766,-1.7445354461669922
1710954540886997500,14.86799755859375,-0.03425018489360809,0.8804893493652344,-2.1660780906677246
1710954540905956900,14.886956787109375,0.32080477476119995,0.4821500778198242,-2.562471866607666
1710954540924916000,14.905916015625,0.9656001925468445,-0.28179931640625,-2.495546340942383
1710954540943875000,14.924875,0.5702502727508545,-0.16417694091796875,-2.262686014175415
1710954540962834400,14.94383447265625,-0.06518673896789551,-0.062061309814453125,-2.340090274810791
1710954540981793800,14.962793701171876,-0.35336169600486755,-0.34439754486083984,-2.702871561050415
1710954541000753000,14.9817529296875,0.15633663535118103,-0.46074962615966797,-2.6792562007904053
1710954541019712300,15.000712158203125,0.41068771481513977,-0.29796409606933594,-2.4762303829193115
1710954541038671400,15.01967138671875,0.17442479729652405,0.14104270935058594,-2.5724360942840576
1710954541057630700,15.038630615234375,-0.36803150177001953,0.6604213714599609,-2.5676488876342773
1710954541076589800,15.05758984375,-0.031281232833862305,0.5073585510253906,-2.0950074195861816
1710954541095549000,15.076548828125,0.12104451656341553,0.2055187225341797,-1.4809505939483643
1710954541114508300,15.09550830078125,-0.03913171589374542,0.06090354919433594,-1.5987873077392578
1710954541133467400,15.11446728515625,-0.022014155983924866,0.17940711975097656,-1.884749412536621
1710954541152426800,15.1334267578125,0.22078998386859894,0.4284048080444336,-1.787372350692749
1710954541171385900,15.1523857421875,0.28077754378318787,0.7564029693603516,-1.5931549072265625
1710954541190345200,15.17134521484375,0.10514525324106216,0.6817550659179688,-1.5052943229675293
1710954541209304300,15.19030419921875,0.06691626459360123,0.34637928009033203,-1.7060461044311523
1710954541228263400,15.209263427734374,0.26133739948272705,0.30387306213378906,-1.6857566833496094
1710954541247222800,15.228222900390625,0.3068225681781769,-0.41088438034057617,-1.7057108879089355
1710954541266182000,15.247181884765626,0.24786809086799622,-1.0803966522216797,-2.013739585876465
1710954541285141200,15.266141357421875,-0.1739191710948944,-0.766141414642334,-1.9950928688049316
1710954541304100400,15.285100341796875,-1.1363246440887451,1.3418569564819336,-1.417233943939209
1710954541323059700,15.304059814453124,-0.5099188089370728,1.7962803840637207,-0.501762866973877
1710954541342018800,15.323018798828125,1.35740327835083,0.41422605514526367,-0.3813056945800781
1710954541360978200,15.341978271484376,1.1267553567886353,-0.6413989067077637,-0.8841500282287598
1710954541379937300,15.360937255859374,0.043960750102996826,-0.18183469772338867,-0.8557019233703613
1710954541398896600,15.379896728515625,-0.380165159702301,0.666954517364502,-0.6490135192871094
1710954541417855700,15.398855712890626,0.39733392000198364,0.555264949798584,-0.2748126983642578
1710954541436815000,15.417815185546875,0.9212108850479126,-0.28728675842285156,-0.036553382873535156
1710954541455774200,15.436774169921875,0.22947514057159424,-0.49687957763671875,-0.25792407989501953
1710954541474733300,15.4557333984375,-0.43324166536331177,0.515800952911377,0.015226364135742188
1710954541493692700,15.474692626953125,-0.362108051776886,0.9157247543334961,0.061049461364746094
1710954541512651800,15.49365185546875,0.42180895805358887,-0.41654443740844727,-0.47808837890625
1710954541531611100,15.512611083984375,0.5405258536338806,-1.7778913974761963,-0.911402702331543
1710954541550570200,15.5315703125,-0.35057199001312256,-1.7768155336380005,-0.9661865234375
1710954541569529300,15.550529296875,-0.5259360074996948,0.037117958068847656,-0.3927488327026367
1710954541588488700,15.56948876953125,-0.005930185317993164,0.152756929397583,0.13103008270263672
1710954541607447800,15.58844775390625,0.8390176296234131,-0.9685430526733398,0.16968822479248047
1710954541626407200,15.6074072265625,0.723811686038971,-1.0853301286697388,-0.054259300231933594
1710954541645366300,15.6263662109375,0.28953301906585693,-0.1459035873413086,-0.3742523193359375
1710954541664325600,15.64532568359375,-0.13721787929534912,1.1499643325805664,-0.10486888885498047
1710954541683284700,15.66428466796875,0.1713462471961975,0.1709669828414917,0.21467208862304688
1710954541702243800,15.683243896484376,0.5227689743041992,-1.3694339990615845,-0.5798120498657227
1710954541721203200,15.702203125,0.35435426235198975,-2.0667130947113037,-1.5747852325439453
1710954541740162300,15.721162353515625,-0.30579960346221924,-0.11416834592819214,-0.8240041732788086
1710954541759121700,15.74012158203125,-0.945159912109375,1.0186030864715576,1.2412395477294922
1710954541778080800,15.759080810546875,0.6671481132507324,-2.2249152660369873,1.111567497253418
1710954541797039900,15.778039794921876,1.8441760540008545,-4.132503032684326,-0.8056154251098633
1710954541815999200,15.796999267578125,0.732890784740448,-1.5179758071899414,-1.7917547225952148
1710954541834958300,15.815958251953125,-1.8959367275238037,3.2776265144348145,-0.5694084167480469
1710954541853917700,15.834917724609374,-2.0928149223327637,0.42176318168640137,0.30216026306152344
1710954541872876800,15.853876708984375,2.143187999725342,-3.623188018798828,-0.1368856430053711
1710954541891836000,15.8728359375,2.394564628601074,-2.0407156944274902,-0.3489551544189453
1710954541910795300,15.891795166015624,-0.497347891330719,2.448154926300049,-0.1672048568725586
1710954541929754400,15.91075439453125,-2.989531993865967,3.8905677795410156,0.10834217071533203
1710954541948713700,15.929713623046876,-1.0147007703781128,-0.6650588512420654,2.134646415710449
1710954541967672800,15.9486728515625,2.542565107345581,-3.6242587566375732,4.919795989990234
1710954541986632200,15.967632080078126,1.351165533065796,-1.5664582252502441,6.491245269775391
1710954542005591300,15.98659130859375,-2.9754862785339355,-0.7889986038208008,5.393847465515137
1710954542024550400,16.00555029296875,-2.3806281089782715,-3.575744152069092,3.0348567962646484
1710954542043509800,16.024509765625,0.9349484443664551,-4.2914910316467285,3.725348472595215
1710954542062468900,16.04346875,0.9017568230628967,-2.0423054695129395,4.177721977233887
1710954542081428200,16.06242822265625,0.09294337034225464,-0.27552223205566406,1.4810237884521484
1710954542100387300,16.08138720703125,-1.0629091262817383,0.44647789001464844,-1.4728374481201172
1710954542119346700,16.1003466796875,-1.4609911441802979,0.22098445892333984,-2.8290328979492188
1710954542138305800,16.119305908203124,-0.4901900887489319,-0.7156753540039062,-2.1182007789611816
1710954542157265200,16.13826513671875,0.33765724301338196,-1.2822790145874023,-0.7136731147766113
1710954542176224300,16.157224365234374,0.656654953956604,-1.0512199401855469,-0.3402876853942871
1710954542195183400,16.176183349609374,0.056493129581213,-0.9278774261474609,-1.0528144836425781
1710954542214142700,16.195142822265623,-0.5781746506690979,-0.9822940826416016,-1.9250116348266602
1710954542233101800,16.214101806640624,-0.5406694412231445,-0.6391959190368652,-2.4409146308898926
1710954542252061200,16.233061279296876,-0.22514477372169495,0.07645082473754883,-2.3611068725585938
1710954542271020300,16.252020263671874,-0.18396048247814178,0.44391298294067383,-1.8825039863586426
1710954542289979600,16.270979736328126,0.0626789778470993,0.27448415756225586,-1.241379737854004
1710954542308938800,16.289938720703127,0.4362807869911194,0.21544170379638672,-0.8370418548583984
1710954542327898000,16.308898193359376,0.4782382547855377,0.3554224967956543,-0.6303467750549316
1710954542346857200,16.327857177734376,0.14945381879806519,0.027366161346435547,-0.4615349769592285
1710954542365816300,16.34681640625,0.24612754583358765,-0.3126254081726074,-0.39201974868774414
1710954542384775700,16.365775634765626,0.39559614658355713,-1.0201687812805176,0.21301937103271484
1710954542403734800,16.38473486328125,0.5158079266548157,-1.7421302795410156,1.1721410751342773
1710954542422694100,16.403694091796876,0.6367800235748291,-2.1002464294433594,0.9889979362487793
1710954542441653200,16.4226533203125,-0.11875259876251221,-3.0632691383361816,0.378079891204834
1710954542460612600,16.441612548828125,-0.3076917231082916,-4.648541450500488,-0.976224422454834
1710954542479571700,16.46057177734375,-0.39677950739860535,-6.818743705749512,-2.457002639770508
1710954542498531000,16.479531005859375,-0.6920764446258545,-7.5908684730529785,-2.6862754821777344
1710954542517490200,16.498490234375,-0.7137148380279541,-3.5159096717834473,-1.944570541381836
1710954542536449500,16.517449462890625,-0.37833172082901,0.7439484596252441,-0.44376277923583984
1710954542555408600,16.53640869140625,1.2947893142700195,3.8662116527557373,0.6157674789428711
1710954542574368000,16.555367919921874,2.0211355686187744,4.007417678833008,1.5865774154663086
1710954542593327000,16.5743271484375,1.3555302619934082,0.3255634307861328,2.1864614486694336
1710954542612286500,16.593286376953124,0.5682398676872253,-1.1749897003173828,1.081711769104004
1710954542631245600,16.61224560546875,-0.8547724485397339,-0.16225898265838623,0.6147546768188477
1710954542650204700,16.63120458984375,-1.6544157266616821,-0.9331507682800293,0.8739414215087891
1710954542669164000,16.6501640625,-1.3327581882476807,-2.738403797149658,1.597024917602539
1710954542688123400,16.669123291015627,0.027929067611694336,-3.7769198417663574,2.9555187225341797
1710954542707082500,16.68808251953125,1.3509488105773926,-2.634077548980713,2.841127395629883
1710954542726041900,16.707041748046876,0.6295766830444336,-1.3316831588745117,1.6708488464355469
1710954542745001000,16.7260009765625,-0.5864500999450684,-0.06620284914970398,0.6040678024291992
1710954542763960300,16.744960205078126,-0.6205294132232666,0.2111814320087433,0.19805908203125
1710954542782919400,16.76391943359375,0.24120616912841797,-0.33275264501571655,0.4643087387084961
1710954542801878800,16.782878662109376,0.49291205406188965,-1.1687712669372559,1.1568574905395508
1710954542820838000,16.801837890625,0.10772371292114258,-1.4960874319076538,1.4747695922851562
1710954542839797200,16.82079736328125,0.01163935661315918,-1.9218168258666992,1.1372442245483398
1710954542858756400,16.83975634765625,0.4803006649017334,-0.9385030269622803,0.3394355773925781
1710954542877715700,16.8587158203125,0.16170740127563477,0.8036653995513916,0.46617984771728516
1710954542896674800,16.8776748046875,-0.2843630313873291,0.3540670871734619,0.6235189437866211
1710954542915634200,16.89663427734375,0.023621082305908203,-1.084089994430542,0.6919469833374023
1710954542934593500,16.915593505859373,1.073935627937317,-2.0522208213806152,0.9075393676757812
1710954542953552600,16.934552734375,1.0050344467163086,-1.7941603660583496,0.4421052932739258
1710954542972511700,16.95351171875,-0.17162930965423584,-0.5962343215942383,-0.6518220901489258
1710954542991471000,16.97247119140625,-1.3264429569244385,-0.9685249328613281,-1.1935138702392578
1710954543010430500,16.991430419921876,-0.4356454610824585,-3.0880441665649414,-1.3528261184692383
1710954543029389600,17.0103896484375,0.8554595112800598,-3.1066956520080566,-0.6932454109191895
1710954543048349000,17.029348876953126,0.5388336181640625,-1.7365188598632812,-0.5922627449035645
1710954543067308000,17.04830810546875,-0.3319491147994995,-0.6829738616943359,-1.476090431213379
1710954543086267400,17.067267333984375,-0.39968013763427734,-0.42038965225219727,-2.5824546813964844
1710954543105226800,17.086226806640624,-0.17340326309204102,-0.6189894676208496,-2.765838146209717
1710954543124185900,17.105185791015625,-0.22802948951721191,-0.7118573188781738,-2.0112175941467285
1710954543143145200,17.124145263671874,-0.048917293548583984,-1.0444459915161133,-2.092857837677002
1710954543162104300,17.143104248046875,-0.13004514575004578,-0.05063343048095703,-2.8426613807678223
1710954543181063700,17.162063720703124,0.01832103729248047,1.6729660034179688,-3.511190176010132
1710954543200022800,17.181022705078124,0.758078932762146,1.276637077331543,-3.0510382652282715
1710954543218982100,17.199982177734373,1.2250760793685913,0.9809980392456055,-1.7858176231384277
1710954543237941200,17.218941162109374,0.4265363812446594,2.2671375274658203,-2.239145040512085
1710954543256900600,17.237900634765627,0.2383534461259842,-0.5319395065307617,-3.3226804733276367
1710954543275860000,17.25685986328125,1.1310062408447266,-3.0751757621765137,-2.90730619430542
1710954543294819000,17.275819091796876,0.871546745300293,-2.2310996055603027,-3.527202606201172
1710954543313778400,17.2947783203125,0.14282846450805664,-0.4977912902832031,-4.3020524978637695
1710954543332737800,17.31373779296875,0.7135382294654846,-0.16373634338378906,-4.723956108093262
1710954543351697000,17.33269677734375,0.8576999306678772,-1.344578742980957,-4.293118953704834
1710954543370656300,17.35165625,0.899518609046936,-0.6896553039550781,-4.02999210357666
1710954543389615600,17.37061572265625,0.36976176500320435,0.5824508666992188,-4.065118312835693
1710954543408574700,17.38957470703125,0.5006924867630005,0.9797725677490234,-3.2042086124420166
1710954543427533800,17.408533935546874,0.6731048226356506,0.2563447952270508,-2.0417816638946533
1710954543446493200,17.4274931640625,0.5844451189041138,0.5310125350952148,-1.911346673965454
1710954543465452500,17.44645263671875,0.06061631441116333,1.0088682174682617,-2.2264978885650635
1710954543484411600,17.46541162109375,0.3217123746871948,0.7960891723632812,-1.852190375328064
1710954543503371000,17.48437109375,0.7891095876693726,-0.11483001708984375,-1.3569209575653076
1710954543522330400,17.503330322265626,1.0514352321624756,-0.454986572265625,-1.576155185699463
1710954543541289500,17.52228955078125,0.3401196599006653,0.4066038131713867,-2.1496164798736572
1710954543560248800,17.541248779296875,0.19617126882076263,0.9544334411621094,-2.7338578701019287
1710954543579208200,17.560208251953124,0.7728084325790405,0.9568548202514648,-1.6797585487365723
1710954543598167300,17.579167236328125,0.9105846285820007,0.6253118515014648,-0.4740433692932129
1710954543617126700,17.598126708984374,0.8959397077560425,0.2479572296142578,-0.988065242767334
1710954543636086000,17.6170859375,0.35700154304504395,0.3917417526245117,-2.1200332641601562
1710954543655045000,17.636045166015624,0.17536073923110962,0.3209085464477539,-2.292342185974121
1710954543674004500,17.65500439453125,0.3264728784561157,-0.2771120071411133,-1.803879737854004
1710954543692963800,17.6739638671875,0.23541027307510376,-0.7541561126708984,-1.680762767791748
1710954543711923200,17.692923095703126,0.21315285563468933,-0.6325216293334961,-1.6975607872009277
1710954543730882300,17.71188232421875,0.22847291827201843,-0.4565134048461914,-1.363579273223877
1710954543749841700,17.730841552734375,0.009715229272842407,-1.0433483123779297,-0.6989502906799316
1710954543768801000,17.749801025390624,-0.2634059190750122,-1.1431245803833008,-0.38210487365722656
1710954543787760000,17.768760009765625,0.01245969533920288,-0.6568036079406738,-0.11953496932983398
1710954543806719500,17.787719482421874,0.4005362391471863,-0.9497089385986328,0.049790382385253906
1710954543825678800,17.806678955078127,0.24244850873947144,-1.352189064025879,-0.042543888092041016
1710954543844638000,17.825637939453124,-0.270546555519104,-1.1415672302246094,-0.036240577697753906
1710954543863597300,17.844597412109376,-0.27377575635910034,-0.5815715789794922,-0.2352604866027832
1710954543882556700,17.863556640625,0.6711868047714233,-0.8303494453430176,-0.36856555938720703
1710954543901516000,17.88251611328125,0.509601354598999,-0.5077118873596191,-0.894629955291748
1710954543920475100,17.90147509765625,-0.5341744422912598,0.14167451858520508,-1.1470146179199219
1710954543939434500,17.9204345703125,-1.0263025760650635,0.18552398681640625,-0.8286924362182617
1710954543958393900,17.939393798828124,0.22935748100280762,-0.4701714515686035,-0.3891439437866211
1710954543977353000,17.95835302734375,1.1123981475830078,-1.065713882446289,0.0757608413696289
1710954543996312300,17.977312255859374,0.1863020658493042,-0.8958380222320557,0.18473243713378906
1710954544015271700,17.996271728515627,-0.8666666746139526,-0.6066935062408447,-0.19349098205566406
1710954544034231000,18.01523095703125,-0.4849550724029541,-0.7032437324523926,-0.22129058837890625
1710954544053190100,18.034190185546876,0.9074456691741943,-0.729947566986084,0.11479949951171875
1710954544072149500,18.0531494140625,0.8540904521942139,-1.2578296661376953,0.17371273040771484
1710954544091108900,18.07210888671875,-0.47372937202453613,-1.6233115196228027,-0.28707218170166016
1710954544110068200,18.091068115234375,-0.746412992477417,-1.4584975242614746,-0.5938138961791992
1710954544129027300,18.11002734375,0.19521498680114746,0.3831450939178467,0.29146862030029297
1710954544147986700,18.128986572265624,0.5809104442596436,0.5117230415344238,0.9999971389770508
1710954544166946000,18.147946044921873,0.44626080989837646,-2.450059175491333,0.6738090515136719
1710954544185905400,18.166905517578126,-0.42800581455230713,-2.2795324325561523,-0.5402669906616211
1710954544204864500,18.185864501953127,-0.008937597274780273,-0.11229699850082397,-0.14310455322265625
1710954544223824000,18.204823974609376,0.3925323486328125,-0.21474772691726685,0.8202285766601562
1710954544242783200,18.223783203125,-0.0796205997467041,-1.806286334991455,0.3477134704589844
1710954544261742600,18.24274267578125,0.32058942317962646,-2.373169422149658,-0.38849925994873047
1710954544280701700,18.26170166015625,0.8473882675170898,-0.20762395858764648,-0.0891122817993164
1710954544299661000,18.2806611328125,-0.48968684673309326,0.6306504011154175,0.7006368637084961
1710954544318620400,18.299620361328124,-1.2176086902618408,-2.3438799381256104,1.048405647277832
1710954544337579800,18.318579833984376,0.5237452983856201,-2.532565116882324,0.8796405792236328
1710954544356539000,18.337538818359373,0.6646410226821899,1.0705044269561768,2.4315996170043945
1710954544375498200,18.356498291015626,-1.5715928077697754,1.5243080854415894,3.7255191802978516
1710954544394457600,18.37545751953125,-2.6556739807128906,-2.475489854812622,3.7936763763427734
1710954544413417000,18.3944169921875,-0.7847867012023926,-4.086223602294922,4.565507888793945
1710954544432376300,18.413376220703125,0.7391350269317627,-2.9401583671569824,5.75689697265625
1710954544451335400,18.43233544921875,-0.14095890522003174,-0.9676122665405273,4.171114921569824
1710954544470294800,18.451294677734374,-1.5202267169952393,-0.046178340911865234,1.0388813018798828
1710954544489254100,18.470254150390623,-1.6193859577178955,-0.012296199798583984,-0.838775634765625
1710954544508213500,18.489213623046876,-0.8845198154449463,-0.7150735855102539,-0.6136894226074219
1710954544527172600,18.508172607421876,0.11953771114349365,-1.2674880027770996,0.5325899124145508
1710954544546132000,18.527132080078125,0.43745744228363037,-0.6732621192932129,0.6938729286193848
1710954544565091300,18.54609130859375,-0.12913143634796143,-0.19908428192138672,0.021872997283935547
1710954544584050700,18.56505078125,-0.47580885887145996,-0.6130952835083008,-0.9793701171875
1710954544603010000,18.584010009765624,-0.24247074127197266,-0.8345746994018555,-1.4992313385009766
1710954544621969200,18.60296923828125,-0.1447153091430664,-0.27820634841918945,-2.0370755195617676
1710954544640928500,18.621928466796874,-0.4422649145126343,-0.20897912979125977,-2.346435546875
1710954544659887900,18.640887939453126,-0.290047287940979,-0.15601253509521484,-1.951404094696045
1710954544678847200,18.65984716796875,0.03193962574005127,0.3575258255004883,-1.2323808670043945
1710954544697806300,18.678806396484376,0.4271555542945862,0.12704133987426758,-0.5406231880187988
1710954544716765700,18.697765625,0.603255033493042,-0.7130303382873535,-0.1205296516418457
1710954544735725000,18.71672509765625,0.6461120247840881,-0.7533574104309082,-0.21501541137695312
1710954544754684400,18.735684326171874,0.15345174074172974,-0.40866661071777344,-0.14942312240600586
1710954544773643800,18.754643798828123,-0.08763468265533447,-1.3619451522827148,0.1907796859741211
1710954544792603000,18.773602783203124,0.4646168351173401,-2.224302291870117,0.5499048233032227
1710954544811562500,18.7925625,0.6090850830078125,-2.530183792114258,0.2632617950439453
1710954544830521600,18.811521484375,-0.12463724613189697,-3.6787376403808594,-0.4117722511291504
1710954544849481000,18.83048095703125,-0.6818631887435913,-5.05666971206665,-1.3827905654907227
1710954544868440300,18.8494404296875,-0.7440176010131836,-6.219845771789551,-1.7697277069091797
1710954544887399700,18.868399658203124,-1.1637085676193237,-5.958789825439453,0.015868186950683594
1710954544906359000,18.887359130859377,-1.338273525238037,-3.534940004348755,3.258549690246582
1710954544925318100,18.906318115234374,1.5609419345855713,0.08772921562194824,2.986769676208496
1710954544944277500,18.925277587890626,2.697084903717041,2.952608585357666,0.474700927734375
1710954544963236900,18.94423681640625,0.8670694828033447,2.9731271266937256,0.13210105895996094
1710954544982196200,18.9631962890625,-0.9253473281860352,0.8930065631866455,-0.20737457275390625
1710954545001155300,18.9821552734375,-1.1471954584121704,-1.0928877592086792,-1.1428766250610352
1710954545020114700,19.00111474609375,-0.5778366327285767,-1.3064277172088623,0.2474222183227539
1710954545039074000,19.020073974609375,-1.1059749126434326,-1.4192736148834229,1.9064302444458008
1710954545058033400,19.039033447265624,-1.130749225616455,-2.2866249084472656,1.1347827911376953
1710954545076992800,19.05799267578125,-0.13994431495666504,-2.1630587577819824,0.3454008102416992
1710954545095952000,19.076951904296877,0.2942274808883667,-1.9093266725540161,0.6779584884643555
1710954545114911200,19.0959111328125,0.160416841506958,-0.8443304300308228,0.7902984619140625
1710954545133870600,19.11487060546875,-0.0641031265258789,1.2608988285064697,1.0131397247314453
1710954545152830000,19.133829833984375,-0.2606220245361328,1.8146913051605225,1.223592758178711
1710954545171789300,19.152789306640624,0.22556328773498535,-0.09823429584503174,0.914769172668457
1710954545190748400,19.17174853515625,0.6775804758071899,-1.078514814376831,0.5806827545166016
1710954545209707800,19.190707763671874,0.038870811462402344,-0.8975293636322021,0.7464313507080078
1710954545228667100,19.209667236328126,-0.12143278121948242,-0.5497405529022217,0.9401798248291016
1710954545247626500,19.22862646484375,0.6619714498519897,-0.12713313102722168,0.5520515441894531
1710954545266585600,19.247585693359376,0.5531094074249268,-0.4430813789367676,0.5645656585693359
1710954545285545200,19.266545166015625,0.051278114318847656,-0.6978204250335693,0.7153568267822266
1710954545304504300,19.28550439453125,0.20625662803649902,-0.4852724075317383,0.5651874542236328
1710954545323463700,19.304463623046875,0.504531979560852,-0.3673415184020996,0.3945140838623047
1710954545342423000,19.323423095703124,0.1036757230758667,-1.7215523719787598,-0.36826610565185547
1710954545361382400,19.34238232421875,-0.024078726768493652,-2.997157573699951,-1.4286150932312012
1710954545380341500,19.361341552734373,0.08799445629119873,-2.096400737762451,-1.658407211303711
1710954545399300900,19.38030078125,-0.14491057395935059,-0.31280517578125,-1.5400409698486328
1710954545418260200,19.39926025390625,0.03069436550140381,0.18901729583740234,-1.8756046295166016
1710954545437219600,19.418219482421875,0.36706966161727905,-0.9181299209594727,-2.251887321472168
1710954545456179000,19.437178955078124,-0.07331037521362305,-2.012587070465088,-2.071014404296875
1710954545475138000,19.456137939453125,-0.07480257749557495,-1.9000816345214844,-1.8128056526184082
1710954545494097400,19.475097412109374,0.19084781408309937,-0.8744206428527832,-1.1888160705566406
1710954545513056800,19.494056884765627,0.38827574253082275,0.03857088088989258,-0.592963695526123
1710954545532016000,19.51301611328125,0.3389168679714203,-0.12553834915161133,-1.474158763885498
1710954545550975200,19.531975341796876,0.2826889753341675,0.08972835540771484,-2.2727880477905273
1710954545569934600,19.5509345703125,-0.2256971150636673,0.8092660903930664,-1.9123764038085938
1710954545588894000,19.56989404296875,-0.4294317662715912,0.513798713684082,-1.4166922569274902
1710954545607853300,19.588853271484375,0.4900207221508026,-1.231013298034668,-1.151787281036377
1710954545626812400,19.6078125,0.5105674862861633,-0.596043586730957,-1.2176735401153564
1710954545645771800,19.626771728515624,0.2984391450881958,-0.4582204818725586,-1.85247802734375
1710954545664731100,19.645731201171873,0.05258193612098694,-0.2418985366821289,-2.3674402236938477
1710954545683690500,19.6646904296875,0.2377503514289856,1.051112174987793,-2.7377049922943115
1710954545702649900,19.68364990234375,0.9376060962677002,0.6886920928955078,-2.7270684242248535
1710954545721609000,19.70260888671875,0.9542088508605957,-0.19288349151611328,-3.0758819580078125
1710954545740568300,19.721568359375,0.469521164894104,-0.4839448928833008,-3.6024112701416016
1710954545759527700,19.740527587890625,0.6933576464653015,-0.6915779113769531,-3.7055721282958984
1710954545778487000,19.759487060546874,0.7907734513282776,-0.23373126983642578,-3.6301214694976807
1710954545797446100,19.778446044921875,0.3490155339241028,-0.14445972442626953,-3.9770874977111816
1710954545816405500,19.797405517578124,0.12709635496139526,0.4725828170776367,-4.167843341827393
1710954545835364900,19.81636474609375,0.6364567279815674,0.9269723892211914,-3.4159953594207764
1710954545854324200,19.83532421875,0.7358689904212952,0.7123708724975586,-2.257951021194458
1710954545873283300,19.854283447265626,0.4959128499031067,0.7511920928955078,-1.9864063262939453
1710954545892242700,19.87324267578125,0.25944846868515015,0.9290971755981445,-1.9881901741027832
1710954545911202000,19.8922021484375,0.2554199695587158,1.1106586456298828,-1.9905521869659424
1710954545930161200,19.9111611328125,0.6189883947372437,0.7735176086425781,-2.1443114280700684
1710954545949120500,19.93012060546875,0.8377872109413147,0.2941761016845703,-2.407707691192627
1710954545968080000,19.949079833984374,0.8186321258544922,0.45216846466064453,-2.6657142639160156
1710954545987039200,19.968039306640627,0.5226408243179321,0.8208026885986328,-2.0634818077087402
1710954546005998300,19.986998291015624,0.4642735719680786,0.7809076309204102,-1.4918005466461182
1710954546024957700,20.005957763671876,0.7787591814994812,0.09885406494140625,-1.3305418491363525
1710954546043917000,20.0249169921875,0.7808075547218323,-0.4697608947753906,-1.368173599243164
1710954546062876400,20.04387646484375,0.3741873800754547,-0.2940340042114258,-1.5697999000549316
1710954546081835500,20.06283544921875,0.050124019384384155,-0.13052701950073242,-1.5550150871276855
1710954546100795000,20.081794921875,0.31822362542152405,-0.3768734931945801,-1.612259864807129
1710954546119754200,20.100754150390625,0.37409672141075134,-0.9322834014892578,-1.6350951194763184
1710954546138713600,20.119713623046874,-0.006898373365402222,-1.536423683166504,-1.697312355041504
1710954546157672700,20.138672607421874,-0.8141723871231079,-1.4113683700561523,-1.37855863571167
1710954546176632000,20.157632080078123,-0.745276689529419,-0.9976539611816406,-0.5650596618652344
1710954546195591400,20.17659130859375,0.09948092699050903,-1.013718605041504,0.3787069320678711
1710954546214550500,20.195550537109376,0.5946690440177917,-1.7552003860473633,0.6902480125427246
1710954546233510000,20.214510009765625,0.2456260323524475,-1.9324207305908203,0.024756431579589844
1710954546252469200,20.23346923828125,-0.6420265436172485,-0.18070459365844727,-0.3670344352722168
1710954546271428600,20.2524287109375,-1.0732249021530151,0.2923307418823242,-0.17420387268066406
1710954546290387700,20.2713876953125,0.4226350784301758,-0.7709872722625732,0.14962196350097656
1710954546309347000,20.29034716796875,1.5425281524658203,-0.6432881355285645,0.2637062072753906
1710954546328306400,20.309306396484374,0.46332859992980957,0.9477460384368896,0.10571479797363281
1710954546347265800,20.328265869140626,-1.1756380796432495,1.1899163722991943,-0.32798099517822266
1710954546366225000,20.347224853515623,-0.5498083829879761,0.10785603523254395,-1.2698659896850586
1710954546385184300,20.366184326171876,1.0837656259536743,-0.5385901927947998,-1.5087037086486816
1710954546404143600,20.3851435546875,0.8187836408615112,0.3282959461212158,-1.0524139404296875
1710954546423102700,20.404102783203125,-0.6300554275512695,0.9249961376190186,-0.17187118530273438
1710954546442062000,20.42306201171875,-0.4806523323059082,-0.35752296447753906,0.25628185272216797
1710954546461021400,20.442021484375,1.0490140914916992,-1.5499560832977295,0.2985801696777344
1710954546479980500,20.46098046875,1.1441391706466675,-0.917306125164032,0.2665681838989258
1710954546498940000,20.47993994140625,-1.1850053071975708,-0.7447732090950012,0.4621162414550781
1710954546517899300,20.498899169921874,-1.05615234375,-2.370145559310913,0.3625469207763672
1710954546536858600,20.517858642578126,0.9210628271102905,-2.5625855922698975,0.7594995498657227
1710954546555817700,20.536817626953123,1.2321803569793701,-0.2577386796474457,0.9102993011474609
1710954546574777000,20.555777099609376,-1.4777940511703491,0.201511412858963,0.5208139419555664
1710954546593736400,20.574736328125,-1.2436383962631226,-2.2026593685150146,0.24271583557128906
1710954546612695600,20.593695556640625,1.3657360076904297,-2.347846269607544,0.9598503112792969
1710954546631655000,20.612655029296874,1.4855331182479858,0.5259672403335571,0.4444427490234375
1710954546650614300,20.6316142578125,-1.627341866493225,0.5220558643341064,-0.7472648620605469
1710954546669573400,20.650573486328124,-0.925690770149231,-2.0594773292541504,-1.2922983169555664
1710954546688532700,20.66953271484375,1.5787031650543213,-1.5288825035095215,0.2036905288696289
1710954546707491800,20.688491943359374,1.0880271196365356,1.2450265884399414,1.2142763137817383
1710954546726451200,20.707451171875,-1.0740708112716675,1.3050222396850586,1.4260292053222656
1710954546745410600,20.72641064453125,-1.3699177503585815,-1.9516263008117676,2.7110652923583984
1710954546764369700,20.74536962890625,0.2681962251663208,-4.118570327758789,5.78788948059082
1710954546783329000,20.7643291015625,-1.0602480173110962,-3.2851672172546387,7.289059638977051
1710954546802288400,20.783288330078125,-1.660496473312378,-3.5945897102355957,4.135627746582031
1710954546821247700,20.802247802734374,-0.9665385484695435,-4.163581848144531,2.0773239135742188
1710954546840206800,20.821206787109375,-0.590125560760498,-1.495431900024414,1.5344934463500977
1710954546859166200,20.840166259765624,0.05645859241485596,0.3865785598754883,0.4652700424194336
1710954546878125600,20.85912548828125,0.25002384185791016,0.49740123748779297,-0.834749698638916
1710954546897084700,20.878084716796874,0.04358559846878052,1.04988431930542,-1.6483707427978516
1710954546916044000,20.8970439453125,-0.08145815134048462,1.2910242080688477,-1.6097111701965332
1710954546935003400,20.91600341796875,0.2222985327243805,0.1703643798828125,-0.6022615432739258
1710954546953962500,20.93496240234375,0.32515978813171387,-0.9708418846130371,-0.13788938522338867
1710954546972921900,20.953921875,-0.3879544734954834,-0.8890771865844727,-0.6269984245300293
1710954546991881200,20.972881103515626,-0.578818678855896,-0.20433616638183594,-1.1357955932617188
1710954547010840300,20.99184033203125,-0.04873377084732056,-0.22879791259765625,-1.1327075958251953
1710954547029799700,21.010799560546875,0.28671422600746155,-0.4096403121948242,-0.8246665000915527
1710954547048759000,21.029759033203124,0.1987411379814148,-0.5693979263305664,-0.890408992767334
1710954547067718100,21.04871826171875,-0.011421561241149902,-0.22167110443115234,-1.1692862510681152
1710954547086677500,21.067677490234374,0.0808638334274292,0.2899460792541504,-1.0784454345703125
1710954547105636900,21.086636962890626,0.4945162534713745,-0.109405517578125,-0.40497875213623047
1710954547124596000,21.105595947265623,0.7690109014511108,-0.6362743377685547,0.20777225494384766
1710954547143555300,21.124555419921876,0.2882249653339386,-0.5802707672119141,0.16718053817749023
1710954547162514700,21.1435146484375,0.09559941291809082,-0.7861876487731934,0.27466917037963867
1710954547181473800,21.162473876953126,-0.2568087577819824,-2.415928363800049,0.37611913681030273
1710954547200433200,21.18143310546875,0.07201969623565674,-4.609947681427002,0.09864521026611328
1710954547219392500,21.200392578125,0.22422993183135986,-5.95299768447876,-1.3954439163208008
1710954547238352000,21.219351806640624,-1.085197925567627,-5.52396821975708,-2.595876693725586
1710954547257311000,21.23831103515625,-1.9530469179153442,-3.9745101928710938,-1.9949941635131836
1710954547276270300,21.257270263671874,-0.113960862159729,-2.9156651496887207,0.24802017211914062
1710954547295229400,21.2762294921875,1.7275677919387817,0.2655060291290283,1.8232793807983398
1710954547314188800,21.295188720703123,1.2748347520828247,3.2556192874908447,2.006856918334961
1710954547333148200,21.314148193359376,0.3747060298919678,2.9429221153259277,1.5226287841796875
1710954547352107300,21.333107177734377,0.1345747709274292,0.03492426872253418,0.41861629486083984
1710954547371066600,21.352066650390626,-0.29671740531921387,-0.414667010307312,0.5824794769287109
1710954547390026000,21.37102587890625,-1.0977451801300049,-0.2277129888534546,1.518183708190918
1710954547408985000,21.389985107421875,-0.9281854629516602,-0.6521166563034058,1.4721565246582031
1710954547427944400,21.4089443359375,-0.19983124732971191,-2.7305614948272705,1.0316162109375
1710954547446903800,21.42790380859375,0.3857421875,-3.492797374725342,1.6903600692749023
1710954547465863200,21.44686328125,0.2005307674407959,-1.4682053327560425,1.1350555419921875
1710954547484822300,21.465822265625,-0.023954153060913086,0.6558831930160522,0.5202770233154297
1710954547503781600,21.48478173828125,0.06800079345703125,1.6195363998413086,0.6943197250366211
1710954547522741000,21.503740966796876,0.25995516777038574,-1.0242161750793457,1.480818748474121
1710954547541700000,21.5227001953125,0.4556612968444824,-2.7622103691101074,1.5610179901123047
1710954547560659500,21.541659423828126,0.17436814308166504,-2.062547445297241,1.1709651947021484
1710954547579618800,21.560618896484375,0.05157971382141113,-0.6679601073265076,1.1016778945922852
1710954547598578200,21.579578125,-0.07853245735168457,-0.2898721694946289,1.3808364868164062
1710954547617537300,21.598537353515624,-0.04993438720703125,-1.2093100547790527,0.9618606567382812
1710954547636496600,21.61749658203125,0.4658701419830322,-1.591103196144104,0.2808952331542969
1710954547655456000,21.6364560546875,0.7450211048126221,-0.312485933303833,-0.24208641052246094
1710954547674415000,21.6554150390625,-0.4710395336151123,0.7168006896972656,-0.18955039978027344
1710954547693374500,21.67437451171875,-0.9450743198394775,-0.5334277153015137,-0.1715106964111328
1710954547712333800,21.693333740234376,0.5996272563934326,-1.9109902381896973,-0.08907413482666016
1710954547731293200,21.712293212890625,1.2082102298736572,-1.3588676452636719,0.1666717529296875
1710954547750252300,21.731252197265626,0.2891106605529785,-0.4578113555908203,-0.7691640853881836
1710954547769211600,21.750211669921875,-0.9589687585830688,-0.42562294006347656,-1.759650707244873
1710954547788171000,21.7691708984375,-1.165583610534668,-1.4224863052368164,-1.5686273574829102
1710954547807130400,21.78813037109375,0.09054839611053467,-1.7205028533935547,-0.9137163162231445
1710954547826089500,21.80708935546875,0.9727675318717957,-1.5328359603881836,-0.6522336006164551
1710954547845048800,21.826048828125,0.6327146291732788,-1.431014060974121,-1.8335599899291992
1710954547864008200,21.84500830078125,-0.3616800308227539,-0.40775012969970703,-3.292177677154541
1710954547882967600,21.863967529296875,-1.1484026908874512,0.5915555953979492,-3.3229713439941406
1710954547901926700,21.8829267578125,-0.7093709111213684,-0.0519866943359375,-2.3402833938598633
1710954547920886000,21.901885986328125,0.33570733666419983,-1.0382194519042969,-1.307784080505371
1710954547939845400,21.920845458984374,0.41291338205337524,-0.5495529174804688,-1.1667451858520508
1710954547958804700,21.9398046875,-0.27372539043426514,-0.5346288681030273,-1.5221264362335205
1710954547977763800,21.958763916015624,-0.3810483515262604,-0.7833147048950195,-1.3174710273742676
1710954547996723200,21.97772314453125,0.5114572048187256,0.08068275451660156,-1.043424129486084
1710954548015682600,21.9966826171875,0.6610169410705566,0.8536443710327148,-1.2705507278442383
1710954548034642000,22.015641845703126,0.7706482410430908,-0.5535440444946289,-1.3731088638305664
1710954548053601000,22.03460107421875,0.783403217792511,-0.8579373359680176,-1.6814563274383545
1710954548072560400,22.053560302734375,0.7235280275344849,0.2660245895385742,-2.4668233394622803
1710954548091519700,22.072519775390624,0.5932171940803528,1.0936803817749023,-3.3326025009155273
1710954548110479000,22.09147900390625,0.6837630867958069,0.9927301406860352,-3.6623387336730957
1710954548129438500,22.1104384765625,1.0196350812911987,-0.1470174789428711,-3.050548553466797
1710954548148397600,22.1293974609375,1.5964908599853516,-0.5580453872680664,-2.0633063316345215
1710954548167357000,22.14835693359375,1.086820363998413,0.00397491455078125,-2.194066047668457
1710954548186316300,22.16731640625,0.46762919425964355,-0.004876136779785156,-3.047351598739624
1710954548205275600,22.186275634765625,0.3897418975830078,-0.26507568359375,-3.2547082901000977
1710954548224235000,22.205235107421874,0.6079657673835754,-0.546112060546875,-2.823356866836548
1710954548243194400,22.2241943359375,0.5782358646392822,-0.014992713928222656,-2.3579416275024414
1710954548262153500,22.243153564453124,0.714282214641571,0.40248775482177734,-2.1382558345794678
1710954548281112800,22.26211279296875,0.3130742311477661,1.1027107238769531,-2.018045425415039
1710954548300072200,22.281072265625,0.7121014595031738,0.6344814300537109,-1.6070635318756104
1710954548319031600,22.300031494140626,0.9358212351799011,0.07482242584228516,-1.1966867446899414
1710954548337991000,22.318990966796875,0.806321918964386,0.30860328674316406,-1.450566291809082
1710954548356950000,22.337949951171876,0.599253237247467,0.7316064834594727,-2.143817663192749
1710954548375909400,22.356909423828125,0.4392410218715668,0.7368497848510742,-2.05477237701416
1710954548394868700,22.37586865234375,0.4915253221988678,0.2856626510620117,-1.6369857788085938
1710954548413828000,22.394828125,0.6350712776184082,0.4723777770996094,-1.6643691062927246
1710954548432787500,22.413787353515627,0.6122556924819946,0.7489223480224609,-1.68048095703125
1710954548451746800,22.432746826171876,0.6288009881973267,0.1849069595336914,-1.4280281066894531
1710954548470706000,22.451705810546876,0.5204116106033325,-0.4297518730163574,-1.3723907470703125
1710954548489665300,22.470665283203125,0.21630927920341492,-0.5547800064086914,-1.5878992080688477
1710954548508624600,22.489624755859374,0.21631118655204773,-0.08401823043823242,-1.8852529525756836
1710954548527584000,22.508583984375,0.5605430603027344,-0.3334174156188965,-1.5712227821350098
1710954548546543400,22.52754345703125,0.23287273943424225,-0.7141633033752441,-1.095329761505127
1710954548565502700,22.546502685546876,-0.29235976934432983,-0.7041902542114258,-0.7688612937927246
1710954548584462000,22.565462158203125,-0.035338401794433594,-0.5324292182922363,-0.7463397979736328
1710954548603421400,22.58442138671875,0.627459704875946,-0.5449380874633789,-0.8273377418518066
1710954548622380500,22.603380615234375,0.4033317565917969,-0.6665000915527344,-0.858436107635498
1710954548641340000,22.62233984375,-0.08382272720336914,-0.7118930816650391,-0.7218704223632812
1710954548660299300,22.64129931640625,-0.44766974449157715,-0.33605432510375977,-0.3777294158935547
1710954548679258600,22.660258544921874,0.40299224853515625,-0.5139908790588379,-0.19863653182983398
1710954548698218000,22.679218017578126,0.9006448984146118,-0.8855257034301758,-0.2843437194824219
1710954548717177300,22.69817724609375,0.47824180126190186,-1.1069920063018799,-0.4813084602355957
1710954548736136700,22.71713671875,-0.6260788440704346,-0.6500201225280762,-0.5711040496826172
1710954548755095800,22.736095703125,-0.5137560367584229,-0.5626420974731445,-0.4041481018066406
1710954548774055400,22.755055419921874,0.423038125038147,-1.1673154830932617,-0.17797470092773438
1710954548793014800,22.774014892578126,0.33931195735931396,-1.6093873977661133,0.12976455688476562
1710954548811974000,22.792973876953123,-0.558753490447998,-0.6160633563995361,0.08858489990234375
1710954548830933200,22.811933349609376,-0.5662692785263062,-0.43743181228637695,0.042621612548828125
1710954548849892600,22.830892578125,0.24481093883514404,-1.3368030786514282,0.3259592056274414
1710954548868852000,22.84985205078125,0.35904622077941895,-1.565759301185608,0.4437999725341797
1710954548887811300,22.868811279296875,-0.3031066656112671,-0.4303572177886963,0.4555177688598633
1710954548906770700,22.887770751953123,-0.6273452043533325,0.07243227958679199,0.3334827423095703
1710954548925730000,22.90672998046875,0.3268263339996338,-0.009634971618652344,0.4018430709838867
1710954548944689400,22.925689453125,0.7764784097671509,-0.1312795877456665,0.7786369323730469
1710954548963648500,22.9446484375,-0.1596437692642212,0.3070131540298462,0.3994865417480469
1710954548982608100,22.963608154296875,-0.5539510250091553,0.36679351329803467,0.4436683654785156
1710954549001567500,22.9825673828125,0.2509632110595703,1.0598633289337158,0.8027362823486328
1710954549020526600,23.001526611328124,0.184586763381958,-0.09232664108276367,0.6311674118041992
1710954549039486000,23.02048583984375,0.0811161994934082,-1.7386854887008667,-0.19782257080078125
1710954549058445300,23.0394453125,0.14416837692260742,-2.521894931793213,-1.7483277320861816
1710954549077404700,23.05840478515625,0.3955819606781006,0.22975406050682068,-2.535551071166992
1710954549096364000,23.077364013671875,-1.0587248802185059,2.191781520843506,-1.936204433441162
1710954549115323400,23.096323486328124,-0.28400516510009766,-1.5142594575881958,-1.6216778755187988
1710954549134282800,23.11528271484375,1.215354323387146,-2.8828704357147217,-2.0097570419311523
1710954549153242000,23.1342421875,0.9087142944335938,0.06201291084289551,-1.0999813079833984
1710954549172201500,23.153201416015627,-1.2630946636199951,2.9224319458007812,0.4259634017944336
1710954549191160800,23.172160888671876,-2.6331427097320557,-0.6224942207336426,3.199939727783203
1710954549210120200,23.1911201171875,-2.893153190612793,-3.1343181133270264,7.9933576583862305
1710954549229079600,23.21007958984375,-2.817382335662842,-3.8864920139312744,11.859994888305664
1710954549248039000,23.229038818359374,0.025829553604125977,-5.942346572875977,9.9793119430542
1710954549266998300,23.247998291015627,0.009784936904907227,-5.115011215209961,6.077230453491211
1710954549285957600,23.26695751953125,-2.130645990371704,-2.235701560974121,2.3590879440307617
1710954549304916700,23.285916748046876,-2.5002386569976807,-0.4770684242248535,-0.9034228324890137
1710954549323876400,23.30487646484375,-0.1256711483001709,0.13190746307373047,-1.6904387474060059
1710954549342835700,23.323835693359374,0.38781940937042236,1.4190311431884766,-1.017354965209961
1710954549361795000,23.342795166015627,0.3181276321411133,1.1187853813171387,-0.7530126571655273
1710954549380754400,23.36175439453125,0.3174004554748535,-0.10780763626098633,-1.014871597290039
1710954549399713500,23.380713623046876,-0.08727264404296875,0.04782247543334961,-1.8548150062561035
1710954549418673000,23.3996728515625,-0.6484850645065308,-0.31075000762939453,-2.104158401489258
1710954549437632300,23.41863232421875,-0.8607534170150757,-0.45020532608032227,-1.869946002960205
1710954549456592000,23.437591796875,-0.47098660469055176,-0.7075800895690918,-1.219996452331543
1710954549475551200,23.45655126953125,0.3716784715652466,-0.6738009452819824,-0.9803752899169922
1710954549494510300,23.47551025390625,0.15784704685211182,0.11420774459838867,-0.9458227157592773
1710954549513469700,23.4944697265625,-0.107063889503479,0.5261058807373047,-0.6580095291137695
1710954549532429000,23.513428955078126,0.33403337001800537,0.4268379211425781,-0.42596864700317383
1710954549551388400,23.532388427734375,0.9611457586288452,-0.28830480575561523,-0.16891098022460938
