time,seconds_elapsed,z,y,x
1710954526119027500,0.10002734375,7.1748785972595215,-6.594619274139404,1.1497513055801392
1710954526137986300,0.118986328125,7.743174076080322,-6.540780544281006,1.9896320104599
1710954526156945000,0.13794482421875,7.525427341461182,-6.837490558624268,1.7587246894836426
1710954526175903700,0.15690380859375,7.511070251464844,-7.860422611236572,2.0518453121185303
1710954526194862600,0.175862548828125,7.576872825622559,-6.433103561401367,1.34476637840271
1710954526213821200,0.1948212890625,7.001399040222168,-6.574280261993408,1.9298114776611328
1710954526232780000,0.213780029296875,7.129415035247803,-6.593422889709473,1.6821542978286743
1710954526251738600,0.232738525390625,6.853044033050537,-5.711667537689209,2.056631088256836
1710954526270697500,0.251697509765625,7.208378314971924,-6.226124286651611,1.9130617380142212
1710954526289656300,0.27065625,7.540980339050293,-5.108676433563232,0.04905286431312561
1710954526308615200,0.289615234375,5.7786664962768555,-5.907878875732422,0.623330295085907
1710954526327573800,0.30857373046875,7.225128173828125,-7.103094100952148,0.1950150430202484
1710954526346532600,0.32753271484375,6.410371780395508,-7.621140003204346,0.7668996453285217
1710954526365491500,0.346491455078125,6.351747512817383,-6.687939167022705,0.2679961323738098
1710954526384450000,0.365449951171875,6.1603217124938965,-6.527620315551758,1.2370892763137817
1710954526403409000,0.384408935546875,6.052644729614258,-7.368697166442871,2.913261651992798
1710954526422367500,0.403367431640625,6.2536420822143555,-7.495516777038574,2.8187451362609863
1710954526441326300,0.422326416015625,6.416353702545166,-7.483552932739258,2.794816732406616
1710954526460285200,0.44128515625,5.958128452301025,-7.982456207275391,3.4612178802490234
1710954526479244000,0.460244140625,5.6685967445373535,-7.902296543121338,3.9050865173339844
1710954526498202600,0.47920263671875,5.741578102111816,-7.271788120269775,3.7016966342926025
1710954526517161500,0.498161376953125,5.431707382202148,-7.53140926361084,3.900300979614258
1710954526536120300,0.517120361328125,5.446064472198486,-7.733603000640869,4.152743816375732
1710954526555079000,0.536078857421875,5.151747226715088,-7.744370460510254,3.3822548389434814
1710954526574037800,0.555037841796875,4.8574299812316895,-8.249256134033203,3.1345977783203125
1710954526592996400,0.573996337890625,5.26899528503418,-7.41416072845459,4.11206579208374
1710954526611955200,0.592955078125,5.723631858825684,-7.018148899078369,5.576473236083984
1710954526630914000,0.6119140625,6.029912948608398,-6.8279194831848145,4.892126083374023
1710954526649873000,0.630872802734375,6.1710896492004395,-7.489534854888916,5.198407173156738
1710954526668831500,0.64983154296875,5.527420520782471,-7.018148899078369,4.577469825744629
1710954526687790300,0.668790283203125,4.085744857788086,-8.182256698608398,2.421536445617676
1710954526706749000,0.6877490234375,4.053441524505615,-7.262216567993164,3.9840497970581055
1710954526725707800,0.706707763671875,5.050052165985107,-6.464210510253906,4.932804107666016
1710954526744666600,0.72566650390625,4.9292144775390625,-6.881757736206055,4.872983455657959
1710954526763625200,0.744625244140625,5.222335338592529,-6.1710896492004395,6.975078105926514
1710954526782584000,0.763583984375,5.247459888458252,-6.7932233810424805,6.891329288482666
1710954526801543000,0.78254296875,4.858626365661621,-7.401000499725342,4.110869407653809
1710954526820501800,0.801501708984375,4.281956195831299,-7.313662528991699,4.656432628631592
1710954526839460400,0.82046044921875,4.41475772857666,-6.935596466064453,5.874379634857178
1710954526858419200,0.839419189453125,5.7750773429870605,-6.221338748931885,7.211967468261719
1710954526877377800,0.858377685546875,5.990431308746338,-6.6592254638671875,6.750152587890625
1710954526896336600,0.877336669921875,5.691328525543213,-5.436492919921875,6.278766632080078
1710954526915295500,0.89629541015625,4.597808837890625,-5.3108696937561035,6.527620315551758
1710954526934254300,0.91525439453125,4.2723846435546875,-6.386443614959717,5.163711071014404
1710954526953213000,0.934212890625,4.2723846435546875,-6.241677761077881,5.388636589050293
1710954526972171800,0.953171875,4.622933387756348,-5.8995041847229,7.0025954246521
1710954526991130600,0.972130615234375,4.376472473144531,-5.266602516174316,6.661618232727051
1710954527010089500,0.99108935546875,3.87876558303833,-5.247459888458252,5.3347978591918945
1710954527029048000,1.010048095703125,3.783052682876587,-5.4520463943481445,6.754938125610352
1710954527048007000,1.0290068359375,4.704289436340332,-5.02851676940918,6.893722057342529
1710954527066965800,1.0479658203125,4.564309120178223,-4.947160720825195,6.333801746368408
1710954527085924400,1.06692431640625,3.696911096572876,-4.832305431365967,8.078168869018555
1710954527104883200,1.08588330078125,4.372883319854736,-5.054837703704834,8.657232284545898
1710954527123842000,1.104842041015625,4.685146808624268,-5.460421085357666,8.135597229003906
1710954527142801000,1.12380078125,3.9050865173339844,-5.624329566955566,7.162914752960205
1710954527161759700,1.142759765625,2.7326035499572754,-4.596612453460693,7.657032489776611
1710954527180718300,1.16171826171875,2.693121910095215,-4.995017051696777,8.605786323547363
1710954527199677200,1.18067724609375,4.490131855010986,-4.709074974060059,9.749555587768555
1710954527218636000,1.199635986328125,2.861815929412842,-5.367101192474365,6.628118515014648
1710954527237595000,1.218594970703125,2.4227328300476074,-5.44845724105835,8.200202941894531
1710954527256553700,1.2375537109375,3.5844483375549316,-5.588437080383301,7.775477409362793
1710954527275512300,1.25651220703125,4.293920040130615,-4.948357105255127,9.136993408203125
1710954527294471200,1.27547119140625,3.219542980194092,-4.346562385559082,8.423932075500488
1710954527313430000,1.294429931640625,3.122633457183838,-4.6169514656066895,7.836493968963623
1710954527332388600,1.313388671875,3.25663161277771,-4.7401814460754395,7.720442295074463
1710954527351347700,1.33234765625,3.1238300800323486,-4.511667251586914,7.909475326538086
1710954527370306300,1.351306396484375,2.434697151184082,-4.353740692138672,7.637889862060547
1710954527389265200,1.37026513671875,2.537588357925415,-4.335794448852539,7.969295978546143
1710954527408224000,1.38922412109375,3.1274192333221436,-4.667200565338135,8.023134231567383
1710954527427182800,1.408182861328125,3.865604877471924,-4.656432628631592,10.329814910888672
1710954527446141400,1.427141357421875,4.265206336975098,-3.9014973640441895,11.112268447875977
1710954527465100300,1.446100341796875,4.059423446655273,-3.710071563720703,11.56570816040039
1710954527484059100,1.46505908203125,3.5928232669830322,-3.535395383834839,11.042876243591309
1710954527503018000,1.48401806640625,2.748156785964966,-3.432504177093506,8.249256134033203
1710954527521976800,1.502976806640625,2.368894338607788,-3.3583266735076904,6.7178497314453125
1710954527540935700,1.521935791015625,2.3916261196136475,-3.4648072719573975,6.701099872589111
1710954527559894500,1.54089453125,2.8833513259887695,-4.074976921081543,5.827719688415527
1710954527578853400,1.559853271484375,2.063809633255005,-4.23649263381958,5.170889854431152
1710954527597812000,1.57881201171875,2.9455647468566895,-4.692325115203857,5.799005508422852
1710954527616770800,1.597770751953125,3.373879909515381,-5.44008207321167,7.707281589508057
1710954527635729700,1.616729736328125,3.5820555686950684,-5.207978248596191,9.330811500549316
1710954527654688500,1.6356884765625,3.297309637069702,-5.050052165985107,10.202995300292969
1710954527673647400,1.6546474609375,3.610769271850586,-5.373083114624023,11.13021469116211
1710954527692606200,1.673606201171875,3.620340585708618,-6.333801746368408,11.958130836486816
1710954527711565000,1.69256494140625,3.9254255294799805,-6.534798622131348,9.80100154876709
1710954527730524000,1.71152392578125,2.5914268493652344,-6.449853420257568,9.175278663635254
1710954527749482800,1.730482666015625,2.0063817501068115,-5.712863922119141,8.792427062988281
1710954527768441600,1.749441650390625,2.1200408935546875,-4.894518852233887,6.812366008758545
1710954527787400400,1.768400390625,3.607180118560791,-4.886143684387207,7.356733322143555
1710954527806359000,1.787359130859375,2.806781053543091,-4.6408796310424805,7.5804619789123535
1710954527825318000,1.80631787109375,2.478964328765869,-4.1347975730896,7.682157039642334
1710954527844276700,1.82527685546875,4.0426740646362305,-3.421736478805542,7.878368377685547
1710954527863235800,1.84423583984375,4.622933387756348,-3.6634113788604736,8.525627136230469
1710954527882194700,1.863194580078125,4.572684288024902,-4.252045631408691,8.784051895141602
1710954527901153300,1.8821533203125,3.5294134616851807,-4.359723091125488,8.09850788116455
1710954527920112000,1.901112060546875,2.6739792823791504,-4.697110652923584,8.446663856506348
1710954527939071000,1.920071044921875,2.187039852142334,-4.979464054107666,8.088936805725098
1710954527958029800,1.93902978515625,2.6261229515075684,-5.191228866577148,7.703692436218262
1710954527976988700,1.95798876953125,2.9898319244384766,-5.039284706115723,8.112865447998047
1710954527995947500,1.976947509765625,2.9551360607147217,-5.015356063842773,8.689535140991211
1710954528014906400,1.99590625,1.7635103464126587,-5.210371494293213,6.308676719665527
1710954528033865200,2.014865234375,0.9092726111412048,-4.931607246398926,3.3786656856536865
1710954528052824000,2.033823974609375,3.803391695022583,-4.485345840454102,5.039284706115723
1710954528071783000,2.052782958984375,3.510270833969116,-4.085744857788086,8.153543472290039
1710954528090741800,2.07174169921875,-0.18065811693668365,-5.151747226715088,8.612964630126953
1710954528109700600,2.09070068359375,-1.5601203441619873,-5.921039581298828,5.7619171142578125
1710954528128659500,2.109659423828125,-0.47617170214653015,-6.149554252624512,4.898108005523682
1710954528147618300,2.128618408203125,-0.02751746028661728,-6.98704195022583,6.631708145141602
1710954528166577200,2.1475771484375,0.09212367236614227,-7.601997375488281,9.678967475891113
1710954528185536000,2.166535888671875,0.30149564146995544,-6.617351055145264,10.49970531463623
1710954528204494800,2.185494873046875,0.031106693670153618,-5.816951751708984,10.03549861907959
1710954528223453700,2.20445361328125,0.09571290761232376,-6.868597507476807,9.016156196594238
1710954528242412500,2.22341259765625,-0.45224347710609436,-7.176074981689453,9.347561836242676
1710954528261371400,2.242371337890625,-0.7429714202880859,-6.40438985824585,9.134600639343262
1710954528280330500,2.26133056640625,-0.8243274092674255,-5.051248550415039,9.474381446838379
1710954528299289300,2.280289306640625,-0.9690931439399719,-4.782055854797363,8.898907661437988
1710954528318248200,2.299248291015625,-1.8604196310043335,-5.346762180328369,6.963113784790039
1710954528337207000,2.31820703125,-2.770888566970825,-5.430510997772217,6.0263237953186035
1710954528356166000,2.337165771484375,-2.2241287231445312,-5.529813289642334,6.479763507843018
1710954528375124700,2.356124755859375,-0.2021935135126114,-5.937789440155029,8.498109817504883
1710954528394083600,2.37508349609375,-0.2955136001110077,-5.737988471984863,9.390632629394531
1710954528413042400,2.39404248046875,-1.6821542978286743,-4.961517810821533,8.300702095031738
1710954528432001300,2.413001220703125,-2.7361927032470703,-5.252245903015137,7.378268718719482
1710954528450960100,2.431960205078125,-2.3569302558898926,-5.753541946411133,7.3399834632873535
1710954528469919000,2.4509189453125,-2.895315408706665,-5.272584915161133,8.267202377319336
1710954528488877800,2.4698779296875,-3.3032915592193604,-5.270191669464111,8.336593627929688
1710954528507836700,2.488836669921875,-2.5088746547698975,-5.818148136138916,7.558926582336426
1710954528526795500,2.50779541015625,-2.620140790939331,-6.300302028656006,7.490731239318848
1710954528545754400,2.52675439453125,-3.029313564300537,-5.2115678787231445,8.124829292297363
1710954528564713200,2.545713134765625,-3.3367912769317627,-4.835894584655762,7.779066562652588
1710954528583672000,2.564672119140625,-3.1645078659057617,-5.149354457855225,7.886743545532227
1710954528602631000,2.583630859375,-3.019742250442505,-5.48793888092041,8.47178840637207
1710954528621590000,2.602590087890625,-2.121237277984619,-5.7511491775512695,9.818947792053223
1710954528640548900,2.621548828125,-2.2205393314361572,-5.7272210121154785,9.860821723937988
1710954528659507700,2.6405078125,-2.8079774379730225,-5.314459323883057,8.786444664001465
1710954528678466600,2.659466552734375,-2.5591237545013428,-5.210371494293213,9.359525680541992
1710954528697425400,2.67842529296875,-1.92741858959198,-5.096712112426758,9.893125534057617
1710954528716384300,2.69738427734375,-1.801795482635498,-5.133800983428955,9.44327449798584
1710954528735343000,2.716343017578125,-3.0855448246002197,-4.955535888671875,8.635697364807129
1710954528754302000,2.735302001953125,-3.1932218074798584,-4.947160720825195,7.197610378265381
1710954528773260800,2.7542607421875,-2.011167526245117,-5.210371494293213,8.323433876037598
1710954528792219600,2.7732197265625,-1.4620146751403809,-5.5034918785095215,9.4061861038208
1710954528811178800,2.7921787109375,-0.8039883971214294,-5.730810165405273,9.270991325378418
1710954528830137600,2.8111376953125,-0.2189432680606842,-5.960521221160889,9.372686386108398
1710954528849096400,2.830096435546875,0.17706887423992157,-4.961517810821533,9.381061553955078
1710954528868055300,2.84905517578125,-0.48454657196998596,-5.712863922119141,7.311269760131836
1710954528887014100,2.86801416015625,0.14835500717163086,-6.090929985046387,7.172485828399658
1710954528905973000,2.886972900390625,0.7872386574745178,-5.740381717681885,6.905686378479004
1710954528924931800,2.905931884765625,0.9990034699440002,-5.120640277862549,7.143772125244141
1710954528943891000,2.924890869140625,1.7647067308425903,-5.231906890869141,7.143772125244141
1710954528962849800,2.943849853515625,1.8915263414382935,-5.422136306762695,7.395018577575684
1710954528981808600,2.96280859375,2.2193429470062256,-5.274977684020996,8.01356315612793
1710954529000767500,2.981767578125,2.882154941558838,-4.9292144775390625,8.691927909851074
1710954529019726300,3.000726318359375,2.528017044067383,-5.594419479370117,7.635497093200684
1710954529038685200,3.019685302734375,1.2035897970199585,-6.100501537322998,6.461817741394043
1710954529057644300,3.038644287109375,0.7417750358581543,-5.858826160430908,6.157928943634033
1710954529076603100,3.05760302734375,1.5481562614440918,-5.1529436111450195,7.464410305023193
1710954529095562000,3.07656201171875,2.0315065383911133,-5.426921844482422,7.1234331130981445
1710954529114520800,3.095520751953125,1.8640087842941284,-5.938985824584961,6.758527755737305
1710954529133479700,3.114479736328125,1.4871392250061035,-6.16271448135376,6.669992923736572
1710954529152438800,3.133438720703125,1.4691931009292603,-6.022734642028809,7.395018577575684
1710954529171397600,3.152397705078125,2.012363910675049,-5.55733060836792,8.407182693481445
1710954529190356500,3.1713564453125,4.323830604553223,-4.9124650955200195,10.26042366027832
1710954529209315300,3.1903154296875,3.562912940979004,-5.306084156036377,10.231709480285645
1710954529228274200,3.209274169921875,2.8809585571289062,-5.306084156036377,9.339186668395996
1710954529247233300,3.2282333984375,1.954936146736145,-5.221138954162598,7.5673017501831055
1710954529266192100,3.247192138671875,1.1509476900100708,-5.148158073425293,6.390032768249512
1710954529285151000,3.26615087890625,0.6496513485908508,-5.247459888458252,6.025127410888672
1710954529304109800,3.28510986328125,0.5659025311470032,-5.54177713394165,6.99541711807251
1710954529323068700,3.304068603515625,0.4163511395454407,-5.886343479156494,7.59362268447876
1710954529342027800,3.32302783203125,1.4847464561462402,-6.147161483764648,9.30449104309082
1710954529360986600,3.341986572265625,1.1258230209350586,-6.367300987243652,9.615557670593262
1710954529379945500,3.360945556640625,1.1461620330810547,-6.775277137756348,8.986245155334473
1710954529398904300,3.379904296875,1.428515076637268,-6.295516490936279,8.578269004821777
1710954529417863400,3.398863525390625,1.703689694404602,-5.4556355476379395,8.050651550292969
1710954529436822300,3.417822265625,1.2239288091659546,-5.3455657958984375,7.511070251464844
1710954529455781000,3.436781005859375,0.882951557636261,-5.56450891494751,7.670193195343018
1710954529474740000,3.455739990234375,0.7238288521766663,-5.392225742340088,7.447660446166992
1710954529493698800,3.47469873046875,0.4941178858280182,-5.198407173156738,6.908079147338867
1710954529512658000,3.493657958984375,0.037088751792907715,-5.539384365081787,6.586244106292725
1710954529531616800,3.51261669921875,0.1339980661869049,-5.876772403717041,7.1856465339660645
1710954529550575600,3.53157568359375,0.711864709854126,-5.810969829559326,8.46461009979248
1710954529569534500,3.550534423828125,1.3459627628326416,-5.887540340423584,9.765109062194824
1710954529588493300,3.569493408203125,1.5756736993789673,-6.100501537322998,9.7998046875
1710954529607452200,3.5884521484375,0.8721838593482971,-5.880361557006836,8.7505521774292
1710954529626411300,3.607411376953125,0.15194423496723175,-5.660222053527832,8.169096946716309
1710954529645370000,3.6263701171875,0.0933200865983963,-5.827719688415527,7.867600917816162
1710954529664329000,3.645328857421875,0.12203395366668701,-6.134000778198242,7.611568927764893
1710954529683287800,3.664287841796875,0.25363919138908386,-6.124429702758789,7.786244869232178
1710954529702247000,3.683246826171875,0.5120640397071838,-5.913861274719238,8.112865447998047
1710954529721205800,3.702205810546875,0.5934200286865234,-5.78345251083374,8.291130065917969
1710954529740164600,3.72116455078125,0.4007977843284607,-6.01675271987915,8.063812255859375
1710954529759123700,3.740123779296875,0.3517449200153351,-6.399604320526123,7.331608772277832
1710954529778082600,3.75908251953125,0.19980068504810333,-6.185446739196777,7.296912670135498
1710954529797041400,3.77804150390625,0.058624155819416046,-5.843272686004639,7.785048484802246
1710954529816000300,3.797000244140625,0.137587308883667,-6.180660724639893,7.642675399780273
1710954529834959400,3.81595947265625,0.8865407705307007,-6.488138675689697,7.741977691650391
1710954529853918200,3.834918212890625,0.6735795736312866,-6.034698486328125,8.057829856872559
1710954529872877000,3.853876953125,0.5216353535652161,-5.90668249130249,8.060222625732422
1710954529891836000,3.8728359375,1.1174482107162476,-6.009573936462402,7.518248558044434
1710954529910795000,3.891794921875,1.3722838163375854,-5.5142598152160645,8.405985832214355
1710954529929753900,3.91075390625,0.46779683232307434,-5.905486106872559,9.305686950683594
1710954529948712700,3.929712646484375,1.5672988891601562,-5.304887771606445,7.787441253662109
1710954529967671600,3.948671630859375,1.6498512029647827,-5.467599868774414,7.779066562652588
1710954529986630700,3.967630615234375,0.9212366938591003,-5.247459888458252,8.293522834777832
1710954530005589500,3.986589599609375,1.0456634759902954,-4.861019134521484,7.989634990692139
1710954530024548400,4.00554833984375,1.4691931009292603,-5.248656272888184,7.642675399780273
1710954530043507200,4.024507080078125,1.6235301494598389,-5.801398277282715,7.895118236541748
1710954530062466300,4.04346630859375,-0.24287149310112,-5.582455158233643,6.8757758140563965
1710954530081425200,4.062425048828125,1.2490534782409668,-5.9916276931762695,7.929814338684082
1710954530100384000,4.081384033203125,1.8424733877182007,-6.015556335449219,8.175078392028809
1710954530119343000,4.100343017578125,1.470389485359192,-5.484349727630615,9.253045082092285
1710954530138302000,4.119302001953125,1.0995019674301147,-5.325226783752441,9.07717227935791
1710954530157260800,4.1382607421875,0.6735795736312866,-5.279763221740723,8.207381248474121
1710954530176219600,4.1572197265625,0.8446664214134216,-5.635097503662109,8.702695846557617
1710954530195178800,4.1761787109375,0.48813581466674805,-5.371886730194092,7.380661487579346
1710954530214137600,4.1951376953125,1.0719845294952393,-5.526223659515381,6.9344000816345215
1710954530233096400,4.214096435546875,2.2600209712982178,-6.189035892486572,8.719446182250977
1710954530252055300,4.23305517578125,1.8999011516571045,-5.101497650146484,9.45882797241211
1710954530271014400,4.252014404296875,1.8005990982055664,-5.364708423614502,8.913264274597168
1710954530289973200,4.27097314453125,1.357926845550537,-6.063412666320801,8.539983749389648
1710954530308932000,4.28993212890625,1.8472590446472168,-5.4795637130737305,8.6033935546875
1710954530327891200,4.30889111328125,2.1343977451324463,-4.43031120300293,8.910871505737305
1710954530346850000,4.32785009765625,1.94297194480896,-4.985445976257324,8.407182693481445
1710954530365809000,4.346808837890625,1.9657038450241089,-5.9545392990112305,7.172485828399658
1710954530384768000,4.36576806640625,1.5337992906570435,-5.627918720245361,6.9690961837768555
1710954530403726800,4.384726806640625,1.8305093050003052,-5.44008207321167,7.184450149536133
1710954530422685700,4.403685791015625,2.2085752487182617,-5.9676995277404785,7.47637414932251
1710954530441644500,4.42264453125,2.506481647491455,-6.025127410888672,7.451249599456787
1710954530460603600,4.441603759765625,1.8269200325012207,-5.353940486907959,7.063612461090088
1710954530479562500,4.4605625,2.0757737159729004,-6.265605926513672,7.134200572967529
1710954530498521300,4.479521240234375,2.447857618331909,-5.986842155456543,7.423732280731201
1710954530517480400,4.49848046875,2.5782663822174072,-5.91505765914917,8.104490280151367
1710954530536439300,4.517439208984375,2.785245656967163,-5.539384365081787,8.635697364807129
1710954530555398100,4.536398193359375,2.5256242752075195,-5.627918720245361,9.347561836242676
1710954530574357200,4.555357177734375,3.1214370727539062,-5.598008632659912,8.079365730285645
1710954530593316000,4.574316162109375,2.2133610248565674,-6.2189459800720215,7.552944660186768
1710954530612275000,4.59327490234375,1.9022940397262573,-5.771488189697266,7.302894592285156
1710954530631234000,4.612234130859375,2.853440999984741,-5.3934221267700195,8.270791053771973
1710954530650193000,4.63119287109375,3.139383316040039,-5.0943193435668945,7.8424763679504395
1710954530669151700,4.65015185546875,2.6392834186553955,-5.546562671661377,7.071987152099609
1710954530688110600,4.669110595703125,2.3736801147460938,-5.741578102111816,7.478767395019531
1710954530707069700,4.688069580078125,3.565305709838867,-5.737988471984863,8.13081169128418
1710954530726028500,4.707028564453125,3.497110366821289,-5.2043890953063965,8.85344409942627
1710954530744987400,4.7259873046875,3.4648072719573975,-5.37906551361084,8.017151832580566
1710954530763946500,4.744946533203125,2.664407968521118,-5.704489231109619,7.109076023101807
1710954530782905300,4.7639052734375,2.135594129562378,-4.926821708679199,6.92482852935791
1710954530801864400,4.782864501953125,3.188436269760132,-4.746163845062256,7.142575740814209
1710954530820823300,4.8018232421875,2.823530673980713,-5.157729148864746,7.562515735626221
1710954530839782100,4.8207822265625,2.1068804264068604,-5.766702651977539,8.271987915039062
1710954530858741200,4.8397412109375,4.8299126625061035,-5.702096462249756,8.242077827453613
1710954530877700000,4.8587001953125,3.899104595184326,-5.697310924530029,7.87358283996582
1710954530896659000,4.877658935546875,2.392822742462158,-5.874379634857178,8.197810173034668
1710954530915617800,4.89661767578125,2.906083106994629,-5.678168296813965,7.847261905670166
1710954530934577000,4.915576904296875,3.3511481285095215,-5.091926574707031,8.076972961425781
1710954530953535700,4.93453564453125,3.487539052963257,-5.132604598999023,7.554141044616699
1710954530972494600,4.95349462890625,2.6488547325134277,-5.554937839508057,6.837490558624268
1710954530991453700,4.97245361328125,2.313859462738037,-5.2869415283203125,6.970292568206787
1710954531010412500,4.99141259765625,2.7565317153930664,-5.513063430786133,6.990631580352783
1710954531029371600,5.01037158203125,2.8725836277008057,-5.8061842918396,6.178267955780029
1710954531048330500,5.02933056640625,2.9934210777282715,-6.288337707519531,6.142375946044922
1710954531067289300,5.048289306640625,2.963510751724243,-5.578866004943848,7.8795647621154785
1710954531086248200,5.067248291015625,3.095116138458252,-5.583651542663574,8.11525821685791
1710954531105207300,5.086207275390625,3.105883836746216,-5.563312530517578,7.203592777252197
1710954531124166100,5.105166259765625,2.878565549850464,-5.729613780975342,6.7070817947387695
1710954531143125000,5.124125,2.9599215984344482,-5.693721294403076,7.2227349281311035
1710954531162084000,5.143083984375,3.267399311065674,-5.38624382019043,7.320840835571289
1710954531181043000,5.16204296875,2.953939437866211,-4.981856822967529,7.465606689453125
1710954531200002000,5.181001953125,2.937189817428589,-4.991427898406982,8.009973526000977
1710954531218961000,5.1999609375,2.9216363430023193,-5.437689304351807,7.926225185394287
1710954531237919700,5.218919677734375,2.700300455093384,-5.2941203117370605,7.902296543121338
1710954531256878800,5.23787890625,2.5459632873535156,-4.899304389953613,8.3629150390625
1710954531275837700,5.256837646484375,2.273181438446045,-4.411168575286865,7.786244869232178
1710954531294796500,5.275796630859375,1.9250258207321167,-4.34536600112915,7.51585578918457
1710954531313755400,5.29475537109375,1.6067804098129272,-4.526023864746094,7.789834022521973
1710954531332714500,5.313714599609375,1.5804593563079834,-4.878965377807617,8.02193832397461
1710954531351673300,5.33267333984375,1.8508483171463013,-5.029713153839111,8.343772888183594
1710954531370632400,5.351632568359375,1.797009825706482,-5.333601474761963,8.178668022155762
1710954531389591300,5.37059130859375,1.5744773149490356,-5.582455158233643,8.123632431030273
1710954531408550100,5.389550048828125,0.8685946464538574,-5.708078384399414,8.117650985717773
1710954531427509200,5.40850927734375,0.6281159520149231,-5.913861274719238,8.374878883361816
1710954531446468000,5.427468017578125,1.2179467678070068,-5.529813289642334,8.342576026916504
1710954531465427000,5.446427001953125,2.214557409286499,-5.2390851974487305,8.617751121520996
1710954531484386000,5.465385986328125,2.1020946502685547,-4.722235679626465,9.05444049835205
1710954531503345000,5.484344970703125,1.5146567821502686,-4.1419758796691895,9.061619758605957
1710954531522303700,5.5033037109375,1.2251251935958862,-3.9696927070617676,8.324629783630371
1710954531541262800,5.522262939453125,0.698704183101654,-4.0666022300720215,7.774280548095703
1710954531560221700,5.5412216796875,0.06340979784727097,-3.8572301864624023,7.57806921005249
1710954531579180800,5.560180908203125,-0.30987054109573364,-3.950550079345703,7.7491559982299805
1710954531598139600,5.5791396484375,-0.8865407705307007,-4.198207378387451,7.76470947265625
1710954531617098500,5.598098388671875,-2.011167526245117,-3.724428415298462,7.957331657409668
1710954531636057600,5.6170576171875,-2.6560330390930176,-3.473181962966919,8.634500503540039
1710954531655016400,5.636016357421875,-2.2779672145843506,-3.8368911743164062,10.146764755249023
1710954531673975300,5.654975341796875,-0.8997012972831726,-4.3788652420043945,11.003395080566406
1710954531692934400,5.673934326171875,-1.171286702156067,-4.266402721405029,10.39920711517334
1710954531711893200,5.692893310546875,-2.1128623485565186,-3.7256247997283936,9.242277145385742
1710954531730852000,5.71185205078125,-2.7936203479766846,-3.3583266735076904,8.561519622802734
1710954531749811200,5.730811279296875,-3.954139471054077,-2.5232315063476562,8.01356315612793
1710954531768770000,5.74977001953125,-5.62672233581543,-1.542174220085144,7.789834022521973
1710954531787729200,5.768729248046875,-5.595615863800049,-1.301695466041565,8.103293418884277
1710954531806688000,5.78768798828125,-4.48414945602417,-2.0817556381225586,8.407182693481445
1710954531825646800,5.806646728515625,-3.6921253204345703,-2.9730820655822754,8.451449394226074
1710954531844605700,5.825605712890625,-4.071387767791748,-2.854637384414673,8.776873588562012
1710954531863564800,5.844564697265625,-4.932804107666016,-1.7670994997024536,8.746963500976562
1710954531882523600,5.863523681640625,-6.029912948608398,-1.5876377820968628,8.974281311035156
1710954531901482800,5.882482666015625,-5.4759745597839355,-2.4394826889038086,8.58784008026123
1710954531920441600,5.901441650390625,-5.136193752288818,-1.8903298377990723,8.34855842590332
1710954531939400700,5.920400634765625,-5.540580749511719,-0.9559326171875,8.878568649291992
1710954531958359600,5.939359619140625,-5.621936798095703,-1.597209095954895,9.67657470703125
1710954531977318400,5.958318359375,-4.9124650955200195,-2.2815563678741455,9.535398483276367
1710954531996277500,5.977277587890625,-4.721039295196533,-1.550549030303955,9.416953086853027
1710954532015236400,5.996236328125,-4.638486862182617,-1.0289137363433838,9.42891788482666
1710954532034195500,6.015195556640625,-4.242474555969238,-1.3028919696807861,9.19561767578125
1710954532053154300,6.034154296875,-4.650450706481934,-1.1377872228622437,9.389435768127441
1710954532072113200,6.053113037109375,-4.783252239227295,-0.6699903607368469,9.509077072143555
1710954532091072300,6.072072265625,-4.782055854797363,-0.28594231605529785,9.084351539611816
1710954532110031000,6.091031005859375,-5.205585479736328,-0.5982056856155396,8.790034294128418
1710954532128990200,6.109990234375,-5.373083114624023,-1.4344971179962158,8.792427062988281
1710954532147949000,6.128948974609375,-5.365904808044434,-1.3519448041915894,8.772088050842285
1710954532166908000,6.147907958984375,-5.302495002746582,-1.0121639966964722,8.806783676147461
1710954532185867000,6.166866943359375,-5.175675392150879,-0.9798609018325806,9.337990760803223
1710954532204825900,6.185825927734375,-4.7234320640563965,-1.246660590171814,9.58205795288086
1710954532223785000,6.204784912109375,-3.8608193397521973,-1.0061819553375244,9.756733894348145
1710954532242743800,6.223743896484375,-4.628915309906006,-0.7872386574745178,8.718249320983887
1710954532261703000,6.242702880859375,-5.966503143310547,-1.4249259233474731,7.869993686676025
1710954532280661800,6.261661865234375,-5.976074695587158,-1.552941918373108,7.619943618774414
1710954532299620600,6.28062060546875,-6.045466423034668,-1.155733346939087,7.83410120010376
1710954532318579700,6.299579833984375,-5.623133182525635,-1.0085747241973877,8.169096946716309
1710954532337538600,6.31853857421875,-6.095715522766113,-0.9619147181510925,8.134400367736816
1710954532356497700,6.33749755859375,-5.608776092529297,-1.5026925802230835,8.809176445007324
1710954532375456800,6.356456787109375,-3.555734395980835,-2.1128623485565186,10.195816993713379
1710954532394415600,6.37541552734375,-3.531806230545044,-2.1092731952667236,10.944770812988281
1710954532413374500,6.39437451171875,-4.599005222320557,-1.3950155973434448,10.248459815979004
1710954532432333600,6.41333349609375,-4.456632137298584,-1.3591232299804688,9.012566566467285
1710954532451292400,6.43229248046875,-3.6777684688568115,-1.3926228284835815,8.166703224182129
1710954532470251500,6.45125146484375,-2.3030917644500732,0.24885354936122894,8.668000221252441
1710954532489210400,6.47021044921875,-1.210768222808838,2.173879384994507,9.750752449035645
1710954532508169500,6.48916943359375,-0.34695929288864136,2.0817556381225586,9.290133476257324
1710954532527128300,6.50812841796875,0.37926238775253296,0.43549370765686035,8.2695951461792
1710954532546087400,6.52708740234375,-0.18783657252788544,-0.6269195079803467,7.109076023101807
1710954532565046300,6.54604638671875,-1.5385849475860596,-0.7668996453285217,6.063412666320801
1710954532584005400,6.56500537109375,-2.6153552532196045,-0.9068797826766968,6.0777692794799805
1710954532602964200,6.583964111328125,-3.28773832321167,-0.5790630578994751,7.0959153175354
1710954532621923300,6.60292333984375,-4.023531436920166,0.9978070259094238,8.754141807556152
1710954532640882200,6.621882080078125,-4.815555572509766,1.6235301494598389,9.852447509765625
1710954532659841300,6.64084130859375,-4.749752998352051,0.6640082597732544,9.741181373596191
1710954532678800100,6.659800048828125,-4.019941806793213,-1.8149559497833252,8.907281875610352
1710954532697759200,6.67875927734375,-3.900300979614258,-2.7314071655273438,9.05444049835205
1710954532716718300,6.69771826171875,-4.838287353515625,-1.290927767753601,9.215956687927246
1710954532735677200,6.71667724609375,-6.701099872589111,0.02392822690308094,9.260223388671875
1710954532754636300,6.73563623046875,-7.074379920959473,-0.10408778488636017,10.140782356262207
1710954532773595100,6.75459521484375,-5.633901119232178,-1.0289137363433838,10.218548774719238
1710954532792554200,6.77355419921875,-4.906482696533203,-1.109073281288147,8.70628547668457
1710954532811513000,6.79251318359375,-4.649254322052002,-0.5599204897880554,7.403393268585205
1710954532830472200,6.81147216796875,-5.764309883117676,0.1543370634317398,6.128018856048584
1710954532849431000,6.83043115234375,-6.6006011962890625,-0.014356935396790504,4.3896331787109375
1710954532868390100,6.84939013671875,-6.448657035827637,-0.4307080805301666,3.700500249862671
1710954532887349200,6.868349365234375,-6.226124286651611,-0.5048855543136597,5.241477966308594
1710954532906308000,6.88730810546875,-6.351747512817383,-0.486939400434494,7.089933395385742
1710954532925267200,6.90626708984375,-6.5766730308532715,-0.7956135272979736,8.449056625366211
1710954532944226000,6.92522607421875,-5.925825119018555,-0.8063812255859375,18.79203224182129
1710954532963185200,6.94418505859375,-7.432106971740723,1.643869161605835,13.724034309387207
1710954532982144300,6.963144287109375,-5.962913990020752,0.6807580590248108,8.422736167907715
1710954533001103000,6.98210302734375,-7.071987152099609,0.8614161610603333,8.112865447998047
1710954533020062200,7.001062255859375,-6.2189459800720215,0.9032905697822571,8.065009117126465
1710954533039021300,7.020021240234375,-5.499902725219727,1.0145567655563354,8.444271087646484
1710954533057980200,7.038980224609375,-5.450850009918213,1.0875378847122192,7.774280548095703
1710954533076939300,7.057939208984375,-5.2977094650268555,1.1318050622940063,7.64028263092041
1710954533095898000,7.076898193359375,-5.119443893432617,1.038485050201416,7.715656757354736
1710954533114857200,7.095857177734375,-4.960321426391602,0.9906286001205444,7.7180495262146
1710954533133816300,7.11481640625,-5.100301265716553,0.9200403094291687,7.674978733062744
1710954533152775400,7.133775390625,-5.547759532928467,0.836291491985321,8.169096946716309
1710954533171734300,7.152734375,-5.881557941436768,0.8709874153137207,7.7216386795043945
1710954533190693400,7.171693359375,-5.998806476593018,0.8027920126914978,7.77188777923584
1710954533209652500,7.190652587890625,-5.119443893432617,0.7908278703689575,6.847062110900879
1710954533228611300,7.209611328125,-5.755934715270996,0.638883650302887,8.376075744628906
1710954533247570400,7.2285703125,-6.419943332672119,0.7704889178276062,8.898907661437988
1710954533266529500,7.247529541015625,-5.869594097137451,0.7956135272979736,7.899903774261475
1710954533285488400,7.26648828125,-5.909075736999512,0.8638089895248413,7.530212879180908
1710954533304447500,7.285447509765625,-6.766902446746826,0.8027920126914978,8.331808090209961
1710954533323406600,7.304406494140625,-6.55992317199707,0.6939185857772827,8.338987350463867
1710954533342365400,7.323365478515625,-6.205785751342773,0.638883650302887,8.043473243713379
1710954533361324500,7.342324462890625,-5.485546112060547,-1.628315806388855,8.017151832580566
1710954533380283600,7.36128369140625,-6.437889099121094,-1.5708880424499512,8.042277336120605
1710954533399242800,7.38024267578125,-7.015756130218506,-0.30628129839897156,8.02074146270752
1710954533418201600,7.39920166015625,-7.6043901443481445,-1.0001999139785767,8.3629150390625
1710954533437160700,7.41816064453125,-7.8077802658081055,-1.2717852592468262,9.05563735961914
1710954533456119800,7.437119873046875,-7.028916358947754,-0.45942193269729614,8.790034294128418
1710954533475079000,7.456078857421875,-7.251449108123779,-0.05623133108019829,8.964710235595703
1710954533494038000,7.4750380859375,-6.564708709716797,-0.8410771489143372,8.23130989074707
1710954533512996900,7.493996826171875,-6.321837425231934,-1.3148560523986816,8.167900085449219
1710954533531956000,7.5129560546875,-6.433103561401367,-1.3088740110397339,7.825726509094238
1710954533550915000,7.5319150390625,-6.6939215660095215,-1.3902299404144287,7.405786037445068
1710954533569874000,7.5508740234375,-6.7345991134643555,-1.9669002294540405,7.190432071685791
1710954533588833000,7.5698330078125,-6.6149582862854,-2.4095723628997803,6.8865437507629395
1710954533607792000,7.588792236328125,-6.49770975112915,-2.1535403728485107,6.908079147338867
1710954533626751200,7.607751220703125,-6.27278470993042,-1.5553346872329712,7.141379356384277
1710954533645710000,7.6267099609375,-6.1950178146362305,-1.2191431522369385,7.0408806800842285
1710954533664669200,7.645669189453125,-5.927021503448486,-1.038485050201416,7.113861560821533
1710954533683628300,7.664628173828125,-5.877968788146973,-1.317248821258545,7.10429048538208
1710954533702587400,7.68358740234375,-6.180660724639893,-1.755135416984558,6.909275531768799
1710954533721546500,7.70254638671875,-6.5252275466918945,-2.155933141708374,7.0995049476623535
1710954533740505600,7.721505615234375,-6.668796539306641,-2.65842604637146,7.428517818450928
1710954533759464400,7.74046435546875,-6.478567123413086,-3.1968109607696533,7.310073375701904
1710954533778423600,7.759423583984375,-6.165107727050781,-3.5377883911132812,6.961917400360107
1710954533797382700,7.778382568359375,-5.8851470947265625,-3.7746777534484863,7.300501823425293
1710954533816341800,7.797341796875,-5.637490272521973,-3.9074792861938477,7.601997375488281
1710954533835300900,7.81630078125,-5.722435474395752,-4.1383867263793945,7.452445983886719
1710954533854260000,7.835260009765625,-5.864808082580566,-4.161118507385254,7.1988067626953125
1710954533873218800,7.85421875,-5.825326919555664,-4.2281174659729,6.99541711807251
1710954533892178000,7.873177978515625,-5.242674350738525,-4.4997029304504395,6.894918441772461
1710954533911137000,7.892136962890625,-4.510470867156982,-4.47697114944458,7.421339511871338
1710954533930096000,7.91109619140625,-4.482953071594238,-4.66361141204834,7.587640762329102
1710954533949055200,7.93005517578125,-4.6061835289001465,-5.385047435760498,7.654639720916748
1710954533968014300,7.949014404296875,-4.12761926651001,-5.913861274719238,7.57806921005249
1710954533986973400,7.967973388671875,-4.3752760887146,-6.333801746368408,6.4941205978393555
1710954534005932500,7.9869326171875,-4.802394866943359,-6.040680885314941,5.443671703338623
1710954534024891600,8.0058916015625,-4.6372904777526855,-5.733202934265137,5.01296329498291
1710954534043850500,8.0248505859375,-3.972085475921631,-5.882754325866699,4.941178798675537
1710954534062809600,8.0438095703125,-3.7184464931488037,-5.8612189292907715,5.338387489318848
1710954534081769000,8.06276904296875,-2.99222469329834,-6.256034851074219,5.894718647003174
1710954534100727800,8.081727783203124,-1.0325030088424683,-6.6592254638671875,7.802994728088379
1710954534119687000,8.10068701171875,0.4773681163787842,-7.115057945251465,9.376275062561035
1710954534138646000,8.11964599609375,0.11724831163883209,-6.689135551452637,9.4121675491333
1710954534157605000,8.138605224609375,-0.7645068168640137,-5.875576019287109,7.672585964202881
1710954534176564200,8.157564208984375,-1.0456634759902954,-5.282155990600586,5.665007591247559
1710954534195523300,8.1765234375,-0.5970092415809631,-4.955535888671875,4.862215518951416
1710954534214482400,8.195482421875,0.3445664644241333,-4.42193603515625,5.146961688995361
1710954534233441500,8.214441650390626,1.3268201351165771,-4.212564468383789,5.776273727416992
1710954534252400600,8.233400634765625,3.345165967941284,-5.169693470001221,6.756134510040283
1710954534271359700,8.25235986328125,0.3756731450557709,-3.9565322399139404,8.329415321350098
1710954534290318800,8.27131884765625,-1.794616937637329,-3.451646566390991,7.424928665161133
1710954534309277700,8.290277587890625,0.39840495586395264,-5.4628143310546875,7.41535758972168
1710954534328237000,8.309237060546875,1.140179991722107,-5.753541946411133,8.094919204711914
1710954534347196000,8.32819580078125,0.7585247755050659,-5.221138954162598,9.06281566619873
1710954534366155000,8.347155029296875,0.10648060590028763,-5.851647853851318,9.083154678344727
1710954534385114400,8.3661142578125,-0.21415762603282928,-6.732206344604492,7.800601959228516
1710954534404073200,8.3850732421875,-0.8721838593482971,-6.881757736206055,7.16650390625
1710954534423032300,8.4040322265625,-1.124626636505127,-5.911468505859375,7.4811601638793945
1710954534441991400,8.422991455078124,-0.8207381963729858,-6.323033809661865,8.614161491394043
1710954534460950500,8.441950439453125,-0.18544375896453857,-7.241877555847168,9.336793899536133
1710954534479909600,8.46090966796875,0.5443671345710754,-6.850651264190674,9.609575271606445
1710954534498868700,8.47986865234375,-0.14117653667926788,-6.198606967926025,9.5533447265625
1710954534517827800,8.498827880859375,-0.5359922647476196,-5.4867424964904785,8.445467948913574
1710954534536787000,8.517786865234376,-0.9678967595100403,-5.254638671875,7.643871784210205
1710954534555746000,8.53674609375,-1.332802176475525,-5.62672233581543,7.618747234344482
1710954534574705200,8.555705078125,-1.191625714302063,-5.98444938659668,8.000402450561523
1710954534593664300,8.574664306640624,-1.2035897970199585,-5.887540340423584,8.068597793579102
1710954534612623400,8.593623291015625,-1.2550355195999146,-5.880361557006836,7.753942012786865
1710954534631582500,8.61258251953125,-1.3387842178344727,-6.111268997192383,7.22871732711792
1710954534650541600,8.63154150390625,-1.6654045581817627,-6.5491557121276855,7.015756130218506
1710954534669500700,8.650500732421875,-1.4644074440002441,-6.5288166999816895,7.171289443969727
1710954534688459800,8.669459716796876,-1.3040883541107178,-6.16391134262085,7.529016494750977
1710954534707419000,8.6884189453125,-1.3782658576965332,-5.7858452796936035,7.800601959228516
1710954534726378000,8.7073779296875,-1.2370892763137817,-5.395814895629883,7.740781307220459
1710954534745337000,8.726337158203124,-1.3088740110397339,-5.702096462249756,7.8556365966796875
1710954534764296200,8.745296142578125,-1.144965648651123,-6.0263237953186035,8.213363647460938
1710954534783255300,8.76425537109375,-1.0049854516983032,-6.001199245452881,8.403593063354492
1710954534802214400,8.78321435546875,-1.0528420209884644,-5.846862316131592,8.38684368133545
1710954534821173500,8.802173583984375,-1.1365907192230225,-5.821737289428711,8.209774017333984
1710954534840132600,8.821132568359374,-0.973878800868988,-5.641079425811768,8.062616348266602
1710954534859091700,8.840091796875,-0.7872386574745178,-5.4867424964904785,8.118846893310547
1710954534878050800,8.85905078125,-1.1114661693572998,-5.641079425811768,8.160721778869629
1710954534897010000,8.878010009765624,-1.2131611108779907,-5.578866004943848,7.848458290100098
1710954534915969000,8.896968994140625,-1.207179069519043,-5.594419479370117,7.652246952056885
1710954534934928100,8.91592822265625,-1.3088740110397339,-6.090929985046387,7.917850017547607
1710954534953887500,8.934887451171875,-0.9942178130149841,-6.208178520202637,8.615358352661133
1710954534972846300,8.953846435546875,-0.7896314859390259,-6.068198204040527,8.912068367004395
1710954534991805400,8.972805419921874,-0.8303094506263733,-6.118447303771973,8.772088050842285
1710954535010764800,8.991764892578125,-0.97148597240448,-5.590830326080322,8.166703224182129
1710954535029723600,9.0107236328125,-1.1318050622940063,-5.3802618980407715,7.737192153930664
1710954535048683000,9.02968310546875,-1.089930772781372,-5.394618511199951,7.6977105140686035
1710954535067641900,9.048641845703125,-0.9954141974449158,-5.303691387176514,7.944170951843262
1710954535086601200,9.067601318359374,-0.8769695162773132,-5.227120876312256,8.13679313659668
1710954535105560300,9.086560302734375,-0.8530412912368774,-5.36351203918457,8.171489715576172
1710954535124519400,9.10551953125,-0.9020941257476807,-5.582455158233643,8.188239097595215
1710954535143478500,9.124478515625,-0.9343972206115723,-5.469992637634277,7.957331657409668
1710954535162437600,9.143437744140625,-1.0456634759902954,-5.551348686218262,7.646264553070068
1710954535181396700,9.162396728515626,-1.0911271572113037,-5.697310924530029,7.654639720916748
1710954535200355800,9.18135595703125,-1.1282159090042114,-5.758327484130859,8.002795219421387
1710954535219315000,9.20031494140625,-0.9403793215751648,-5.735595703125,8.24686336517334
1710954535238274000,9.219274169921874,-0.8889335989952087,-5.791827201843262,8.252845764160156
1710954535257233200,9.238233154296875,-0.9032905697822571,-5.691328525543213,8.181060791015625
1710954535276192300,9.257192138671876,-0.9750752449035645,-5.656632900238037,8.342576026916504
1710954535295151400,9.2761513671875,-1.085145115852356,-5.6685967445373535,8.70508861541748
1710954535314110500,9.2951103515625,-1.0061819553375244,-5.552545070648193,8.519644737243652
1710954535333069600,9.314069580078124,-1.0157532691955566,-5.627918720245361,8.13679313659668
1710954535352028700,9.333028564453125,-1.0648061037063599,-5.760720729827881,8.085348129272461
1710954535370987800,9.35198779296875,-0.9966106414794922,-6.03948450088501,8.352147102355957
1710954535389947000,9.37094677734375,-0.8482556343078613,-5.994020938873291,8.352147102355957
1710954535408906000,9.389906005859375,-0.836291491985321,-6.033502101898193,8.074580192565918
1710954535427865000,9.408864990234376,-0.9068797826766968,-5.994020938873291,7.983652591705322
1710954535446824200,9.42782421875,-0.7980063557624817,-5.820540904998779,7.923832416534424
1710954535465783300,9.446783203125,-0.7262216806411743,-5.698507308959961,7.989634990692139
1710954535484742400,9.465742431640624,-0.6376872062683105,-5.639883041381836,8.070990562438965
1710954535503701500,9.484701416015625,-0.5706881880760193,-5.68893575668335,8.237292289733887
1710954535522660600,9.50366064453125,-0.5431707501411438,-5.962913990020752,8.22293472290039
1710954535541619700,9.52261962890625,-0.4055834412574768,-6.03110933303833,7.767102241516113
1710954535560578800,9.541578857421875,-0.4893322288990021,-5.953342914581299,7.520641803741455
1710954535579538000,9.560537841796876,-0.5826523303985596,-5.820540904998779,7.793423175811768
1710954535598497300,9.579497314453125,-0.5455635786056519,-5.893522262573242,8.116454124450684
1710954535617456000,9.5984560546875,-0.3565305769443512,-5.879165172576904,8.023134231567383
1710954535636415500,9.61741552734375,-0.2799602448940277,-5.925825119018555,7.708477973937988
1710954535655374300,9.636374267578125,-0.25363919138908386,-5.933003902435303,7.483552932739258
1710954535674333400,9.65533349609375,-0.27038896083831787,-5.863611698150635,7.52423095703125
1710954535693292800,9.674292724609375,-0.19621145725250244,-5.760720729827881,7.587640762329102
1710954535712251600,9.693251708984375,-0.14356936514377594,-5.836094379425049,7.628318786621094
1710954535731211000,9.7122109375,-0.07417750358581543,-5.8133625984191895,7.7730841636657715
1710954535750170000,9.731170166015625,-0.1746760457754135,-5.938985824584961,7.93579626083374
1710954535769129200,9.750129150390626,-0.2392822653055191,-6.1399827003479,8.01236629486084
1710954535788088300,9.76908837890625,-0.2392822653055191,-6.245266914367676,7.971688747406006
1710954535807047400,9.78804736328125,-0.31106695532798767,-6.346961975097656,7.939385414123535
1710954535826006500,9.807006591796876,-0.16031911969184875,-6.113661766052246,7.936992645263672
1710954535844965600,9.825965576171875,-0.17946170270442963,-6.256034851074219,7.980063438415527
1710954535863924700,9.8449248046875,-0.20937198400497437,-6.1603217124938965,8.116454124450684
1710954535882883800,9.8638837890625,-0.23210379481315613,-5.873183250427246,8.104490280151367
1710954535901843000,9.882843017578125,-0.27756741642951965,-6.001199245452881,8.14516830444336
1710954535920802000,9.901802001953126,-0.0323031060397625,-6.282355785369873,7.969295978546143
1710954535939761200,9.92076123046875,-0.031106693670153618,-6.321837425231934,7.813762187957764
1710954535958720300,9.93972021484375,-0.17706887423992157,-6.197410583496094,7.542177200317383
1710954535977679400,9.958679443359374,-0.15074782073497772,-6.154339790344238,7.2227349281311035
1710954535996638500,9.977638427734375,-0.1866401731967926,-6.149554252624512,7.424928665161133
1710954536015597600,9.99659765625,-0.09810572862625122,-5.974878311157227,7.5912299156188965
1710954536034556700,10.015556640625,-0.05383851006627083,-6.232106685638428,7.395018577575684
1710954536053515800,10.034515869140625,-0.04785645380616188,-6.665207386016846,7.246663570404053
1710954536072475000,10.053474853515626,-0.16749759018421173,-6.750152587890625,7.324429988861084
1710954536091434000,10.07243408203125,-0.3732803463935852,-6.970292568206787,7.557730197906494
1710954536110393000,10.09139306640625,-0.48813581466674805,-7.21316385269165,8.164310455322266
1710954536129352200,10.110352294921874,-0.2799602448940277,-7.1270222663879395,8.83071231842041
1710954536148311300,10.129311279296875,0.04307080805301666,-7.101897716522217,8.947959899902344
1710954536167270400,10.1482705078125,0.15314064919948578,-7.359126091003418,8.806783676147461
1710954536186229500,10.1672294921875,0.16031911969184875,-7.081558704376221,8.770891189575195
1710954536205188600,10.186188720703125,0.4713860750198364,-6.339783668518066,8.599804878234863
1710954536224147700,10.205147705078126,0.7489534616470337,-5.623133182525635,8.311469078063965
1710954536243106800,10.22410693359375,0.9487541913986206,-5.4173502922058105,7.824530124664307
1710954536262066000,10.24306591796875,1.2406785488128662,-5.676971912384033,7.347161769866943
1710954536281025000,10.26202490234375,1.1581261157989502,-5.702096462249756,7.1988067626953125
1710954536299984400,10.280984375,1.4524433612823486,-5.335994720458984,6.5874409675598145
1710954536318943200,10.299943115234376,1.2957134246826172,-5.0811591148376465,6.424728870391846
1710954536337902300,10.31890234375,1.6809579133987427,-5.243870735168457,6.184250354766846
1710954536356861400,10.337861328125,1.9932212829589844,-5.629115104675293,6.357729911804199
1710954536375820500,10.356820556640624,1.8616160154342651,-5.8337016105651855,6.579065799713135
1710954536394779600,10.375779541015625,1.5397813320159912,-6.440282344818115,6.5180487632751465
1710954536413738800,10.39473876953125,1.3280165195465088,-7.015756130218506,6.212964057922363
1710954536432698000,10.413697998046874,1.7336000204086304,-7.464410305023193,4.600201606750488
1710954536451657000,10.432656982421875,1.3280165195465088,-7.04207706451416,5.468796253204346
1710954536470616000,10.451615966796876,0.5946164131164551,-6.6006011962890625,7.118647575378418
1710954536489575400,10.470575439453125,1.6713865995407104,-6.867401123046875,7.3914289474487305
1710954536508534300,10.4895341796875,1.7491533756256104,-7.347161769866943,7.4464640617370605
1710954536527493600,10.50849365234375,0.9032905697822571,-7.050451755523682,7.550551891326904
1710954536546452500,10.527452392578125,0.7860422134399414,-6.838686943054199,7.594819068908691
1710954536565411800,10.546411865234376,0.9559326171875,-6.831508636474609,7.613961696624756
1710954536584371000,10.565370849609375,1.0707881450653076,-6.607779502868652,7.728816986083984
1710954536603329800,10.584329833984375,1.184447169303894,-6.550352096557617,7.988438606262207
1710954536622289200,10.6032890625,1.1545369625091553,-6.5419769287109375,8.070990562438965
1710954536641248000,10.622248046875,0.9966106414794922,-6.565905570983887,7.789834022521973
1710954536660207400,10.641207275390625,0.8027920126914978,-6.410371780395508,7.405786037445068
1710954536679166500,10.66016650390625,0.7405785918235779,-6.488138675689697,7.204789161682129
1710954536698125300,10.679125244140625,0.623330295085907,-6.534798622131348,7.135396957397461
1710954536717084700,10.698084716796876,0.6041877269744873,-6.692724704742432,7.135396957397461
1710954536736043500,10.71704345703125,0.592223584651947,-6.780063152313232,7.269395351409912
1710954536755003000,10.7360029296875,0.7872386574745178,-6.623332977294922,7.557730197906494
1710954536773962000,10.7549619140625,1.1126625537872314,-6.823133945465088,7.765905857086182
1710954536792921000,10.773921142578125,1.1222338676452637,-6.902096748352051,7.623532772064209
1710954536811880200,10.792880126953126,0.6999006271362305,-6.963113784790039,7.0301127433776855
1710954536830839000,10.811839111328124,0.24287149310112,-6.778866767883301,6.770491600036621
1710954536849798400,10.83079833984375,0.16031911969184875,-6.783652305603027,7.0755767822265625
1710954536868757500,10.849757568359376,0.5120640397071838,-6.770491600036621,7.5050883293151855
1710954536887716600,10.868716552734375,0.6963114142417908,-6.787241458892822,7.77188777923584
1710954536906675700,10.88767578125,0.672383189201355,-6.893722057342529,7.610372543334961
1710954536925634600,10.906634521484374,0.5060819983482361,-7.063612461090088,7.2095746994018555
1710954536944594000,10.925593994140625,0.44745782017707825,-6.837490558624268,6.9236321449279785
1710954536963553000,10.944552978515626,0.3529413342475891,-6.585047721862793,6.842276573181152
1710954536982512000,10.96351220703125,0.39960137009620667,-6.486942291259766,7.061219692230225
1710954537001471200,10.98247119140625,0.4833501875400543,-6.537191390991211,7.361518859863281
1710954537020430000,11.00143017578125,0.5838487148284912,-6.533602237701416,7.485945701599121
1710954537039389400,11.020389404296875,0.537188708782196,-6.681957244873047,7.274180889129639
1710954537058348500,11.0393486328125,0.4378865361213684,-6.675975322723389,7.018148899078369
1710954537077307600,11.0583076171875,0.3720839321613312,-6.678368091583252,6.9930243492126465
1710954537096266800,11.077266845703125,0.4331009089946747,-6.650850772857666,7.214360237121582
1710954537115225900,11.096225830078126,0.5479564070701599,-6.62213659286499,7.454838752746582
1710954537134185000,11.11518505859375,0.5515456199645996,-6.594619274139404,7.664210796356201
1710954537153144000,11.13414404296875,0.4749752879142761,-6.492924213409424,7.800601959228516
1710954537172103200,11.153103271484374,0.4618147611618042,-6.503692150115967,7.789834022521973
1710954537191062300,11.172062255859375,0.4713860750198364,-6.546762943267822,7.708477973937988
1710954537210021400,11.191021484375,0.46420758962631226,-6.591030120849609,7.653443336486816
1710954537228980500,11.20998046875,0.31345975399017334,-6.385247230529785,7.715656757354736
1710954537247939600,11.228939697265625,0.30628129839897156,-6.385247230529785,7.738388538360596
1710954537266898700,11.247898681640624,0.3577269911766052,-6.406782627105713,7.739584922790527
1710954537285857800,11.26685791015625,0.36251261830329895,-6.441478729248047,7.775477409362793
1710954537304817000,11.28581689453125,0.4307080805301666,-6.574280261993408,7.65583610534668
1710954537323776000,11.30477587890625,0.3888336718082428,-6.583851337432861,7.500302791595459
1710954537342735000,11.323735107421875,0.3170489966869354,-6.535995006561279,7.420143127441406
1710954537361694200,11.342694091796876,0.24885354936122894,-6.4354963302612305,7.408178806304932
1710954537380653300,11.3616533203125,0.275174617767334,-6.473781585693359,7.451249599456787
1710954537399612400,11.3806123046875,0.4019941985607147,-6.550352096557617,7.451249599456787
1710954537418571800,11.39957177734375,0.349352091550827,-6.535995006561279,7.397411346435547
1710954537437530600,11.418530517578125,0.30628129839897156,-6.468996047973633,7.3160552978515625
1710954537456490000,11.437489990234376,0.2356930375099182,-6.382854461669922,7.247859954833984
1710954537475448800,11.45644873046875,0.27038896083831787,-6.205785751342773,7.089933395385742
1710954537494408200,11.475408203125,0.1339980661869049,-6.081358909606934,7.159325122833252
1710954537513367300,11.4943671875,-0.12203395366668701,-5.974878311157227,7.390232563018799
1710954537532326400,11.513326416015625,-0.16749759018421173,-6.204588890075684,7.618747234344482
1710954537551285500,11.532285400390625,0.09451649338006973,-6.653243541717529,7.610372543334961
1710954537570244600,11.55124462890625,0.17108681797981262,-7.04207706451416,7.5326056480407715
1710954537589203700,11.57020361328125,0.22851456701755524,-7.3986077308654785,7.823333740234375
1710954537608162800,11.589162841796876,0.4654040038585663,-8.01236629486084,8.578269004821777
1710954537627122000,11.608121826171875,0.4821537733078003,-8.084151268005371,9.10827922821045
1710954537646081000,11.6270810546875,0.4977070987224579,-8.671588897705078,8.62014389038086
1710954537665040100,11.6460400390625,0.013160524889826775,-9.649057388305664,8.206185340881348
1710954537683999200,11.664999267578125,0.016749758273363113,-11.535798072814941,6.608976364135742
1710954537702958600,11.68395849609375,0.16271193325519562,-13.231112480163574,4.791627407073975
1710954537721917700,11.702917724609375,-0.31465616822242737,-14.732608795166016,4.231706619262695
1710954537740876800,11.721876708984375,-1.2921242713928223,-12.91645622253418,4.3417768478393555
1710954537759836000,11.7408359375,-1.0719845294952393,-6.67717170715332,5.349154949188232
1710954537778795000,11.759794921875,-0.5383850932121277,-1.537388563156128,6.752545356750488
1710954537797754000,11.778754150390625,0.1986042857170105,1.412961721420288,8.409575462341309
1710954537816713200,11.797713134765624,1.007378339767456,-0.02273181453347206,11.248659133911133
1710954537835672600,11.816672607421875,0.3026920557022095,-3.460021495819092,12.652050018310547
1710954537854631700,11.835631591796876,-0.6699903607368469,-4.3549370765686035,11.192427635192871
1710954537873590800,11.8545908203125,-1.5278172492980957,-4.596612453460693,10.096514701843262
1710954537892550000,11.8735498046875,-3.3332018852233887,-4.9435715675354,10.40638542175293
1710954537911509000,11.892509033203124,-2.8283164501190186,-4.9399824142456055,11.412567138671875
1710954537930468000,11.911468017578125,-0.794417142868042,-2.458625316619873,12.07059383392334
1710954537949427500,11.930427490234376,-0.16271193325519562,-0.09690931439399719,12.474981307983398
1710954537968386600,11.949386474609375,-0.44745782017707825,1.0707881450653076,11.560922622680664
1710954537987345700,11.968345703125,-1.3866406679153442,1.6259230375289917,9.966106414794922
1710954538006304800,11.9873046875,-2.2671995162963867,2.3186452388763428,9.81535816192627
1710954538025263900,12.006263916015625,-2.414358139038086,1.8221344947814941,10.187442779541016
1710954538044223200,12.02522314453125,-0.7824530005455017,0.5647061467170715,9.45763111114502
1710954538063182300,12.044182373046874,-0.5575276613235474,1.8472590446472168,8.752944946289062
1710954538082141400,12.063141357421875,-1.9860427379608154,3.968496322631836,8.80798053741455
1710954538101100500,12.0821005859375,-2.733799934387207,5.2737812995910645,9.361918449401855
1710954538120059600,12.1010595703125,-2.090130567550659,4.296313285827637,9.89432144165039
1710954538139018800,12.120018798828125,-1.0564311742782593,3.190829038619995,9.796216011047363
1710954538157978000,12.13897802734375,-1.3471591472625732,3.7986059188842773,9.961320877075195
1710954538176937200,12.157937255859375,-2.0614166259765625,4.883750915527344,10.1216402053833
1710954538195896300,12.176896240234376,-2.0063817501068115,4.297509670257568,9.812965393066406
1710954538214855400,12.19585546875,-2.1068804264068604,2.7900311946868896,9.312865257263184
1710954538233814800,12.214814697265625,-1.4739787578582764,2.2372891902923584,8.470592498779297
1710954538252774000,12.23377392578125,-1.25144624710083,3.0963125228881836,7.982456207275391
1710954538271733000,12.25273291015625,-1.9920248985290527,5.212764263153076,7.6869425773620605
1710954538290692000,12.271692138671876,-1.9154545068740845,6.1950178146362305,7.507481098175049
1710954538309651500,12.2906513671875,-2.059023857116699,5.071587562561035,6.63051176071167
1710954538328610600,12.309610595703125,-0.8458628058433533,3.902693748474121,4.995017051696777
1710954538347569700,12.328569580078126,-0.6436693072319031,4.999803066253662,4.485345840454102
1710954538366528800,12.34752880859375,-0.3696911036968231,6.455835342407227,4.238885402679443
1710954538385488100,12.366488037109375,-0.1339980661869049,7.171289443969727,3.074777126312256
1710954538404447200,12.385447265625,-0.05623133108019829,8.177471160888672,1.435693621635437
1710954538423406300,12.40440625,0.46420758962631226,8.409575462341309,1.4536397457122803
1710954538442365400,12.423365478515626,0.39481574296951294,7.884350776672363,2.170290231704712
1710954538461324800,12.44232470703125,0.37088751792907715,8.621339797973633,2.245664119720459
1710954538480284000,12.461283935546875,0.6221339106559753,8.169096946716309,1.750349760055542
1710954538499243000,12.480242919921874,1.8556339740753174,7.448856830596924,1.9010975360870361
1710954538518202000,12.4992021484375,1.9860427379608154,8.22413158416748,0.7262216806411743
1710954538537161200,12.5181611328125,1.100698471069336,9.7998046875,-1.7455641031265259
1710954538556120600,12.53712060546875,1.1784651279449463,10.125228881835938,-3.511467218399048
1710954538575079700,12.55607958984375,1.6163517236709595,8.24686336517334,-1.9202401638031006
1710954538594039000,12.5750390625,2.014756679534912,8.219346046447754,-0.778863787651062
1710954538612998100,12.593998046875,1.1868400573730469,9.4660062789917,-1.25144624710083
1710954538631957200,12.612957275390626,0.3936193287372589,10.177870750427246,-2.4406790733337402
1710954538650916400,12.631916259765624,0.6544370055198669,9.665806770324707,-1.9728822708129883
1710954538669875700,12.650875732421875,0.7393822073936462,9.45882797241211,-1.755135416984558
1710954538688834800,12.669834716796874,0.2584248483181,9.29611587524414,-1.5122638940811157
1710954538707794000,12.6887939453125,-0.33738797903060913,9.438488960266113,-0.9942178130149841
1710954538726753300,12.707753173828126,-0.16271193325519562,9.968499183654785,-0.05503492057323456
1710954538745712400,12.72671240234375,-0.039481572806835175,9.92542839050293,1.3567304611206055
1710954538764671500,12.74567138671875,0.1136590763926506,9.383454322814941,1.8352949619293213
1710954538783630800,12.764630859375,-0.0023928226437419653,9.244669914245605,1.8556339740753174
1710954538802590000,12.78358984375,-0.8410771489143372,9.284152030944824,2.366501569747925
1710954538821549000,12.802549072265625,-1.9334007501602173,9.914660453796387,3.1381869316101074
1710954538840508400,12.82150830078125,-1.2550355195999146,9.52941608428955,4.001996040344238
1710954538859467500,12.840467529296875,-0.07896314561367035,7.440482139587402,4.910071849822998
1710954538878427000,12.859427001953126,-0.02392822690308094,6.235695838928223,5.150550842285156
1710954538897386000,12.878385986328125,-1.0552347898483276,6.26440954208374,5.2354960441589355
1710954538916345000,12.897344970703125,-2.5734808444976807,6.655636310577393,5.435296535491943
1710954538935304400,12.916304443359374,-2.92283296585083,6.471388816833496,6.134000778198242
1710954538954263600,12.935263671875,-0.9463613629341125,5.115854740142822,7.436892986297607
1710954538973223000,12.954222900390626,0.04546362906694412,4.199403762817383,8.419146537780762
1710954538992182000,12.97318212890625,-1.3351950645446777,5.599205017089844,8.874979019165039
1710954539011141000,12.99214111328125,-2.6524438858032227,7.81974458694458,9.357132911682129
1710954539030100500,13.0111005859375,-1.2897313833236694,6.775277137756348,8.842676162719727
1710954539049059600,13.0300595703125,0.1459621787071228,5.2115678787231445,8.032705307006836
1710954539068018700,13.049018798828126,-1.332802176475525,4.707878589630127,7.926225185394287
1710954539086978000,13.06797802734375,-2.526820659637451,4.89691162109375,8.749356269836426
1710954539105937200,13.086937255859375,-0.8769695162773132,3.438486099243164,8.71226692199707
1710954539124896500,13.105896484375,0.7860422134399414,1.5050854682922363,8.102097511291504
1710954539143855600,13.124855712890625,-0.6460621356964111,0.8781659007072449,7.3986077308654785
1710954539162815000,13.14381494140625,-2.981456995010376,1.9010975360870361,7.048058986663818
1710954539181774000,13.162774169921875,-3.0424740314483643,2.8139593601226807,7.46201753616333
1710954539200733200,13.181733154296875,-0.29312077164649963,1.4919248819351196,8.023134231567383
1710954539219692500,13.200692626953124,0.17228323221206665,-0.3074777126312256,8.236095428466797
1710954539238651600,13.219651611328125,-1.3806586265563965,-0.6161518096923828,8.592626571655273
1710954539257611000,13.238611083984376,-1.5122638940811157,1.2729816436767578,9.58205795288086
1710954539276570000,13.257570068359374,0.25363919138908386,1.3316057920455933,9.641879081726074
1710954539295529500,13.276529541015625,0.2667997181415558,-0.3481557071208954,9.269794464111328
1710954539314488600,13.295488525390626,-1.734796404838562,-1.832902193069458,9.241081237792969
1710954539333447700,13.31444775390625,-2.122433662414551,-0.9798609018325806,9.631111145019531
1710954539352407000,13.333406982421875,0.33738797903060913,-0.23210379481315613,10.347761154174805
1710954539371366100,13.3523662109375,1.0947163105010986,-1.8436698913574219,10.116853713989258
1710954539390325500,13.371325439453125,-0.5395814776420593,-3.6370904445648193,9.013762474060059
1710954539409284600,13.39028466796875,-1.7742780447006226,-2.9001009464263916,8.73499870300293
1710954539428243700,13.40924365234375,-1.038485050201416,-1.054038405418396,10.061819076538086
1710954539447203000,13.428203125,0.3517449200153351,-3.85483717918396,11.003395080566406
1710954539466162400,13.447162353515624,0.4223332107067108,-6.169893264770508,11.410174369812012
1710954539485121500,13.46612158203125,-0.31106695532798767,-5.9198431968688965,12.716655731201172
1710954539504081000,13.485080810546876,-1.872383713722229,-4.614558696746826,14.935998916625977
1710954539523040000,13.5040400390625,-3.1274192333221436,-7.2430739402771,15.780665397644043
1710954539541999400,13.522999267578125,0.3158525824546814,-10.986644744873047,14.218152046203613
1710954539560958500,13.54195849609375,1.511067509651184,-10.114460945129395,12.477374076843262
1710954539579917600,13.56091748046875,-0.794417142868042,-5.752345561981201,9.921838760375977
1710954539598877000,13.579876953125,-2.434697151184082,-2.943171739578247,6.184250354766846
1710954539617836000,13.5988359375,-0.8925228714942932,-4.011567115783691,4.315455436706543
1710954539636795400,13.61779541015625,0.9954141974449158,-5.420939922332764,6.241677761077881
1710954539655754500,13.63675439453125,1.2490534782409668,-5.4041900634765625,8.338987350463867
1710954539674713900,13.6557138671875,0.7334001660346985,-5.882754325866699,8.681160926818848
1710954539693673000,13.6746728515625,-0.1746760457754135,-6.436692714691162,7.812565803527832
1710954539712632300,13.69363232421875,-0.7070791125297546,-6.93320369720459,7.396214962005615
1710954539731591400,13.71259130859375,-0.5156532526016235,-6.9690961837768555,7.527820110321045
1710954539750550800,13.73155078125,0.10408778488636017,-7.22034215927124,7.936992645263672
1710954539769510000,13.750510009765625,0.39601215720176697,-6.930810928344727,7.993224143981934
1710954539788469200,13.76946923828125,0.3732803463935852,-6.410371780395508,7.499105930328369
1710954539807428400,13.788428466796875,0.2560320198535919,-5.715256690979004,7.0648088455200195
1710954539826387700,13.8073876953125,0.39601215720176697,-5.059623718261719,6.981060028076172
1710954539845346800,13.826346923828124,0.9212366938591003,-5.394618511199951,7.117451190948486
1710954539864306200,13.84530615234375,1.1892328262329102,-6.364908218383789,7.162914752960205
1710954539883265300,13.864265380859376,0.8733802437782288,-6.3254265785217285,6.8410797119140625
1710954539902224600,13.883224609375,0.45583271980285645,-6.190232276916504,6.613761901855469
1710954539921183700,13.902183837890625,0.3409772217273712,-6.599404811859131,6.935596466064453
1710954539940143000,13.92114306640625,0.5706881880760193,-6.946363925933838,7.23589563369751
1710954539959102200,13.940102294921875,0.7932206988334656,-7.227520942687988,7.635497093200684
1710954539978061600,13.9590615234375,0.7393822073936462,-8.499305725097656,8.23250675201416
1710954539997020700,13.978020751953125,0.3888336718082428,-9.950552940368652,8.742177963256836
1710954540015980000,13.99697998046875,0.13040883839130402,-10.638489723205566,8.334200859069824
1710954540034939100,14.015939208984374,-0.29431718587875366,-11.088339805603027,7.5326056480407715
1710954540053898500,14.0348984375,-1.3639088869094849,-11.49392318725586,7.41416072845459
1710954540072857600,14.053857666015626,-1.3459627628326416,-10.03310489654541,7.897511005401611
1710954540091817000,14.07281689453125,-0.35413774847984314,-6.25723123550415,8.584251403808594
1710954540110776000,14.091776123046875,0.0729810893535614,-2.5531418323516846,9.1716890335083
1710954540129735400,14.1107353515625,0.4103690981864929,0.11126625537872314,9.588040351867676
1710954540148694500,14.129694580078125,0.4043870270252228,-0.3577269911766052,10.520044326782227
1710954540167654000,14.14865380859375,-0.2667997181415558,-2.334198474884033,11.245070457458496
1710954540186613000,14.167613037109374,-0.7130611538887024,-2.874976396560669,10.973484992980957
1710954540205572400,14.186572265625,-1.6342978477478027,-3.0209386348724365,10.695917129516602
1710954540224531500,14.205531494140626,-2.89172625541687,-2.0745773315429688,10.13599681854248
1710954540243490800,14.22449072265625,-3.2135608196258545,-2.029113531112671,9.827322959899902
1710954540262450000,14.243449951171876,-2.3569302558898926,-3.06999135017395,10.38485050201416
1710954540281409300,14.2624091796875,-1.0013962984085083,-1.9932212829589844,11.508280754089355
1710954540300368400,14.281368408203125,-0.3888336718082428,0.13519448041915894,11.991630554199219
1710954540319327700,14.30032763671875,-0.6245267391204834,1.0815558433532715,12.07777214050293
1710954540338286800,14.319286865234375,-1.3411771059036255,0.3433700501918793,11.242676734924316
1710954540357246200,14.33824609375,-1.5876377820968628,0.7716853022575378,10.122836112976074
1710954540376205300,14.357205322265624,-1.6785650253295898,1.9860427379608154,9.69212818145752
1710954540395164700,14.37616455078125,-1.8305093050003052,2.447857618331909,9.735198974609375
1710954540414123800,14.395123779296876,-1.8436698913574219,2.146361827850342,10.054640769958496
1710954540433083100,14.414083251953125,-1.6582261323928833,1.6689938306808472,10.187442779541016
1710954540452042200,14.433042236328125,-1.3674981594085693,2.234896421432495,9.67657470703125
1710954540471001600,14.452001708984374,-1.3459627628326416,4.133601188659668,9.56770133972168
1710954540489960700,14.470960693359375,-1.4691931009292603,4.632504463195801,9.968499183654785
1710954540508920000,14.489920166015626,-1.4536397457122803,3.4085757732391357,9.006584167480469
1710954540527879200,14.508879150390625,-1.1425727605819702,3.373879909515381,7.751548767089844
1710954540546838500,14.527838623046875,-1.2490534782409668,4.235296249389648,7.377072334289551
1710954540565797600,14.546797607421874,-1.412961721420288,4.731806755065918,7.250252723693848
1710954540584757000,14.565757080078125,-1.1880364418029785,5.19960355758667,6.825526714324951
1710954540603716000,14.584716064453126,-1.337587833404541,5.225924491882324,5.971288681030273
1710954540622675500,14.603675537109375,-1.222732424736023,5.236692428588867,5.410171985626221
1710954540641634600,14.622634521484375,-1.2287144660949707,5.469992637634277,5.485546112060547
1710954540660594000,14.641593994140624,-1.290927767753601,6.368497371673584,5.367101192474365
1710954540679553000,14.660552978515625,-0.9595218896865845,7.16650390625,5.148158073425293
1710954540698512400,14.679512451171876,-0.11485548317432404,6.833901405334473,5.203192710876465
1710954540717471500,14.698471435546875,0.20458634197711945,6.6352972984313965,5.282155990600586
1710954540736430600,14.7174306640625,-0.12083754688501358,7.902296543121338,4.907679080963135
1710954540755390000,14.736389892578124,-0.12921242415905,8.070990562438965,4.084548473358154
1710954540774349000,14.75534912109375,0.4007977843284607,7.170093059539795,3.3056845664978027
1710954540793308400,14.774308349609376,0.2225325107574463,8.060222625732422,3.671786308288574
1710954540812267800,14.793267822265625,-0.04307080805301666,8.890532493591309,4.238885402679443
1710954540831227000,14.812226806640625,1.0348957777023315,8.181060791015625,3.8560338020324707
1710954540850186200,14.831186279296874,1.1186445951461792,7.8664045333862305,3.597608804702759
1710954540869145300,14.850145263671875,0.43908295035362244,8.950352668762207,3.276970624923706
1710954540888104400,14.8691044921875,0.16031911969184875,9.53061294555664,2.5663022994995117
1710954540907063800,14.888063720703125,1.0683952569961548,8.62014389038086,2.23848557472229
1710954540926023000,14.90702294921875,1.2418749332427979,8.5100736618042,2.334198474884033
1710954540944982300,14.925982177734374,0.6580262184143066,8.701499938964844,2.321038007736206
1710954540963941400,14.94494140625,0.13878370821475983,8.676374435424805,1.9441684484481812
1710954540982900700,14.963900634765626,0.3026920557022095,8.356932640075684,1.6941183805465698
1710954541001859800,14.98285986328125,0.8147560954093933,8.512466430664062,1.8544375896453857
1710954541020819200,15.001819091796875,0.8291130661964417,8.641678810119629,1.9716858863830566
1710954541039778300,15.0207783203125,0.28115665912628174,9.278169631958008,1.8652052879333496
1710954541058737700,15.039737548828125,0.12203395366668701,9.34277629852295,2.181057929992676
1710954541077696800,15.05869677734375,0.4893322288990021,9.141778945922852,2.9551360607147217
1710954541096656100,15.07765625,0.3601198196411133,8.701499938964844,3.342773199081421
1710954541115615200,15.096615234375,0.1818545162677765,8.652446746826172,3.170490026473999
1710954541134574600,15.11557470703125,0.28953152894973755,8.684749603271484,3.2578279972076416
1710954541153533700,15.13453369140625,0.3852444589138031,8.922835350036621,3.6993038654327393
1710954541172492800,15.153492919921876,0.2847459018230438,8.9312105178833,4.061816215515137
1710954541191452200,15.1724521484375,0.0011964113218709826,8.467002868652344,4.202992916107178
1710954541210411300,15.191411376953125,0.11844471842050552,8.183453559875488,4.332205295562744
1710954541229370600,15.21037060546875,0.17587246000766754,7.596015453338623,4.599005222320557
1710954541248329700,15.229329833984375,0.12083754688501358,6.607779502868652,4.649254322052002
1710954541267288800,15.248288818359375,-0.20937198400497437,5.989234924316406,4.7126641273498535
1710954541286248200,15.267248291015624,-1.0301101207733154,7.107879638671875,5.2630133628845215
1710954541305207300,15.286207275390625,-1.6582261323928833,8.571090698242188,6.260820388793945
1710954541324166700,15.305166748046876,-0.06580262631177902,7.594819068908691,7.131807804107666
1710954541343125800,15.324125732421875,0.8147560954093933,5.944967746734619,6.988238334655762
1710954541362085000,15.343085205078125,-0.1663011759519577,5.38624382019043,6.838686943054199
1710954541381044200,15.362044189453124,-1.1724830865859985,5.994020938873291,7.21316385269165
1710954541400003600,15.381003662109375,-0.9499505758285522,6.2189459800720215,7.607979774475098
1710954541418962700,15.399962646484376,-0.12083754688501358,5.362315654754639,8.24566650390625
1710954541437922000,15.418922119140625,-0.259621262550354,4.425525665283203,8.24566650390625
1710954541456881200,15.437881103515625,-1.168893814086914,4.619344234466553,8.411968231201172
1710954541475840500,15.456840576171874,-1.466800332069397,5.395814895629883,8.840283393859863
1710954541494799600,15.475799560546875,-1.031306505203247,4.543970108032227,8.61176872253418
1710954541513758700,15.4947587890625,-0.32303106784820557,2.7936203479766846,8.236095428466797
1710954541532718000,15.513718017578125,-0.9487541913986206,1.6103696823120117,8.031509399414062
1710954541551677200,15.53267724609375,-1.5481562614440918,2.4717857837677,8.409575462341309
1710954541570636500,15.551636474609374,-1.4333007335662842,3.5736806392669678,9.153742790222168
1710954541589595600,15.570595703125,-0.6544370055198669,2.3676979541778564,9.546165466308594
1710954541608555000,15.589554931640626,-0.23688943684101105,1.415354609489441,9.461220741271973
1710954541627514000,15.60851416015625,-0.5647061467170715,1.4500504732131958,9.231510162353516
1710954541646473200,15.62747314453125,-1.0325030088424683,2.583052158355713,9.205188751220703
1710954541665432600,15.6464326171875,-1.2011969089508057,2.489732027053833,9.789037704467773
1710954541684391700,15.6653916015625,-0.7202396392822266,0.7106683254241943,9.570094108581543
1710954541703351000,15.68435107421875,-0.503689169883728,-0.9846464991569519,8.506484031677246
1710954541722310100,15.70331005859375,-1.0564311742782593,-0.760917603969574,8.226524353027344
1710954541741269200,15.722269287109375,-1.805384635925293,1.397408366203308,9.960124015808105
1710954541760228600,15.741228515625,-1.5840486288070679,-0.6376872062683105,11.343175888061523
1710954541779187700,15.760187744140625,0.3852444589138031,-3.7818562984466553,9.958928108215332
1710954541798147000,15.77914697265625,0.47976094484329224,-4.381258487701416,8.080561637878418
1710954541817106200,15.798106201171874,-1.4775680303573608,0.15553347766399384,8.327022552490234
1710954541836065300,15.817065185546875,-3.9349968433380127,1.5445669889450073,9.7938232421875
1710954541855024600,15.836024658203126,-1.0552347898483276,-4.039084434509277,9.658628463745117
1710954541873983700,15.854983642578125,1.8544375896453857,-5.618347644805908,9.18006420135498
1710954541892943000,15.873943115234376,0.11485548317432404,-2.2648067474365234,9.174081802368164
1710954541911902200,15.892902099609374,-3.0005996227264404,1.0049854516983032,9.151350021362305
1710954541930861600,15.911861572265625,-3.6849467754364014,-1.1509476900100708,10.108479499816895
1710954541949820700,15.930820556640626,-0.10289137065410614,-6.311069488525391,12.650853157043457
1710954541968779800,15.94977978515625,1.6534404754638672,-6.929614543914795,14.903696060180664
1710954541987739100,15.9687392578125,-2.1092731952667236,-4.753342151641846,15.213566780090332
1710954542006698200,15.9876982421875,-4.5786662101745605,-6.544369697570801,12.741780281066895
1710954542025657600,16.00665771484375,-1.6761722564697266,-9.199206352233887,11.568100929260254
1710954542044616700,16.02561669921875,0.15672987699508667,-8.572287559509277,12.812368392944336
1710954542063575800,16.044575927734375,-0.46420758962631226,-6.557530403137207,11.20199966430664
1710954542082535200,16.06353515625,-1.1306086778640747,-5.848058700561523,7.801798343658447
1710954542101494300,16.082494384765624,-1.9680966138839722,-5.740381717681885,5.272584915161133
1710954542120453600,16.10145361328125,-1.4811571836471558,-6.723831653594971,4.868197441101074
1710954542139412700,16.120412841796874,-0.30628129839897156,-7.746763229370117,5.962913990020752
1710954542158372000,16.1393720703125,0.31345975399017334,-7.980063438415527,6.952346324920654
1710954542177331200,16.158331298828124,0.2679961323738098,-7.825726509094238,6.556334018707275
1710954542196290300,16.177290283203124,-0.40797626972198486,-7.835297584533691,5.650650501251221
1710954542215249700,16.196249755859377,-0.6400800347328186,-7.824530124664307,4.884947299957275
1710954542234208800,16.215208740234374,-0.2883351147174835,-7.1856465339660645,4.649254322052002
1710954542253168000,16.234168212890626,-0.14117653667926788,-6.658029079437256,4.932804107666016
1710954542272127200,16.253127197265623,-0.05383851006627083,-6.510870456695557,5.504688262939453
1710954542291086600,16.272086669921876,0.275174617767334,-6.75374174118042,6.107679843902588
1710954542310045700,16.291045654296877,0.519242525100708,-6.545566558837891,6.392425537109375
1710954542329005000,16.310005126953126,0.20338992774486542,-6.562315940856934,6.667600154876709
1710954542347964200,16.328964111328126,0.039481572806835175,-6.902096748352051,6.788437843322754
1710954542366923500,16.347923583984375,0.22013968229293823,-7.302894592285156,7.0923261642456055
1710954542385882600,16.366882568359376,0.19142581522464752,-7.999206066131592,8.10807991027832
1710954542404842000,16.385842041015625,0.4247260093688965,-8.400003433227539,8.71226692199707
1710954542423801000,16.404801025390626,0.04307080805301666,-8.785248756408691,8.37966537475586
1710954542442760200,16.42376025390625,-0.5934200286865234,-9.829715728759766,7.690532207489014
1710954542461719600,16.442719482421875,-0.6137589812278748,-11.327622413635254,6.382854461669922
1710954542480678700,16.4616787109375,-0.914058268070221,-12.92602825164795,5.691328525543213
1710954542499638000,16.480637939453125,-1.2203395366668701,-10.729416847229004,6.2871413230896
1710954542518597000,16.49959716796875,-1.322034478187561,-5.568098068237305,7.763513088226318
1710954542537556500,16.518556396484374,-0.6293123364448547,-1.262213945388794,9.329615592956543
1710954542556515600,16.537515625,0.8099704384803772,1.1545369625091553,10.37767219543457
1710954542575475000,16.556474853515624,0.4534398913383484,-0.48095735907554626,11.520244598388672
1710954542594434000,16.57543408203125,-0.25363919138908386,-3.4277184009552,11.303693771362305
1710954542613393400,16.594393310546874,-1.6175481081008911,-2.691925525665283,10.321440696716309
1710954542632352500,16.6133525390625,-2.9168508052825928,-2.0482561588287354,10.426724433898926
1710954542651311900,16.632311767578123,-3.4504501819610596,-3.2267212867736816,10.814361572265625
1710954542670271000,16.65127099609375,-2.7122645378112793,-4.6301116943359375,12.04666519165039
1710954542689230300,16.670230224609377,-1.2562319040298462,-4.100101470947266,12.837493896484375
1710954542708189400,16.689189453125,-0.8757730722427368,-2.469393014907837,12.096915245056152
1710954542727148800,16.708148681640626,-2.122433662414551,-0.7932206988334656,10.894521713256836
1710954542746108000,16.72710791015625,-2.9587252140045166,0.4989035129547119,10.086943626403809
1710954542765067300,16.7460673828125,-2.2815563678741455,0.6532405614852905,10.028319358825684
1710954542784026400,16.7650263671875,-1.8005990982055664,0.27038896083831787,10.557133674621582
1710954542802985700,16.78398583984375,-1.810170292854309,0.1495514214038849,10.977073669433594
1710954542821944800,16.80294482421875,-2.3126630783081055,0.1663011759519577,11.065608024597168
1710954542840904200,16.821904296875,-1.8424733877182007,0.6687939167022705,10.225728034973145
1710954542859863300,16.84086328125,-1.6941183805465698,2.857030153274536,9.68494987487793
1710954542878822700,16.85982275390625,-2.159522533416748,4.116851329803467,9.883553504943848
1710954542897781800,16.87878173828125,-2.2887349128723145,3.2889347076416016,9.791430473327637
1710954542916741000,16.8977412109375,-1.4273186922073364,2.4945175647735596,9.711270332336426
1710954542935700500,16.916700439453123,-0.5802595019340515,2.5399811267852783,9.554540634155273
1710954542954659600,16.93565966796875,-1.1665010452270508,3.762713670730591,8.405985832214355
1710954542973619000,16.954618896484376,-2.5399811267852783,5.017749309539795,7.3304123878479
1710954542992578000,16.973578125,-2.669193744659424,3.6981074810028076,6.649653911590576
1710954543011537400,16.992537353515626,-1.0001999139785767,2.775674343109131,6.721438884735107
1710954543030496500,17.01149658203125,-0.4211367964744568,4.059423446655273,7.010970115661621
1710954543049455900,17.030455810546876,-1.0121639966964722,5.722435474395752,6.281159400939941
1710954543068415000,17.0494150390625,-1.4165509939193726,6.738188743591309,4.78803825378418
1710954543087374300,17.068374267578125,-1.046859860420227,6.932007312774658,3.786641836166382
1710954543106333700,17.087333740234374,-0.8446664214134216,7.058826923370361,3.8368911743164062
1710954543125292800,17.106292724609375,-0.7286145091056824,7.0648088455200195,4.004388809204102
1710954543144252200,17.125252197265624,-0.4211367964744568,7.411767959594727,3.108276605606079
1710954543163211300,17.144211181640625,-0.5300102233886719,9.360722541809082,2.001596212387085
1710954543182170600,17.163170654296874,0.15194423496723175,10.3681001663208,1.4249259233474731
1710954543201130000,17.1821298828125,0.851844847202301,9.547362327575684,2.389233350753784
1710954543220089000,17.201089111328123,0.9595218896865845,10.778470039367676,2.6177480220794678
1710954543239048200,17.220048095703124,0.21655045449733734,10.468599319458008,1.0253244638442993
1710954543258007600,17.239007568359376,0.865005373954773,6.7896342277526855,0.729810893535614
1710954543276967000,17.257966796875,1.5337992906570435,6.32662296295166,0.638883650302887
1710954543295926000,17.276926025390626,0.9487541913986206,7.843672752380371,-0.4426721930503845
1710954543314885400,17.295885498046875,0.8733802437782288,9.177671432495117,-1.3028919696807861
1710954543333844700,17.3148447265625,1.3471591472625732,8.404789924621582,-1.207179069519043
1710954543352803800,17.333803955078125,1.6618152856826782,8.140382766723633,-0.8721838593482971
1710954543371763200,17.35276318359375,1.34476637840271,9.175278663635254,-0.7369893789291382
1710954543390722600,17.37172265625,1.0636097192764282,10.279565811157227,-0.5575276613235474
1710954543409681700,17.390681640625,1.3268201351165771,9.80219841003418,0.8697910308837891
1710954543428641000,17.40964111328125,1.3196417093276978,9.505488395690918,1.6019947528839111
1710954543447600000,17.42860009765625,0.9236295223236084,9.905089378356934,1.4679967164993286
1710954543466559500,17.4475595703125,0.638883650302887,10.191031455993652,1.5912270545959473
1710954543485518800,17.466518798828126,1.0193424224853516,9.346364974975586,2.3844478130340576
1710954543504478000,17.48547802734375,1.435693621635437,8.498109817504883,2.6703901290893555
1710954543523437300,17.504437255859376,1.1234302520751953,8.818747520446777,2.445464849472046
1710954543542396700,17.523396728515625,0.34217363595962524,9.471988677978516,2.0243279933929443
1710954543561355800,17.542355712890625,0.638883650302887,9.640682220458984,2.2995026111602783
1710954543580315100,17.561315185546874,0.9284151792526245,9.292527198791504,4.108476638793945
1710954543599274200,17.580274169921875,0.9643075466156006,8.785248756408691,4.671986103057861
1710954543618233600,17.599233642578124,0.5874379873275757,8.413164138793945,3.8524444103240967
1710954543637193000,17.61819287109375,0.05144568532705307,8.462217330932617,3.3547372817993164
1710954543656152000,17.637152099609374,0.11605189740657806,7.883154392242432,3.9074792861938477
1710954543675111400,17.656111328125,0.05144568532705307,7.067201614379883,4.487739086151123
1710954543694070800,17.67507080078125,-0.08135596662759781,6.606583118438721,4.707878589630127
1710954543713030100,17.694030029296876,-0.15314064919948578,6.763313293457031,5.054837703704834
1710954543731989200,17.7129892578125,-0.32662028074264526,6.288337707519531,5.828916072845459
1710954543750948600,17.731948486328125,-0.7214360237121582,5.5034918785095215,6.586244106292725
1710954543769908000,17.750907958984374,-0.7932206988334656,5.675775527954102,7.012166976928711
1710954543788867000,17.7698671875,-0.45583271980285645,5.489135265350342,7.500302791595459
1710954543807826400,17.788826416015624,-0.3445664644241333,4.8466620445251465,7.671389579772949
1710954543826785800,17.807785888671877,-0.747757077217102,4.338187217712402,7.823333740234375
1710954543845745000,17.826744873046874,-1.3507484197616577,4.73300313949585,7.939385414123535
1710954543864704300,17.845704345703126,-0.6795616149902344,4.542773723602295,7.864011764526367
1710954543883663600,17.86466357421875,-0.1782652884721756,4.163511276245117,7.797012805938721
1710954543902623000,17.883623046875,-0.9332008361816406,4.542773723602295,7.389036178588867
1710954543921582000,17.90258203125,-2.0303099155426025,4.735395908355713,7.616354465484619
1710954543940541400,17.92154150390625,-1.6271194219589233,4.060619831085205,8.126026153564453
1710954543959500800,17.940500732421874,-0.3433700501918793,3.0245277881622314,8.751749038696289
1710954543978460000,17.9594599609375,-0.32542386651039124,2.551945447921753,9.146564483642578
1710954543997419300,17.978419189453124,-1.7204394340515137,2.5112674236297607,9.18724250793457
1710954544016378600,17.997378662109377,-2.20737886428833,2.2707886695861816,8.85942554473877
1710954544035338000,18.016337890625,-1.1437692642211914,1.9010975360870361,9.290133476257324
1710954544054297000,18.035297119140626,-0.33379876613616943,1.2885349988937378,9.565308570861816
1710954544073256400,18.05425634765625,-1.2035897970199585,0.4534398913383484,9.468399047851562
1710954544092215800,18.0732158203125,-2.3497519493103027,-0.13998012244701385,8.95513916015625
1710954544111175200,18.092175048828125,-1.911865234375,0.5994020700454712,9.33559799194336
1710954544130134300,18.11113427734375,-1.0528420209884644,2.0003998279571533,10.191031455993652
1710954544149093600,18.13009375,-0.9595218896865845,-0.5946164131164551,10.74855899810791
1710954544168053000,18.149052978515623,-1.6618152856826782,-2.609373092651367,9.492327690124512
1710954544187012400,18.168012451171876,-2.0614166259765625,-1.3028919696807861,9.06401252746582
1710954544205971500,18.186971435546877,-1.3004990816116333,-0.2309073805809021,9.973284721374512
1710954544224930800,18.205930908203126,-1.5912270545959473,-1.8388842344284058,10.378868103027344
1710954544243890200,18.22489013671875,-1.683350682258606,-3.5844483375549316,9.390632629394531
1710954544262849500,18.243849609375,-0.9655039310455322,-3.152543783187866,9.06401252746582
1710954544281808600,18.26280859375,-1.404586911201477,-1.1473584175109863,9.7005033493042
1710954544300768000,18.28176806640625,-2.9359934329986572,-3.0556344985961914,10.26042366027832
1710954544319727400,18.300727294921874,-2.287538528442383,-5.67338228225708,10.193424224853516
1710954544338686700,18.319686767578126,-0.7106683254241943,-3.799802303314209,10.595418930053711
1710954544357645800,18.338645751953123,-2.0793628692626953,-1.2143574953079224,12.314661979675293
1710954544376605200,18.357605224609376,-4.411168575286865,-4.015156269073486,12.760923385620117
1710954544395564500,18.376564453125,-3.913461446762085,-7.496713161468506,12.757333755493164
1710954544414524000,18.39552392578125,-1.8867406845092773,-8.103293418884277,13.969298362731934
1710954544433483300,18.414483154296875,-1.4273186922073364,-6.483353137969971,13.844871520996094
1710954544452442400,18.4334423828125,-2.871387243270874,-5.373083114624023,10.88016414642334
1710954544471401700,18.452401611328124,-3.3439695835113525,-5.24626350402832,8.051848411560059
1710954544490361000,18.471361083984377,-2.8594231605529785,-5.92223596572876,7.019345283508301
1710954544509320400,18.490320556640626,-1.825723648071289,-6.94038200378418,7.895118236541748
1710954544528279600,18.509279541015626,-0.9750752449035645,-7.076773166656494,8.486145973205566
1710954544547239200,18.5282392578125,-1.1186445951461792,-6.492924213409424,8.09850788116455
1710954544566198300,18.5471982421875,-1.592423439025879,-6.537191390991211,7.115057945251465
1710954544585157600,18.56615771484375,-1.5385849475860596,-7.1270222663879395,6.317051887512207
1710954544604117000,18.585116943359374,-1.1700903177261353,-6.86261510848999,5.804987907409668
1710954544623076400,18.604076416015626,-1.2837493419647217,-6.433103561401367,5.314459323883057
1710954544642035500,18.623035400390624,-1.3663017749786377,-6.605386734008789,5.300102233886719
1710954544660994800,18.641994873046876,-1.1653046607971191,-6.1914286613464355,5.940182209014893
1710954544679954200,18.6609541015625,-0.727418065071106,-5.903093338012695,6.664011001586914
1710954544698913500,18.67991357421875,-0.5288137793540955,-6.573083877563477,7.318448066711426
1710954544717873000,18.698872802734375,-0.35892340540885925,-7.074379920959473,7.500302791595459
1710954544736832000,18.71783203125,-0.5706881880760193,-6.692724704742432,7.418946743011475
1710954544755791400,18.736791259765624,-1.1820544004440308,-6.809973239898682,7.6043901443481445
1710954544774750700,18.755750732421873,-0.9643075466156006,-7.883154392242432,8.244470596313477
1710954544793710000,18.7747099609375,-0.44386860728263855,-8.177471160888672,8.38564682006836
1710954544812669400,18.79366943359375,-0.833898663520813,-8.561519622802734,8.073383331298828
1710954544831628500,18.812628662109375,-1.5804593563079834,-9.596415519714355,7.463213920593262
1710954544850588000,18.831587890625,-2.011167526245117,-10.496116638183594,6.8997039794921875
1710954544869547300,18.85054736328125,-2.1415762901306152,-10.663614273071289,7.621140003204346
1710954544888506600,18.869506591796874,-3.159722328186035,-8.857032775878906,10.820343971252441
1710954544907466000,18.888466064453127,-1.9381862878799438,-4.977071285247803,12.978670120239258
1710954544926425000,18.907425048828124,0.6759724020957947,-0.9607182741165161,11.035697937011719
1710954544945384400,18.926384521484376,0.13160525262355804,1.1330015659332275,9.480362892150879
1710954544964343800,18.94534375,-1.9310078620910645,0.004785645287483931,9.814162254333496
1710954544983303200,18.96430322265625,-3.0544381141662598,-1.8245272636413574,8.823533058166504
1710954545002262300,18.98326220703125,-2.6452653408050537,-2.750549554824829,8.957531929016113
1710954545021221600,19.0022216796875,-2.7038896083831787,-2.2576282024383545,10.987841606140137
1710954545040181000,19.021180908203124,-3.2721848487854004,-2.640479803085327,11.509476661682129
1710954545059140400,19.040140380859373,-2.6524438858032227,-2.7840490341186523,10.307083129882812
1710954545078099700,19.059099609375,-1.848455548286438,-2.2983062267303467,10.248459815979004
1710954545097058800,19.078058837890627,-1.7982062101364136,-1.4273186922073364,10.579865455627441
1710954545116018400,19.097018310546876,-1.9980069398880005,0.6424728631973267,10.565508842468262
1710954545134977500,19.1159775390625,-2.2432711124420166,2.644068956375122,10.926824569702148
1710954545153937000,19.13493701171875,-2.201396942138672,2.196611166000366,10.898110389709473
1710954545172896300,19.153896240234374,-1.4321043491363525,0.6939185857772827,10.315458297729492
1710954545191855600,19.172855712890627,-1.5960127115249634,0.9403793215751648,10.235299110412598
1710954545210814700,19.191814697265624,-2.218146562576294,1.5278172492980957,10.453045845031738
1710954545229774000,19.210774169921876,-1.7240287065505981,2.4119651317596436,10.186245918273926
1710954545248733400,19.2297333984375,-1.1114661693572998,2.8390841484069824,9.870393753051758
1710954545267692800,19.24869287109375,-1.5960127115249634,2.837887763977051,9.889535903930664
1710954545286652200,19.267652099609375,-1.7443677186965942,3.2231321334838867,9.710074424743652
1710954545305611300,19.286611328125,-1.322034478187561,3.950550079345703,9.433703422546387
1710954545324570600,19.305570556640625,-1.2191431522369385,3.85483717918396,8.800801277160645
1710954545343530000,19.324530029296874,-1.5326029062271118,2.493321180343628,7.599604606628418
1710954545362489300,19.3434892578125,-1.322034478187561,2.633301258087158,6.656832695007324
1710954545381448400,19.362448486328127,-1.1904292106628418,4.588237285614014,6.489335060119629
1710954545400407800,19.38140771484375,-1.3160524368286133,6.2871413230896,6.1914286613464355
1710954545419367200,19.4003671875,-0.625723123550415,6.153143405914307,5.438885688781738
1710954545438326500,19.419326416015625,-0.7322037220001221,5.125426292419434,5.087141036987305
1710954545457286000,19.438285888671874,-0.9559326171875,4.863411903381348,5.042873859405518
1710954545476245000,19.457244873046875,-0.6352944374084473,5.7164530754089355,5.217549800872803
1710954545495204400,19.476204345703124,-0.37447673082351685,7.186842918395996,5.807380676269531
1710954545514163700,19.495163818359377,0.019142581149935722,7.660621643066406,5.424529075622559
1710954545533123000,19.514123046875,-0.038285162299871445,7.694121360778809,4.071387767791748
1710954545552082200,19.533082275390626,-0.005982056725770235,8.522037506103516,3.6681971549987793
1710954545571041500,19.55204150390625,-0.6269195079803467,9.068798065185547,3.9433717727661133
1710954545590001000,19.5710009765625,0.07776673883199692,7.915457248687744,4.076173305511475
1710954545608960300,19.589960205078125,0.9415757060050964,7.231110095977783,3.9876389503479004
1710954545627919400,19.60891943359375,0.4977070987224579,8.214560508728027,3.55214524269104
1710954545646878700,19.627878662109374,0.7058826684951782,8.094919204711914,2.6273193359375
1710954545665838000,19.646838134765623,0.6089733839035034,9.125029563903809,2.1379871368408203
1710954545684797400,19.66579736328125,1.1497513055801392,9.93978500366211,1.7874385118484497
1710954545703756800,19.6847568359375,1.8293129205703735,8.924032211303711,1.5302101373672485
1710954545722716000,19.7037158203125,1.451246976852417,8.639286041259766,0.8877372145652771
1710954545741675300,19.72267529296875,1.4189438819885254,8.194221496582031,0.3840480446815491
1710954545760634600,19.741634521484375,1.6558332443237305,8.539983749389648,0.37447673082351685
1710954545779594000,19.760593994140624,1.5960127115249634,8.776873588562012,0.2069791555404663
1710954545798553000,19.779552978515625,1.0013962984085083,9.06401252746582,-0.17347964644432068
1710954545817512400,19.798512451171874,1.332802176475525,9.750752449035645,0.031106693670153618
1710954545836471800,19.817471923828126,1.5696916580200195,9.753145217895508,1.2478569746017456
1710954545855431200,19.83643115234375,1.4656038284301758,9.620343208312988,2.0231316089630127
1710954545874390500,19.855390625,1.1413763761520386,9.707681655883789,2.179861545562744
1710954545893349600,19.874349609375,0.8865407705307007,9.845269203186035,2.3198416233062744
1710954545912309000,19.89330908203125,1.1126625537872314,9.741181373596191,2.3365912437438965
1710954545931268000,19.91226806640625,1.31365966796875,9.146564483642578,2.2995026111602783
1710954545950227700,19.931227783203123,1.4213366508483887,8.967103004455566,2.111665964126587
1710954545969186800,19.950186767578124,1.1078768968582153,9.223134994506836,2.3162522315979004
1710954545988146200,19.969146240234377,0.747757077217102,9.229117393493652,3.3236305713653564
1710954546007105300,19.988105224609374,0.8470591902732849,8.84506893157959,3.812962770462036
1710954546026065000,20.00706494140625,1.0504491329193115,7.895118236541748,4.097708702087402
1710954546045024000,20.02602392578125,0.7082754969596863,7.542177200317383,4.122833251953125
1710954546063983400,20.0449833984375,0.17706887423992157,7.670193195343018,4.296313285827637
1710954546082942500,20.0639423828125,0.10049854964017868,7.463213920593262,4.561916351318359
1710954546101901800,20.08290185546875,0.2309073805809021,6.802794933319092,4.743771076202393
1710954546120861200,20.101861083984375,0.02512463741004467,5.924628734588623,4.931607246398926
1710954546139820500,20.120820556640624,-0.8410771489143372,5.394618511199951,5.2043890953063965
1710954546158780000,20.13977978515625,-1.4775680303573608,5.474778175354004,6.082555294036865
1710954546177739000,20.158739013671877,-1.0671988725662231,5.516652584075928,7.255038261413574
1710954546196698400,20.177698486328126,-0.4426721930503845,4.764110088348389,8.193024635314941
1710954546215657500,20.196657470703126,-0.4893322288990021,3.7770705223083496,8.201399803161621
1710954546234617000,20.2156171875,-1.2538390159606934,4.177868366241455,7.712067604064941
1710954546253576200,20.234576171875,-2.3605196475982666,5.554937839508057,7.916653633117676
1710954546272535600,20.25353564453125,-1.8161523342132568,4.511667251586914,8.402397155761719
1710954546291494700,20.27249462890625,-0.2871387302875519,3.377469062805176,8.796015739440918
1710954546310454000,20.2914541015625,-0.17347964644432068,4.0833516120910645,8.995817184448242
1710954546329413400,20.310413330078124,-2.122433662414551,4.858626365661621,8.883354187011719
1710954546348372700,20.329372802734376,-2.7361927032470703,3.9385859966278076,8.22293472290039
1710954546367331800,20.348331787109377,-1.2610175609588623,2.528017044067383,7.6474609375
1710954546386291200,20.367291259765626,-0.4785645306110382,2.286342144012451,7.874779224395752
1710954546405250600,20.38625048828125,-1.6462619304656982,3.198007345199585,8.666803359985352
1710954546424209700,20.405209716796875,-2.6596224308013916,2.396411895751953,9.467203140258789
1710954546443169000,20.4241689453125,-1.604387640953064,0.638883650302887,9.711270332336426
1710954546462128400,20.44312841796875,-0.380458801984787,-0.05383851006627083,9.643074989318848
1710954546481087500,20.46208740234375,-1.9178473949432373,0.7489534616470337,9.821340560913086
1710954546500046800,20.481046875,-3.4372897148132324,-0.8865407705307007,9.923035621643066
1710954546519006200,20.500006103515624,-2.03629207611084,-2.262413740158081,9.993623733520508
1710954546537965600,20.518965576171876,-0.4007977843284607,-1.6067804098129272,10.497312545776367
1710954546556924700,20.537924560546877,-1.8628123998641968,0.3936193287372589,10.317851066589355
1710954546575884000,20.556884033203126,-3.8560338020324707,-1.8508483171463013,9.81655502319336
1710954546594843400,20.575843505859375,-1.6857435703277588,-3.8045880794525146,10.119247436523438
1710954546613802500,20.594802490234375,0.22851456701755524,-2.583052158355713,10.352546691894531
1710954546632761900,20.613761962890624,-1.7994025945663452,-0.47976094484329224,9.250652313232422
1710954546651721200,20.63272119140625,-3.3750762939453125,-3.291327476501465,8.2157564163208
1710954546670680300,20.651680419921874,-1.1030912399291992,-4.924428939819336,8.425128936767578
1710954546689639700,20.6706396484375,0.22851456701755524,-3.060420274734497,10.120443344116211
1710954546708599000,20.68959912109375,-1.4081761837005615,-1.404586911201477,10.285548210144043
1710954546727558100,20.70855810546875,-3.0855448246002197,-3.7974095344543457,10.790433883666992
1710954546746517500,20.727517578125,-1.8759729862213135,-7.404589653015137,12.930813789367676
1710954546765476900,20.746476806640626,-1.511067509651184,-8.171489715576172,15.86441421508789
1710954546784436000,20.76543603515625,-3.1621150970458984,-7.588837146759033,14.624932289123535
1710954546803395300,20.784395263671875,-2.662015199661255,-8.979066848754883,11.308480262756348
1710954546822354700,20.803354736328124,-2.091326951980591,-8.200202941894531,10.131211280822754
1710954546841314000,20.82231396484375,-1.4081761837005615,-5.613562107086182,9.345169067382812
1710954546860273200,20.841273193359374,-0.7956135272979736,-5.182853698730469,7.7802629470825195
1710954546879232500,20.860232421875,-0.6711867451667786,-5.2115678787231445,6.601797580718994
1710954546898192000,20.87919189453125,-0.8231309652328491,-4.800002098083496,5.958128452301025
1710954546917151000,20.89815087890625,-0.6041877269744873,-5.361119270324707,6.434299945831299
1710954546936110300,20.9171103515625,-0.22971096634864807,-6.872186660766602,7.335197925567627
1710954546955069400,20.9360693359375,-0.5682953596115112,-7.523034572601318,7.143772125244141
1710954546974028800,20.95502880859375,-1.1066805124282837,-6.961917400360107,6.504888534545898
1710954546992988200,20.97398828125,-0.9044869542121887,-6.690331935882568,6.172286033630371
1710954547011947300,20.992947265625,-0.3026920557022095,-6.893722057342529,6.412764549255371
1710954547030906600,21.01190673828125,-0.2548356056213379,-7.058826923370361,6.498906135559082
1710954547049866000,21.030865966796874,-0.4666004180908203,-7.0887370109558105,6.306283950805664
1710954547068825000,21.0498251953125,-0.6101697683334351,-6.415157318115234,6.157928943634033
1710954547087784400,21.068784423828124,-0.3888336718082428,-6.318248271942139,6.598208427429199
1710954547106743800,21.087743896484376,0.07178468257188797,-6.859025955200195,7.347161769866943
1710954547125703000,21.106702880859373,-0.24646073579788208,-7.085147857666016,7.775477409362793
1710954547144662300,21.125662353515626,-0.4893322288990021,-6.859025955200195,7.734799385070801
1710954547163621600,21.14462158203125,-0.9678967595100403,-7.5565338134765625,8.030312538146973
1710954547182580700,21.163580810546875,-1.0157532691955566,-9.461220741271973,8.23968505859375
1710954547201540000,21.1825400390625,-0.641276478767395,-11.042876243591309,7.561319351196289
1710954547220499500,21.20149951171875,-1.1521440744400024,-11.217552185058594,6.208178520202637
1710954547239458800,21.220458740234374,-2.8211379051208496,-9.44447135925293,6.0502519607543945
1710954547258418000,21.23941796875,-2.572284460067749,-7.8664045333862305,7.8556365966796875
1710954547277377300,21.258377197265624,-0.4378865361213684,-5.290530681610107,10.241280555725098
1710954547296336600,21.277336669921876,-0.035892341285943985,-1.306481122970581,11.265409469604492
1710954547315295700,21.296295654296873,-0.9463613629341125,0.8889335989952087,11.179266929626465
1710954547334255000,21.315255126953126,-1.6893328428268433,-0.9930213689804077,10.442277908325195
1710954547353214500,21.33421435546875,-1.9692929983139038,-2.550748825073242,9.757930755615234
1710954547372173600,21.353173583984375,-2.8079774379730225,-1.978864312171936,10.674382209777832
1710954547391133000,21.3721328125,-3.332005500793457,-1.8783657550811768,11.20080280303955
1710954547410092300,21.39109228515625,-2.957528829574585,-2.5076780319213867,10.700702667236328
1710954547429051600,21.4100517578125,-2.210968017578125,-4.614558696746826,11.009376525878906
1710954547448010800,21.4290107421875,-2.1475582122802734,-3.129812002182007,11.132607460021973
1710954547466970000,21.44797021484375,-2.3365912437438965,-0.7405785918235779,10.4219388961792
1710954547485929500,21.466929443359376,-2.589034080505371,1.4368900060653687,10.152746200561523
1710954547504888600,21.485888671875,-2.368894338607788,1.1676974296569824,10.651650428771973
1710954547523848000,21.504847900390626,-2.200200319290161,-1.7156537771224976,11.308480262756348
1710954547542807300,21.523807373046875,-2.3270199298858643,-1.4763715267181396,10.929217338562012
1710954547561766400,21.542766357421876,-2.451446771621704,0.10169496387243271,10.549955368041992
1710954547580725800,21.561725830078124,-2.5674986839294434,1.5649060010910034,10.820343971252441
1710954547599685000,21.58068505859375,-2.548356056213379,1.6211373805999756,10.644471168518066
1710954547618644500,21.59964453125,-2.283949136734009,1.0193424224853516,9.93260669708252
1710954547637603600,21.618603515625,-1.5625132322311401,2.093719720840454,9.17288589477539
1710954547656563000,21.63756298828125,-1.9214365482330322,3.8943188190460205,8.811569213867188
1710954547675522000,21.65652197265625,-3.2817561626434326,4.377668857574463,8.74337387084961
1710954547694481700,21.675481689453125,-2.335394859313965,2.915654420852661,8.522037506103516
1710954547713440800,21.694440673828126,-0.882951557636261,3.1106693744659424,8.621339797973633
1710954547732400000,21.713400146484375,-0.9954141974449158,4.420739650726318,8.079365730285645
1710954547751359500,21.732359375,-2.1332013607025146,5.398207664489746,6.632904529571533
1710954547770318600,21.751318603515625,-2.9240293502807617,5.115854740142822,5.9916276931762695
1710954547789278000,21.77027783203125,-2.183450698852539,4.681557655334473,6.22492790222168
1710954547808237300,21.7892373046875,-0.7525427341461182,5.0464630126953125,6.6245293617248535
1710954547827196700,21.80819677734375,-0.35413774847984314,5.484349727630615,5.876772403717041
1710954547846155800,21.82715576171875,-0.8602197170257568,6.1675004959106445,4.070191383361816
1710954547865115100,21.846115234375,-1.8807586431503296,7.69531774520874,2.9802606105804443
1710954547884074500,21.865074462890625,-1.867598056793213,8.219346046447754,3.2793633937835693
1710954547903033900,21.884033935546874,-0.8386843204498291,7.171289443969727,4.193421840667725
1710954547921993000,21.902992919921875,-0.05623133108019829,7.216753005981445,4.58584451675415
1710954547940952300,21.921952392578124,-0.4630111753940582,7.872386455535889,4.0558342933654785
1710954547959911700,21.94091162109375,-0.7585247755050659,7.658228874206543,3.696911096572876
1710954547978871000,21.95987109375,-0.11964113265275955,7.929814338684082,3.9804604053497314
1710954547997830100,21.978830078125,0.5395814776420593,9.266205787658691,3.762713670730591
1710954548016789500,21.99778955078125,0.8087740540504456,9.038887977600098,3.377469062805176
1710954548035748900,22.016748779296876,1.0707881450653076,7.733603000640869,3.160918712615967
1710954548054708200,22.035708251953125,0.916451096534729,8.458627700805664,2.376072883605957
1710954548073667600,22.05466748046875,1.0001999139785767,9.622735977172852,1.3770694732666016
1710954548092626700,22.073626708984374,1.100698471069336,10.207781791687012,0.5180460810661316
1710954548111586000,22.0925859375,1.3304094076156616,9.361918449401855,0.49172505736351013
1710954548130545400,22.11154541015625,1.9513468742370605,8.583054542541504,1.420140266418457
1710954548149504800,22.1305048828125,2.173879384994507,8.72782039642334,1.9202401638031006
1710954548168464000,22.1494638671875,1.4584254026412964,9.128618240356445,1.1736794710159302
1710954548187423200,22.16842333984375,1.2059825658798218,8.895318031311035,0.5060819983482361
1710954548206382600,22.187382568359375,1.2562319040298462,8.617751121520996,0.7322037220001221
1710954548225342000,22.206342041015624,1.3986048698425293,8.703892707824707,1.2299108505249023
1710954548244301300,22.22530126953125,1.4572290182113647,9.125029563903809,1.7240287065505981
1710954548263260400,22.244260498046874,1.2323036193847656,9.754341125488281,1.8699909448623657
1710954548282219800,22.2632197265625,1.100698471069336,9.937392234802246,2.196611166000366
1710954548301179100,22.28217919921875,1.5517455339431763,9.07717227935791,2.8079774379730225
1710954548320138500,22.301138427734376,1.4715858697891235,8.934800148010254,3.102294445037842
1710954548339097900,22.320097900390625,1.2490534782409668,9.250652313232422,2.612962245941162
1710954548358057000,22.339056884765625,0.9200403094291687,9.449256896972656,2.431107759475708
1710954548377016300,22.358016357421874,0.9248259663581848,9.031708717346191,3.016152858734131
1710954548395975700,22.3769755859375,0.8566305041313171,8.691927909851074,3.3619158267974854
1710954548414935000,22.39593505859375,0.8913264274597168,9.030512809753418,3.55214524269104
1710954548433894400,22.414894287109377,0.8027920126914978,8.718249320983887,3.8117663860321045
1710954548452853800,22.433853759765626,0.6927221417427063,7.911868095397949,4.241278171539307
1710954548471813000,22.452813232421875,0.41156548261642456,7.270591735839844,4.346562385559082
1710954548490772500,22.4717724609375,0.13160525262355804,7.440482139587402,4.235296249389648
1710954548509731600,22.490731689453124,0.2871387302875519,7.403393268585205,4.41475772857666
1710954548528691000,22.50969091796875,0.2153540402650833,6.7896342277526855,5.117051124572754
1710954548547650300,22.528650390625,-0.3936193287372589,6.423532485961914,5.715256690979004
1710954548566609700,22.547609619140626,-0.7489534616470337,6.343372821807861,6.107679843902588
1710954548585569000,22.566569091796875,-0.20578274130821228,6.206982135772705,6.283552169799805
1710954548604528400,22.5855283203125,-0.039481572806835175,5.8923258781433105,6.38883638381958
1710954548623487500,22.604487548828125,-0.5790630578994751,5.472385406494141,6.646064758300781
1710954548642446800,22.62344677734375,-1.2299108505249023,5.48793888092041,7.063612461090088
1710954548661406200,22.64240625,-1.069591760635376,5.374279499053955,7.579265594482422
1710954548680365600,22.661365478515624,-0.2679961323738098,4.809573650360107,7.743174076080322
1710954548699325000,22.680324951171876,-0.2847459018230438,4.159922122955322,7.791030406951904
1710954548718284300,22.6992841796875,-1.2323036193847656,4.001996040344238,7.707281589508057
1710954548737243600,22.71824365234375,-2.0482561588287354,4.230510234832764,7.9489569664001465
1710954548756203000,22.737203125,-1.3495519161224365,3.6131622791290283,8.225327491760254
1710954548775162400,22.756162353515624,-0.8937192559242249,2.6943182945251465,8.665607452392578
1710954548794121700,22.775121826171876,-1.6151553392410278,2.5806591510772705,8.930013656616211
1710954548813080800,22.794080810546873,-2.3270199298858643,3.387040376663208,8.900103569030762
1710954548832040200,22.813040283203126,-1.7120646238327026,2.4358935356140137,9.174081802368164
1710954548850999600,22.83199951171875,-1.3519448041915894,1.4739787578582764,9.424132347106934
1710954548869959000,22.850958984375,-1.5936198234558105,1.7455641031265259,9.621540069580078
1710954548888918300,22.869918212890624,-2.4335005283355713,2.4646072387695312,9.584450721740723
1710954548907877600,22.888877685546873,-2.159522533416748,2.3234307765960693,9.56052303314209
1710954548926837000,22.9078369140625,-1.168893814086914,1.9214365482330322,9.923035621643066
1710954548945796400,22.92679638671875,-1.5146567821502686,1.659422516822815,10.06421184539795
1710954548964755700,22.945755615234376,-2.606980323791504,1.794616937637329,9.725627899169922
1710954548983715000,22.964715087890625,-2.221735715866089,1.7754744291305542,10.070194244384766
1710954549002674400,22.98367431640625,-1.8951154947280884,1.550549030303955,10.277173042297363
1710954549021633500,23.002633544921874,-1.8999011516571045,-0.5395814776420593,9.80100154876709
1710954549040593000,23.021593017578127,-2.155933141708374,-2.337787628173828,8.592626571655273
1710954549059552300,23.04055224609375,-1.7479569911956787,-1.939382791519165,7.070790767669678
1710954549078511600,23.05951171875,-2.4502503871917725,1.306481122970581,7.135396957397461
1710954549097471000,23.078470947265625,-3.2578279972076416,-0.6197410821914673,7.759923934936523
1710954549116430300,23.097430419921874,-1.7922241687774658,-4.053441524505615,7.470392227172852
1710954549135389700,23.1163896484375,-0.8422735929489136,-3.838087558746338,7.434499740600586
1710954549154349000,23.13534912109375,-2.4981069564819336,-0.20458634197711945,8.781659126281738
1710954549173308400,23.154308349609376,-4.738985061645508,-0.8207381963729858,10.593026161193848
1710954549192267800,23.173267822265625,-5.306084156036377,-5.485546112060547,14.228919982910156
1710954549211227100,23.19222705078125,-6.126822471618652,-6.623332977294922,19.165313720703125
1710954549230186500,23.2111865234375,-4.49252462387085,-8.711071014404297,20.121246337890625
1710954549249145900,23.230145751953124,-2.610569477081299,-9.872786521911621,16.528423309326172
1710954549268105200,23.249105224609377,-3.67657208442688,-8.056633949279785,12.780065536499023
1710954549287064600,23.268064697265626,-5.400600910186768,-5.690132141113281,8.924032211303711
1710954549306024000,23.28702392578125,-3.6095728874206543,-5.178068161010742,6.628118515014648
1710954549324983300,23.3059833984375,-1.9046868085861206,-4.409972190856934,6.752545356750488
1710954549343942700,23.324942626953124,-1.719243049621582,-3.7974095344543457,7.271788120269775
1710954549362902000,23.343902099609377,-1.5493526458740234,-5.164907455444336,7.196413993835449
1710954549381861400,23.362861328125,-1.612762451171875,-5.684150218963623,6.57547664642334
1710954549400820700,23.38182080078125,-1.923829436302185,-5.729613780975342,5.819344520568848
1710954549419780000,23.400780029296875,-2.3617160320281982,-6.223731517791748,5.897111415863037
1710954549438739500,23.419739501953124,-2.231307029724121,-6.258427619934082,6.269195556640625
1710954549457698800,23.43869873046875,-1.430907964706421,-6.715456962585449,6.821937561035156
1710954549476658200,23.457658203125,-1.0432707071304321,-6.1710896492004395,6.74656343460083
1710954549495617300,23.4766171875,-1.4105689525604248,-5.581258773803711,6.955935478210449
1710954549514576600,23.49557666015625,-1.3507484197616577,-5.399404525756836,7.168896675109863
1710954549533536300,23.514536376953124,-0.6735795736312866,-5.910272121429443,7.445267677307129
1710954549552495600,23.53349560546875,-0.3242274820804596,-6.553941249847412,7.4847493171691895
1710954549571455000,23.552455078125,-0.7369893789291382,-6.315855503082275,7.192824840545654
1710954549590414300,23.571414306640627,-1.2011969089508057,-5.536991596221924,7.149754047393799
1710954549609373400,23.59037353515625,-0.8733802437782288,-5.283352375030518,7.3292155265808105
1710954549628332800,23.609332763671876,-0.4618147611618042,-5.741578102111816,7.588837146759033
1710954549647292200,23.628292236328125,-0.8243274092674255,-5.973681926727295,7.802994728088379
1710954549666251800,23.647251708984374,-1.470389485359192,-5.7619171142578125,7.7563347816467285
1710954549685211100,23.666211181640627,-1.4081761837005615,-6.634100914001465,7.922635555267334
1710954549704170500,23.68517041015625,-1.3866406679153442,-7.680960655212402,8.840283393859863
1710954549723129600,23.704129638671876,-1.2215359210968018,-8.008777618408203,9.352347373962402
1710954549742089000,23.7230888671875,-1.557727575302124,-8.078168869018555,8.671588897705078
1710954549761048300,23.74204833984375,-2.087737798690796,-9.110671997070312,7.619943618774414
1710954549780007700,23.761007568359375,-2.1655044555664062,-10.431509971618652,6.911668300628662
1710954549798967300,23.77996728515625,-2.583052158355713,-9.856036186218262,6.480959892272949
1710954549817926700,23.7989267578125,-3.748356580734253,-7.371089935302734,7.179664134979248
1710954549836885800,23.8178857421875,-2.8007988929748535,-6.294320106506348,8.740981101989746
1710954549855845000,23.83684521484375,-1.2382856607437134,-2.4263222217559814,10.243673324584961
1710954549874804500,23.855804443359375,-0.6269195079803467,2.1056840419769287,11.09910774230957
1710954549893763800,23.874763916015624,-0.8997012972831726,0.8542376756668091,11.423335075378418
1710954549912723200,23.89372314453125,-1.5864413976669312,-2.5986053943634033,10.64806079864502
1710954549931682600,23.9126826171875,-3.324826955795288,-1.6977076530456543,10.316655158996582
1710954549950642000,23.931641845703126,-3.7974095344543457,-0.18544375896453857,10.534401893615723
1710954549969601300,23.950601318359375,-3.5234313011169434,-1.6857435703277588,11.607583045959473
1710954549988560600,23.969560546875,-3.087937593460083,-3.221935749053955,12.861421585083008
1710954550007520000,23.98852001953125,-2.1918256282806396,-2.2851455211639404,12.67717456817627
1710954550026479400,24.007479248046874,-1.6929219961166382,-0.794417142868042,11.56570816040039
1710954550045438700,24.026438720703126,-1.5708880424499512,0.6951149702072144,9.66819953918457
1710954550064398000,24.045398193359375,-2.8582265377044678,1.9369899034500122,8.353343963623047
1710954550083357400,24.064357421875,-3.8488552570343018,1.932204246520996,9.103493690490723
1710954550102316800,24.08331689453125,-2.9288148880004883,1.750349760055542,10.88853931427002
1710954550121276200,24.102276123046874,-1.211964726448059,1.1150553226470947,11.43529987335205
1710954550140235500,24.121235595703126,-1.6414763927459717,1.1820544004440308,10.439885139465332
1710954550159195000,24.14019482421875,-2.816352367401123,1.934597134590149,9.373882293701172
1710954550178154200,24.159154296875,-2.8929226398468018,2.9347970485687256,8.876175880432129
1710954550197113600,24.178113525390625,-2.5471596717834473,3.3272199630737305,8.793622970581055
1710954550216073000,24.197072998046874,-1.8185452222824097,3.073580741882324,9.384650230407715
1710954550235032300,24.2160322265625,-1.0636097192764282,3.436093330383301,9.687342643737793
1710954550253991700,24.23499169921875,-1.0875378847122192,3.5533416271209717,8.930013656616211
1710954550272951000,24.253950927734376,-2.201396942138672,3.4779677391052246,7.106683254241943
1710954550291910400,24.272910400390625,-2.441875457763672,3.294916868209839,6.291927337646484
