time,seconds_elapsed,z,y,x
1711072783170673700,0.116673583984375,0.0054977829568088055,-0.001832594396546483,-0.009773836471140385
1711072783189632800,0.1356328125,0.0009162971982732415,-0.0021380267571657896,-0.014049889519810677
1711072783208591600,0.154591552734375,0,-0.004276053514331579,-0.013133592903614044
1711072783227550500,0.173550537109375,0.0054977829568088055,-0.0015271619195118546,-0.01649334840476513
1711072783246509600,0.192509521484375,0.010690134018659592,0.0030543238390237093,-0.015577051788568497
1711072783265468400,0.211468505859375,0.011300998739898205,0.010995565913617611,-0.017104214057326317
1711072783284427300,0.23042724609375,0.008857538923621178,0.013439024798572063,-0.017715077847242355
1711072783303386000,0.24938623046875,0.007024944759905338,0.008552107028663158,-0.015271619893610477
1711072783322345200,0.26834521484375,0.008857538923621178,0,-0.008246674202382565
1711072783341304000,0.287303955078125,0.00946840364485979,-0.002443459117785096,-0.005803215317428112
1711072783360263000,0.306262939453125,0.0054977829568088055,0.006719512399286032,-0.008857538923621178
1711072783379222000,0.325221923828125,0.004276053514331579,0.01740964688360691,-0.014660755172371864
1711072783398180900,0.344180908203125,0.003665188793092966,0.015271619893610477,-0.018325943499803543
1711072783417140000,0.363139892578125,0.003359756199643016,0.008246674202382565,-0.022296564653515816
1711072783436098800,0.382098876953125,0.006719512399286032,0.017715077847242355,-0.021380268037319183
1711072783455057700,0.4010576171875,-0.001221729558892548,0.01649334840476513,-0.024740023538470268
1711072783474016500,0.4200166015625,-0.004886918235570192,0.010079269297420979,-0.030543239787220955
1711072783492975400,0.438975341796875,-0.010995565913617611,0.022296564653515816,-0.053145237267017365
1711072783511934500,0.4579345703125,-0.02412915788590908,0.02871064469218254,-0.07391463965177536
1711072783530893300,0.476893310546875,-0.011606430634856224,0.04276053607463837,-0.05711585655808449
1711072783549852400,0.495852294921875,0.010690134018659592,0.047952886670827866,-0.04917461425065994
1711072783568811300,0.514811279296875,0.03023780696094036,0.07024945318698883,-0.04978547990322113
1711072783587770000,0.53377001953125,0.03695731982588768,0.11148282140493393,-0.05589412897825241
1711072783606729200,0.552729248046875,0.044898562133312225,0.15149445831775665,-0.07299833744764328
1711072783625688000,0.57168798828125,0.03634645417332649,0.1637117564678192,-0.07544180005788803
1711072783644647000,0.59064697265625,0.013439024798572063,0.14263692498207092,-0.07819069176912308
1711072783663606000,0.60960595703125,-0.0030543238390237093,0.15515965223312378,-0.07635809481143951
1711072783682564900,0.62856494140625,-0.0015271619195118546,0.19730933010578156,-0.09346231073141098
1711072783701523700,0.647523681640625,-0.011300998739898205,0.21135921776294708,-0.09651663154363632
1711072783720482800,0.66648291015625,0.001221729558892548,0.1750127524137497,-0.09865466505289078
1711072783739441700,0.685441650390625,-0.004581485874950886,0.15149445831775665,-0.053756099194288254
1711072783758400500,0.704400390625,-0.003970621153712273,0.08643736690282822,-0.06841685622930527
1711072783777359600,0.723359619140625,-0.032681263983249664,0.06230820715427399,-0.07941242307424545
1711072783796318500,0.742318359375,-0.047952886670827866,0.04153880476951599,-0.07024945318698883
1711072783815277600,0.761277587890625,-0.03848448023200035,0.008246674202382565,-0.05253437161445618
1711072783834236400,0.780236328125,-0.017715077847242355,-0.04520399495959282,-0.03023780696094036
1711072783853195300,0.7991953125,0.0027488914784044027,-0.0616973415017128,-0.014966187067329884
1711072783872154000,0.818154052734375,0.006414080038666725,-0.02779434807598591,-0.020158538594841957
1711072783891113200,0.83711328125,-0.014660755172371864,0.026572618633508682,-0.03543015569448471
1711072783910072000,0.856072021484375,-0.04428769648075104,0.049480047076940536,-0.056199558079242706
1711072783929031200,0.87503125,-0.06872228533029556,0.05039634555578232,-0.05803215503692627
1711072783947990000,0.893989990234375,-0.09010255336761475,0.037262752652168274,-0.053145237267017365
1711072783966949000,0.91294921875,-0.11087195575237274,0.01588248461484909,-0.05589412897825241
1711072783985908000,0.931907958984375,-0.1334739476442337,0.004276053514331579,-0.05925388261675835
1711072784004866800,0.95086669921875,-0.16279546916484833,-0.016187917441129684,-0.07452550530433655
1711072784023826000,0.969825927734375,-0.1798996776342392,-0.07452550530433655,-0.07574722915887833
1711072784042784800,0.98878466796875,-0.168904110789299,-0.16340632736682892,-0.05742128938436508
1711072784061743900,1.007743896484375,-0.1432477980852127,-0.24740023910999298,-0.06780599057674408
1711072784080702700,1.02670263671875,-0.1230892539024353,-0.30085089802742004,-0.09926552325487137
1711072784099661800,1.045661865234375,-0.09987638890743256,-0.2974911332130432,-0.11392628401517868
1711072784118620700,1.06462060546875,-0.08093958348035812,-0.27947062253952026,-0.11972949653863907
1711072784137579800,1.083579833984375,-0.07971785217523575,-0.268169641494751,-0.1441640853881836
1711072784156538600,1.10253857421875,-0.08643736690282822,-0.2984074354171753,-0.21868959069252014
1711072784175497500,1.12149755859375,-0.05070177838206291,-0.3136790692806244,-0.2764163017272949
1711072784194456600,1.14045654296875,0.02260199747979641,-0.27550002932548523,-0.29413139820098877
1711072784213415700,1.159415771484375,-0.010995565913617611,-0.2868010103702545,-0.2724456787109375
1711072784232374500,1.17837451171875,-0.1954767256975174,-0.3759872615337372,-0.24831652641296387
1711072784251333600,1.197333740234375,-0.2886336147785187,-0.49968740344047546,-0.2608392536640167
1711072784270292500,1.21629248046875,-0.3805687427520752,-0.5992583632469177,-0.20799945294857025
1711072784289251300,1.235251220703125,-0.6554579138755798,-0.8747583627700806,-0.04306596517562866
1711072784308210400,1.25421044921875,-1.0042617321014404,-1.4343105554580688,-0.04001164436340332
1711072784327169500,1.27316943359375,-1.2351685762405396,-1.8341214656829834,-0.1233946830034256
1711072784346128400,1.29212841796875,-1.302058219909668,-1.8319834470748901,-0.3491092324256897
1711072784365087500,1.31108740234375,-1.4156790971755981,-1.0803143978118896,-0.34177884459495544
1711072784384046300,1.33004638671875,-1.5638138055801392,-0.07513637095689774,-0.49510589241981506
1711072784403005400,1.34900537109375,-1.6924008131027222,0.6224712133407593,-0.4990765154361725
1711072784421964500,1.367964599609375,-1.7684534788131714,0.46517354249954224,-0.5803215503692627
1711072784440923400,1.38692333984375,-1.6184862852096558,-0.16065743565559387,-0.6462949514389038
1711072784459882500,1.405882568359375,-1.4080432653427124,-0.20158538222312927,-0.6435460448265076
1711072784478841300,1.42484130859375,-1.4462224245071411,0.19303326308727264,-0.472198486328125
1711072784497800400,1.443800537109375,-1.5567889213562012,0.35094180703163147,-0.2816086709499359
1711072784516759600,1.462759521484375,-1.6365067958831787,0.05070177838206291,-0.1899789422750473
1711072784535718400,1.481718505859375,-1.544877052307129,-0.5592467188835144,-0.16187916696071625
1711072784554677500,1.500677490234375,-1.3991857767105103,-0.813060998916626,-0.16707152128219604
1711072784573636400,1.51963623046875,-1.360701322555542,-0.5852084755897522,-0.22449280321598053
1711072784592595500,1.538595458984375,-1.3643665313720703,-0.31581708788871765,-0.33078327775001526
1711072784611554600,1.557554443359375,-1.378721833229065,-0.08460476994514465,-0.3481929302215576
1711072784630513400,1.576513427734375,-1.3628393411636353,-0.0769689604640007,-0.3704894781112671
1711072784649472500,1.595472412109375,-1.3319905996322632,-0.1380554437637329,-0.39339691400527954
1711072784668431600,1.614431640625,-1.2577705383300781,-0.32009315490722656,-0.4673115611076355
1711072784687390500,1.633390380859375,-1.14017915725708,-0.3179551064968109,-0.5354229807853699
1711072784706349600,1.652349609375,-1.1661409139633179,-0.324063777923584,-0.5497782826423645
1711072784725308700,1.67130859375,-1.2046253681182861,-0.2889390289783478,-0.5427533388137817
1711072784744267800,1.690267822265625,-1.1395682096481323,-0.34238970279693604,-0.5427533388137817
1711072784763226600,1.7092265625,-1.1450660228729248,-0.2764163017272949,-0.5574141144752502
1711072784782185700,1.728185791015625,-1.1224640607833862,-0.2782489061355591,-0.618806004524231
1711072784801144800,1.747144775390625,-1.0793980360031128,-0.23273947834968567,-0.656679630279541
1711072784820104000,1.76610400390625,-1.0476330518722534,-0.2822195291519165,-0.6921098232269287
1711072784839063000,1.78506298828125,-0.99968022108078,-0.39339691400527954,-0.7031053900718689
1711072784858022000,1.80402197265625,-0.9459241032600403,-0.435241162776947,-0.7467821836471558
1711072784876981000,1.82298095703125,-0.8921679854393005,-0.45448338985443115,-0.7718276381492615
1711072784895940000,1.841940185546875,-0.8121446967124939,-0.4309650957584381,-0.7449495792388916
1711072784914899200,1.860899169921875,-0.7516691088676453,-0.37751442193984985,-0.7272345423698425
1711072784933858300,1.8798583984375,-0.7284562587738037,-0.4422661066055298,-0.6960803866386414
1711072784952817200,1.898817138671875,-0.7195987105369568,-0.6337721943855286,-0.6988292932510376
1711072784971776300,1.9177763671875,-0.6960803866386414,-0.7452550530433655,-0.6881392002105713
1711072784990735400,1.9367353515625,-0.6728675365447998,-0.6823359727859497,-0.7174606919288635
1711072785009694500,1.955694580078125,-0.6490437984466553,-0.46883872151374817,-0.7672461867332458
1711072785028653600,1.974653564453125,-0.6123919486999512,-0.21838416159152985,-0.8637627959251404
1711072785047612700,1.99361279296875,-0.5204567909240723,0.09040798991918564,-0.9495893120765686
1711072785066571500,2.012571533203125,-0.4419606626033783,0.24953825771808624,-1.0290017127990723
1711072785085531000,2.03153076171875,-0.26389357447624207,0.3601047992706299,-1.018311619758606
1711072785104490000,2.050489990234375,-0.0717766135931015,0.4413498044013977,-0.9639446139335632
1711072785123448800,2.06944873046875,0.009162971749901772,0.4786125421524048,-0.7886264324188232
1711072785142408000,2.088407958984375,0.05497783049941063,0.5216785073280334,-0.5323686599731445
1711072785161367000,2.107366943359375,0.1282816082239151,0.555276095867157,-0.258395791053772
1711072785180326100,2.126326171875,0.17715078592300415,0.6334667801856995,-0.11209368705749512
1711072785199285200,2.14528515625,0.21807873249053955,0.42913252115249634,0.05406153202056885
1711072785218244400,2.164244384765625,0.1905898153781891,0.23762640357017517,0.1640172004699707
1711072785237203500,2.183203369140625,0.22418737411499023,0.031154103577136993,0.15241076052188873
1711072785256162600,2.20216259765625,0.2828303873538971,0.11911863088607788,0.046425722539424896
1711072785275121700,2.22112158203125,0.3402516841888428,0.4062250852584839,-0.0769689604640007
1711072785294080800,2.240080810546875,0.2562577724456787,0.4761691093444824,-0.1533270627260208
1711072785313040000,2.259039794921875,0.11209368705749512,0.35735589265823364,-0.16035200655460358
1711072785331999000,2.2779990234375,0.1945604383945465,0.2211330533027649,-0.22204934060573578
1711072785350958000,2.2969580078125,0.3277289569377899,0.049480047076940536,-0.21166464686393738
1711072785369917200,2.315917236328125,0.2629773020744324,0.0513126403093338,-0.10903936624526978
1711072785388876300,2.334876220703125,0.1487455666065216,0.07605266571044922,-0.12370011955499649
1711072785407835400,2.35383544921875,0.14049890637397766,-0.004581485874950886,-0.143553227186203
1711072785426794500,2.37279443359375,0.19608759880065918,-0.1954767256975174,-0.09529490768909454
1711072785445753600,2.391753662109375,0.23945899307727814,-0.39797839522361755,-0.06597339361906052
1711072785464712700,2.410712646484375,0.2415970265865326,-0.3964512348175049,-0.046425722539424896
1711072785483672000,2.429672119140625,0.30085089802742004,-0.2556469142436981,-0.0409279391169548
1711072785502631200,2.448631103515625,0.4062250852584839,-0.060781046748161316,-0.01588248461484909
1711072785521590300,2.46759033203125,0.43401941657066345,0.07910698652267456,-0.000305432389723137
1711072785540549400,2.48654931640625,0.39309149980545044,0.09376774728298187,0.022907428443431854
1711072785559508500,2.505508544921875,0.3292561173439026,0.020769402384757996,0.06200277432799339
1711072785578467600,2.524467529296875,0.34238970279693604,-0.03176496922969818,0.11942406743764877
1711072785597426700,2.5434267578125,0.3491092324256897,-0.0565049909055233,0.15515965223312378
1711072785616385800,2.5623857421875,0.34727662801742554,-0.031154103577136993,0.16310089826583862
1711072785635345200,2.58134521484375,0.33231043815612793,-0.020769402384757996,0.14508038759231567
1711072785654304300,2.60030419921875,0.3176496922969818,-0.007024944759905338,0.16554436087608337
1711072785673263400,2.619263427734375,0.281914085149765,-0.027488915249705315,0.21166464686393738
1711072785692222500,2.638222412109375,0.24831652641296387,-0.10048725455999374,0.23457208275794983
1711072785711181600,2.657181640625,0.268169641494751,-0.17592905461788177,0.2767217457294464
1711072785730140700,2.676140625,0.31184646487236023,-0.25320345163345337,0.30024003982543945
1711072785749100000,2.69510009765625,0.35277441143989563,-0.3295615613460541,0.2968802750110626
1711072785768059100,2.71405908203125,0.35155269503593445,-0.32100942730903625,0.2919933497905731
1711072785787018200,2.733018310546875,0.35185810923576355,-0.24404047429561615,0.3228420317173004
1711072785805977300,2.751977294921875,0.36774060130119324,-0.143553227186203,0.3283398151397705
1711072785824936700,2.770936767578125,0.3491092324256897,-0.1383608728647232,0.2886336147785187
1711072785843895800,2.789895751953125,0.2577849328517914,-0.15638138353824615,0.26389357447624207
1711072785862855000,2.80885498046875,0.1795942485332489,-0.2464839369058609,0.2159406989812851
1711072785881814000,2.82781396484375,0.1380554437637329,-0.2669478952884674,0.1649334877729416
1711072785900773400,2.8467734375,0.08888082206249237,-0.2809978127479553,0.06414080411195755
1711072785919732500,2.865732421875,-0.03237583488225937,-0.22479823231697083,0.021991131827235222
1711072785938691600,2.884691650390625,-0.10842850059270859,-0.14996729791164398,-0.007330377586185932
1711072785957650700,2.903650634765625,-0.05345066636800766,0.05894844979047775,-0.0030543238390237093
1711072785976610000,2.922610107421875,-0.01893680728971958,0.2156352698802948,-0.00946840364485979
1711072785995569200,2.941569091796875,-0.05283980444073677,0.17745621502399445,-0.035735588520765305
1711072786014528500,2.960528564453125,-0.02718348242342472,0.07147117704153061,-0.053145237267017365
1711072786033487600,2.979487548828125,-0.028099779039621353,-0.008857538923621178,-0.04062250629067421
1711072786052446700,2.99844677734375,-0.04459312930703163,-0.057726722210645676,-0.007330377586185932
1711072786071406000,3.017406005859375,-0.037262752652168274,-0.11575887352228165,-0.008246674202382565
1711072786090365200,3.036365234375,-0.035735588520765305,-0.14752385020256042,-0.01802051067352295
1711072786109324300,3.05532421875,-0.02932151034474373,-0.11178825795650482,-0.0009162971982732415
1711072786128283400,3.074283447265625,-0.011911863461136818,-0.04978547990322113,0.026572618633508682
1711072786147242800,3.09324267578125,-0.005192350596189499,-0.027488915249705315,0.03909534588456154
1711072786166201900,3.112201904296875,-0.02626718580722809,-0.06047561392188072,0.0054977829568088055
1711072786185161200,3.1311611328125,-0.016187917441129684,-0.08155044913291931,-0.012522728182375431
1711072786204120300,3.150120361328125,0.05864302068948746,-0.07422006875276566,-0.032070402055978775
1711072786223079400,3.169079345703125,0.041844237595796585,-0.06414080411195755,-0.011300998739898205
1711072786242038800,3.188038818359375,0.056199558079242706,-0.08979712426662445,0.010690134018659592
1711072786260998000,3.206997802734375,0.0821613147854805,-0.13713914155960083,0.029932374134659767
1711072786279957200,3.225957275390625,0.10537417232990265,-0.19211697578430176,0.031154103577136993
1711072786298916400,3.244916259765625,0.10506874322891235,-0.20311254262924194,0.05345066636800766
1711072786317875700,3.263875732421875,0.07880155742168427,-0.17073670029640198,0.07544180005788803
1711072786336834800,3.282834716796875,0.06291907280683517,-0.11942406743764877,0.0977383628487587
1711072786355794000,3.3017939453125,0.07910698652267456,-0.0720820426940918,0.10659590363502502
1711072786374753300,3.320753173828125,0.08155044913291931,-0.06750056147575378,0.10323614627122879
1711072786393712400,3.33971240234375,0.05558869615197182,-0.10201441496610641,0.09926552325487137
1711072786412671700,3.358671630859375,0.00946840364485979,-0.14630211889743805,0.10659590363502502
1711072786431631000,3.377631103515625,0.007941242307424545,-0.189673513174057,0.10720676928758621
1711072786450590200,3.396590087890625,0.007330377586185932,-0.2309068888425827,0.09407317638397217
1711072786469549600,3.415549560546875,0.003359756199643016,-0.2632827162742615,0.0717766135931015
1711072786488508700,3.4345087890625,-0.003359756199643016,-0.2675587832927704,0.07086031138896942
1711072786507467800,3.4534677734375,0.035124726593494415,-0.3387245237827301,0.05100720748305321
1711072786526427100,3.47242724609375,0.0204639695584774,-0.3530798554420471,0.0925460159778595
1711072786545386200,3.49138623046875,0.06780599057674408,-0.3433060050010681,0.12125665694475174
1711072786564345600,3.510345703125,0.12278381735086441,-0.3439168632030487,0.14660754799842834
1711072786583305000,3.529304931640625,0.09987638890743256,-0.4120282828807831,0.1640172004699707
1711072786602264000,3.54826416015625,0.12705987691879272,-0.5125155448913574,0.13652828335762024
1711072786621223200,3.56722314453125,0.16310089826583862,-0.6096430420875549,0.11117739230394363
1711072786640182500,3.5861826171875,0.20433427393436432,-0.6178897023200989,0.12492185086011887
1711072786659142000,3.605141845703125,0.2257145345211029,-0.5830704569816589,0.09682206809520721
1711072786678101000,3.62410107421875,0.1539379209280014,-0.48472121357917786,0.0974329337477684
1711072786697060400,3.643060302734375,0.18112140893936157,-0.41905322670936584,0.12705987691879272
1711072786716019500,3.66201953125,0.23762640357017517,-0.3402516841888428,0.16126830875873566
1711072786734978800,3.680978759765625,0.2214384824037552,-0.29016077518463135,0.17867794632911682
1711072786753938200,3.699938232421875,0.19364413619041443,-0.2257145345211029,0.26450446248054504
1711072786772897300,3.718897216796875,0.22266021370887756,-0.20250166952610016,0.35155269503593445
1711072786791856600,3.737856689453125,0.28924447298049927,-0.19303326308727264,0.36682429909706116
1711072786810815700,3.756815673828125,0.3454440236091614,-0.23945899307727814,0.35796675086021423
1711072786829775000,3.775775146484375,0.38759371638298035,-0.31031930446624756,0.34177884459495544
1711072786848734500,3.794734375,0.42394015192985535,-0.3591884970664978,0.3075704276561737
1711072786867693600,3.813693603515625,0.36804601550102234,-0.3426951467990875,0.32589635252952576
1711072786886653000,3.83265283203125,0.37720900774002075,-0.37232208251953125,0.30482152104377747
1711072786905612000,3.851612060546875,0.4101957082748413,-0.3646862804889679,0.24770566821098328
1711072786924571400,3.8705712890625,0.3646862804889679,-0.3860665261745453,0.1792888194322586
1711072786943530800,3.88953076171875,0.3197877109050751,-0.44348782300949097,0.07910698652267456
1711072786962489900,3.90848974609375,0.2415970265865326,-0.4401280879974365,-0.026878049597144127
1711072786981449200,3.92744921875,0.17684535682201385,-0.34086254239082336,-0.12675444781780243
1711072787000408300,3.946408203125,0.13072505593299866,-0.23335035145282745,-0.2522871494293213
1711072787019367700,3.96536767578125,0.05864302068948746,-0.3796524703502655,-0.4043924808502197
1711072787038327000,3.9843271484375,0.09071341902017593,-0.7996219992637634,-0.5879573225975037
1711072787057286100,4.0032861328125,0.2159406989812851,-1.237612009048462,-0.6679806113243103
1711072787076245500,4.02224560546875,0.22449280321598053,-1.414151906967163,-0.6426297426223755
1711072787095204900,4.041204833984375,0.15057817101478577,-1.4260637760162354,-0.5604684352874756
1711072787114164200,4.060164306640625,0.20677772164344788,-1.4028509855270386,-0.48044514656066895
1711072787133123300,4.079123291015625,0.37781986594200134,-1.4101812839508057,-0.4276053309440613
1711072787152082700,4.098082763671875,0.5797106623649597,-1.3652827739715576,-0.3857611119747162
1711072787171042000,4.1170419921875,0.8063415288925171,-1.2037090063095093,-0.33628106117248535
1711072787190001200,4.136001220703125,1.0134246349334717,-0.9605848789215088,-0.2412915825843811
1711072787208960500,4.15496044921875,1.1896591186523438,-0.7703005075454712,-0.12736530601978302
1711072787227920000,4.173919921875,1.3490948677062988,-0.6337721943855286,-0.011911863461136818
1711072787246879000,4.19287890625,1.5125012397766113,-0.5690205693244934,0.10506874322891235
1711072787265838300,4.21183837890625,1.703091025352478,-0.5836812853813171,0.20402882993221283
1711072787284797700,4.230797607421875,1.9312490224838257,-0.6368265151977539,0.28496840596199036
1711072787303757000,4.249757080078125,2.1340560913085938,-0.5503891706466675,0.3802633285522461
1711072787322716200,4.268716064453125,2.2278237342834473,-0.360410213470459,0.5131264328956604
1711072787341675500,4.287675537109375,2.2754712104797363,-0.1795942485332489,0.6252201199531555
1711072787360635000,4.306634765625,2.2974624633789062,-0.007330377586185932,0.6688969135284424
1711072787379594200,4.32559423828125,2.246455192565918,0.19792018830776215,0.7040216326713562
1711072787398553300,4.34455322265625,2.1392483711242676,0.4211912751197815,0.7513636946678162
1711072787417512700,4.3635126953125,2.0964879989624023,0.5396990180015564,0.776714563369751
1711072787436472000,4.38247216796875,2.0127995014190674,0.5900954008102417,0.8106175661087036
1711072787455431200,4.40143115234375,1.848476767539978,0.6218603253364563,0.7898481488227844
1711072787474390500,4.420390625,1.6838487386703491,0.5061014890670776,0.7822123765945435
1711072787493350000,4.439349853515625,1.6352850198745728,0.36224281787872314,0.7825177907943726
1711072787512309200,4.458309326171875,1.5952733755111694,0.29504770040512085,0.8775072693824768
1711072787531268600,4.4772685546875,1.4865394830703735,0.2660316228866577,0.9269872903823853
1711072787550227700,4.496227783203125,1.3921607732772827,0.12064579129219055,0.8662062287330627
1711072787569187000,4.51518701171875,1.3158026933670044,0.014966187067329884,0.7651081085205078
1711072787588146400,4.534146484375,1.2760965824127197,-0.03756818547844887,0.7425061464309692
1711072787607105800,4.553105712890625,1.229365348815918,0.03695731982588768,0.757777750492096
1711072787626065000,4.57206494140625,1.1701115369796753,0.0977383628487587,0.7260127663612366
1711072787645024300,4.591024169921875,1.1129956245422363,0.1585194170475006,0.637742817401886
1711072787663983600,4.609983642578125,1.036942958831787,0.16096286475658417,0.5558869242668152
1711072787682943000,4.62894287109375,0.9138537049293518,0.10720676928758621,0.5109884142875671
1711072787701902000,4.647902099609375,0.8203914165496826,0.0870482325553894,0.47922343015670776
1711072787720861400,4.666861328125,0.740368127822876,0.07055488228797913,0.4633409380912781
1711072787739820800,4.68582080078125,0.6423243284225464,0.024434590712189674,0.4318813979625702
1711072787758780200,4.7047802734375,0.5277871489524841,0.03390299528837204,0.41813695430755615
1711072787777739500,4.723739501953125,0.4016436040401459,0.10170898586511612,0.411722868680954
1711072787796698600,4.74269873046875,0.2965748608112335,0.047952886670827866,0.430659681558609
1711072787815658000,4.761657958984375,0.2565632164478302,0.0054977829568088055,0.46486809849739075
1711072787834617300,4.780617431640625,0.21991132199764252,-0.035124726593494415,0.4520399272441864
1711072787853576700,4.79957666015625,0.18142683804035187,-0.06780599057674408,0.4410443603992462
1711072787872536000,4.8185361328125,0.16584978997707367,-0.0665842592716217,0.45937031507492065
1711072787891495200,4.8374951171875,0.15210533142089844,-0.0922405794262886,0.47983428835868835
1711072787910454500,4.85645458984375,0.13011419773101807,-0.09437860548496246,0.4471530318260193
1711072787929414000,4.875413818359375,0.12400554865598679,-0.0308486707508564,0.41233372688293457
1711072787948373200,4.894373291015625,0.08338304609060287,0.06963858753442764,0.41447174549102783
1711072787967332600,4.91333251953125,0.040317077189683914,0.002443459117785096,0.49510589241981506
1711072787986291700,4.932291748046875,0.056199558079242706,-0.2868010103702545,0.5024362802505493
1711072788005251300,4.951251220703125,0.0974329337477684,-0.5558869242668152,0.4263836145401001
1711072788024210400,4.97021044921875,0.11514800786972046,-0.5821541547775269,0.2971857190132141
1711072788043169800,4.989169677734375,0.0772743970155716,-0.3582721948623657,0.27000224590301514
1711072788062129200,5.008129150390625,0.03298669680953026,-0.2107483446598053,0.28038692474365234
1711072788081088500,5.027088623046875,0.010384701192378998,-0.15088360011577606,0.24312418699264526
1711072788100048000,5.0460478515625,0.009773836471140385,-0.205861434340477,0.18875721096992493
1711072788119007200,5.06500732421875,0.032070402055978775,-0.35643959045410156,0.12370011955499649
1711072788137966300,5.08396630859375,0.01802051067352295,-0.39828383922576904,0.04886918142437935
1711072788156925700,5.10292578125,0.0256563201546669,-0.3081812858581543,-0.03543015569448471
1711072788175885000,5.121885009765625,0.010995565913617611,-0.09682206809520721,-0.04214967042207718
1711072788194844400,5.140844482421875,0.003665188793092966,0.02932151034474373,-0.028099779039621353
1711072788213803800,5.1598037109375,0.05039634555578232,0.06597339361906052,-0.07330377399921417
1711072788232763100,5.17876318359375,0.06230820715427399,0.05345066636800766,-0.15149445831775665
1711072788251722200,5.19772216796875,0.06566796451807022,-0.03848448023200035,-0.19242240488529205
1711072788270681900,5.216681884765625,0.10018182545900345,-0.06566796451807022,-0.1798996776342392
1711072788289641000,5.235640869140625,0.15515965223312378,-0.000610864779446274,-0.1750127524137497
1711072788308600300,5.254600341796875,0.19211697578430176,0.1185077652335167,-0.1951712965965271
1711072788327559700,5.2735595703125,0.19181154668331146,0.1948658674955368,-0.22296564280986786
1711072788346519000,5.29251904296875,0.11239911615848541,0.22968515753746033,-0.20341797173023224
1711072788365478400,5.311478515625,-0.044898562133312225,0.2889390289783478,-0.11881320178508759
1711072788384437800,5.330437744140625,-0.03695731982588768,0.13744457066059113,-0.000610864779446274
1711072788403397000,5.349397216796875,0.059864748269319534,-0.19883649051189423,0.039706211537122726
1711072788422356200,5.368356201171875,0.09132428467273712,-0.35796675086021423,0.09957095980644226
1711072788441315600,5.387315673828125,0.05222893878817558,-0.3539961278438568,0.11178825795650482
1711072788460275000,5.40627490234375,-0.05192350596189499,-0.189673513174057,0.07452550530433655
1711072788479234300,5.425234375,-0.1542433500289917,0.021685699000954628,0.0513126403093338
1711072788498193700,5.444193603515625,-0.17562362551689148,0.08429934084415436,0.03787361457943916
1711072788517153000,5.463153076171875,-0.15577052533626556,-0.06291907280683517,0.008246674202382565
1711072788536112400,5.4821123046875,-0.11423171311616898,-0.268169641494751,-0.037262752652168274
1711072788555071700,5.50107177734375,-0.07635809481143951,-0.3029889166355133,-0.07269290834665298
1711072788574031000,5.520031005859375,-0.12095122784376144,-0.12614357471466064,-0.14080433547496796
1711072788592990500,5.538990478515625,-0.20922118425369263,0.1182023361325264,-0.24556763470172882
1711072788611949600,5.557949462890625,-0.2678641974925995,0.3900371491909027,-0.3533852696418762
1711072788630909000,5.576908935546875,-0.23335035145282745,0.6246092319488525,-0.3790415823459625
1711072788649868300,5.595868408203125,-0.14721840620040894,0.7037162184715271,-0.29565855860710144
1711072788668827600,5.61482763671875,-0.10598503798246384,0.7101303339004517,-0.19089524447917938
1711072788687787000,5.633787109375,-0.16035200655460358,0.7476984858512878,-0.143553227186203
1711072788706746400,5.652746337890625,-0.1997527778148651,0.6948586702346802,-0.18081597983837128
1711072788725705700,5.671705810546875,-0.2260199636220932,0.49663305282592773,-0.20463970303535461
1711072788744665000,5.6906650390625,-0.22999058663845062,0.18600831925868988,-0.21288637816905975
1711072788763624400,5.70962451171875,-0.22724169492721558,-0.056810423731803894,-0.23243404924869537
1711072788782583800,5.728583740234375,-0.2614501118659973,-0.15546508133411407,-0.23243404924869537
1711072788801543200,5.747543212890625,-0.3191768527030945,-0.15210533142089844,-0.1954767256975174
1711072788820502500,5.76650244140625,-0.34727662801742554,-0.05222893878817558,-0.14752385020256042
1711072788839462000,5.7854619140625,-0.34605491161346436,0.03634645417332649,-0.11239911615848541
1711072788858421000,5.8044208984375,-0.3326158821582794,-0.002443459117785096,-0.10231985151767731
1711072788877380600,5.823380615234375,-0.3039052188396454,-0.10659590363502502,-0.11362084746360779
1711072788896340000,5.842340087890625,-0.29504770040512085,-0.2110537886619568,-0.14477495849132538
1711072788915299300,5.86129931640625,-0.3035998046398163,-0.21991132199764252,-0.1795942485332489
1711072788934258400,5.880258544921875,-0.30482152104377747,-0.1127045527100563,-0.18631376326084137
1711072788953217800,5.8992177734375,-0.30482152104377747,0.02718348242342472,-0.18753549456596375
1711072788972177200,5.91817724609375,-0.3396408259868622,0.11026109009981155,-0.19853104650974274
1711072788991136500,5.937136474609375,-0.3753764033317566,0.14691297709941864,-0.2571740746498108
1711072789010096000,5.95609619140625,-0.38179048895835876,0.14630211889743805,-0.31093016266822815
1711072789029055200,5.97505517578125,-0.39248061180114746,0.06994401663541794,-0.3029889166355133
1711072789048014600,5.9940146484375,-0.38881543278694153,-0.004886918235570192,-0.291687935590744
1711072789066974000,6.012973876953125,-0.3744601011276245,-0.04428769648075104,-0.2663370370864868
1711072789085933300,6.031933349609375,-0.3738492429256439,-0.09865466505289078,-0.2516762912273407
1711072789104892700,6.050892578125,-0.36621344089508057,-0.1328630894422531,-0.24342961609363556
1711072789123852000,6.06985205078125,-0.33322674036026,-0.15729768574237823,-0.2464839369058609
1711072789142811400,6.088811279296875,-0.3090975880622864,-0.17043127119541168,-0.2675587832927704
1711072789161770800,6.107770751953125,-0.2779434621334076,-0.16676609218120575,-0.2770271897315979
1711072789180730000,6.126730224609375,-0.23976442217826843,-0.17806708812713623,-0.2971857190132141
1711072789199689500,6.145689453125,-0.2162461280822754,-0.20219624042510986,-0.29962918162345886
1711072789218648800,6.16464892578125,-0.22296564280986786,-0.23945899307727814,-0.31490078568458557
1711072789237608200,6.183608154296875,-0.2559523284435272,-0.2987128794193268,-0.3298669755458832
1711072789256567600,6.202567626953125,-0.28466299176216125,-0.2861901521682739,-0.3433060050010681
1711072789275527200,6.221527099609375,-0.272751122713089,-0.23243404924869537,-0.3481929302215576
1711072789294486500,6.240486572265625,-0.2415970265865326,-0.15668681263923645,-0.3646862804889679
1711072789313446000,6.25944580078125,-0.2562577724456787,-0.12370011955499649,-0.4120282828807831
1711072789332405200,6.2784052734375,-0.2809978127479553,-0.11117739230394363,-0.4880809485912323
1711072789351364600,6.297364501953125,-0.2834412455558777,-0.11911863088607788,-0.6117810606956482
1711072789370324000,6.316323974609375,-0.3277289569377899,-0.07422006875276566,-0.749531090259552
1711072789389283300,6.335283447265625,-0.35277441143989563,0.04520399495959282,-0.851545512676239
1711072789408242700,6.35424267578125,-0.40744680166244507,0.235793799161911,-0.9107993841171265
1711072789427202000,6.3732021484375,-0.4685332775115967,0.44470956921577454,-0.916297197341919
1711072789446161400,6.392161376953125,-0.526565432548523,0.44868019223213196,-0.9007201194763184
1711072789465120800,6.411120849609375,-0.6038398146629333,0.22266021370887756,-0.8213077187538147
1711072789484080000,6.430080078125,-0.6551524996757507,0.018631376326084137,-0.7192932963371277
1711072789503039500,6.44903955078125,-0.6881392002105713,-0.1380554437637329,-0.6023126840591431
1711072789521998800,6.467998779296875,-0.7302888631820679,-0.2623664140701294,-0.48960810899734497
1711072789540958500,6.48695849609375,-0.7348703145980835,-0.3433060050010681,-0.43310311436653137
1711072789559917800,6.505917724609375,-0.7415898442268372,-0.37720900774002075,-0.35124725103378296
1711072789578877200,6.524877197265625,-0.6490437984466553,-0.3860665261745453,-0.3753764033317566
1711072789597836500,6.54383642578125,-0.5213730931282043,-0.2922987937927246,-0.42302384972572327
1711072789616796000,6.5627958984375,-0.3659079968929291,-0.14202606678009033,-0.5491674542427063
1711072789635755300,6.58175537109375,-0.2974911332130432,-0.01282816007733345,-0.695164144039154
1711072789654715000,6.60071484375,-0.28435754776000977,0.17134757339954376,-0.841160774230957
1711072789673674200,6.61967431640625,-0.2107483446598053,0.3439168632030487,-0.9211840629577637
1711072789692633600,6.638633544921875,-0.16279546916484833,0.5305360555648804,-0.9227112531661987
1711072789711593000,6.657593017578125,-0.1695149689912796,0.42913252115249634,-0.7990111112594604
1711072789730552300,6.67655224609375,-0.1545487940311432,0.1948658674955368,-0.5235111117362976
1711072789749511700,6.69551171875,-0.24037529528141022,-0.010079269297420979,-0.0616973415017128
1711072789768471000,6.714470947265625,-0.3069595396518707,-0.5494728684425354,0.2675587832927704
1711072789787430400,6.733430419921875,-0.26878049969673157,-0.8701768517494202,0.4520399272441864
1711072789806390000,6.75239013671875,-0.14049890637397766,-0.758694052696228,0.47006043791770935
1711072789825349400,6.771349365234375,0.002443459117785096,-0.5595521330833435,0.4053087830543518
1711072789844308700,6.790308837890625,0.14233149588108063,-0.45020735263824463,0.3335321843624115
1711072789863268000,6.80926806640625,0.2516762912273407,-0.56382817029953,0.2614501118659973
1711072789882227500,6.8282275390625,0.2971857190132141,-0.5513054728507996,0.22846342623233795
1711072789901186800,6.847186767578125,0.2822195291519165,-0.39248061180114746,0.2415970265865326
1711072789920146400,6.866146484375,0.34697118401527405,-0.28588470816612244,0.2556469142436981
1711072789939105800,6.885105712890625,0.4221075773239136,-0.31154105067253113,0.143553227186203
1711072789958065200,6.904065185546875,0.4367683231830597,-0.2788597643375397,0.12064579129219055
1711072789977024800,6.923024658203125,0.4321868419647217,-0.18356487154960632,0.09010255336761475
1711072789995984100,6.941984130859375,0.5027416944503784,-0.1536324918270111,0.11942406743764877
1711072790014943500,6.960943603515625,0.5051851868629456,-0.15821397304534912,0.13744457066059113
1711072790033902800,6.97990283203125,0.5445859432220459,-0.1594357043504715,0.16126830875873566
1711072790052862500,6.998862548828125,0.5983420610427856,-0.14477495849132538,0.21502439677715302
1711072790071821800,7.01782177734375,0.61117023229599,-0.17715078592300415,0.2889390289783478
1711072790090781200,7.03678125,0.5494728684425354,-0.2559523284435272,0.31612253189086914
1711072790109740500,7.055740478515625,0.47494736313819885,-0.16615521907806396,0.3271180987358093
1711072790128700000,7.074699951171875,0.4251618981361389,-0.07299833744764328,0.36774060130119324
1711072790147659500,7.093659423828125,0.3585776388645172,-0.03176496922969818,0.40714138746261597
1711072790166619000,7.112618896484375,0.3228420317173004,0.005803215317428112,0.43921178579330444
1711072790185578200,7.131578125,0.31184646487236023,0.024434590712189674,0.4373791813850403
1711072790204537900,7.150537841796875,0.34177884459495544,0.022907428443431854,0.4477638900279999
1711072790223497200,7.169497314453125,0.4410443603992462,-0.007635809946805239,0.49602219462394714
1711072790242456600,7.18845654296875,0.4978547990322113,-0.10109812021255493,0.5925388336181641
1711072790261416000,7.207416015625,0.5406153202056885,-0.22815799713134766,0.6349939107894897
1711072790280375600,7.22637548828125,0.527481734752655,-0.3121519088745117,0.6514872908592224
1711072790299335000,7.2453349609375,0.5293143391609192,-0.25350889563560486,0.7232639193534851
1711072790318294300,7.264294189453125,0.5949822664260864,-0.23793183267116547,0.7156280875205994
1711072790337253600,7.283253662109375,0.5940660238265991,-0.27458372712135315,0.6539307236671448
1711072790356213200,7.302213134765625,0.6041452884674072,-0.17287473380565643,0.5891790986061096
1711072790375172600,7.321172607421875,0.6362156867980957,-0.05345066636800766,0.5513054728507996
1711072790394132000,7.340132080078125,0.6890554428100586,0.020158538594841957,0.5256491303443909
1711072790413091600,7.359091552734375,0.7043271064758301,0.04306596517562866,0.4153880476951599
1711072790432051000,7.378051025390625,0.7183769941329956,0.022296564653515816,0.30573782324790955
1711072790451010300,7.39701025390625,0.7250964641571045,0.06352993845939636,0.2510654330253601
1711072790469970000,7.415969970703125,0.7565560340881348,0.14782927930355072,0.28069236874580383
1711072790488929300,7.43492919921875,0.7440332770347595,0.12614357471466064,0.35063639283180237
1711072790507888600,7.453888671875,0.6737838387489319,0.024434590712189674,0.3390299379825592
1711072790526848300,7.47284814453125,0.638353705406189,-0.018631376326084137,0.347582072019577
1711072790545807600,7.4918076171875,0.656679630279541,-0.06047561392188072,0.36682429909706116
1711072790564767000,7.51076708984375,0.6630937457084656,-0.06994401663541794,0.3692677617073059
1711072790583726600,7.5297265625,0.6136136651039124,-0.05955931544303894,0.314289927482605
1711072790602686000,7.54868603515625,0.5949822664260864,-0.029016077518463135,0.29626941680908203
1711072790621645300,7.567645263671875,0.5790998339653015,0.006719512399286032,0.3179551064968109
1711072790640605000,7.58660498046875,0.5934551358222961,-0.059864748269319534,0.2968802750110626
1711072790659564300,7.605564208984375,0.6093376278877258,-0.09651663154363632,0.2767217457294464
1711072790678523600,7.624523681640625,0.6365211009979248,-0.14049890637397766,0.2706131041049957
1711072790697483300,7.643483154296875,0.6597339510917664,-0.1233946830034256,0.28527384996414185
1711072790716442600,7.662442626953125,0.6331613659858704,-0.08582650125026703,0.2831358313560486
1711072790735402000,7.681402099609375,0.6154462695121765,-0.06383536756038666,0.24251331388950348
1711072790754361600,7.700361572265625,0.6255255341529846,-0.008246674202382565,0.20219624042510986
1711072790773321000,7.719321044921875,0.6221657991409302,0.01802051067352295,0.20341797173023224
1711072790792280600,7.738280517578125,0.5962040424346924,-0.008246674202382565,0.22174391150474548
1711072790811240000,7.757239990234375,0.5842921733856201,0.001221729558892548,0.2052505612373352
1711072790830199300,7.77619921875,0.5623010396957397,0.06414080411195755,0.19181154668331146
1711072790849159000,7.795158935546875,0.5586358308792114,0.09498947113752365,0.1750127524137497
1711072790868118300,7.8141181640625,0.5729911923408508,0.08582650125026703,0.16737695038318634
1711072790887077600,7.83307763671875,0.5662716627120972,0.07605266571044922,0.1847866028547287
1711072790906037200,7.852037353515625,0.5888736248016357,-0.004276053514331579,0.20433427393436432
1711072790924996600,7.87099658203125,0.5760455131530762,-0.10934479534626007,0.21471896767616272
1711072790943956000,7.8899560546875,0.5876519083976746,-0.1695149689912796,0.1802051067352295
1711072790962915600,7.90891552734375,0.5867356061935425,-0.06994401663541794,0.16187916696071625
1711072790981875000,7.927875,0.5787943601608276,0.061391908675432205,0.17134757339954376
1711072791000834600,7.94683447265625,0.5632173418998718,0.11087195575237274,0.17715078592300415
1711072791019794000,7.9657939453125,0.5299251675605774,0.02718348242342472,0.20799945294857025
1711072791038753300,7.984753173828125,0.5299251675605774,-0.09162971377372742,0.17562362551689148
1711072791057713000,8.003712890625,0.5494728684425354,-0.044898562133312225,0.1536324918270111
1711072791076672300,8.02267236328125,0.5601630210876465,0.027488915249705315,0.11636973917484283
1711072791095631600,8.041631591796875,0.5491674542427063,0.07330377399921417,0.08124501258134842
1711072791114591200,8.06059130859375,0.544891357421875,0.10109812021255493,0.05894844979047775
1711072791133550600,8.079550537109375,0.5412262082099915,0.13744457066059113,0.043371398001909256
1711072791152510000,8.098510009765626,0.5445859432220459,0.18295399844646454,0.03695731982588768
1711072791171469600,8.117469482421875,0.5687150955200195,0.13439024984836578,0.04550942778587341
1711072791190429000,8.136428955078125,0.5705476999282837,0.08796452730894089,0.05925388261675835
1711072791209388300,8.15538818359375,0.5418370366096497,0.06872228533029556,0.05558869615197182
1711072791228348000,8.174347900390625,0.5155698657035828,0.0412333719432354,0.043371398001909256
1711072791247307300,8.193307373046874,0.5079340934753418,0.048563748598098755,0.03237583488225937
1711072791266266600,8.2122666015625,0.508544921875,0.0665842592716217,0.046425722539424896
1711072791285226200,8.231226318359376,0.5122101306915283,0.06719512492418289,0.022907428443431854
1711072791304185600,8.250185546875,0.5146535634994507,0.09651663154363632,-0.000305432389723137
1711072791323145200,8.269145263671875,0.4990765154361725,0.12950333952903748,-0.003665188793092966
1711072791342104600,8.2881044921875,0.4828886091709137,0.13164135813713074,-0.0054977829568088055
1711072791361064000,8.30706396484375,0.45326167345046997,0.08552107214927673,0.003359756199643016
1711072791380023600,8.3260234375,0.43310311436653137,0.09193515032529831,-0.007635809946805239
1711072791398983000,8.34498291015625,0.4266890585422516,0.1130099818110466,-0.023823726922273636
1711072791417942500,8.363942626953126,0.41935867071151733,0.07360920310020447,-0.0256563201546669
1711072791436902000,8.38290185546875,0.3787361681461334,0.08460476994514465,0.018325943499803543
1711072791455861200,8.401861328125,0.40408703684806824,0.05283980444073677,-0.0021380267571657896
1711072791474820900,8.42082080078125,0.43829548358917236,0.050090912729501724,-0.0021380267571657896
1711072791493780200,8.4397802734375,0.46547895669937134,0.032681263983249664,0.001832594396546483
1711072791512739800,8.45873974609375,0.4523453712463379,-0.01282816007733345,0.024434590712189674
1711072791531699200,8.47769921875,0.43279770016670227,-0.04153880476951599,0.03756818547844887
1711072791550658600,8.496658447265625,0.4251618981361389,-0.06444623321294785,0.01802051067352295
1711072791569618200,8.5156181640625,0.38728827238082886,0.029626941308379173,-0.024740023538470268
1711072791588577500,8.53457763671875,0.35766133666038513,0.1282816082239151,-0.04367683082818985
1711072791607537200,8.553537109375,0.33505934476852417,0.11209368705749512,-0.029016077518463135
1711072791626496500,8.57249658203125,0.32100942730903625,0.06536252796649933,-0.04550942778587341
1711072791645456000,8.591455810546876,0.33536475896835327,0.05833758786320686,-0.04917461425065994
1711072791664415500,8.61041552734375,0.2968802750110626,0.053756099194288254,-0.032681263983249664
1711072791683374800,8.629374755859375,0.27947062253952026,0.043371398001909256,-0.026572618633508682
1711072791702334500,8.64833447265625,0.2889390289783478,0.05436696484684944,-0.038789913058280945
1711072791721293800,8.6672939453125,0.26969680190086365,0.08949168771505356,-0.06505709886550903
1711072791740253200,8.686253173828124,0.22785256803035736,0.13652828335762024,-0.09590577334165573
1711072791759212500,8.705212646484375,0.19944734871387482,0.18600831925868988,-0.10567960888147354
1711072791778172200,8.724172119140626,0.16615521907806396,0.2162461280822754,-0.10751219838857651
1711072791797131500,8.743131591796875,0.15760311484336853,0.205861434340477,-0.1026252806186676
1711072791816091100,8.762091064453125,0.14202606678009033,0.12522727251052856,-0.07819069176912308
1711072791835050500,8.781050537109374,0.14538581669330597,0.049480047076940536,-0.05711585655808449
1711072791854009900,8.800009765625,0.13652828335762024,0.035735588520765305,-0.0461202897131443
1711072791872969500,8.818969482421876,0.13713914155960083,0.08949168771505356,-0.06719512492418289
1711072791891928800,8.8379287109375,0.14019346237182617,0.21838416159152985,-0.07055488228797913
1711072791910888400,8.856888427734376,0.1334739476442337,0.24495677649974823,-0.06841685622930527
1711072791929847800,8.875847900390625,0.1334739476442337,0.1740964651107788,-0.04917461425065994
1711072791948807200,8.89480712890625,0.17104214429855347,0.12767073512077332,-0.026572618633508682
1711072791967766800,8.913766845703124,0.1747073233127594,0.10598503798246384,-0.02932151034474373
1711072791986726100,8.93272607421875,0.16737695038318634,0.09682206809520721,-0.03145953640341759
1711072792005685800,8.951685791015626,0.15760311484336853,0.1637117564678192,-0.03451386094093323
1711072792024645000,8.97064501953125,0.17104214429855347,0.2214384824037552,-0.04428769648075104
1711072792043604500,8.9896044921875,0.18784092366695404,0.18692462146282196,-0.021991131827235222
1711072792062564000,9.008564208984374,0.20219624042510986,0.0665842592716217,0.001221729558892548
1711072792081523500,9.0275234375,0.23915356397628784,0.006719512399286032,0.021685699000954628
1711072792100483000,9.046483154296874,0.2977965772151947,0.013133592903614044,-0.014966187067329884
1711072792119442400,9.0654423828125,0.28557929396629333,0.14080433547496796,-0.013744457624852657
1711072792138401800,9.08440185546875,0.22937972843647003,0.20922118425369263,-0.03145953640341759
1711072792157361400,9.103361328125,0.2110537886619568,0.17043127119541168,-0.03756818547844887
1711072792176320800,9.12232080078125,0.19303326308727264,0.08093958348035812,-0.03634645417332649
1711072792195280400,9.1412802734375,0.19394956529140472,0.08582650125026703,-0.05283980444073677
1711072792214239700,9.16023974609375,0.17867794632911682,0.11178825795650482,-0.06322450190782547
1711072792233199000,9.17919921875,0.1597411334514618,0.07910698652267456,-0.04520399495959282
1711072792252158700,9.19815869140625,0.16554436087608337,0.009162971749901772,-0.03543015569448471
1711072792271118000,9.2171181640625,0.1744018942117691,-0.021685699000954628,-0.03909534588456154
1711072792290077400,9.236077392578125,0.18203771114349365,0.027488915249705315,-0.037262752652168274
1711072792309037000,9.255037109375,0.16279546916484833,0.05955931544303894,-0.053145237267017365
1711072792327996400,9.273996337890624,0.14660754799842834,0.06444623321294785,-0.0766635313630104
1711072792346955800,9.292955810546875,0.13927717506885529,0.06230820715427399,-0.10201441496610641
1711072792365915400,9.311915283203126,0.11606431007385254,0.07269290834665298,-0.1130099818110466
1711072792384874800,9.330874755859375,0.10720676928758621,0.0769689604640007,-0.12125665694475174
1711072792403834000,9.349834228515626,0.08765909820795059,0.07391463965177536,-0.12705987691879272
1711072792422793700,9.368793701171874,0.0873536616563797,0.06444623321294785,-0.12644900381565094
1711072792441753000,9.387753173828125,0.09437860548496246,0.05283980444073677,-0.11209368705749512
1711072792460712700,9.406712646484374,0.11209368705749512,0.04734202101826668,-0.09468404203653336
1711072792479672000,9.425672119140625,0.12247838824987411,0.029932374134659767,-0.09101885557174683
1711072792498631400,9.44463134765625,0.11392628401517868,0.06047561392188072,-0.0977383628487587
1711072792517591000,9.463591064453125,0.10720676928758621,0.08613193035125732,-0.10323614627122879
1711072792536550400,9.48255029296875,0.09651663154363632,0.10018182545900345,-0.09651663154363632
1711072792555510000,9.501510009765624,0.09987638890743256,0.10659590363502502,-0.08674279600381851
1711072792574469400,9.520469482421875,0.1078176349401474,0.10659590363502502,-0.06872228533029556
1711072792593428700,9.5394287109375,0.11484257876873016,0.09712749719619751,-0.06841685622930527
1711072792612388400,9.558388427734375,0.10995566099882126,0.09498947113752365,-0.06597339361906052
1711072792631347700,9.57734765625,0.1130099818110466,0.09437860548496246,-0.048563748598098755
1711072792650307000,9.59630712890625,0.12217295914888382,0.05833758786320686,-0.029626941308379173
1711072792669266700,9.6152666015625,0.11728604137897491,0.022296564653515816,-0.006414080038666725
1711072792688226000,9.63422607421875,0.11392628401517868,0.04886918142437935,-0.013439024798572063
1711072792707185700,9.653185546875,0.11698060482740402,0.08613193035125732,-0.026878049597144127
1711072792726145000,9.67214501953125,0.09193515032529831,0.11911863088607788,-0.016798781231045723
1711072792745104400,9.6911044921875,0.08582650125026703,0.1081230640411377,-0.02107483521103859
1711072792764064000,9.71006396484375,0.08460476994514465,0.09407317638397217,-0.013133592903614044
1711072792783023400,9.7290234375,0.06719512492418289,0.09865466505289078,-0.028099779039621353
1711072792801982700,9.747982666015625,0.0616973415017128,0.14630211889743805,-0.03817904740571976
1711072792820942300,9.7669423828125,0.05803215503692627,0.17134757339954376,-0.032070402055978775
1711072792839901700,9.785901611328125,0.04214967042207718,0.17287473380565643,-0.04214967042207718
1711072792858861300,9.804861328125,0.030543239787220955,0.1698204129934311,-0.04917461425065994
1711072792877820700,9.823820556640625,0.012217295356094837,0.16707152128219604,-0.06963858753442764
1711072792896780000,9.842780029296875,0,0.17226386070251465,-0.08429934084415436
1711072792915739600,9.86173974609375,0,0.1795942485332489,-0.07757982611656189
1711072792934699000,9.880698974609375,0.008552107028663158,0.1337793916463852,-0.06719512492418289
1711072792953658400,9.899658447265624,0.020158538594841957,0.038789913058280945,-0.056199558079242706
1711072792972618000,9.918617919921875,0.02718348242342472,-0.025045456364750862,-0.060781046748161316
1711072792991577300,9.937577392578126,0.029016077518463135,-0.008857538923621178,-0.05742128938436508
1711072793010536700,9.95653662109375,0.01740964688360691,-0.003970621153712273,-0.05528326332569122
1711072793029496300,9.975496337890625,0.010995565913617611,-0.037262752652168274,-0.05558869615197182
1711072793048455700,9.99445556640625,0.01435532234609127,-0.05955931544303894,-0.061391908675432205
1711072793067415300,10.013415283203125,0.01435532234609127,-0.0461202897131443,-0.056810423731803894
1711072793086374700,10.032374755859376,0.021685699000954628,-0.044898562133312225,-0.0461202897131443
1711072793105334000,10.051333984375,0.03756818547844887,-0.07880155742168427,-0.028099779039621353
1711072793124293600,10.070293701171876,0.036651886999607086,-0.12034036219120026,-0.01588248461484909
1711072793143253000,10.0892529296875,0.03848448023200035,-0.1285870373249054,-0.015577051788568497
1711072793162212400,10.10821240234375,0.03848448023200035,-0.08429934084415436,-0.020769402384757996
1711072793181171700,10.127171630859374,0.03390299528837204,-0.039706211537122726,-0.025350889191031456
1711072793200131300,10.14613134765625,0.029626941308379173,-0.03329212963581085,-0.0256563201546669
1711072793219090700,10.165090576171876,0.024434590712189674,-0.043982263654470444,-0.02871064469218254
1711072793238050000,10.184050048828125,0.0256563201546669,-0.0409279391169548,-0.023518294095993042
1711072793257009700,10.203009765625,0.01282816007733345,-0.031154103577136993,-0.025350889191031456
1711072793275969000,10.221968994140624,0.01282816007733345,-0.00946840364485979,-0.02932151034474373
1711072793294928400,10.240928466796875,0.010079269297420979,0.003359756199643016,-0.024740023538470268
1711072793313888000,10.259887939453124,0.012522728182375431,0.007024944759905338,-0.013133592903614044
1711072793332847400,10.278847412109375,0.015577051788568497,0.003359756199643016,-0.002443459117785096
1711072793351806700,10.297806640625,0.014049889519810677,0.000305432389723137,0.0027488914784044027
1711072793370766300,10.316766357421875,0.007330377586185932,0.006414080038666725,-0.007941242307424545
1711072793389725700,10.3357255859375,0.000305432389723137,0.024740023538470268,-0.010690134018659592
1711072793408685000,10.35468505859375,0.000305432389723137,0.03817904740571976,-0.004886918235570192
1711072793427644700,10.373644775390625,0.0009162971982732415,0.01802051067352295,0.000305432389723137
1711072793446604000,10.39260400390625,0.007330377586185932,-0.013744457624852657,0.007024944759905338
1711072793465563400,10.4115634765625,0.00946840364485979,-0.014660755172371864,0.010995565913617611
1711072793484523000,10.43052294921875,0.006414080038666725,-0.010384701192378998,0.010690134018659592
1711072793503482400,10.449482421875,0.008857538923621178,-0.03023780696094036,0.015577051788568497
1711072793522441700,10.468441650390625,0,-0.024740023538470268,0.008857538923621178
1711072793541401300,10.4874013671875,0.0009162971982732415,0.03543015569448471,-0.007330377586185932
1711072793560360700,10.506360595703125,-0.010079269297420979,0.07086031138896942,-0.018631376326084137
1711072793579320000,10.525320068359376,-0.015577051788568497,0.05192350596189499,-0.01435532234609127
1711072793598279700,10.54427978515625,-0.008552107028663158,0.015271619893610477,-0.006414080038666725
1711072793617239000,10.563239013671875,-0.001832594396546483,0.0054977829568088055,0.004276053514331579
1711072793636198400,10.582198486328124,-0.007330377586185932,0.02779434807598591,-0.003665188793092966
1711072793655158000,10.601157958984375,-0.010079269297420979,0.06994401663541794,-0.014966187067329884
1711072793674117400,10.620117431640624,0.002443459117785096,0.07605266571044922,-0.021380268037319183
1711072793693076700,10.63907666015625,0.003665188793092966,0.02260199747979641,-0.013439024798572063
1711072793712036400,10.658036376953126,0.016187917441129684,-0.04001164436340332,0.006414080038666725
1711072793730995700,10.67699560546875,0.02107483521103859,-0.07574722915887833,0.0204639695584774
1711072793749955000,10.695955078125,0.01740964688360691,-0.07055488228797913,0.005803215317428112
1711072793768914700,10.714914794921874,0.019853105768561363,-0.032681263983249664,-0.0027488914784044027
1711072793787874000,10.7338740234375,0.0204639695584774,-0.019242240116000175,-0.0030543238390237093
1711072793806833400,10.75283349609375,0.019853105768561363,-0.036651886999607086,-0.003665188793092966
1711072793825793000,10.77179296875,0.029016077518463135,-0.04276053607463837,0.007941242307424545
1711072793844752400,10.79075244140625,0.0256563201546669,-0.05100720748305321,0.0021380267571657896
1711072793863711700,10.809711669921874,0.022296564653515816,-0.043982263654470444,-0.004581485874950886
1711072793882671400,10.82867138671875,0.01893680728971958,-0.011911863461136818,-0.003665188793092966
1711072793901630700,10.847630615234374,0.012217295356094837,0.028405211865901947,-0.014049889519810677
1711072793920590000,10.866590087890625,0.011911863461136818,0.035124726593494415,-0.025961752980947495
1711072793939549700,10.8855498046875,0.019853105768561363,0.011606430634856224,-0.014660755172371864
1711072793958509000,10.904509033203125,0.025350889191031456,-0.006719512399286032,-0.014966187067329884
1711072793977468400,10.923468505859375,0.014049889519810677,-0.022907428443431854,-0.021991131827235222
1711072793996428000,10.942427978515624,0.011300998739898205,-0.025350889191031456,-0.012522728182375431
1711072794015387400,10.961387451171875,0.033597562462091446,-0.04459312930703163,-0.0021380267571657896
1711072794034346800,10.9803466796875,0.03390299528837204,-0.08032871782779694,-0.003665188793092966
1711072794053306400,10.999306396484375,0.027488915249705315,-0.08796452730894089,0.0027488914784044027
1711072794072265700,11.018265625,0.022296564653515816,-0.08277218043804169,0.008246674202382565
1711072794091225000,11.03722509765625,0.011606430634856224,-0.07788526266813278,0.002443459117785096
1711072794110184700,11.056184814453125,0.006414080038666725,-0.053756099194288254,-0.001832594396546483
1711072794129144000,11.07514404296875,0.0009162971982732415,-0.009162971749901772,-0.012217295356094837
1711072794148103400,11.094103515625,-0.001221729558892548,0.015577051788568497,-0.011911863461136818
1711072794167063000,11.11306298828125,0.001221729558892548,-0.025350889191031456,0.000610864779446274
1711072794186022400,11.1320224609375,0.011606430634856224,-0.07605266571044922,0.0308486707508564
1711072794204982000,11.15098193359375,0.016798781231045723,-0.0870482325553894,0.04673115536570549
1711072794223941400,11.16994140625,0.008552107028663158,-0.022907428443431854,0.025045456364750862
1711072794242900700,11.188900634765625,-0.007024944759905338,0.08368847519159317,-0.01435532234609127
1711072794261860400,11.2078603515625,-0.0204639695584774,0.13927717506885529,-0.024434590712189674
1711072794280819700,11.22681982421875,-0.008552107028663158,0.12095122784376144,-0.003970621153712273
1711072794299779000,11.245779052734376,0.0027488914784044027,0.028099779039621353,0.0030543238390237093
1711072794318738700,11.26473876953125,0.01435532234609127,-0.026572618633508682,0.007941242307424545
1711072794337698000,11.283697998046875,0.021685699000954628,-0.034208428114652634,-0.001221729558892548
1711072794356657700,11.30265771484375,0.024740023538470268,-0.021380268037319183,0.004581485874950886
1711072794375617000,11.321616943359375,0.035735588520765305,-0.028405211865901947,0.007941242307424545
1711072794394576400,11.340576416015624,0.043982263654470444,-0.06261363625526428,0.007330377586185932
1711072794413536000,11.359535888671875,0.046425722539424896,-0.06902772188186646,0.014660755172371864
1711072794432495400,11.378495361328126,0.0412333719432354,-0.040317077189683914,0.010079269297420979
1711072794451455000,11.397455078125,0.04001164436340332,-0.026878049597144127,0.007635809946805239
1711072794470414300,11.416414306640625,0.04153880476951599,-0.03451386094093323,0.011300998739898205
1711072794489373700,11.435373779296874,0.039706211537122726,-0.010690134018659592,0.014049889519810677
1711072794508333300,11.454333251953125,0.03145953640341759,0.014660755172371864,0.010690134018659592
1711072794527292700,11.473292724609376,0.018325943499803543,0.04520399495959282,-0.000610864779446274
1711072794546252000,11.492251953125,0.011606430634856224,0.06291907280683517,-0.007024944759905338
1711072794565211600,11.511211669921876,0.010690134018659592,0.04734202101826668,0.000610864779446274
1711072794584171000,11.5301708984375,0.006719512399286032,0.028099779039621353,0.0027488914784044027
1711072794603130600,11.549130615234375,-0.0009162971982732415,0.04673115536570549,-0.006719512399286032
1711072794622090000,11.568090087890624,-0.0021380267571657896,0.07635809481143951,-0.021380268037319183
1711072794641049600,11.587049560546875,-0.010995565913617611,0.08582650125026703,-0.01954767294228077
1711072794660009000,11.606009033203126,-0.010079269297420979,0.06841685622930527,-0.015577051788568497
1711072794678968300,11.62496826171875,-0.0027488914784044027,0.04673115536570549,-0.01740964688360691
1711072794697928000,11.643927978515626,-0.007330377586185932,0.049480047076940536,-0.02107483521103859
1711072794716887300,11.66288720703125,-0.000610864779446274,0.05283980444073677,-0.026572618633508682
1711072794735847000,11.681846923828125,0.007635809946805239,0.024740023538470268,-0.018325943499803543
1711072794754806300,11.70080615234375,0.005192350596189499,0.000610864779446274,-0.007635809946805239
1711072794773766000,11.719765869140625,0.009162971749901772,0.0027488914784044027,-0.011606430634856224
1711072794792725200,11.738725341796876,0.01588248461484909,-0.005192350596189499,-0.023518294095993042
1711072794811684900,11.757684814453125,0.017104214057326317,-0.019242240116000175,-0.01893680728971958
1711072794830644200,11.776644287109375,0.023518294095993042,-0.043371398001909256,-0.009773836471140385
1711072794849603600,11.795603515625,0.0256563201546669,-0.06994401663541794,-0.005803215317428112
1711072794868563200,11.814563232421875,0.03481929376721382,-0.07116574794054031,-0.007330377586185932
1711072794887522600,11.8335224609375,0.030543239787220955,-0.05345066636800766,-0.006719512399286032
1711072794906482200,11.852482177734375,0.034208428114652634,-0.03634645417332649,-0.014049889519810677
1711072794925441500,11.871441650390626,0.029016077518463135,-0.04886918142437935,-0.013744457624852657
1711072794944401200,11.890401123046875,0.029626941308379173,-0.08674279600381851,-0.007024944759905338
1711072794963360500,11.909360595703125,0.04245510324835777,-0.11362084746360779,0.005192350596189499
1711072794982320000,11.928320068359374,0.0360410213470459,-0.12034036219120026,0.006719512399286032
1711072795001279500,11.947279541015625,0.021380268037319183,-0.09040798991918564,-0.000610864779446274
1711072795020239000,11.966239013671874,0.013133592903614044,-0.0412333719432354,-0.010995565913617611
1711072795039198700,11.98519873046875,0.007024944759905338,-0.012217295356094837,-0.01893680728971958
1711072795058158000,12.004157958984376,0.005803215317428112,-0.014049889519810677,-0.013133592903614044
1711072795077117400,12.023117431640625,0.009162971749901772,-0.029016077518463135,-0.006719512399286032
1711072795096077000,12.0420771484375,0.014049889519810677,-0.038789913058280945,-0.009773836471140385
1711072795115036400,12.061036376953124,0.017715077847242355,-0.024434590712189674,-0.003970621153712273
1711072795133996000,12.07999609375,0.015577051788568497,-0.01435532234609127,0.002443459117785096
1711072795152955400,12.098955322265626,0.021380268037319183,0.0054977829568088055,0.002443459117785096
1711072795171915000,12.1179150390625,0.01588248461484909,0.010995565913617611,0.004886918235570192
1711072795190874400,12.136874267578126,0.003665188793092966,-0.004886918235570192,0.005803215317428112
1711072795209834000,12.155833984375,0.007941242307424545,-0.05589412897825241,0.008857538923621178
1711072795228793600,12.174793701171875,0.023212861269712448,-0.08429934084415436,0.013744457624852657
1711072795247753000,12.1937529296875,0.018631376326084137,-0.053756099194288254,0.011606430634856224
1711072795266712600,12.212712646484375,0.017715077847242355,0.010079269297420979,-0.0030543238390237093
1711072795285672000,12.231671875,0.011606430634856224,0.04886918142437935,-0.020158538594841957
1711072795304631300,12.25063134765625,0.010995565913617611,0.03848448023200035,-0.022907428443431854
1711072795323591000,12.2695908203125,0.026878049597144127,0.011300998739898205,-0.005803215317428112
1711072795342550500,12.288550537109375,0.0308486707508564,-0.024434590712189674,0.001832594396546483
1711072795361510000,12.307510009765625,0.02932151034474373,-0.01282816007733345,-0.0009162971982732415
1711072795380469500,12.326469482421874,0.025961752980947495,0.034208428114652634,-0.021380268037319183
1711072795399428900,12.345428955078125,0.029016077518463135,0.033597562462091446,-0.02718348242342472
1711072795418388500,12.364388427734376,0.028099779039621353,-0.026572618633508682,-0.013744457624852657
1711072795437348000,12.38334814453125,0.029016077518463135,-0.07513637095689774,-0.008552107028663158
1711072795456307500,12.402307373046876,0.03481929376721382,-0.057726722210645676,-0.014049889519810677
1711072795475266800,12.421266845703125,0.014966187067329884,-0.04306596517562866,-0.0204639695584774
1711072795494226400,12.440226318359375,0.01435532234609127,-0.026572618633508682,-0.025045456364750862
1711072795513185800,12.459185791015624,0.016798781231045723,-0.03634645417332649,-0.016798781231045723
1711072795532145400,12.4781455078125,0.01588248461484909,-0.05283980444073677,-0.011606430634856224
1711072795551105000,12.49710498046875,0.015577051788568497,-0.023518294095993042,-0.011606430634856224
1711072795570064400,12.516064453125,0.011911863461136818,0.010995565913617611,-0.020158538594841957
1711072795589024000,12.53502392578125,0.010079269297420979,0.014660755172371864,-0.023212861269712448
1711072795607983600,12.553983642578125,0.010995565913617611,-0.004276053514331579,-0.013744457624852657
1711072795626943000,12.57294287109375,0.014049889519810677,-0.011300998739898205,-0.009773836471140385
1711072795645902300,12.59190234375,0.005192350596189499,-0.0021380267571657896,-0.02412915788590908
1711072795664862000,12.610862060546875,-0.0030543238390237093,0.021380268037319183,-0.032681263983249664
1711072795683821300,12.6298212890625,-0.0027488914784044027,0.029932374134659767,-0.029016077518463135
1711072795702781000,12.648781005859375,0.001221729558892548,0.026572618633508682,-0.0256563201546669
1711072795721740500,12.667740478515626,0.007024944759905338,0.019242240116000175,-0.01954767294228077
1711072795740700000,12.686699951171875,0.009773836471140385,0.010079269297420979,-0.0204639695584774
1711072795759659500,12.705659423828125,0.007330377586185932,0.020769402384757996,-0.014049889519810677
1711072795778619100,12.724619140625,-0.003359756199643016,0.030543239787220955,-0.017104214057326317
1711072795797578500,12.74357861328125,0.008552107028663158,0.01954767294228077,-0.019242240116000175
1711072795816537900,12.762537841796876,0.01802051067352295,-0.022907428443431854,-0.007024944759905338
1711072795835497500,12.78149755859375,0.021685699000954628,-0.04367683082818985,-0.0015271619195118546
1711072795854457000,12.80045703125,0.019853105768561363,-0.003665188793092966,-0.0009162971982732415
1711072795873416400,12.81941650390625,0.012522728182375431,0.01649334840476513,-0.009162971749901772
1711072795892376000,12.8383759765625,0.004276053514331579,0.007635809946805239,-0.015577051788568497
1711072795911335400,12.85733544921875,0.012217295356094837,0.012522728182375431,-0.01740964688360691
1711072795930295000,12.876294921875,0.010384701192378998,0.024740023538470268,-0.02260199747979641
1711072795949254700,12.895254638671876,-0.0009162971982732415,0.029626941308379173,-0.021380268037319183
1711072795968214000,12.914214111328125,0.010690134018659592,0.010079269297420979,-0.01740964688360691
1711072795987173400,12.93317333984375,0.01588248461484909,-0.020158538594841957,-0.0021380267571657896
1711072796006133000,12.952133056640625,0.023212861269712448,-0.025045456364750862,0.0027488914784044027
1711072796025092600,12.971092529296875,0.01435532234609127,0.0015271619195118546,-0.010690134018659592
1711072796044052000,12.990052001953124,0.011606430634856224,0.020769402384757996,-0.019853105768561363
1711072796063011600,13.009011474609375,0.007941242307424545,0.010079269297420979,-0.009773836471140385
1711072796081971000,13.027970947265626,0.018325943499803543,-0.015577051788568497,-0.006719512399286032
1711072796100930600,13.0469306640625,0.01649334840476513,-0.03756818547844887,-0.004581485874950886
1711072796119890200,13.06589013671875,0.009773836471140385,-0.023518294095993042,-0.010995565913617611
1711072796138849500,13.084849609375,0.00946840364485979,0.003359756199643016,-0.01649334840476513
1711072796157809200,13.10380908203125,0.01588248461484909,0.000305432389723137,-0.011606430634856224
1711072796176768500,13.1227685546875,0.020158538594841957,-0.0054977829568088055,-0.005803215317428112
1711072796195728100,13.14172802734375,0.025350889191031456,-0.00946840364485979,-0.007330377586185932
1711072796214687500,13.1606875,0.02412915788590908,-0.01588248461484909,-0.005192350596189499
1711072796233647000,13.179647216796875,0.023823726922273636,-0.02412915788590908,-0.002443459117785096
1711072796252606700,13.198606689453126,0.02107483521103859,-0.015271619893610477,-0.0021380267571657896
1711072796271566000,13.217566162109375,0.01954767294228077,-0.007024944759905338,-0.01282816007733345
1711072796290525700,13.236525634765625,0.013439024798572063,0.009162971749901772,-0.013439024798572063
1711072796309485000,13.255485107421874,0.007024944759905338,0.04673115536570549,-0.010690134018659592
1711072796328444700,13.274444580078125,0.013133592903614044,0.04764745384454727,-0.017104214057326317
1711072796347404000,13.293404052734376,0.010690134018659592,0.008246674202382565,-0.012217295356094837
1711072796366363600,13.31236376953125,0.008552107028663158,0.003665188793092966,-0.004581485874950886
1711072796385323000,13.331322998046875,0.00946840364485979,0.03145953640341759,-0.010995565913617611
1711072796404282600,13.35028271484375,0.007024944759905338,0.04245510324835777,-0.017715077847242355
1711072796423242200,13.3692421875,0.008552107028663158,0.033597562462091446,-0.011911863461136818
1711072796442201600,13.38820166015625,0.014660755172371864,0.012522728182375431,-0.004886918235570192
1711072796461161200,13.4071611328125,0.012217295356094837,0.008246674202382565,-0.004886918235570192
1711072796480120600,13.42612060546875,0.011606430634856224,0.03634645417332649,-0.007941242307424545
1711072796499080200,13.445080078125,0.011606430634856224,0.05711585655808449,-0.015271619893610477
1711072796518039600,13.46403955078125,0.007024944759905338,0.05528326332569122,-0.017715077847242355
1711072796536999200,13.482999267578125,0.009773836471140385,0.029932374134659767,-0.006719512399286032
1711072796555958500,13.50195849609375,0.017104214057326317,0.004581485874950886,-0.004581485874950886
1711072796574918100,13.520918212890624,0.01954767294228077,0.007941242307424545,-0.009773836471140385
1711072796593877500,13.53987744140625,0.012217295356094837,0.0360410213470459,-0.010384701192378998
1711072796612837000,13.558837158203126,0.011911863461136818,0.05528326332569122,-0.011911863461136818
1711072796631796700,13.577796630859375,0.016798781231045723,0.044898562133312225,-0.014660755172371864
1711072796650756000,13.596756103515625,0.021991131827235222,0.03543015569448471,-0.013133592903614044
1711072796669715700,13.6157158203125,0.025961752980947495,0.025045456364750862,-0.012522728182375431
1711072796688675000,13.634675048828125,0.023518294095993042,0.015271619893610477,-0.013439024798572063
1711072796707634700,13.653634765625,0.01954767294228077,0.020158538594841957,-0.014966187067329884
1711072796726594000,13.672593994140625,0.014966187067329884,0.022296564653515816,-0.018631376326084137
1711072796745553700,13.6915537109375,0.011911863461136818,0.018325943499803543,-0.02626718580722809
1711072796764513000,13.710512939453125,0.011606430634856224,0.04062250629067421,-0.023212861269712448
1711072796783472600,13.72947265625,0.007941242307424545,0.0665842592716217,-0.02412915788590908
1711072796802432000,13.748431884765624,0.006719512399286032,0.03695731982588768,-0.02779434807598591
1711072796821391600,13.7673916015625,0.00946840364485979,-0.010384701192378998,-0.019242240116000175
1711072796840351200,13.786351318359374,0.016798781231045723,-0.027488915249705315,-0.017715077847242355
1711072796859310600,13.805310546875,0.004886918235570192,-0.017104214057326317,-0.02412915788590908
1711072796878270000,13.82427001953125,0.0021380267571657896,-0.005803215317428112,-0.028405211865901947
1711072796897229600,13.8432294921875,0.004276053514331579,-0.015271619893610477,-0.02779434807598591
1711072796916189000,13.86218896484375,0.009773836471140385,-0.03909534588456154,-0.029932374134659767
1711072796935148500,13.8811484375,0.008246674202382565,-0.04214967042207718,-0.02718348242342472
1711072796954108200,13.900108154296875,0.007635809946805239,-0.033597562462091446,-0.027488915249705315
1711072796973067500,13.919067626953124,0.013439024798572063,-0.04825831577181816,-0.02779434807598591
1711072796992027100,13.938027099609375,0.018631376326084137,-0.0922405794262886,-0.010995565913617611
1711072797010986500,13.956986572265626,0.021685699000954628,-0.11667517572641373,0.001832594396546483
1711072797029946000,13.975946044921875,0.022296564653515816,-0.08643736690282822,-0.0021380267571657896
1711072797048905500,13.994905517578125,0.001832594396546483,-0.02260199747979641,-0.024434590712189674
1711072797067865000,14.013864990234374,-0.0021380267571657896,0.04062250629067421,-0.029932374134659767
1711072797086824400,14.032824462890625,0.007330377586185932,0.023518294095993042,-0.016187917441129684
1711072797105784000,14.0517841796875,0.009773836471140385,-0.012217295356094837,-0.010079269297420979
1711072797124743400,14.070743408203125,0.011300998739898205,-0.022907428443431854,-0.007024944759905338
1711072797143703000,14.089703125,0.010690134018659592,-0.001221729558892548,-0.004581485874950886
1711072797162662400,14.108662353515625,0.014966187067329884,0.02626718580722809,-0.008552107028663158
1711072797181622000,14.1276220703125,0.011300998739898205,0.022907428443431854,-0.010995565913617611
1711072797200581400,14.146581298828124,0.011300998739898205,0.019242240116000175,-0.01282816007733345
1711072797219541000,14.165541015625,0.008857538923621178,0.044898562133312225,-0.009773836471140385
1711072797238500400,14.184500244140626,0.013439024798572063,0.07391463965177536,-0.013133592903614044
1711072797257460000,14.2034599609375,0.013133592903614044,0.05589412897825241,-0.0054977829568088055
1711072797276419300,14.22241943359375,0.01435532234609127,0.011911863461136818,0.001221729558892548
1711072797295379000,14.24137890625,0.021380268037319183,-0.009162971749901772,-0.001221729558892548
1711072797314338300,14.26033837890625,0.018631376326084137,-0.013133592903614044,0.000610864779446274
1711072797333298000,14.2792978515625,0.011606430634856224,-0.002443459117785096,-0.005192350596189499
1711072797352257300,14.29825732421875,0.009773836471140385,0.017715077847242355,-0.011300998739898205
1711072797371217000,14.317216796875,0.006719512399286032,0.017104214057326317,-0.00946840364485979
1711072797390176300,14.33617626953125,0.0015271619195118546,0.007330377586185932,-0.007635809946805239
1711072797409135900,14.355135986328126,0.0030543238390237093,0.006719512399286032,-0.005803215317428112
1711072797428095200,14.37409521484375,-0.000610864779446274,-0.0030543238390237093,-0.019853105768561363
1711072797447054800,14.393054931640625,-0.004581485874950886,-0.011911863461136818,-0.015577051788568497
1711072797466014200,14.41201416015625,-0.004276053514331579,-0.035735588520765305,-0.002443459117785096
1711072797484973800,14.430973876953125,0.0015271619195118546,-0.04734202101826668,-0.0021380267571657896
1711072797503933200,14.44993310546875,-0.000610864779446274,-0.04367683082818985,-0.007635809946805239
1711072797522892500,14.468892578125,-0.000305432389723137,-0.02107483521103859,-0.005192350596189499
1711072797541852200,14.48785205078125,-0.002443459117785096,-0.009773836471140385,-0.004581485874950886
1711072797560811500,14.5068115234375,-0.003665188793092966,-0.006414080038666725,-0.003970621153712273
1711072797579771100,14.525771240234375,0.0015271619195118546,-0.014049889519810677,-0.0021380267571657896
1711072797598730500,14.54473046875,0.0054977829568088055,-0.03390299528837204,-0.003359756199643016
1711072797617690000,14.563690185546875,0.002443459117785096,-0.03756818547844887,-0.0021380267571657896
1711072797636649500,14.5826494140625,-0.004886918235570192,-0.0360410213470459,-0.013744457624852657
1711072797655609000,14.601609130859375,-0.006719512399286032,-0.053756099194288254,-0.024740023538470268
1711072797674568400,14.620568359375,-0.0009162971982732415,-0.06230820715427399,-0.028099779039621353
1711072797693528000,14.639528076171874,-0.027488915249705315,-0.050090912729501724,-0.0409279391169548
1711072797712487400,14.6584873046875,-0.07116574794054031,-0.0818558782339096,-0.0824667438864708
1711072797731447000,14.677447021484374,-0.14538581669330597,-0.22418737411499023,-0.12583814561367035
1711072797750406400,14.696406494140625,-0.3347539007663727,-0.5277871489524841,-0.21746785938739777
1711072797769366000,14.715365966796876,-0.44837474822998047,-0.8903354406356812,-0.14782927930355072
1711072797788325400,14.734325439453125,-0.32070401310920715,-1.2330305576324463,0.08552107214927673
1711072797807284700,14.75328466796875,-0.2556469142436981,-1.5167772769927979,0.10903936624526978
1711072797826244400,14.772244384765624,-0.46486809849739075,-1.08978271484375,-0.09621120244264603
1711072797845203700,14.79120361328125,-0.6688969135284424,-0.2522871494293213,-0.31459537148475647
1711072797864163300,14.810163330078124,-0.6945532560348511,0.25809037685394287,-0.39339691400527954
1711072797883122700,14.829122802734375,-0.6227766275405884,0.15088360011577606,-0.3643808364868164
1711072797902082300,14.848082275390626,-0.6239983439445496,-0.3582721948623657,-0.20433427393436432
1711072797921041700,14.867041748046875,-0.6783653497695923,-0.850934624671936,-0.07544180005788803
1711072797940001300,14.886001220703125,-0.6780598759651184,-1.0305289030075073,-0.0665842592716217
1711072797958960600,14.904960693359374,-0.7342594861984253,-1.0207550525665283,-0.06750056147575378
1711072797977920300,14.923920166015625,-0.778241753578186,-0.961195707321167,-0.0873536616563797
1711072797996879600,14.942879638671876,-0.7690787315368652,-0.8539889454841614,-0.15027274191379547
1711072798015839200,14.961839111328125,-0.8008437156677246,-0.7596103549003601,-0.1997527778148651
1711072798034798600,14.980798583984376,-0.8191696405410767,-0.664926290512085,-0.2406807243824005
1711072798053758200,14.99975830078125,-0.8206968307495117,-0.6075050234794617,-0.3072649836540222
1711072798072717600,15.018717529296875,-0.8405499458312988,-0.5122101306915283,-0.37751442193984985
1711072798091677000,15.037677001953124,-0.8338304162025452,-0.36621344089508057,-0.4050033390522003
1711072798110636500,15.056636474609375,-0.8277217745780945,-0.3017672002315521,-0.42943793535232544
1711072798129596000,15.075595947265626,-0.8011491298675537,-0.3225366175174713,-0.4679224193096161
1711072798148555300,15.09455517578125,-0.8093958497047424,-0.3228420317173004,-0.49480047821998596
1711072798167515000,15.113514892578126,-0.8432988524436951,-0.2877173125743866,-0.4883863925933838
1711072798186474200,15.13247412109375,-0.8521563410758972,-0.22510367631912231,-0.5042688846588135
1711072798205433900,15.151433837890625,-0.8271108865737915,-0.16279546916484833,-0.5045742988586426
1711072798224393200,15.170393310546874,-0.8310815095901489,-0.18356487154960632,-0.457843154668808
1711072798243352800,15.189352783203125,-0.8466585874557495,-0.22815799713134766,-0.4404335021972656
1711072798262312200,15.208312255859376,-0.8720094561576843,-0.27855435013771057,-0.44959646463394165
1711072798281271800,15.227271728515625,-0.8924734592437744,-0.25381430983543396,-0.4413498044013977
1711072798300231200,15.246231201171875,-0.887891948223114,-0.2260199636220932,-0.4098902642726898
1711072798319190800,15.265190673828124,-0.8744529485702515,-0.2055560052394867,-0.35766133666038513
1711072798338150100,15.284150146484375,-0.8487966060638428,-0.25809037685394287,-0.4153880476951599
1711072798357109500,15.303109619140624,-0.8646790981292725,-0.24465134739875793,-0.41935867071151733
1711072798376069000,15.322069091796875,-0.8900299668312073,-0.18173226714134216,-0.39339691400527954
1711072798395028500,15.341028564453126,-0.9117156863212585,-0.19822561740875244,-0.35094180703163147
1711072798413988000,15.359988037109375,-0.8836159110069275,-0.2510654330253601,-0.34055712819099426
1711072798432947500,15.378947509765625,-0.8545998334884644,-0.3124573230743408,-0.3194822669029236
1711072798451906800,15.39790673828125,-0.8585704565048218,-0.328645259141922,-0.2611446976661682
1711072798470866400,15.416866455078125,-0.8741474747657776,-0.31001389026641846,-0.22479823231697083
1711072798489825800,15.43582568359375,-0.8683443069458008,-0.34055712819099426,-0.32009315490722656
1711072798508785200,15.45478515625,-0.8576541543006897,-0.23182319104671478,-0.35246896743774414
1711072798527744800,15.473744873046876,-0.8249728679656982,-0.13530655205249786,-0.3738492429256439
1711072798546704100,15.4927041015625,-0.841160774230957,-0.07971785217523575,-0.4120282828807831
1711072798565663700,15.511663818359375,-0.8555161356925964,-0.09407317638397217,-0.4276053309440613
1711072798584623000,15.530623046875,-0.8998038172721863,-0.006108647678047419,-0.379347026348114
1711072798603582500,15.54958251953125,-0.9065233469009399,-0.04306596517562866,-0.3634645342826843
1711072798622542000,15.5685419921875,-0.8536835312843323,-0.1334739476442337,-0.38881543278694153
1711072798641501400,15.58750146484375,-0.8906408548355103,-0.11239911615848541,-0.42791077494621277
1711072798660461000,15.6064609375,-0.8814778923988342,0.08155044913291931,-0.49571678042411804
1711072798679420400,15.62542041015625,-0.8610138893127441,0.2458730787038803,-0.4923570156097412
1711072798698380000,15.644380126953125,-0.8497129082679749,0.2577849328517914,-0.4685332775115967
1711072798717339400,15.66333935546875,-0.8390227556228638,0.1795942485332489,-0.5115992426872253
1711072798736298800,15.682298828125,-0.8240565657615662,0.16584978997707367,-0.5665770769119263
1711072798755258400,15.70125830078125,-0.8194751143455505,0.20830489695072174,-0.6078104376792908
1711072798774217700,15.7202177734375,-0.795040488243103,0.2162461280822754,-0.6081159114837646
1711072798793177000,15.739177001953125,-0.8029817342758179,0.27580544352531433,-0.6062833070755005
1711072798812136700,15.75813671875,-0.8365793228149414,0.2626718580722809,-0.5958985686302185
1711072798831096000,15.777095947265625,-0.8338304162025452,0.21288637816905975,-0.5729911923408508
1711072798850055700,15.7960556640625,-0.814588189125061,0.19333870708942413,-0.5619956254959106
1711072798869015000,15.81501513671875,-0.7690787315368652,0.22846342623233795,-0.536339282989502
1711072798887974400,15.833974365234376,-0.7070759534835815,0.10567960888147354,-0.5439751148223877
1711072798906934000,15.85293408203125,-0.7064651250839233,0.13622283935546875,-0.518318772315979
1711072798925893400,15.871893310546875,-0.732121467590332,0.16584978997707367,-0.5021308660507202
1711072798944853000,15.89085302734375,-0.7382301092147827,0.18081597983837128,-0.4816668927669525
1711072798963812400,15.909812255859375,-0.7422007322311401,0.2559523284435272,-0.545502245426178
1711072798982771700,15.928771728515626,-0.7516691088676453,0.3503309488296509,-0.5958985686302185
1711072799001731300,15.9477314453125,-0.6579013466835022,0.3442223072052002,-0.6765327453613281
1711072799020690700,15.966690673828126,-0.6569850444793701,0.2254091054201126,-0.6728675365447998
1711072799039650000,15.985650146484375,-0.6591231226921082,0.2718348205089569,-0.6401863098144531
1711072799058609700,16.004609619140624,-0.6753110289573669,0.2938259541988373,-0.6041452884674072
1711072799077569000,16.023569091796876,-0.6823359727859497,0.18264856934547424,-0.5375609993934631
1711072799096528400,16.0425283203125,-0.674700140953064,0.2003636509180069,-0.5229002237319946
1711072799115488000,16.061488037109374,-0.767857015132904,0.29016077518463135,-0.5287034511566162
1711072799134447400,16.080447265625,-0.7648026943206787,0.27397283911705017,-0.4883863925933838
1711072799153407000,16.099406982421876,-0.7874047160148621,0.23029601573944092,-0.5076286196708679
1711072799172366300,16.118366455078124,-0.7504473924636841,0.32650721073150635,-0.5400044918060303
1711072799191325700,16.13732568359375,-0.6948586702346802,0.28527384996414185,-0.5708531141281128
1711072799210285300,16.156285400390626,-0.6908880472183228,0.24037529528141022,-0.5534434914588928
1711072799229244700,16.17524462890625,-0.722347617149353,0.2006690800189972,-0.5247328281402588
1711072799248204300,16.194204345703124,-0.749531090259552,0.2767217457294464,-0.5106829404830933
1711072799267163600,16.21316357421875,-0.7052434086799622,0.2412915825843811,-0.5027416944503784
1711072799286123000,16.232123046875,-0.6612611413002014,0.19364413619041443,-0.49999281764030457
1711072799305082600,16.25108251953125,-0.6157516837120056,0.16249002516269684,-0.5296197533607483
1711072799324042000,16.2700419921875,-0.6624828577041626,0.15699224174022675,-0.47983428835868835
1711072799343001600,16.289001708984376,-0.6053670048713684,0.1496618688106537,-0.4663952589035034
1711072799361961000,16.3079609375,-0.5436696410179138,0.061391908675432205,-0.4059196412563324
1711072799380920300,16.32692041015625,-0.5317577719688416,0.13225223124027252,-0.4263836145401001
1711072799399880000,16.3458798828125,-0.5262600183486938,0.13713914155960083,-0.4108065664768219
1711072799418839300,16.36483935546875,-0.536339282989502,0.1328630894422531,-0.37781986594200134
1711072799437799000,16.383798828125,-0.526870846748352,0.1285870373249054,-0.3555232882499695
1711072799456758300,16.40275830078125,-0.555276095867157,0.11331541836261749,-0.37629270553588867
1711072799475718000,16.4217177734375,-0.47952884435653687,0.10903936624526978,-0.4211912751197815
1711072799494677200,16.44067724609375,-0.5253437161445618,0.2003636509180069,-0.41386088728904724
1711072799513636600,16.45963671875,-0.49968740344047546,0.08582650125026703,-0.34605491161346436
1711072799532596200,16.47859619140625,-0.4422661066055298,0.0668896958231926,-0.2632827162742615
1711072799551555600,16.4975556640625,-0.4266890585422516,-0.03909534588456154,-0.19792018830776215
1711072799570515000,16.516514892578126,-0.4156934916973114,0.025045456364750862,-0.16035200655460358
1711072799589474600,16.535474609375,-0.44318240880966187,-0.0021380267571657896,-0.1182023361325264
1711072799608434000,16.554433837890624,-0.4214966893196106,0.07971785217523575,-0.1438586562871933
1711072799627393500,16.5733935546875,-0.3543015718460083,0.03237583488225937,-0.20891575515270233
1711072799646353000,16.592352783203125,-0.33658650517463684,-0.0720820426940918,-0.21319180727005005
1711072799665312500,16.6113125,-0.38179048895835876,0.09468404203653336,-0.27458372712135315
1711072799684271900,16.63027197265625,-0.3811796307563782,0.14508038759231567,-0.30115634202957153
1711072799703231200,16.649231201171876,-0.3646862804889679,0.1029307171702385,-0.24006985127925873
1711072799722190800,16.66819091796875,-0.3640754222869873,0.047036588191986084,-0.14660754799842834
1711072799741150200,16.687150146484374,-0.4150826036930084,0.0513126403093338,-0.15515965223312378
1711072799760109800,16.70610986328125,-0.36224281787872314,0.1487455666065216,-0.1698204129934311
1711072799779069200,16.725069091796875,-0.314289927482605,0.08582650125026703,-0.18753549456596375
1711072799798028800,16.74402880859375,-0.3228420317173004,0.04245510324835777,-0.2110537886619568
1711072799816988200,16.76298828125,-0.33139413595199585,0.0818558782339096,-0.22449280321598053
1711072799835947800,16.78194775390625,-0.37354379892349243,0.12034036219120026,-0.2571740746498108
1711072799854907100,16.8009072265625,-0.33231043815612793,0.07024945318698883,-0.27366742491722107
1711072799873866800,16.81986669921875,-0.3601047992706299,0.053756099194288254,-0.2886336147785187
1711072799892826000,16.838826171875,-0.34605491161346436,0.10751219838857651,-0.2706131041049957
1711072799911785500,16.857785400390625,-0.3454440236091614,0.061391908675432205,-0.19089524447917938
1711072799930745000,16.8767451171875,-0.324063777923584,0.057726722210645676,-0.14599667489528656
1711072799949704400,16.895704345703123,-0.31001389026641846,0.010690134018659592,-0.10354158282279968
1711072799968664000,16.9146640625,-0.2666424810886383,0.047952886670827866,-0.15607595443725586
1711072799987623400,16.93362353515625,-0.23762640357017517,0.035735588520765305,-0.16768237948417664
1711072800006583000,16.9525830078125,-0.22204934060573578,0.0873536616563797,-0.17287473380565643
1711072800025542400,16.97154248046875,-0.20738859474658966,0.13194678723812103,-0.1331685185432434
1711072800044502000,16.990501953125,-0.17898337543010712,0.0308486707508564,-0.08765909820795059
1711072800063461400,17.00946142578125,-0.1902843713760376,0.04764745384454727,-0.03695731982588768
1711072800082421000,17.0284208984375,-0.1536324918270111,0.0974329337477684,-0.01802051067352295
1711072800101380400,17.04738037109375,-0.11423171311616898,0.08857539296150208,-0.007635809946805239
1711072800120340000,17.066340087890627,-0.05955931544303894,0.1337793916463852,-0.010690134018659592
1711072800139299300,17.08529931640625,0.012217295356094837,0.15027274191379547,-0.009773836471140385
1711072800158258700,17.1042587890625,0.12003492563962936,0.0769689604640007,0.05253437161445618
1711072800177218300,17.12321826171875,0.15118902921676636,0.050090912729501724,0.048563748598098755
1711072800196178000,17.142177978515626,0.14019346237182617,0.0308486707508564,0.06352993845939636
1711072800215137300,17.16113720703125,0.23273947834968567,0.0360410213470459,0.09162971377372742
1711072800234097000,17.180096923828124,0.34788748621940613,-0.04673115536570549,0.1539379209280014
1711072800253056300,17.19905615234375,0.38667741417884827,-0.06017018109560013,0.2813032269477844
1711072800272016000,17.218015869140626,0.35216355323791504,0.024434590712189674,0.3197877109050751
1711072800290975200,17.236975341796875,0.42363473773002625,-0.05925388261675835,0.3585776388645172
1711072800309934800,17.255934814453123,0.49663305282592773,-0.14660754799842834,0.4159989058971405
1711072800328894200,17.274894287109376,0.5769617557525635,-0.1798996776342392,0.4682278633117676
1711072800347853800,17.293853759765625,0.6087267398834229,-0.05558869615197182,0.5287034511566162
1711072800366813200,17.312813232421874,0.6307178735733032,0.008246674202382565,0.5830704569816589
1711072800385772800,17.331772705078127,0.6841685771942139,-0.019853105768561363,0.6230821013450623
1711072800404732200,17.350732177734375,0.7556397318840027,-0.08429934084415436,0.6536253094673157
1711072800423691800,17.36969189453125,0.8231402635574341,-0.08124501258134842,0.6597339510917664
1711072800442651100,17.388651123046873,0.8964440822601318,-0.13072505593299866,0.6224712133407593
1711072800461610800,17.40761083984375,0.970969557762146,-0.18387030065059662,0.5919279456138611
1711072800480570000,17.426570068359375,1.0164790153503418,-0.10903936624526978,0.536644697189331
1711072800499529700,17.44552978515625,1.035110354423523,-0.11423171311616898,0.4862483739852905
1711072800518489300,17.4644892578125,1.043662428855896,-0.09957095980644226,0.5109884142875671
1711072800537448700,17.48344873046875,1.0867284536361694,0.006719512399286032,0.5568032264709473
1711072800556408000,17.502407958984374,1.0955859422683716,0.053145237267017365,0.6068941354751587
1711072800575367700,17.52136767578125,1.1016945838928223,-0.011300998739898205,0.7278453707695007
1711072800594327000,17.5403271484375,1.1362085342407227,-0.0030543238390237093,0.8237511515617371
1711072800613286700,17.55928662109375,1.183550477027893,-0.1646280586719513,0.8442151546478271
1711072800632246300,17.578246337890626,1.1850776672363281,-0.1798996776342392,0.759304940700531
1711072800651205600,17.59720556640625,1.1951569318771362,-0.15485422313213348,0.6875283122062683
1711072800670165200,17.616165283203124,1.2507456541061401,-0.006108647678047419,0.656679630279541
1711072800689124600,17.63512451171875,1.2647955417633057,0.012217295356094837,0.6267472505569458
1711072800708084200,17.654084228515625,1.2791508436203003,0.03634645417332649,0.6407971382141113
1711072800727043600,17.673043701171874,1.3503166437149048,-0.021991131827235222,0.6997455954551697
1711072800746003200,17.692003173828127,1.344208002090454,-0.1951712965965271,0.6801979541778564
1711072800764962600,17.710962646484376,1.2718204259872437,-0.18264856934547424,0.6414080262184143
1711072800783922200,17.729922119140625,1.3307689428329468,-0.09285144507884979,0.6282744407653809
1711072800802881500,17.748881591796874,1.3637555837631226,-0.09804379940032959,0.5247328281402588
1711072800821841200,17.767841064453126,1.306334376335144,-0.035124726593494415,0.40958482027053833
1711072800840800500,17.786800537109375,1.2748748064041138,0.2409861534833908,0.3689623177051544
1711072800859760000,17.805760009765624,1.2806780338287354,0.347582072019577,0.40347617864608765
1711072800878719700,17.8247197265625,1.2055416107177734,0.3326158821582794,0.5054906010627747
1711072800897679000,17.84367919921875,1.1902700662612915,0.18081597983837128,0.6023126840591431
1711072800916638700,17.862638671875,1.1701115369796753,-0.035735588520765305,0.5870410799980164
1711072800935598000,17.88159814453125,1.17194402217865,-0.1026252806186676,0.5354229807853699
1711072800954557400,17.900557373046876,1.1774418354034424,-0.04734202101826668,0.4889972507953644
1711072800973517000,17.91951708984375,1.1530072689056396,0.07116574794054031,0.46028661727905273
1711072800992476700,17.9384765625,1.1328487396240234,0.10690133273601532,0.44837474822998047
1711072801011436000,17.95743603515625,1.135597586631775,0.1282816082239151,0.4657844007015228
1711072801030395600,17.976395751953124,1.1319323778152466,0.07605266571044922,0.48044514656066895
1711072801049355000,17.99535498046875,1.0974185466766357,0.05528326332569122,0.49602219462394714
1711072801068314600,18.014314697265625,1.0399973392486572,-0.02107483521103859,0.47006043791770935
1711072801087274200,18.033274169921874,0.9917389750480652,-0.01588248461484909,0.4526508152484894
1711072801106233600,18.052233642578123,0.9877683520317078,0.013744457624852657,0.4416552484035492
1711072801125193000,18.07119287109375,0.9923498630523682,0.01802051067352295,0.4199695289134979
1711072801144152600,18.090152587890625,1.007315993309021,0.06475166976451874,0.3845393657684326
1711072801163112000,18.10911181640625,0.9758564829826355,0.15027274191379547,0.34727662801742554
1711072801182071600,18.128071533203126,0.9062178730964661,0.13072505593299866,0.35705047845840454
1711072801201031000,18.147031005859375,0.898276686668396,0.04581485688686371,0.34147340059280396
1711072801219990500,18.165990478515624,0.9275981783866882,0.0772743970155716,0.3533852696418762
1711072801238950100,18.1849501953125,0.9211840629577637,0.01954767294228077,0.35796675086021423
1711072801257909500,18.203909423828126,0.8833104968070984,0.030543239787220955,0.33078327775001526
1711072801276869000,18.222869140625,0.8472694754600525,0.15760311484336853,0.2730565667152405
1711072801295828500,18.241828369140624,0.7919861674308777,0.20952661335468292,0.2367101013660431
1711072801314788000,18.2607880859375,0.7971785664558411,0.18600831925868988,0.23273947834968567
1711072801333747500,18.27974755859375,0.8057306408882141,0.14172062277793884,0.26419901847839355
1711072801352707000,18.29870703125,0.8246674537658691,0.06627883017063141,0.2889390289783478
1711072801371666400,18.31766650390625,0.7980948090553284,-0.04459312930703163,0.26450446248054504
1711072801390626000,18.3366259765625,0.7794634699821472,-0.0873536616563797,0.2360992431640625
1711072801409585400,18.35558544921875,0.7929024696350098,-0.001221729558892548,0.18112140893936157
1711072801428545000,18.374544921875,0.7959567904472351,0.21349723637104034,0.1334739476442337
1711072801447504400,18.39350439453125,0.7614429593086243,0.2993237376213074,0.08063415437936783
1711072801466464000,18.412464111328124,0.7116574645042419,0.25381430983543396,0.06017018109560013
1711072801485423400,18.43142333984375,0.6667588949203491,0.24434591829776764,0.0668896958231926
1711072801504383000,18.450383056640625,0.6496546864509583,0.22937972843647003,0.08613193035125732
1711072801523342300,18.46934228515625,0.6517927050590515,0.17653992772102356,0.08674279600381851
1711072801542302000,18.488302001953127,0.6524035930633545,0.14813470840454102,0.06566796451807022
1711072801561261300,18.50726123046875,0.6569850444793701,0.23854269087314606,0.05192350596189499
1711072801580221000,18.526220947265625,0.627968966960907,0.3329212963581085,0.07055488228797913
1711072801599180300,18.54518017578125,0.5952877402305603,0.1798996776342392,0.06383536756038666
1711072801618140000,18.564139892578126,0.593149721622467,0.11545344442129135,0.06841685622930527
1711072801637099300,18.583099365234375,0.609948456287384,0.18906265497207642,0.0769689604640007
1711072801656059000,18.602058837890624,0.5500837564468384,0.2516762912273407,0.05711585655808449
1711072801675018200,18.621018310546877,0.5216785073280334,0.31184646487236023,0.0308486707508564
1711072801693977900,18.639977783203125,0.5143481492996216,0.31031930446624756,-0.01435532234609127
1711072801712937200,18.658937255859374,0.4584540128707886,0.33658650517463684,-0.023823726922273636
1711072801731896800,18.677896728515623,0.45875945687294006,0.2971857190132141,-0.029932374134659767
1711072801750856200,18.696856201171876,0.4462367296218872,0.24984370172023773,-0.012522728182375431
1711072801769815800,18.71581591796875,0.42088583111763,0.20952661335468292,0.003665188793092966
1711072801788775200,18.734775146484374,0.38301220536231995,0.1594357043504715,0.001221729558892548
1711072801807734800,18.75373486328125,0.3075704276561737,0.08307760953903198,-0.01588248461484909
1711072801826694100,18.772694091796875,0.26358816027641296,0.07238747924566269,-0.01954767294228077
1711072801845653800,18.79165380859375,0.16065743565559387,0.015271619893610477,-0.0616973415017128
1711072801864613000,18.810613037109373,0.11636973917484283,-0.044898562133312225,-0.13561198115348816
1711072801883572700,18.82957275390625,0.11606431007385254,-0.05558869615197182,-0.1331685185432434
1711072801902532000,18.848531982421875,0.06383536756038666,-0.18295399844646454,-0.08857539296150208
1711072801921491700,18.86749169921875,-0.0818558782339096,-0.37110036611557007,-0.01282816007733345
1711072801940451000,18.886451171875,-0.14233149588108063,-0.5390881896018982,-0.01740964688360691
1711072801959410700,18.90541064453125,-0.2110537886619568,-0.554665207862854,-0.10201441496610641
1711072801978370000,18.9243701171875,-0.3039052188396454,-0.4416552484035492,-0.17256930470466614
1711072801997329700,18.94332958984375,-0.4321868419647217,-0.4266890585422516,-0.15515965223312378
1711072802016289000,18.9622890625,-0.4828886091709137,-0.5506945848464966,-0.1802051067352295
1711072802035248400,18.981248291015625,-0.4841103255748749,-0.6169734001159668,-0.2110537886619568
1711072802054208000,19.0002080078125,-0.5494728684425354,-0.6371319890022278,-0.21716243028640747
1711072802073167400,19.01916748046875,-0.5891790986061096,-0.5904008150100708,-0.20219624042510986
1711072802092127000,19.038126953125,-0.6490437984466553,-0.5989528894424438,-0.18325942754745483
1711072802111086300,19.05708642578125,-0.7284562587738037,-0.6798924803733826,-0.16646064817905426
1711072802130046000,19.0760458984375,-0.8148936033248901,-0.7596103549003601,-0.15149445831775665
1711072802149005300,19.09500537109375,-0.8659008145332336,-0.851545512676239,-0.24434591829776764
1711072802167965000,19.11396484375,-0.9563088417053223,-0.7009673118591309,-0.29443681240081787
1711072802186924300,19.13292431640625,-1.0302234888076782,-0.5290089249610901,-0.33505934476852417
1711072802205884000,19.1518837890625,-1.0595449209213257,-0.48594292998313904,-0.3539961278438568
1711072802224843300,19.17084326171875,-1.1001675128936768,-0.4679224193096161,-0.40836310386657715
1711072802243803000,19.189802978515626,-1.174692988395691,-0.4059196412563324,-0.42882707715034485
1711072802262762200,19.20876220703125,-1.2034035921096802,-0.3274235129356384,-0.435241162776947
1711072802281721900,19.227721923828124,-1.1921026706695557,-0.31031930446624756,-0.4172206521034241
1711072802300681200,19.24668115234375,-1.2018764019012451,-0.3228420317173004,-0.36621344089508057
1711072802319640600,19.265640625,-1.2165372371673584,-0.4218021333217621,-0.3585776388645172
1711072802338600200,19.28460009765625,-1.2382229566574097,-0.5232056975364685,-0.4218021333217621
1711072802357559600,19.3035595703125,-1.2877029180526733,-0.4199695289134979,-0.4263836145401001
1711072802376519200,19.322519287109376,-1.277012825012207,-0.2528980076313019,-0.4987711012363434
1711072802395478500,19.341478515625,-1.2794562578201294,-0.13744457066059113,-0.5012145638465881
1711072802414438100,19.360438232421874,-1.2635737657546997,-0.12125665694475174,-0.5702422857284546
1711072802433397500,19.3793974609375,-1.2736530303955078,-0.13439024984836578,-0.5965094566345215
1711072802452357000,19.398357177734376,-1.3078614473342896,-0.13194678723812103,-0.5549706816673279
1711072802471316500,19.41731640625,-1.3359612226486206,-0.0922405794262886,-0.5968148708343506
1711072802490275800,19.43627587890625,-1.352149248123169,-0.011606430634856224,-0.5888736248016357
1711072802509235500,19.4552353515625,-1.3072506189346313,0.009773836471140385,-0.5955931544303894
1711072802528194800,19.47419482421875,-1.3069452047348022,0.02932151034474373,-0.5555815100669861
1711072802547154400,19.493154541015624,-1.3139700889587402,-0.0922405794262886,-0.6108647584915161
1711072802566113800,19.51211376953125,-1.3643665313720703,0.02107483521103859,-0.6322450637817383
1711072802585073400,19.531073486328125,-1.3307689428329468,0.11942406743764877,-0.6352993845939636
1711072802604032800,19.55003271484375,-1.321911334991455,0.11117739230394363,-0.7339540123939514
1711072802622992100,19.5689921875,-1.341153621673584,0.26939135789871216,-0.7293725609779358
1711072802641951700,19.58795166015625,-1.3158026933670044,0.370184063911438,-0.675616443157196
1711072802660911000,19.6069111328125,-1.2760965824127197,0.2528980076313019,-0.6249146461486816
1711072802679870700,19.62587060546875,-1.324354887008667,0.1539379209280014,-0.6261364221572876
1711072802698830000,19.644830078125,-1.396742343902588,0.2623664140701294,-0.5360338687896729
1711072802717789400,19.66378955078125,-1.4043781757354736,0.2919933497905731,-0.39675667881965637
1711072802736749000,19.6827490234375,-1.3854413032531738,0.13591741025447845,-0.337808221578598
1711072802755708400,19.70170849609375,-1.3573415279388428,0.0772743970155716,-0.40958482027053833
1711072802774668000,19.72066796875,-1.275791049003601,0.13988803327083588,-0.6255255341529846
1711072802793627400,19.73962744140625,-1.2705987691879272,0.30512696504592896,-0.8249728679656982
1711072802812587000,19.7585869140625,-1.2709041833877563,0.5690205693244934,-0.9630283117294312
1711072802831546400,19.77754638671875,-1.257465124130249,0.5424479246139526,-1.007010579109192
1711072802850505700,19.796505615234373,-1.2168426513671875,0.4428769648075104,-0.9770781993865967
1711072802869465300,19.81546533203125,-1.1783581972122192,0.3842339515686035,-0.8851430416107178
1711072802888424700,19.8344248046875,-1.184772253036499,0.2162461280822754,-0.7910698652267456
1711072802907384300,19.85338427734375,-1.1676679849624634,0.15607595443725586,-0.7617483735084534
1711072802926343700,19.87234375,-1.1646137237548828,0.2315177470445633,-0.7559451460838318
1711072802945303000,19.891302978515625,-1.138651967048645,0.36682429909706116,-0.7990111112594604
1711072802964262700,19.9102626953125,-1.0983349084854126,0.2968802750110626,-0.8432988524436951
1711072802983222000,19.929221923828123,-1.112079381942749,0.25350889563560486,-0.8087849617004395
1711072803002181600,19.948181640625,-1.1313215494155884,0.1847866028547287,-0.785877525806427
1711072803021141000,19.96714111328125,-1.0870338678359985,0.1847866028547287,-0.7394518256187439
1711072803040100400,19.986100341796874,-1.072678565979004,0.12400554865598679,-0.7186824083328247
1711072803059060000,20.00506005859375,-1.063210129737854,0.1490510106086731,-0.6786707639694214
1711072803078019300,20.024019287109375,-1.0222822427749634,0.15302163362503052,-0.6536253094673157
1711072803096979000,20.04297900390625,-1.0122029781341553,0.21685700118541718,-0.5513054728507996
1711072803115938300,20.061938232421873,-0.9169080257415771,0.15790854394435883,-0.5418370366096497
1711072803134897700,20.080897705078126,-0.8888082504272461,0.05864302068948746,-0.5253437161445618
1711072803153857000,20.09985693359375,-0.8946114778518677,0.12431098520755768,-0.5790998339653015
1711072803172816600,20.118816650390624,-0.8536835312843323,0.15149445831775665,-0.6053670048713684
1711072803191776000,20.13777587890625,-0.7696896195411682,0.08399390429258347,-0.6163625717163086
1711072803210735400,20.1567353515625,-0.7043271064758301,-0.12125665694475174,-0.6239983439445496
1711072803229695000,20.175695068359374,-0.7757982611656189,-0.03451386094093323,-0.6939423680305481
1711072803248654300,20.194654296875,-0.7098248600959778,-0.04062250629067421,-0.6298015713691711
1711072803267614000,20.213614013671876,-0.6896663308143616,0.2052505612373352,-0.5317577719688416
1711072803286573300,20.2325732421875,-0.6695078015327454,0.24831652641296387,-0.3274235129356384
1711072803305532700,20.25153271484375,-0.6563742160797119,0.0015271619195118546,-0.17623448371887207
1711072803324492300,20.2704921875,-0.5836812853813171,0.024740023538470268,-0.2571740746498108
1711072803343451600,20.28945166015625,-0.4874700903892517,0.046425722539424896,-0.4150826036930084
1711072803362411000,20.308410888671876,-0.4147771894931793,0.2052505612373352,-0.5097666382789612
1711072803381370600,20.32737060546875,-0.36621344089508057,0.01740964688360691,-0.472198486328125
1711072803400330000,20.346330078125,-0.36743515729904175,0.0412333719432354,-0.40744680166244507
1711072803419289300,20.365289306640626,-0.31031930446624756,0.15515965223312378,-0.3399462401866913
1711072803438249000,20.3842490234375,-0.2309068888425827,0.12980876863002777,-0.22204934060573578
1711072803457208300,20.403208251953124,-0.18387030065059662,0.08949168771505356,-0.14996729791164398
1711072803476167700,20.422167724609373,-0.10842850059270859,0.07757982611656189,-0.0974329337477684
1711072803495127300,20.441127197265626,-0.06108647957444191,0.05192350596189499,-0.015577051788568497
1711072803514086700,20.460086669921875,0.01802051067352295,0.10751219838857651,-0.007330377586185932
1711072803533046000,20.4790458984375,0.08888082206249237,0.03390299528837204,-0.038789913058280945
1711072803552005600,20.498005615234376,0.1744018942117691,0.007635809946805239,-0.03145953640341759
1711072803570965000,20.516965087890625,0.2562577724456787,0.11881320178508759,0.0027488914784044027
1711072803589924600,20.535924560546874,0.33322674036026,0.06230820715427399,0.0009162971982732415
1711072803608884000,20.554884033203123,0.4098902642726898,-0.0821613147854805,-0.01282816007733345
1711072803627843300,20.57384326171875,0.472198486328125,-0.011300998739898205,-0.022296564653515816
1711072803646802700,20.592802734375,0.5170970559120178,0.06230820715427399,0.06719512492418289
1711072803665762300,20.61176220703125,0.5574141144752502,-0.012522728182375431,0.2098320573568344
1711072803684721700,20.6307216796875,0.5876519083976746,-0.06902772188186646,0.2929096519947052
1711072803703681000,20.649680908203123,0.6374374032020569,-0.03237583488225937,0.36224281787872314
1711072803722640600,20.668640625,0.7354812026023865,-0.005192350596189499,0.37659814953804016
1711072803741600000,20.68760009765625,0.7599157691001892,-0.07605266571044922,0.383928507566452
1711072803760559400,20.706559326171874,0.8109229803085327,-0.0870482325553894,0.35613417625427246
1711072803779519000,20.72551904296875,0.8530726432800293,-0.08979712426662445,0.31154105067253113
1711072803798478300,20.744478271484375,0.870482325553894,-0.013744457624852657,0.3069595396518707
1711072803817437700,20.763437744140624,0.8967494964599609,-0.00946840364485979,0.32070401310920715
1711072803836397300,20.782397216796873,0.9114102721214294,0.007024944759905338,0.38698282837867737
1711072803855356700,20.801356689453126,0.9569196701049805,0.022907428443431854,0.4376846253871918
1711072803874316000,20.82031591796875,0.9737184643745422,-0.056810423731803894,0.5635227560997009
1711072803893275600,20.839275634765624,0.9221003651618958,-0.1432477980852127,0.6701186895370483
1711072803912235000,20.858235107421876,0.9184352159500122,-0.17165300250053406,0.7409789562225342
1711072803931194400,20.8771943359375,0.9608902931213379,-0.12553271651268005,0.8271108865737915
1711072803950154000,20.896154052734374,1.0115920305252075,-0.2364046722650528,0.7461713552474976
1711072803969113300,20.91511328125,1.0042617321014404,-0.23365578055381775,0.6267472505569458
1711072803988072700,20.93407275390625,1.0934479236602783,-0.12492185086011887,0.5033525824546814
1711072804007032300,20.9530322265625,1.1475094556808472,-0.0766635313630104,0.44379326701164246
1711072804025991700,20.97199169921875,1.1145228147506714,-0.1533270627260208,0.47097674012184143
1711072804044951000,20.990950927734374,1.0665699243545532,-0.2003636509180069,0.5170970559120178
1711072804063910700,21.00991064453125,1.0091485977172852,-0.21380266547203064,0.5528326034545898
1711072804082870000,21.0288701171875,1.0045671463012695,-0.16737695038318634,0.5485565662384033
1711072804101829400,21.047829345703125,0.981354296207428,-0.1792888194322586,0.5601630210876465
1711072804120789000,21.0667890625,0.9761618971824646,-0.2721402645111084,0.5580250024795532
1711072804139748400,21.085748291015626,1.018311619758606,-0.1805105358362198,0.5720748901367188
1711072804158707700,21.104707763671875,1.033583164215088,-0.29474225640296936,0.6029235124588013
1711072804177667300,21.123667236328124,0.9324851036071777,-0.26022839546203613,0.6462949514389038
1711072804196626700,21.142626708984373,0.887891948223114,-0.15546508133411407,0.7816014885902405
1711072804215586000,21.1615859375,0.898276686668396,-0.12034036219120026,0.8720094561576843
1711072804234545700,21.180545654296875,0.9126319885253906,-0.1386663019657135,0.7947350740432739
1711072804253505000,21.199505126953124,0.915075421333313,-0.16646064817905426,0.6334667801856995
1711072804272464600,21.218464599609376,0.9679152369499207,-0.0824667438864708,0.4871646761894226
1711072804291424000,21.237424072265625,1.0247256755828857,0.09498947113752365,0.4214966893196106
1711072804310383400,21.25638330078125,1.0360267162322998,0.21777328848838806,0.44470956921577454
1711072804329343000,21.275343017578123,1.043357014656067,0.15027274191379547,0.4303542375564575
1711072804348302300,21.29430224609375,1.027169108390808,-0.13194678723812103,0.40225446224212646
1711072804367261700,21.31326171875,0.9697478413581848,-0.1585194170475006,0.43493571877479553
1711072804386221300,21.33222119140625,0.94439697265625,0.08093958348035812,0.5534434914588928
1711072804405180700,21.3511806640625,0.9599739909172058,0.14630211889743805,0.5784889459609985
1711072804424140300,21.370140380859375,0.9297361969947815,0.15057817101478577,0.5283980369567871
1711072804443099600,21.389099609375,0.9364557266235352,0.15699224174022675,0.5140427350997925
1711072804462059000,21.40805908203125,0.9969313144683838,0.10415244847536087,0.5195404887199402
1711072804481018600,21.4270185546875,1.043357014656067,-0.03634645417332649,0.5781835317611694
1711072804499978000,21.44597802734375,0.9975422024726868,-0.15638138353824615,0.5888736248016357
1711072804518937300,21.464937255859375,0.9388991594314575,-0.11362084746360779,0.554665207862854
1711072804537897000,21.48389697265625,0.8729257583618164,-0.01802051067352295,0.5262600183486938
1711072804556856300,21.502856201171873,0.868955135345459,0.04673115536570549,0.5207622051239014
1711072804575815700,21.521815673828126,0.8304706811904907,0.035735588520765305,0.5039634704589844
1711072804594775300,21.540775390625,0.7913753390312195,-0.02412915788590908,0.4257727563381195
1711072804613734700,21.559734619140624,0.8035926222801208,0.07757982611656189,0.4098902642726898
1711072804632694000,21.578694091796876,0.8909462690353394,0.0873536616563797,0.3536907136440277
1711072804651653600,21.597653564453125,0.9914335608482361,0.06597339361906052,0.29443681240081787
1711072804670613000,21.616613037109374,0.9679152369499207,0.16859868168830872,0.33108872175216675
1711072804689572600,21.635572509765623,0.8698714375495911,0.09468404203653336,0.31612253189086914
1711072804708532000,21.654531982421876,0.7693842053413391,0.06841685622930527,0.2516762912273407
1711072804727491600,21.67349169921875,0.7510582208633423,0.21197007596492767,0.17715078592300415
1711072804746451000,21.692450927734374,0.7599157691001892,0.3280344009399414,0.15241076052188873
1711072804765410300,21.711410400390626,0.7935133576393127,0.3130682110786438,0.16218459606170654
1711072804784370000,21.730369873046875,0.8084795475006104,0.21502439677715302,0.22357651591300964
1711072804803329300,21.749329345703124,0.7272345423698425,-0.04886918142437935,0.18203771114349365
1711072804822289000,21.768288818359373,0.6814196705818176,-0.16187916696071625,0.1334739476442337
1711072804841248300,21.787248291015626,0.7644972801208496,0.02871064469218254,0.22266021370887756
1711072804860207900,21.806207763671875,0.8148936033248901,-0.010079269297420979,0.27855435013771057
1711072804879167200,21.825167236328124,0.8118392825126648,-0.06017018109560013,0.29901832342147827
1711072804898126800,21.844126953125,0.7898481488227844,-0.09437860548496246,0.28985533118247986
1711072804917086200,21.863086181640625,0.7455604672431946,-0.13988803327083588,0.28038692474365234
1711072804936045600,21.882045654296874,0.7082977294921875,-0.16126830875873566,0.24404047429561615
1711072804955005200,21.901005126953127,0.7147117853164673,-0.07422006875276566,0.1798996776342392
1711072804973964500,21.919964599609376,0.7357866168022156,0.10934479534626007,0.22876885533332825
1711072804992924200,21.938924072265625,0.7238747477531433,0.014660755172371864,0.2877173125743866
1711072805011883500,21.957883544921874,0.6734784245491028,-0.2813032269477844,0.24831652641296387
1711072805030843100,21.976843017578126,0.6276635527610779,-0.2809978127479553,0.14996729791164398
1711072805049802500,21.995802490234375,0.6832522749900818,0.0565049909055233,0.1130099818110466
1711072805068762000,22.01476220703125,0.6924152374267578,0.31093016266822815,0.21655155718326569
1711072805087721500,22.033721435546877,0.6918043494224548,0.1380554437637329,0.21502439677715302
1711072805106681000,22.05268115234375,0.6627882719039917,-0.11148282140493393,0.09529490768909454
1711072805125640400,22.071640380859375,0.6349939107894897,-0.04459312930703163,0.038789913058280945
1711072805144600000,22.09060009765625,0.5845975875854492,0.2055560052394867,0.05589412897825241
1711072805163559400,22.109559326171876,0.5400044918060303,0.25809037685394287,0.11636973917484283
1711072805182519000,22.12851904296875,0.5561923980712891,0.06322450190782547,0.07422006875276566
1711072805201478400,22.147478515625,0.535728394985199,-0.009773836471140385,0.053756099194288254
1711072805220437800,22.166437744140627,0.517707884311676,0.04428769648075104,0.06017018109560013
1711072805239397400,22.1853974609375,0.5180133581161499,0.0974329337477684,0.08796452730894089
1711072805258356700,22.204356689453125,0.5088503360748291,0.14721840620040894,0.13744457066059113
1711072805277316400,22.22331640625,0.5293143391609192,0.06505709886550903,0.14141519367694855
1711072805296275700,22.242275634765626,0.5155698657035828,-0.005803215317428112,0.14110976457595825
1711072805315235300,22.2612353515625,0.5134318470954895,0.0030543238390237093,0.14691297709941864
1711072805334194700,22.280194580078124,0.48563748598098755,0.03940077871084213,0.09926552325487137
1711072805353154300,22.299154296875,0.46975502371788025,0.17318016290664673,0.02412915788590908
1711072805372114000,22.318114013671874,0.4740310609340668,0.30604326725006104,-0.04306596517562866
1711072805391073300,22.3370732421875,0.42455101013183594,0.4456258714199066,-0.07391463965177536
1711072805410033000,22.356032958984375,0.42332929372787476,0.5583304166793823,-0.08826996386051178
1711072805428992300,22.3749921875,0.37262752652168274,0.4984656572341919,-0.023823726922273636
1711072805447951600,22.39395166015625,0.3656025826931,0.2611446976661682,0.033597562462091446
1711072805466911200,22.4129111328125,0.3652971386909485,0.09132428467273712,0.06994401663541794
1711072805485870600,22.43187060546875,0.37781986594200134,0.04764745384454727,0.08643736690282822
1711072805504830200,22.450830322265624,0.3906480371952057,0.06414080411195755,0.07483093440532684
1711072805523789600,22.46978955078125,0.36132651567459106,0.1441640853881836,0.017715077847242355
1711072805542749200,22.488749267578125,0.30115634202957153,0.2409861534833908,-0.0769689604640007
1711072805561708800,22.507708740234374,0.23793183267116547,0.34788748621940613,-0.14263692498207092
1711072805580668200,22.526668212890623,0.15210533142089844,0.38301220536231995,-0.15088360011577606
1711072805599627800,22.545627685546876,0.047952886670827866,0.2309068888425827,-0.1441640853881836
1711072805618587100,22.564587158203125,-0.07147117704153061,-0.03817904740571976,-0.10995566099882126
1711072805637546800,22.583546630859374,0.030543239787220955,-0.29016077518463135,-0.060781046748161316
1711072805656506000,22.602506103515626,0.056810423731803894,-0.45387253165245056,-0.01588248461484909
1711072805675465700,22.6214658203125,-0.12247838824987411,-0.401949018239975,-0.01802051067352295
1711072805694425000,22.640425048828124,-0.21716243028640747,-0.36835145950317383,-0.12492185086011887
1711072805713384700,22.659384765625,-0.2828303873538971,-0.33017241954803467,-0.20647229254245758
1711072805732344000,22.678343994140626,-0.39675667881965637,-0.32192572951316833,-0.168904110789299
1711072805751303700,22.6973037109375,-0.4825831651687622,-0.5595521330833435,-0.0766635313630104
1711072805770263000,22.716262939453124,-0.45906487107276917,-0.8796452879905701,-0.050090912729501724
1711072805789222700,22.73522265625,-0.45998117327690125,-1.0314451456069946,-0.06566796451807022
1711072805808182300,22.754182373046874,-0.5604684352874756,-0.924849271774292,-0.07635809481143951
1711072805827141600,22.7731416015625,-0.6218603253364563,-0.8304706811904907,-0.12980876863002777
1711072805846101000,22.79210107421875,-0.6786707639694214,-0.7852666974067688,-0.22846342623233795
1711072805865060600,22.811060546875,-0.7812960743904114,-0.7480039000511169,-0.3072649836540222
1711072805884020000,22.83002001953125,-0.8790343999862671,-0.6356047987937927,-0.2977965772151947
1711072805902979600,22.8489794921875,-0.9300416111946106,-0.7247910499572754,-0.33047783374786377
1711072805921939200,22.867939208984374,-1.0204496383666992,-0.7461713552474976,-0.3335321843624115
1711072805940898600,22.886898681640623,-1.1585050821304321,-0.6777544617652893,-0.3555232882499695
1711072805959858200,22.905858154296876,-1.1670571565628052,-0.6682860851287842,-0.4935787320137024
1711072805978817500,22.924817626953125,-1.21287202835083,-0.47097674012184143,-0.5913171172142029
1711072805997777200,22.943777099609374,-1.2318087816238403,-0.16126830875873566,-0.6420188546180725
1711072806016736500,22.962736572265626,-1.2156208753585815,-0.12980876863002777,-0.7211259007453918
1711072806035696000,22.981696044921875,-1.2479966878890991,-0.06780599057674408,-0.7525854110717773
1711072806054655500,23.000655517578124,-1.25715970993042,-0.023518294095993042,-0.7443387508392334
1711072806073615000,23.019614990234373,-1.2565488815307617,0.030543239787220955,-0.6878337264060974
1711072806092574500,23.038574462890626,-1.2638791799545288,-0.1389717310667038,-0.7116574645042419
1711072806111534000,23.0575341796875,-1.3096940517425537,-0.17776164412498474,-0.7476984858512878
1711072806130493400,23.076493408203124,-1.3377938270568848,0.003359756199643016,-0.7055488228797913
1711072806149453000,23.095453125,-1.3530654907226562,0.07024945318698883,-0.7113520503044128
1711072806168412700,23.11441259765625,-1.4007129669189453,0.06780599057674408,-0.66645348072052
1711072806187372000,23.1333720703125,-1.390328288078308,-0.013744457624852657,-0.695164144039154
1711072806206331600,23.15233154296875,-1.3881902694702148,0.009162971749901772,-0.6737838387489319
1711072806225291000,23.171291015625,-1.3539817333221436,-0.008857538923621178,-0.7055488228797913
1711072806244250400,23.19025048828125,-1.3567306995391846,0.003665188793092966,-0.7312051653862
