time,seconds_elapsed,z,y,x
1710957921491094800,0.1230947265625,-0.08429934084415436,-1.0961968898773193,0.09346231073141098
1710957921510053400,0.142053466796875,-0.018631376326084137,-0.536339282989502,0.0412333719432354
1710957921529012200,0.16101220703125,0.013744457624852657,0.03909534588456154,-0.010690134018659592
1710957921547971000,0.17997119140625,0.02260199747979641,0.45417797565460205,-0.038789913058280945
1710957921566930000,0.198929931640625,0.025045456364750862,0.6291907429695129,-0.05742128938436508
1710957921585888800,0.217888671875,0.0308486707508564,0.6050615906715393,-0.09285144507884979
1710957921604847600,0.23684765625,0.016798781231045723,0.3903425931930542,-0.12522727251052856
1710957921623806500,0.255806396484375,-0.011300998739898205,0.0717766135931015,-0.13103049993515015
1710957921642765300,0.274765380859375,-0.013439024798572063,-0.2159406989812851,-0.1233946830034256
1710957921661724200,0.29372412109375,0.009162971749901772,-0.3836230933666229,-0.12431098520755768
1710957921680683000,0.31268310546875,0.014049889519810677,-0.3900371491909027,-0.12553271651268005
1710957921699641900,0.331641845703125,-0.0015271619195118546,-0.2666424810886383,-0.1185077652335167
1710957921718600700,0.3506005859375,-0.01282816007733345,-0.09346231073141098,-0.10079269111156464
1710957921737559600,0.3695595703125,-0.01954767294228077,0.05833758786320686,-0.08002328872680664
1710957921756518400,0.388518310546875,-0.008552107028663158,0.16096286475658417,-0.07269290834665298
1710957921775477200,0.407477294921875,0.02412915788590908,0.17806708812713623,-0.06414080411195755
1710957921794436000,0.42643603515625,0.06719512492418289,0.12003492563962936,-0.0204639695584774
1710957921813395000,0.44539501953125,0.11759147047996521,-0.03237583488225937,0.06933315098285675
1710957921832353800,0.464353759765625,0.19120067358016968,-0.24037529528141022,0.15790854394435883
1710957921851312600,0.483312744140625,0.2660316228866577,-0.4728093445301056,0.21991132199764252
1710957921870271500,0.502271484375,0.2254091054201126,-0.6130027770996094,0.2565632164478302
1710957921889230600,0.521230712890625,0.09957095980644226,-0.6059778332710266,0.2886336147785187
1710957921908189400,0.540189453125,0.032681263983249664,-0.472198486328125,0.3090975880622864
1710957921927148300,0.559148193359375,0.04978547990322113,-0.18417572975158691,0.2409861534833908
1710957921946107100,0.578107177734375,0.06536252796649933,0.10231985151767731,0.13164135813713074
1710957921965066000,0.59706591796875,0.04550942778587341,0.3094030022621155,0.07422006875276566
1710957921984024800,0.61602490234375,0.013439024798572063,0.42821621894836426,0.06444623321294785
1710957922002983700,0.634983642578125,-0.03817904740571976,0.4416552484035492,0.05894844979047775
1710957922021942500,0.653942626953125,-0.06627883017063141,0.41325002908706665,0.04153880476951599
1710957922040901400,0.6729013671875,-0.08429934084415436,0.30054548382759094,0.06108647957444191
1710957922059860200,0.691860107421875,-0.1127045527100563,0.1957821547985077,0.09132428467273712
1710957922078819300,0.7108193359375,-0.164322629570961,0.1334739476442337,0.12614357471466064
1710957922097778200,0.729778076171875,-0.1957821547985077,0.19364413619041443,0.16218459606170654
1710957922116737000,0.748737060546875,-0.1902843713760376,0.3695732057094574,0.15668681263923645
1710957922135696000,0.76769580078125,-0.15729768574237823,0.5580250024795532,0.11667517572641373
1710957922154654700,0.78665478515625,-0.10201441496610641,0.7446441650390625,0.05283980444073677
1710957922173613600,0.805613525390625,-0.06200277432799339,0.9511164426803589,-0.06444623321294785
1710957922192572700,0.82457275390625,-0.15088360011577606,0.9917389750480652,-0.1484401375055313
1710957922211531500,0.843531494140625,-0.24251331388950348,0.8268054723739624,-0.18264856934547424
1710957922230490400,0.862490478515625,-0.18692462146282196,0.6139190793037415,-0.2467893660068512
1710957922249449200,0.88144921875,-0.036651886999607086,0.46059203147888184,-0.3851502537727356
1710957922268408300,0.900408203125,0.010384701192378998,0.4407389461994171,-0.5558869242668152
1710957922287367200,0.9193671875,-0.001832594396546483,0.48655378818511963,-0.6594285368919373
1710957922306326000,0.938325927734375,0.024740023538470268,0.5577195286750793,-0.6890554428100586
1710957922325284900,0.957284912109375,0.013133592903614044,0.6291907429695129,-0.6417134404182434
1710957922344244000,0.976243896484375,-0.035735588520765305,0.6878337264060974,-0.5766563415527344
1710957922363202800,0.995202880859375,-0.061391908675432205,0.685390293598175,-0.5076286196708679
1710957922382161700,1.01416162109375,-0.0412333719432354,0.6038398146629333,-0.4013381600379944
1710957922401120800,1.033120849609375,-0.023823726922273636,0.4718930423259735,-0.323452889919281
1710957922420079600,1.05207958984375,-0.01740964688360691,0.3402516841888428,-0.25320345163345337
1710957922439038500,1.07103857421875,-0.024434590712189674,0.3032943606376648,-0.16126830875873566
1710957922457997300,1.089997314453125,-0.02626718580722809,0.3741546869277954,-0.10354158282279968
1710957922476956200,1.1089560546875,-0.04764745384454727,0.43432486057281494,-0.12217295914888382
1710957922495915300,1.127915283203125,-0.08429934084415436,0.4355465769767761,-0.1536324918270111
1710957922514874000,1.1468740234375,-0.10476330667734146,0.40897396206855774,-0.14691297709941864
1710957922533833200,1.165833251953125,-0.08857539296150208,0.3601047992706299,-0.12125665694475174
1710957922552792000,1.1847919921875,-0.04734202101826668,0.26022839546203613,-0.0974329337477684
1710957922571751200,1.203751220703125,0.000305432389723137,0.0925460159778595,-0.09376774728298187
1710957922590710000,1.2227099609375,0.03848448023200035,-0.08521563559770584,-0.09132428467273712
1710957922609668900,1.2416689453125,0.035735588520765305,-0.185092031955719,-0.08277218043804169
1710957922628627700,1.260627685546875,0.0616973415017128,-0.14996729791164398,-0.07635809481143951
1710957922647586800,1.2795869140625,0.11362084746360779,-0.07452550530433655,-0.10995566099882126
1710957922666545700,1.298545654296875,0.13194678723812103,0,-0.15515965223312378
1710957922685504800,1.3175048828125,0.09651663154363632,0.032681263983249664,-0.1795942485332489
1710957922704463600,1.336463623046875,0.03298669680953026,0.03481929376721382,-0.21991132199764252
1710957922723422700,1.355422607421875,-0.03237583488225937,0.018631376326084137,-0.24373504519462585
1710957922742381600,1.374381591796875,-0.08155044913291931,0.035735588520765305,-0.24831652641296387
1710957922761340400,1.39334033203125,-0.11667517572641373,0.05803215503692627,-0.2419024556875229
1710957922780299500,1.412299560546875,-0.13591741025447845,0.040317077189683914,-0.21868959069252014
1710957922799258600,1.431258544921875,-0.13683371245861053,0.03787361457943916,-0.20280711352825165
1710957922818217500,1.450217529296875,-0.13194678723812103,0.05803215503692627,-0.18325942754745483
1710957922837176600,1.469176513671875,-0.1026252806186676,0.06505709886550903,-0.16615521907806396
1710957922856135400,1.488135498046875,-0.08002328872680664,0.03848448023200035,-0.16035200655460358
1710957922875094300,1.50709423828125,-0.06597339361906052,0.0412333719432354,-0.15546508133411407
1710957922894053400,1.526053466796875,-0.06994401663541794,0.10934479534626007,-0.13744457066059113
1710957922913012500,1.545012451171875,-0.07024945318698883,0.12980876863002777,-0.09010255336761475
1710957922931971300,1.563971435546875,-0.059864748269319534,0.05345066636800766,-0.03481929376721382
1710957922950930400,1.582930419921875,-0.07116574794054031,-0.05803215503692627,0.015577051788568497
1710957922969889300,1.60188916015625,-0.09346231073141098,-0.12614357471466064,0.049480047076940536
1710957922988848400,1.620848388671875,-0.09712749719619751,-0.15271618962287903,0.04978547990322113
1710957923007807500,1.639807373046875,-0.0977383628487587,-0.07880155742168427,0.03390299528837204
1710957923026766300,1.658766357421875,-0.10537417232990265,0.05528326332569122,0.022907428443431854
1710957923045725400,1.677725341796875,-0.09407317638397217,0.15118902921676636,0.023823726922273636
1710957923064684300,1.696684326171875,-0.07819069176912308,0.1533270627260208,0.013744457624852657
1710957923083643400,1.715643310546875,-0.08857539296150208,0.06750056147575378,0.008857538923621178
1710957923102602500,1.7346025390625,-0.09712749719619751,-0.030543239787220955,-0.003359756199643016
1710957923121561600,1.7535615234375,-0.08888082206249237,-0.08338304609060287,-0.0204639695584774
1710957923140520400,1.7725205078125,-0.10079269111156464,-0.06047561392188072,-0.026572618633508682
1710957923159479600,1.7914794921875,-0.11728604137897491,0.029932374134659767,-0.03451386094093323
1710957923178438700,1.810438720703125,-0.13133592903614044,0.1182023361325264,-0.04825831577181816
1710957923197397500,1.8293974609375,-0.16218459606170654,0.10140355676412582,-0.03329212963581085
1710957923216356600,1.848356689453125,-0.18692462146282196,0.0030543238390237093,0.004276053514331579
1710957923235315700,1.867315673828125,-0.18661919236183167,-0.1029307171702385,-0.0009162971982732415
1710957923254274800,1.88627490234375,-0.17348559200763702,-0.15271618962287903,-0.035735588520765305
1710957923273233700,1.905233642578125,-0.14996729791164398,-0.12095122784376144,-0.056199558079242706
1710957923292192800,1.92419287109375,-0.12156209349632263,-0.06811141967773438,-0.04276053607463837
1710957923311151900,1.94315185546875,-0.09193515032529831,-0.024434590712189674,-0.017104214057326317
1710957923330111000,1.962111083984375,-0.09590577334165573,0.010079269297420979,-0.011911863461136818
1710957923349069800,1.98106982421875,-0.11362084746360779,0.015577051788568497,0.017104214057326317
1710957923368029000,2.00002880859375,-0.09804379940032959,0.007330377586185932,0.0256563201546669
1710957923386988000,2.018988037109375,-0.06994401663541794,-0.0204639695584774,0.03329212963581085
1710957923405947100,2.037947021484375,-0.06383536756038666,-0.060781046748161316,0.0772743970155716
1710957923424906200,2.05690625,-0.06536252796649933,-0.08032871782779694,0.0818558782339096
1710957923443865300,2.075865234375,-0.06780599057674408,-0.12095122784376144,0.04581485688686371
1710957923462824200,2.09482421875,-0.059864748269319534,-0.18387030065059662,0.03451386094093323
1710957923481783300,2.113783203125,-0.029626941308379173,-0.19883649051189423,0.06841685622930527
1710957923500742400,2.132742431640625,-0.02107483521103859,-0.1750127524137497,0.08429934084415436
1710957923519701500,2.151701416015625,-0.07330377399921417,-0.17165300250053406,0.0824667438864708
1710957923538660600,2.17066064453125,-0.11484257876873016,-0.18723005056381226,0.0821613147854805
1710957923557619700,2.18961962890625,-0.07055488228797913,-0.1853974610567093,0.051618073135614395
1710957923576578600,2.20857861328125,-0.007024944759905338,-0.20616686344146729,0.049480047076940536
1710957923595538000,2.227537841796875,0.032070402055978775,-0.23762640357017517,0.08888082206249237
1710957923614496800,2.246496826171875,0.029016077518463135,-0.2678641974925995,0.13958260416984558
1710957923633455900,2.265455810546875,0,-0.2889390289783478,0.16859868168830872
1710957923652415000,2.2844150390625,-0.008857538923621178,-0.28435754776000977,0.1792888194322586
1710957923671374000,2.3033740234375,0.029016077518463135,-0.2608392536640167,0.13988803327083588
1710957923690333200,2.322333251953125,0.06841685622930527,-0.2052505612373352,0.08277218043804169
1710957923709292300,2.341292236328125,0.07544180005788803,-0.15607595443725586,0.04520399495959282
1710957923728251400,2.36025146484375,0.05955931544303894,-0.1288924664258957,0.014660755172371864
1710957923747210500,2.37921044921875,0.03695731982588768,-0.09346231073141098,-0.017104214057326317
1710957923766169600,2.398169677734375,0.014049889519810677,-0.08460476994514465,-0.032681263983249664
1710957923785128700,2.417128662109375,0.007941242307424545,-0.09346231073141098,-0.03176496922969818
1710957923804087800,2.436087890625,0.035124726593494415,-0.08002328872680664,-0.01954767294228077
1710957923823047000,2.455046875,0.06291907280683517,-0.03634645417332649,-0.019853105768561363
1710957923842006000,2.474006103515625,0.054672397673130035,-0.004886918235570192,0.003970621153712273
1710957923860965000,2.492965087890625,0.027488915249705315,-0.006719512399286032,0.059864748269319534
1710957923879924500,2.511924560546875,0.0021380267571657896,-0.019853105768561363,0.10659590363502502
1710957923898883600,2.530883544921875,-0.0015271619195118546,-0.0204639695584774,0.11423171311616898
1710957923917842700,2.5498427734375,0.03176496922969818,-0.028405211865901947,0.10965022444725037
1710957923936801800,2.5688017578125,0.10079269111156464,-0.08949168771505356,0.10903936624526978
1710957923955761000,2.587760986328125,0.17134757339954376,-0.16157373785972595,0.09132428467273712
1710957923974720000,2.606719970703125,0.19150610268115997,-0.2214384824037552,0.07452550530433655
1710957923993679000,2.62567919921875,0.16035200655460358,-0.2467893660068512,0.06261363625526428
1710957924012638200,2.64463818359375,0.11423171311616898,-0.24434591829776764,0.061391908675432205
1710957924031597300,2.663597412109375,0.07360920310020447,-0.22479823231697083,0.07910698652267456
1710957924050556700,2.682556640625,0.05345066636800766,-0.1945604383945465,0.09498947113752365
1710957924069515500,2.701515625,0.07299833744764328,-0.14019346237182617,0.08368847519159317
1710957924088475000,2.720474853515625,0.10598503798246384,-0.06261363625526428,0.04001164436340332
1710957924107434000,2.73943408203125,0.08399390429258347,-0.0054977829568088055,0.016798781231045723
1710957924126393000,2.75839306640625,0.01893680728971958,0.05497783049941063,0.011911863461136818
1710957924145352200,2.777352294921875,-0.05039634555578232,0.08002328872680664,-0.013744457624852657
1710957924164311300,2.796311279296875,-0.09468404203653336,0.04764745384454727,-0.028405211865901947
1710957924183270700,2.815270751953125,-0.07330377399921417,0.016798781231045723,-0.05955931544303894
1710957924202229800,2.834229736328125,-0.032070402055978775,-0.003970621153712273,-0.10567960888147354
1710957924221188900,2.85318896484375,-0.01893680728971958,-0.007330377586185932,-0.13041962683200836
1710957924240148000,2.87214794921875,-0.022907428443431854,0.011606430634856224,-0.13713914155960083
1710957924259107300,2.891107421875,-0.05955931544303894,0.038789913058280945,-0.15241076052188873
1710957924278066400,2.91006640625,-0.08674279600381851,0.060781046748161316,-0.17562362551689148
1710957924297025500,2.929025634765625,-0.07849612087011337,0.04917461425065994,-0.17898337543010712
1710957924315984600,2.947984619140625,-0.07299833744764328,0.014660755172371864,-0.17287473380565643
1710957924334944000,2.966944091796875,-0.08460476994514465,-0.011606430634856224,-0.16310089826583862
1710957924353903000,2.985903076171875,-0.09407317638397217,-0.025350889191031456,-0.14721840620040894
1710957924372862200,3.0048623046875,-0.06627883017063141,-0.01740964688360691,-0.13500112295150757
1710957924391821300,3.0238212890625,-0.025350889191031456,-0.015271619893610477,-0.13103049993515015
1710957924410780700,3.04278076171875,-0.01740964688360691,-0.011300998739898205,-0.13683371245861053
1710957924429739800,3.06173974609375,-0.03390299528837204,-0.0009162971982732415,-0.14110976457595825
1710957924448699000,3.080698974609375,-0.05589412897825241,0.011911863461136818,-0.1640172004699707
1710957924467658200,3.099658203125,-0.039706211537122726,0.013744457624852657,-0.19303326308727264
1710957924486617300,3.118617431640625,0.00946840364485979,-0.009162971749901772,-0.2107483446598053
1710957924505576400,3.137576416015625,0.01282816007733345,-0.05253437161445618,-0.21502439677715302
1710957924524535800,3.156535888671875,-0.017104214057326317,-0.07880155742168427,-0.19272783398628235
1710957924543495000,3.175494873046875,-0.05100720748305321,-0.08643736690282822,-0.1853974610567093
1710957924562454000,3.1944541015625,-0.05497783049941063,-0.08796452730894089,-0.18234314024448395
1710957924581413400,3.213413330078125,-0.022296564653515816,-0.02718348242342472,-0.2110537886619568
1710957924600372500,3.23237255859375,-0.020158538594841957,0.032681263983249664,-0.2516762912273407
1710957924619331600,3.25133154296875,-0.02718348242342472,0.03695731982588768,-0.23212862014770508
1710957924638291000,3.270291015625,0.000610864779446274,0.06933315098285675,-0.19272783398628235
1710957924657250000,3.28925,0.021685699000954628,0.11484257876873016,-0.1594357043504715
1710957924676209400,3.30820947265625,0.005192350596189499,0.10201441496610641,-0.14660754799842834
1710957924695168500,3.32716845703125,0.006414080038666725,0.09071341902017593,-0.17134757339954376
1710957924714127600,3.346127685546875,0.003970621153712273,0.06750056147575378,-0.18600831925868988
1710957924733087000,3.3650869140625,-0.015577051788568497,0.03481929376721382,-0.17592905461788177
1710957924752046000,3.384046142578125,-0.017715077847242355,0.023823726922273636,-0.17226386070251465
1710957924771005400,3.40300537109375,-0.013133592903614044,0.029016077518463135,-0.19761475920677185
1710957924789964500,3.421964599609375,-0.021685699000954628,0.04153880476951599,-0.19181154668331146
1710957924808923600,3.440923583984375,-0.012522728182375431,0.04886918142437935,-0.16249002516269684
1710957924827883000,3.459883056640625,0.0308486707508564,0.06200277432799339,-0.12736530601978302
1710957924846842000,3.478842041015625,0.06841685622930527,0.0513126403093338,-0.0977383628487587
1710957924865801500,3.497801513671875,0.0717766135931015,0.026878049597144127,-0.08826996386051178
1710957924884760600,3.516760498046875,0.07269290834665298,0.05803215503692627,-0.0977383628487587
1710957924903720000,3.535719970703125,0.11453714966773987,0.12431098520755768,-0.10384701192378998
1710957924922679000,3.554678955078125,0.13713914155960083,0.17318016290664673,-0.10354158282279968
1710957924941638100,3.57363818359375,0.08674279600381851,0.1747073233127594,-0.08368847519159317
1710957924960597500,3.592597412109375,0.001221729558892548,0.10231985151767731,-0.00946840364485979
1710957924979556600,3.611556640625,-0.03817904740571976,0.008552107028663158,0.08063415437936783
1710957924998516000,3.630515869140625,-0.0256563201546669,-0.03940077871084213,0.11728604137897491
1710957925017475000,3.64947509765625,0.009162971749901772,-0.04153880476951599,0.10415244847536087
1710957925036434400,3.668434326171875,0.04214967042207718,-0.018325943499803543,0.08949168771505356
1710957925055393800,3.687393798828125,0.05803215503692627,0.01588248461484909,0.07941242307424545
1710957925074353000,3.706352783203125,0.05742128938436508,0.03176496922969818,0.07574722915887833
1710957925093312000,3.72531201171875,0.05925388261675835,-0.011911863461136818,0.08491020649671555
1710957925112271400,3.744271240234375,0.04428769648075104,-0.05192350596189499,0.07635809481143951
1710957925131230500,3.76323046875,-0.000305432389723137,-0.0974329337477684,0.07269290834665298
1710957925150189800,3.78218994140625,-0.010384701192378998,-0.13072505593299866,0.07544180005788803
1710957925169149200,3.801149169921875,0.0308486707508564,-0.1026252806186676,0.05039634555578232
1710957925188108300,3.8201083984375,0.05406153202056885,-0.03756818547844887,-0.01435532234609127
1710957925207067600,3.839067626953125,0.031154103577136993,0.008552107028663158,-0.05742128938436508
1710957925226026800,3.85802685546875,0.009162971749901772,0.003359756199643016,-0.06322450190782547
1710957925244985900,3.87698583984375,0.015577051788568497,-0.032681263983249664,-0.06322450190782547
1710957925263945200,3.8959453125,0.032681263983249664,-0.051618073135614395,-0.08399390429258347
1710957925282904600,3.914904541015625,0.016798781231045723,-0.05925388261675835,-0.09193515032529831
1710957925301863700,3.93386376953125,-0.02412915788590908,-0.09896009415388107,-0.09193515032529831
1710957925320823000,3.952822998046875,-0.034208428114652634,-0.11117739230394363,-0.11331541836261749
1710957925339782100,3.9717822265625,-0.02260199747979641,-0.10690133273601532,-0.15760311484336853
1710957925358741500,3.990741455078125,-0.014660755172371864,-0.10537417232990265,-0.18356487154960632
1710957925377700900,4.009700927734375,-0.0027488914784044027,-0.07941242307424545,-0.16523891687393188
1710957925396660000,4.028659912109375,0.0009162971982732415,-0.017104214057326317,-0.1487455666065216
1710957925415619000,4.047619140625,0.008857538923621178,0.0256563201546669,-0.14996729791164398
1710957925434578400,4.066578369140625,0.04550942778587341,0.04550942778587341,-0.17867794632911682
1710957925453537800,4.085537841796875,0.07971785217523575,0.05253437161445618,-0.21319180727005005
1710957925472497000,4.104496826171875,0.07360920310020447,0.006414080038666725,-0.2153298407793045
1710957925491456300,4.123456298828125,0.04825831577181816,-0.0769689604640007,-0.19364413619041443
1710957925510415600,4.14241552734375,0.059864748269319534,-0.13744457066059113,-0.1792888194322586
1710957925529374700,4.161374755859375,0.09651663154363632,-0.16829325258731842,-0.14630211889743805
1710957925548334000,4.180333984375,0.13255766034126282,-0.12064579129219055,-0.0925460159778595
1710957925567293200,4.199293212890625,0.17104214429855347,-0.012522728182375431,-0.054672397673130035
1710957925586252500,4.21825244140625,0.1844811588525772,0.07819069176912308,-0.048563748598098755
1710957925605212000,4.2372119140625,0.12186752259731293,0.06841685622930527,-0.03329212963581085
1710957925624171000,4.2561708984375,0.004886918235570192,-0.04550942778587341,0.0513126403093338
1710957925643130400,4.27513037109375,-0.06566796451807022,-0.13103049993515015,0.1130099818110466
1710957925662089700,4.29408984375,-0.09957095980644226,-0.05803215503692627,0.036651886999607086
1710957925681048800,4.313048828125,-0.1383608728647232,0.005803215317428112,-0.002443459117785096
1710957925700008200,4.33200830078125,-0.10629047453403473,0.18173226714134216,0.004276053514331579
1710957925718967300,4.35096728515625,0.018325943499803543,0.389120876789093,0.006719512399286032
1710957925737926700,4.3699267578125,0.17898337543010712,0.5103775262832642,0.020158538594841957
1710957925756886000,4.388885986328125,0.29993459582328796,0.4889972507953644,0.07605266571044922
1710957925775845000,4.40784521484375,0.42455101013183594,0.2528980076313019,0.15699224174022675
1710957925794804500,4.426804443359375,0.6148353815078735,-0.014049889519810677,0.16218459606170654
1710957925813763800,4.445763916015625,0.8161153197288513,-0.1637117564678192,-0.03451386094093323
1710957925832723000,4.464722900390625,0.7498365044593811,-0.2049451321363449,-0.16126830875873566
1710957925851682300,4.483682373046875,0.235793799161911,-0.370184063911438,0.07360920310020447
1710957925870641700,4.5026416015625,-0.21960589289665222,-0.7562506198883057,0.5668824911117554
1710957925889600800,4.521600830078125,-0.14294235408306122,-0.6884446144104004,0.6261364221572876
1710957925908560100,4.54056005859375,0.14691297709941864,-0.3539961278438568,0.26939135789871216
1710957925927519500,4.55951953125,0.1948658674955368,-0.051618073135614395,-0.03756818547844887
1710957925946478600,4.578478515625,0.07513637095689774,0.4016436040401459,-0.17592905461788177
1710957925965438000,4.59743798828125,0.012217295356094837,0.8365793228149414,-0.2981020212173462
1710957925984397300,4.616397216796875,0.003970621153712273,0.8429933786392212,-0.3744601011276245
1710957926003356400,4.6353564453125,0.0054977829568088055,0.5070177912712097,-0.3341430425643921
1710957926022315800,4.654315673828125,0.008246674202382565,0.17226386070251465,-0.24465134739875793
1710957926041275100,4.673275146484375,-0.09834922850131989,-0.17348559200763702,-0.1279761642217636
1710957926060234500,4.692234375,-0.19883649051189423,-0.5149590373039246,-0.0027488914784044027
1710957926079193600,4.711193603515625,-0.1798996776342392,-0.5207622051239014,0.14691297709941864
1710957926098153000,4.730153076171875,-0.06383536756038666,-0.1637117564678192,0.2211330533027649
1710957926117112300,4.7491123046875,-0.00946840364485979,0.2669478952884674,0.15821397304534912
1710957926136071400,4.768071533203125,-0.040317077189683914,0.39278605580329895,0.11453714966773987
1710957926155030800,4.78703076171875,-0.06597339361906052,0.3396408259868622,0.10659590363502502
1710957926173990100,4.805990234375,0.030543239787220955,0.4324922561645508,-0.023823726922273636
1710957926192949200,4.82494921875,0.09834922850131989,0.56382817029953,-0.22388194501399994
1710957926211908600,4.84390869140625,-0.01893680728971958,0.40897396206855774,-0.2813032269477844
1710957926230868000,4.862867919921875,-0.1905898153781891,0.1081230640411377,-0.20861032605171204
1710957926249827300,4.881827392578125,-0.30482152104377747,-0.048563748598098755,-0.15485422313213348
1710957926268786400,4.900786376953125,-0.3634645342826843,-0.01588248461484909,-0.17684535682201385
1710957926287745800,4.919745849609375,-0.3906480371952057,0.10873392969369888,-0.08338304609060287
1710957926306705200,4.938705078125,-0.38667741417884827,0.3943132162094116,0.0873536616563797
1710957926325664500,4.95766455078125,-0.37690356373786926,0.7192932963371277,0.1853974610567093
1710957926344623600,4.97662353515625,-0.31062474846839905,1.025641918182373,0.12064579129219055
1710957926363583000,4.9955830078125,-0.185092031955719,1.0720677375793457,0.03848448023200035
1710957926382542000,5.0145419921875,-0.06047561392188072,0.7770199775695801,-0.014660755172371864
1710957926401501700,5.033501708984375,0.04214967042207718,0.43921178579330444,-0.03940077871084213
1710957926420460800,5.052460693359375,0.10567960888147354,0.20708316564559937,-0.013744457624852657
1710957926439420200,5.071420166015625,0.046425722539424896,0.043371398001909256,0.04245510324835777
1710957926458379500,5.090379638671875,-0.07574722915887833,-0.1536324918270111,0.09437860548496246
1710957926477338600,5.109338623046875,-0.13988803327083588,-0.26969680190086365,0.14172062277793884
1710957926496298000,5.128298095703125,-0.07757982611656189,-0.28924447298049927,0.17134757339954376
1710957926515257300,5.14725732421875,0.013133592903614044,-0.23518294095993042,0.15027274191379547
1710957926534216700,5.166216796875,0.03695731982588768,-0.1997527778148651,0.1331685185432434
1710957926553175800,5.18517578125,0.032070402055978775,-0.19181154668331146,0.16249002516269684
1710957926572135200,5.20413525390625,0.01954767294228077,-0.12736530601978302,0.1334739476442337
1710957926591094500,5.223094482421875,0.0027488914784044027,-0.037262752652168274,0.04428769648075104
1710957926610054000,5.242053955078125,-0.018325943499803543,0.011911863461136818,-0.020158538594841957
1710957926629013000,5.261012939453125,-0.057726722210645676,0.11453714966773987,-0.001221729558892548
1710957926647972400,5.279972412109375,-0.07147117704153061,0.18661919236183167,0.014049889519810677
1710957926666931700,5.298931640625,-0.0616973415017128,0.1997527778148651,-0.007941242307424545
1710957926685891000,5.31789111328125,-0.04978547990322113,0.1637117564678192,-0.06597339361906052
1710957926704850200,5.33685009765625,-0.09651663154363632,0.15149445831775665,-0.08552107214927673
1710957926723809500,5.3558095703125,-0.12980876863002777,0.15607595443725586,-0.0824667438864708
1710957926742769000,5.374768798828125,-0.10109812021255493,0.08460476994514465,-0.1233946830034256
1710957926761728300,5.393728271484375,-0.06505709886550903,-0.07086031138896942,-0.14294235408306122
1710957926780687600,5.4126875,-0.03237583488225937,-0.2052505612373352,-0.1493564397096634
1710957926799646700,5.431646728515625,-0.0027488914784044027,-0.25809037685394287,-0.1591302752494812
1710957926818606000,5.450606201171875,0.001832594396546483,-0.2464839369058609,-0.20677772164344788
1710957926837565400,5.4695654296875,-0.008246674202382565,-0.24984370172023773,-0.2837466895580292
1710957926856524800,5.48852490234375,-0.10079269111156464,-0.21349723637104034,-0.32528549432754517
1710957926875484000,5.50748388671875,-0.18570289015769958,-0.1282816082239151,-0.3689623177051544
1710957926894443300,5.526443359375,-0.13011419773101807,-0.11881320178508759,-0.3903425931930542
1710957926913402600,5.545402587890625,0.07574722915887833,-0.05864302068948746,-0.4608974754810333
1710957926932362000,5.564362060546875,0.21410810947418213,0.047036588191986084,-0.5048797130584717
1710957926951321300,5.5833212890625,0.21685700118541718,0.021380268037319183,-0.45387253165245056
1710957926970280400,5.602280517578125,0.16096286475658417,-0.05528326332569122,-0.33719736337661743
1710957926989239800,5.62123974609375,0.10201441496610641,-0.09071341902017593,-0.26022839546203613
1710957927008199200,5.64019921875,0.012522728182375431,-0.1533270627260208,-0.18600831925868988
1710957927027158500,5.659158447265625,-0.01954767294228077,-0.2098320573568344,-0.10629047453403473
1710957927046117600,5.67811767578125,0.003970621153712273,-0.1951712965965271,-0.032070402055978775
1710957927065077000,5.697076904296875,0.0665842592716217,-0.11331541836261749,0.037262752652168274
1710957927084036400,5.716036376953125,0.0204639695584774,-0.004581485874950886,0.1285870373249054
1710957927102995700,5.73499560546875,-0.03390299528837204,0.006414080038666725,0.19608759880065918
1710957927121955000,5.753955078125,-0.06841685622930527,0.02412915788590908,0.23335035145282745
1710957927140914200,5.7729140625,-0.09010255336761475,0.023212861269712448,0.22968515753746033
1710957927159873800,5.791873779296875,-0.10690133273601532,0.016187917441129684,0.19853104650974274
1710957927178833000,5.8108330078125,-0.12553271651268005,-0.08491020649671555,0.19394956529140472
1710957927197792300,5.829792236328125,-0.09651663154363632,-0.15515965223312378,0.15057817101478577
1710957927216751600,5.848751708984375,-0.011300998739898205,-0.13103049993515015,0.08368847519159317
1710957927235711000,5.8677109375,0.06627883017063141,-0.022907428443431854,-0.017104214057326317
1710957927254670300,5.88667041015625,0.0769689604640007,0.08582650125026703,-0.08888082206249237
1710957927273629400,5.90562939453125,-0.011606430634856224,0.06841685622930527,-0.09957095980644226
1710957927292588800,5.9245888671875,-0.07391463965177536,-0.03023780696094036,-0.08979712426662445
1710957927311548200,5.943548095703125,-0.10537417232990265,-0.0769689604640007,-0.06963858753442764
1710957927330507500,5.962507568359375,-0.051618073135614395,-0.08063415437936783,-0.032070402055978775
1710957927349467000,5.981466796875,0.04428769648075104,-0.000610864779446274,-0.014049889519810677
1710957927368426000,6.000426025390625,0.0668896958231926,0.034208428114652634,0.03909534588456154
1710957927387385300,6.01938525390625,0.03298669680953026,0.001832594396546483,0.10842850059270859
1710957927406344700,6.0383447265625,-0.004886918235570192,-0.007024944759905338,0.14233149588108063
1710957927425304000,6.057303955078125,-0.06291907280683517,-0.001221729558892548,0.16310089826583862
1710957927444263400,6.076263427734375,-0.10598503798246384,-0.029626941308379173,0.19120067358016968
1710957927463222800,6.095222900390625,-0.0717766135931015,-0.036651886999607086,0.17043127119541168
1710957927482182000,6.114181884765625,0.003359756199643016,-0.05070177838206291,0.14782927930355072
1710957927501141200,6.133141357421875,0.06475166976451874,-0.09315688163042068,0.1484401375055313
1710957927520100900,6.152100830078125,0.06414080411195755,-0.10231985151767731,0.16798780858516693
1710957927539060000,6.17106005859375,0.001832594396546483,-0.10201441496610641,0.17837251722812653
1710957927558019300,6.190019287109375,-0.03481929376721382,-0.1182023361325264,0.1542433500289917
1710957927576978700,6.208978759765625,-0.044898562133312225,-0.12675444781780243,0.12675444781780243
1710957927595938000,6.22793798828125,-0.06322450190782547,-0.08613193035125732,0.09560033679008484
1710957927614897400,6.2468974609375,-0.051618073135614395,-0.048563748598098755,0.07788526266813278
1710957927633856800,6.265856689453125,0.004581485874950886,-0.0360410213470459,0.061391908675432205
1710957927652816100,6.284816162109375,0.06566796451807022,-0.04550942778587341,0.02412915788590908
1710957927671775200,6.303775146484375,0.08124501258134842,-0.05100720748305321,-0.01282816007733345
1710957927690734600,6.322734619140625,0.053145237267017365,-0.0409279391169548,-0.032070402055978775
1710957927709694200,6.341694091796875,0.02412915788590908,-0.04062250629067421,-0.037262752652168274
1710957927728653300,6.3606533203125,0.02626718580722809,-0.019242240116000175,-0.046425722539424896
1710957927747612700,6.37961279296875,0.033597562462091446,-0.014966187067329884,-0.041844237595796585
1710957927766572000,6.398572021484375,0.03023780696094036,-0.026572618633508682,-0.018325943499803543
1710957927785531400,6.417531494140625,0.01802051067352295,-0.021991131827235222,0.009162971749901772
1710957927804490800,6.43649072265625,0.02779434807598591,-0.01802051067352295,0.006414080038666725
1710957927823450000,6.4554501953125,0.039706211537122726,-0.001221729558892548,-0.001832594396546483
1710957927842409500,6.474409423828125,0.014966187067329884,-0.006414080038666725,0.005803215317428112
1710957927861368800,6.493368896484375,-0.005192350596189499,-0.00946840364485979,0.025961752980947495
1710957927880328200,6.512328125,-0.0027488914784044027,-0.005192350596189499,0.033597562462091446
1710957927899287600,6.53128759765625,0.021685699000954628,-0.006108647678047419,0.017104214057326317
1710957927918247000,6.550246826171875,0.035735588520765305,-0.006719512399286032,0.0009162971982732415
1710957927937206300,6.569206298828125,0.03695731982588768,-0.010079269297420979,-0.014049889519810677
1710957927956165600,6.58816552734375,0.03909534588456154,0.004886918235570192,-0.035124726593494415
1710957927975125000,6.607125,0.023823726922273636,0.015271619893610477,-0.05283980444073677
1710957927994084400,6.62608447265625,0.012217295356094837,0.006414080038666725,-0.04673115536570549
1710957928013043700,6.645043701171875,0.002443459117785096,-0.011606430634856224,-0.05436696484684944
1710957928032003000,6.664003173828125,0.0027488914784044027,-0.004276053514331579,-0.08307760953903198
1710957928050962400,6.68296240234375,0.009162971749901772,-0.021380268037319183,-0.08796452730894089
1710957928069921800,6.701921875,0.016798781231045723,-0.044898562133312225,-0.07391463965177536
1710957928088881200,6.720881103515625,0.021380268037319183,-0.03237583488225937,-0.029626941308379173
1710957928107840500,6.739840576171875,0.04428769648075104,-0.006108647678047419,0.008246674202382565
1710957928126800000,6.7587998046875,0.05955931544303894,0.019853105768561363,0.007941242307424545
1710957928145759200,6.77775927734375,0.04153880476951599,0.004276053514331579,-0.000305432389723137
1710957928164718600,6.796718505859375,0.021685699000954628,0.007330377586185932,0.0027488914784044027
1710957928183678000,6.815677978515625,0.015271619893610477,0.0256563201546669,0.00946840364485979
1710957928202637300,6.83463720703125,0.03145953640341759,0.02412915788590908,0.00946840364485979
1710957928221596700,6.8535966796875,0.0412333719432354,0.011300998739898205,-0.0027488914784044027
1710957928240556000,6.87255615234375,0.03023780696094036,-0.0009162971982732415,-0.006719512399286032
1710957928259515400,6.891515380859375,0.036651886999607086,0.03634645417332649,-0.03451386094093323
1710957928278474800,6.910474853515625,0.09407317638397217,0.17653992772102356,-0.10476330667734146
1710957928297434000,6.92943408203125,0.16554436087608337,0.2987128794193268,-0.09987638890743256
1710957928316393500,6.9483935546875,0.12461641430854797,0.23854269087314606,-0.06352993845939636
1710957928335352800,6.967352783203125,0.009162971749901772,0.10537417232990265,-0.008246674202382565
1710957928354312200,6.986312255859375,-0.025350889191031456,0.0054977829568088055,0.038789913058280945
1710957928373271800,7.005271728515625,0.01954767294228077,-0.08613193035125732,0.034208428114652634
1710957928392231200,7.024231201171875,0.08765909820795059,-0.1591302752494812,-0.009162971749901772
1710957928411190500,7.0431904296875,0.1444695144891739,-0.1444695144891739,0.004581485874950886
1710957928430150000,7.06214990234375,0.10354158282279968,-0.01893680728971958,0.01435532234609127
1710957928449109200,7.081109130859375,0.01802051067352295,0.09407317638397217,-0.048563748598098755
1710957928468068600,7.100068603515625,-0.005192350596189499,0.0821613147854805,-0.0772743970155716
1710957928487028000,7.119028076171875,0.030543239787220955,0.0256563201546669,-0.06322450190782547
1710957928505987300,7.1379873046875,0.0824667438864708,-0.016187917441129684,-0.08032871782779694
1710957928524946700,7.15694677734375,0.09285144507884979,-0.023823726922273636,-0.1078176349401474
1710957928543906000,7.175906005859375,0.06811141967773438,-0.0360410213470459,-0.14019346237182617
1710957928562865700,7.19486572265625,0.04062250629067421,-0.004886918235570192,-0.18753549456596375
1710957928581825000,7.213824951171875,0.036651886999607086,-0.001832594396546483,-0.19242240488529205
1710957928600784400,7.232784423828125,0.05253437161445618,-0.006108647678047419,-0.17318016290664673
1710957928619743700,7.25174365234375,0.054672397673130035,-0.012217295356094837,-0.12583814561367035
1710957928638703000,7.270703125,0.04764745384454727,-0.03909534588456154,-0.057726722210645676
1710957928657662700,7.289662841796875,-0.001832594396546483,-0.06505709886550903,0.024434590712189674
1710957928676622000,7.3086220703125,-0.08093958348035812,-0.0565049909055233,0.1078176349401474
1710957928695581400,7.32758154296875,-0.11636973917484283,-0.012522728182375431,0.1902843713760376
1710957928714540800,7.346540771484375,-0.11178825795650482,0.053145237267017365,0.2309068888425827
1710957928733500200,7.365500244140625,-0.10659590363502502,0.09712749719619751,0.2309068888425827
1710957928752459500,7.38445947265625,-0.11484257876873016,0.10018182545900345,0.20372340083122253
1710957928771419000,7.4034189453125,-0.12064579129219055,0.08552107214927673,0.17165300250053406
1710957928790378500,7.42237841796875,-0.11392628401517868,-0.010079269297420979,0.1737910360097885
1710957928809337900,7.441337890625,-0.08429934084415436,-0.05894844979047775,0.1331685185432434
1710957928828297200,7.460297119140625,-0.05833758786320686,-0.09590577334165573,0.1389717310667038
1710957928847256600,7.479256591796875,-0.016798781231045723,-0.13713914155960083,0.08582650125026703
1710957928866216000,7.4982158203125,0.000305432389723137,-0.19364413619041443,0.04214967042207718
1710957928885175600,7.517175537109375,-0.04306596517562866,-0.29138249158859253,0.006108647678047419
1710957928904135000,7.536135009765625,-0.08277218043804169,-0.3295615613460541,-0.007024944759905338
1710957928923094300,7.55509423828125,-0.0720820426940918,-0.33689191937446594,0.010690134018659592
1710957928942054000,7.574053955078125,-0.023823726922273636,-0.2880227565765381,0.012217295356094837
1710957928961013200,7.59301318359375,0.0256563201546669,-0.20769402384757996,0.01954767294228077
1710957928979972600,7.61197265625,0.040317077189683914,-0.16615521907806396,0.004886918235570192
1710957928998932000,7.630931884765625,0.013439024798572063,-0.15088360011577606,-0.041844237595796585
1710957929017891600,7.6498916015625,-0.034208428114652634,-0.13988803327083588,-0.09407317638397217
1710957929036851000,7.668850830078125,-0.05742128938436508,-0.1331685185432434,-0.11972949653863907
1710957929055810300,7.687810302734375,-0.06047561392188072,-0.10965022444725037,-0.09132428467273712
1710957929074769700,7.706769775390625,-0.05283980444073677,-0.05283980444073677,-0.0665842592716217
1710957929093729300,7.725729248046875,-0.03909534588456154,0.032070402055978775,-0.07757982611656189
1710957929112688600,7.744688720703125,-0.0009162971982732415,0.07605266571044922,-0.08582650125026703
1710957929131648000,7.76364794921875,0.030543239787220955,0.08124501258134842,-0.07880155742168427
1710957929150607400,7.782607421875,0.0204639695584774,0.0461202897131443,-0.047036588191986084
1710957929169567000,7.80156689453125,-0.012522728182375431,0.013439024798572063,-0.033597562462091446
1710957929188526300,7.8205263671875,-0.03787361457943916,0.028405211865901947,-0.06719512492418289
1710957929207485700,7.839485595703125,-0.06291907280683517,0.04062250629067421,-0.08063415437936783
1710957929226445000,7.858445068359375,-0.053145237267017365,0.022296564653515816,-0.07941242307424545
1710957929245404700,7.87740478515625,0.014966187067329884,0.08796452730894089,-0.056199558079242706
1710957929264364000,7.896364013671875,-0.05742128938436508,0.04367683082818985,0.17684535682201385
1710957929283323400,7.915323486328125,0.032681263983249664,0.3197877109050751,0.035735588520765305
1710957929302283000,7.934282958984375,-0.04673115536570549,0.29016077518463135,0.11728604137897491
1710957929321242400,7.953242431640625,0.0021380267571657896,0.2910770773887634,-0.09040798991918564
1710957929340201700,7.97220166015625,-0.02932151034474373,0.39248061180114746,-0.15210533142089844
1710957929359161300,7.991161376953125,-0.09346231073141098,0.23793183267116547,-0.11362084746360779
1710957929378120700,8.01012060546875,-0.018325943499803543,0.14202606678009033,-0.09193515032529831
1710957929397080000,8.029080078125,-0.011911863461136818,-0.010690134018659592,0.11911863088607788
1710957929416039700,8.048039794921875,0.05345066636800766,-0.019853105768561363,0.11545344442129135
1710957929434999000,8.0669990234375,0.04978547990322113,0.05406153202056885,0.17226386070251465
1710957929453958400,8.08595849609375,-0.009162971749901772,0.10842850059270859,0.11575887352228165
1710957929472918000,8.10491796875,-0.001832594396546483,0.14996729791164398,0.020769402384757996
1710957929491877400,8.12387744140625,-0.006414080038666725,0.13164135813713074,0.007941242307424545
1710957929510836700,8.142836669921875,0.015271619893610477,0.08796452730894089,-0.001221729558892548
1710957929529796400,8.16179638671875,0.02626718580722809,0.06475166976451874,0.006108647678047419
1710957929548755700,8.180755615234375,0.004276053514331579,0.023518294095993042,0.01954767294228077
1710957929567715300,8.19971533203125,0.041844237595796585,0.006414080038666725,0.012217295356094837
1710957929586674700,8.2186748046875,0.04764745384454727,0.06444623321294785,-0.02779434807598591
1710957929605634000,8.237634033203125,0.059864748269319534,-0.07330377399921417,0.03543015569448471
1710957929624593700,8.25659375,0.054672397673130035,0.1594357043504715,-0.008246674202382565
1710957929643553000,8.275552978515625,-0.0054977829568088055,0.21930044889450073,-0.01435532234609127
1710957929662512600,8.2945126953125,0.040317077189683914,0.21502439677715302,-0.05070177838206291
1710957929681472000,8.313471923828125,-0.061391908675432205,0.18814635276794434,-0.09896009415388107
1710957929700431400,8.332431396484376,-0.013744457624852657,0.007024944759905338,-0.12675444781780243
1710957929719391000,8.351390869140625,0.005192350596189499,0.040317077189683914,-0.17256930470466614
1710957929738350300,8.370350341796875,-0.10231985151767731,-0.026572618633508682,-0.1078176349401474
1710957929757309700,8.389309814453124,-0.06383536756038666,-0.05833758786320686,-0.07391463965177536
1710957929776269300,8.408269287109375,0.008857538923621178,0.11545344442129135,-0.07971785217523575
1710957929795228700,8.427228759765624,-0.021685699000954628,0.210442915558815,-0.030543239787220955
1710957929814188000,8.44618798828125,0.009162971749901772,0.30451610684394836,-0.02779434807598591
1710957929833147600,8.465147705078126,0.06291907280683517,0.41783151030540466,-0.0772743970155716
1710957929852107000,8.48410693359375,0.040317077189683914,0.41416633129119873,0.09285144507884979
1710957929871066600,8.503066650390625,0.03298669680953026,0.4508182108402252,0.12522727251052856
1710957929890026000,8.52202587890625,0.013744457624852657,0.46364638209342957,0.032681263983249664
1710957929908985300,8.5409853515625,0.011606430634856224,0.26969680190086365,0.16065743565559387
1710957929927945000,8.559945068359376,0.12705987691879272,0.04581485688686371,0.18631376326084137
1710957929946904300,8.578904296875,0.17592905461788177,-0.046425722539424896,0.18692462146282196
1710957929965864000,8.597864013671876,0.11636973917484283,-0.09071341902017593,0.1997527778148651
1710957929984823300,8.6168232421875,0.059864748269319534,-0.05070177838206291,0.1740964651107788
1710957930003783000,8.635782958984375,0.048563748598098755,0.03298669680953026,0.13530655205249786
1710957930022742300,8.6547421875,0.08918625861406326,0.05558869615197182,0.10995566099882126
1710957930041702000,8.673701904296875,0.11545344442129135,0.05039634555578232,0.06994401663541794
1710957930060661200,8.6926611328125,0.10598503798246384,-0.018631376326084137,0.07544180005788803
1710957930079620600,8.71162060546875,0.09834922850131989,-0.11911863088607788,0.06841685622930527
1710957930098580200,8.730580322265626,0.08949168771505356,-0.19822561740875244,0.05925388261675835
1710957930117539600,8.74953955078125,0.08918625861406326,-0.24526220560073853,0.07299833744764328
1710957930136499200,8.768499267578125,0.1026252806186676,-0.23487751185894012,0.07422006875276566
1710957930155458600,8.78745849609375,0.08582650125026703,-0.18387030065059662,0.07574722915887833
1710957930174418000,8.80641796875,0.0665842592716217,-0.16065743565559387,0.1081230640411377
1710957930193377500,8.82537744140625,0.06383536756038666,-0.12644900381565094,0.1081230640411377
1710957930212337000,8.8443369140625,0.06291907280683517,-0.08918625861406326,0.08399390429258347
1710957930231296500,8.863296630859375,0.04673115536570549,-0.08277218043804169,0.05711585655808449
1710957930250256000,8.882255859375,0.021380268037319183,-0.11942406743764877,0.03237583488225937
1710957930269215200,8.90121533203125,-0.0054977829568088055,-0.1740964651107788,0.014966187067329884
1710957930288174800,8.9201748046875,-0.000305432389723137,-0.2107483446598053,-0.033597562462091446
1710957930307134200,8.93913427734375,0.02260199747979641,-0.22876885533332825,-0.10537417232990265
1710957930326093800,8.95809375,0.01588248461484909,-0.17898337543010712,-0.1545487940311432
1710957930345053200,8.97705322265625,0.032070402055978775,-0.09712749719619751,-0.15149445831775665
1710957930364012800,8.9960126953125,0.0720820426940918,-0.0565049909055233,-0.13011419773101807
1710957930382972200,9.01497216796875,0.1081230640411377,-0.11117739230394363,-0.13561198115348816
1710957930401931800,9.033931884765625,0.11636973917484283,-0.29535311460494995,-0.14141519367694855
1710957930420891100,9.05289111328125,0.08032871782779694,-0.4880809485912323,-0.11545344442129135
1710957930439850500,9.0718505859375,0.023212861269712448,-0.535728394985199,-0.0616973415017128
1710957930458810000,9.09081005859375,-0.029626941308379173,-0.45326167345046997,0.007941242307424545
1710957930477769500,9.10976953125,-0.03848448023200035,-0.318871408700943,0.0565049909055233
1710957930496729000,9.12872900390625,-0.002443459117785096,-0.20799945294857025,0.13439024984836578
1710957930515688400,9.1476884765625,0.03695731982588768,-0.15821397304534912,0.2788597643375397
1710957930534647800,9.166647705078125,0.08613193035125732,-0.000610864779446274,0.39248061180114746
1710957930553607400,9.185607421875,0.11423171311616898,0.14080433547496796,0.4667007029056549
1710957930572566800,9.20456689453125,0.21502439677715302,0.04734202101826668,0.32650721073150635
1710957930591526400,9.2235263671875,0.2874118685722351,-0.15179990231990814,0.05283980444073677
1710957930610485800,9.24248583984375,0.18753549456596375,-0.20250166952610016,-0.0922405794262886
1710957930629445400,9.2614453125,0.000305432389723137,-0.1185077652335167,-0.005803215317428112
1710957930648404700,9.28040478515625,-0.13469567894935608,-0.05436696484684944,0.18753549456596375
1710957930667364000,9.299364013671875,-0.19761475920677185,-0.007024944759905338,0.27855435013771057
1710957930686323700,9.31832373046875,-0.19669845700263977,0.04367683082818985,0.24251331388950348
1710957930705283000,9.337282958984375,-0.1539379209280014,0.008246674202382565,0.22266021370887756
1710957930724242700,9.35624267578125,-0.12705987691879272,-0.19883649051189423,0.30115634202957153
1710957930743202000,9.3752021484375,-0.17867794632911682,-0.4679224193096161,0.3842339515686035
1710957930762161700,9.39416162109375,-0.2556469142436981,-0.5754346251487732,0.4419606626033783
1710957930781121000,9.41312109375,-0.26908594369888306,-0.5351175665855408,0.49082985520362854
1710957930800080600,9.43208056640625,-0.18723005056381226,-0.44318240880966187,0.4673115611076355
1710957930819040000,9.4510400390625,-0.03481929376721382,-0.46028661727905273,0.24006985127925873
1710957930837999400,9.469999267578125,-0.11881320178508759,-0.5222893953323364,-0.003665188793092966
1710957930856959000,9.488958984375,-0.3451386094093323,-0.6267472505569458,0.06261363625526428
1710957930875918300,9.50791845703125,-0.2932150959968567,-0.5384773015975952,0.12278381735086441
1710957930894878000,9.5268779296875,-0.07574722915887833,-0.15790854394435883,-0.01954767294228077
1710957930913837300,9.54583740234375,0.12705987691879272,0.04673115536570549,-0.1337793916463852
1710957930932796700,9.564796630859375,0.2813032269477844,-0.054672397673130035,-0.17684535682201385
1710957930951756300,9.58375634765625,0.34697118401527405,-0.31612253189086914,-0.1493564397096634
1710957930970715600,9.602715576171875,0.4111120104789734,-0.5806269645690918,-0.13927717506885529
1710957930989675000,9.621675048828125,0.43401941657066345,-0.6688969135284424,-0.18570289015769958
1710957931008634600,9.640634521484374,0.2672533392906189,-0.5329795479774475,-0.25381430983543396
1710957931027594000,9.659593994140625,0.07391463965177536,-0.3249800503253937,-0.2782489061355591
1710957931046553600,9.6785537109375,0.015271619893610477,-0.16707152128219604,-0.33628106117248535
1710957931065513000,9.697512939453125,0.018631376326084137,-0.043982263654470444,-0.4251618981361389
1710957931084472600,9.71647265625,-0.05528326332569122,0.04886918142437935,-0.38728827238082886
1710957931103432000,9.735431884765624,-0.17623448371887207,0.015577051788568497,-0.17653992772102356
1710957931122391300,9.754391357421875,-0.2510654330253601,-0.10934479534626007,0.01435532234609127
1710957931141351000,9.773350830078124,-0.2257145345211029,-0.15668681263923645,0.15088360011577606
1710957931160310300,9.792310302734375,-0.1331685185432434,-0.05192350596189499,0.22479823231697083
1710957931179270000,9.811269775390626,-0.043982263654470444,0.12156209349632263,0.27855435013771057
1710957931198229200,9.830229248046875,-0.021380268037319183,0.30146175622940063,0.28588470816612244
1710957931217188900,9.84918896484375,-0.03543015569448471,0.4199695289134979,0.2874118685722351
1710957931236148200,9.868148193359374,-0.006719512399286032,0.3686569035053253,0.2889390289783478
1710957931255107600,9.887107666015625,0.03756818547844887,0.1585194170475006,0.2938259541988373
1710957931274067200,9.906067138671874,0.007024944759905338,-0.05406153202056885,0.323452889919281
1710957931293026600,9.925026611328125,-0.08460476994514465,-0.25900667905807495,0.3543015718460083
1710957931311986200,9.943986083984376,-0.14691297709941864,-0.37201663851737976,0.2880227565765381
1710957931330945500,9.962945556640625,-0.13652828335762024,-0.3243691921234131,0.1386663019657135
1710957931349905000,9.98190478515625,-0.09285144507884979,-0.1585194170475006,0.009162971749901772
1710957931368864500,10.000864501953124,-0.07422006875276566,0.04520399495959282,-0.09896009415388107
1710957931387823900,10.019823974609375,-0.07147117704153061,0.24770566821098328,-0.2721402645111084
1710957931406783200,10.038783203125,-0.0461202897131443,0.42913252115249634,-0.49632763862609863
1710957931425742800,10.057742919921875,-0.05833758786320686,0.47525280714035034,-0.6142245531082153
1710957931444702200,10.0767021484375,-0.12614357471466064,0.39217519760131836,-0.6123919486999512
1710957931463661600,10.09566162109375,-0.1585194170475006,0.3121519088745117,-0.6921098232269287
1710957931482621200,10.11462109375,-0.13927717506885529,0.2257145345211029,-0.7134900689125061
1710957931501580500,10.13358056640625,-0.12705987691879272,0.0818558782339096,-0.5732966065406799
1710957931520540200,10.1525400390625,-0.1441640853881836,0.015577051788568497,-0.38850998878479004
1710957931539499500,10.17149951171875,-0.17348559200763702,0.021991131827235222,-0.2507599890232086
1710957931558459000,10.190458984375,-0.19639302790164948,0.0461202897131443,-0.09529490768909454
1710957931577418500,10.20941845703125,-0.20647229254245758,0.07452550530433655,0.07849612087011337
1710957931596377900,10.2283779296875,-0.18753549456596375,0.10231985151767731,0.2254091054201126
1710957931615337500,10.24733740234375,-0.14233149588108063,0.1444695144891739,0.2779434621334076
1710957931634296800,10.266296875,-0.12003492563962936,0.16035200655460358,0.23426663875579834
1710957931653256200,10.285256103515625,-0.13958260416984558,0.09468404203653336,0.2107483446598053
1710957931672215800,10.3042158203125,-0.14141519367694855,0.018325943499803543,0.205861434340477
1710957931691175200,10.323175048828125,-0.11209368705749512,-0.04978547990322113,0.1847866028547287
1710957931710134800,10.342134765625,-0.07086031138896942,-0.10598503798246384,0.12583814561367035
1710957931729094100,10.36109423828125,-0.026878049597144127,-0.164322629570961,0.11575887352228165
1710957931748053500,10.380053466796875,0.007330377586185932,-0.210442915558815,0.14752385020256042
1710957931767013000,10.39901318359375,0.05039634555578232,-0.18417572975158691,0.19608759880065918
1710957931785972500,10.417972412109375,0.07757982611656189,-0.11362084746360779,0.20311254262924194
1710957931804932000,10.43693212890625,0.08429934084415436,-0.05070177838206291,0.19333870708942413
1710957931823891500,10.455891357421875,0.09040798991918564,-0.018325943499803543,0.17867794632911682
1710957931842850800,10.474850830078125,0.10690133273601532,-0.0027488914784044027,0.15577052533626556
1710957931861810400,10.493810546875,0.10751219838857651,-0.01649334840476513,0.14263692498207092
1710957931880769800,10.512769775390625,0.11056652665138245,-0.044898562133312225,0.14263692498207092
1710957931899729200,10.531729248046876,0.12370011955499649,-0.07910698652267456,0.16096286475658417
1710957931918688800,10.550688720703125,0.1288924664258957,-0.13561198115348816,0.1444695144891739
1710957931937648000,10.569648193359376,0.1233946830034256,-0.19394956529140472,0.10384701192378998
1710957931956607700,10.588607666015625,0.13072505593299866,-0.2617555558681488,0.03329212963581085
1710957931975567000,10.607567138671875,0.14660754799842834,-0.3179551064968109,-0.04276053607463837
1710957931994526500,10.6265263671875,0.17898337543010712,-0.29504770040512085,-0.11209368705749512
1710957932013486000,10.645486083984375,0.21441353857517242,-0.23426663875579834,-0.15546508133411407
1710957932032445400,10.664445556640626,0.21899501979351044,-0.18845178186893463,-0.16004657745361328
1710957932051404800,10.68340478515625,0.23426663875579834,-0.1441640853881836,-0.11148282140493393
1710957932070364400,10.702364501953125,0.27916520833969116,-0.06780599057674408,-0.06902772188186646
1710957932089323800,10.72132373046875,0.2764163017272949,-0.028405211865901947,-0.0021380267571657896
1710957932108283100,10.740283203125,0.21655155718326569,0.012217295356094837,0.0717766135931015
1710957932127242800,10.75924267578125,0.1340848207473755,0.05864302068948746,0.13469567894935608
1710957932146202000,10.7782021484375,0.07757982611656189,0.1334739476442337,0.14691297709941864
1710957932165161500,10.797161376953126,0.004581485874950886,0.16615521907806396,0.12095122784376144
1710957932184120800,10.816120849609375,-0.04367683082818985,0.1389717310667038,0.08613193035125732
1710957932203080400,10.83508056640625,-0.01954767294228077,0.10903936624526978,0.03848448023200035
1710957932222039800,10.854039794921874,0.022296564653515816,0.11362084746360779,-0.04367683082818985
1710957932240999200,10.872999267578125,0.022296564653515816,0.1380554437637329,-0.11575887352228165
1710957932259958800,10.891958740234376,-0.01954767294228077,0.11972949653863907,-0.1646280586719513
1710957932278918100,10.910918212890625,-0.0668896958231926,0.06750056147575378,-0.23212862014770508
1710957932297877800,10.929877685546876,-0.10537417232990265,0.035735588520765305,-0.3283398151397705
1710957932316837000,10.948837158203125,-0.1288924664258957,-0.009162971749901772,-0.40958482027053833
1710957932335796500,10.96779638671875,-0.09315688163042068,-0.029016077518463135,-0.4935787320137024
1710957932354756000,10.986756103515624,-0.000305432389723137,0.03817904740571976,-0.5739074349403381
1710957932373715500,11.005715576171875,0.0668896958231926,0.1337793916463852,-0.5885682106018066
1710957932392674800,11.0246748046875,0.05955931544303894,0.250149130821228,-0.5390881896018982
1710957932411634400,11.043634521484375,-0.020158538594841957,0.3124573230743408,-0.448069304227829
1710957932430593800,11.06259375,-0.09560033679008484,0.27427828311920166,-0.31520622968673706
1710957932449553400,11.081553466796874,-0.0974329337477684,0.19181154668331146,-0.16218459606170654
1710957932468512800,11.1005126953125,-0.06108647957444191,0.1484401375055313,-0.033597562462091446
1710957932487472000,11.11947216796875,-0.05406153202056885,0.15699224174022675,0.06780599057674408
1710957932506431700,11.138431640625,-0.08552107214927673,0.22937972843647003,0.1487455666065216
1710957932525391000,11.15739111328125,-0.12125665694475174,0.3454440236091614,0.20952661335468292
1710957932544350500,11.1763505859375,-0.11026109009981155,0.49052441120147705,0.24037529528141022
1710957932563310000,11.19531005859375,-0.11026109009981155,0.6462949514389038,0.23243404924869537
1710957932582269400,11.21426953125,-0.14508038759231567,0.7623592615127563,0.20647229254245758
1710957932601229000,11.23322900390625,-0.17073670029640198,0.766940712928772,0.1282816082239151
1710957932620188400,11.2521884765625,-0.1695149689912796,0.62857985496521,0.07849612087011337
1710957932639148000,11.27114794921875,-0.14630211889743805,0.4731147587299347,0.08093958348035812
1710957932658107400,11.290107421875,-0.1185077652335167,0.3292561173439026,0.0772743970155716
1710957932677066800,11.309066650390625,-0.0818558782339096,0.20341797173023224,0.050090912729501724
1710957932696026400,11.3280263671875,-0.038789913058280945,0.12675444781780243,0.04153880476951599
1710957932714985700,11.34698583984375,-0.0030543238390237093,0.12614357471466064,0.048563748598098755
1710957932733945300,11.3659453125,0.05528326332569122,0.14233149588108063,0.04978547990322113
1710957932752904700,11.38490478515625,0.17318016290664673,0.13622283935546875,0.03390299528837204
1710957932771864000,11.403864013671875,0.2706131041049957,0.09957095980644226,-0.014049889519810677
1710957932790823700,11.42282373046875,0.22754712402820587,0.0256563201546669,-0.010995565913617611
1710957932809783000,11.441782958984374,0.18081597983837128,-0.12217295914888382,0.09712749719619751
1710957932828742400,11.460742431640625,0.22327107191085815,-0.3087921440601349,0.23212862014770508
1710957932847702000,11.479701904296874,0.32192572951316833,-0.5079340934753418,0.3591884970664978
1710957932866661400,11.498661376953125,0.45326167345046997,-0.6771436333656311,0.36285367608070374
1710957932885620700,11.517620849609376,0.49021899700164795,-0.8127555847167969,0.27030766010284424
1710957932904580400,11.536580322265625,0.3539961278438568,-0.9321796298027039,0.25503605604171753
1710957932923539700,11.555539794921875,0.13652828335762024,-0.9960150122642517,0.37690356373786926
1710957932942499300,11.574499267578124,0.04245510324835777,-0.880256175994873,0.4422661066055298
1710957932961458700,11.593458740234375,0.05283980444073677,-0.5940660238265991,0.37781986594200134
1710957932980418300,11.612418212890624,0.02107483521103859,-0.31551164388656616,0.28435754776000977
1710957932999377700,11.631377685546875,-0.0818558782339096,-0.05406153202056885,0.16157373785972595
1710957933018337300,11.650337158203126,-0.15546508133411407,0.17134757339954376,-0.05803215503692627
1710957933037296600,11.669296630859375,-0.24465134739875793,0.27519458532333374,-0.30634868144989014
1710957933056256300,11.68825634765625,-0.35155269503593445,0.17562362551689148,-0.31551164388656616
1710957933075215600,11.707215576171874,-0.4098902642726898,0.03390299528837204,-0.10506874322891235
1710957933094175200,11.72617529296875,-0.45539969205856323,-0.04917461425065994,0.006414080038666725
1710957933113134600,11.745134521484376,-0.4682278633117676,-0.05070177838206291,-0.038789913058280945
1710957933132094200,11.76409423828125,-0.406530499458313,-0.06047561392188072,-0.13041962683200836
1710957933151053600,11.783053466796876,-0.22296564280986786,-0.07238747924566269,-0.19211697578430176
1710957933170013000,11.802012939453125,-0.01435532234609127,-0.018631376326084137,-0.2406807243824005
1710957933188972500,11.82097265625,0.07116574794054031,0.06811141967773438,-0.2617555558681488
1710957933207932000,11.839931884765624,0.03023780696094036,0.16584978997707367,-0.2510654330253601
1710957933226891500,11.8588916015625,-0.0616973415017128,0.19730933010578156,-0.23945899307727814
1710957933245851000,11.877850830078126,-0.05955931544303894,0.13164135813713074,-0.23335035145282745
1710957933264810500,11.896810546875,0.01954767294228077,0.054672397673130035,-0.2364046722650528
1710957933283769900,11.915769775390626,0.0870482325553894,0.003359756199643016,-0.22876885533332825
1710957933302729500,11.9347294921875,0.12278381735086441,-0.032070402055978775,-0.21930044889450073
1710957933321688800,11.953688720703125,0.12675444781780243,-0.0720820426940918,-0.20952661335468292
1710957933340648400,11.9726484375,0.09193515032529831,-0.11178825795650482,-0.17653992772102356
1710957933359607800,11.99160791015625,0.047036588191986084,-0.14477495849132538,-0.11087195575237274
1710957933378567400,12.0105673828125,0.0256563201546669,-0.11239911615848541,-0.06291907280683517
1710957933397526800,12.02952685546875,0.038789913058280945,-0.06322450190782547,0.010384701192378998
1710957933416486100,12.048486083984375,0.03756818547844887,0.01893680728971958,0.06994401663541794
1710957933435445800,12.06744580078125,-0.01740964688360691,0.12767073512077332,0.08338304609060287
1710957933454405000,12.086405029296875,-0.07513637095689774,0.1795942485332489,0.05283980444073677
1710957933473364700,12.10536474609375,-0.057726722210645676,0.16554436087608337,-0.01893680728971958
1710957933492324400,12.124324462890625,0.007024944759905338,0.09987638890743256,-0.04917461425065994
1710957933511283700,12.14328369140625,0.056199558079242706,-0.003665188793092966,-0.050090912729501724
1710957933530243300,12.162243408203125,0.04673115536570549,-0.031154103577136993,-0.05589412897825241
1710957933549202700,12.18120263671875,-0.01435532234609127,-0.059864748269319534,-0.053145237267017365
1710957933568162300,12.200162353515625,-0.0717766135931015,-0.16584978997707367,-0.08949168771505356
1710957933587121700,12.21912158203125,-0.05833758786320686,-0.24709481000900269,-0.1844811588525772
1710957933606081300,12.238081298828124,-0.006719512399286032,-0.2559523284435272,-0.13133592903614044
1710957933625040600,12.25704052734375,0.07757982611656189,-0.21930044889450073,-0.07849612087011337
1710957933644000300,12.276000244140626,0.1646280586719513,-0.21746785938739777,-0.08063415437936783
1710957933662959600,12.294959716796875,0.21471896767616272,-0.25411975383758545,-0.10751219838857651
1710957933681919200,12.313919189453125,0.1902843713760376,-0.2623664140701294,-0.1340848207473755
1710957933700878600,12.332878662109374,0.1282816082239151,-0.1740964651107788,-0.0925460159778595
1710957933719838200,12.351838134765625,0.05436696484684944,-0.024740023538470268,-0.05253437161445618
1710957933738797800,12.3707978515625,0.021380268037319183,0.035124726593494415,-0.024434590712189674
1710957933757757200,12.389757080078125,0.04459312930703163,0.017104214057326317,-0.02718348242342472
1710957933776716800,12.408716796875,0.05345066636800766,-0.0412333719432354,0.01740964688360691
1710957933795676200,12.42767626953125,0.03634645417332649,-0.11636973917484283,0.08460476994514465
1710957933814635800,12.4466357421875,-0.043982263654470444,-0.06994401663541794,0.1545487940311432
1710957933833595100,12.46559521484375,-0.12064579129219055,0.025961752980947495,0.1795942485332489
1710957933852554800,12.4845546875,-0.15179990231990814,0.04276053607463837,0.1948658674955368
1710957933871514000,12.50351416015625,-0.12553271651268005,-0.047036588191986084,0.17867794632911682
1710957933890473700,12.5224736328125,-0.05222893878817558,-0.07024945318698883,0.11759147047996521
1710957933909433300,12.541433349609376,-0.0256563201546669,-0.09193515032529831,0.007330377586185932
1710957933928392700,12.560392822265625,-0.04886918142437935,-0.10690133273601532,-0.07360920310020447
1710957933947352300,12.579352294921875,-0.047036588191986084,-0.12034036219120026,-0.09285144507884979
1710957933966311700,12.598311767578124,0.017715077847242355,-0.12644900381565094,-0.07299833744764328
1710957933985271300,12.617271240234375,0.08399390429258347,-0.12492185086011887,-0.03940077871084213
1710957934004230700,12.636230712890624,0.10537417232990265,-0.13164135813713074,-0.016187917441129684
1710957934023190300,12.655190185546875,0.04673115536570549,-0.08460476994514465,-0.040317077189683914
1710957934042150000,12.67414990234375,-0.003665188793092966,-0.004886918235570192,-0.0766635313630104
1710957934061109200,12.693109130859375,-0.05894844979047775,0.01282816007733345,-0.035735588520765305
1710957934080068900,12.71206884765625,-0.044898562133312225,-0.025350889191031456,0.025961752980947495
1710957934099028500,12.731028564453124,-0.05436696484684944,-0.060781046748161316,0.10323614627122879
1710957934117987800,12.74998779296875,-0.07116574794054031,-0.09407317638397217,0.1130099818110466
1710957934136947500,12.768947509765624,-0.0922405794262886,-0.06352993845939636,0.10354158282279968
1710957934155906800,12.78790673828125,-0.07391463965177536,-0.07269290834665298,0.06841685622930527
1710957934174866400,12.806866455078126,-0.013133592903614044,-0.03848448023200035,-0.0461202897131443
1710957934193826000,12.825825927734375,0.03695731982588768,0.04978547990322113,-0.1340848207473755
1710957934212785400,12.844785400390625,0.049480047076940536,0.12553271651268005,-0.1328630894422531
1710957934231745000,12.8637451171875,0.03817904740571976,0.15057817101478577,-0.10231985151767731
1710957934250704400,12.882704345703125,0.0409279391169548,0.07391463965177536,-0.07055488228797913
1710957934269664000,12.9016640625,0.031154103577136993,-0.0412333719432354,-0.05039634555578232
1710957934288623600,12.92062353515625,0.009773836471140385,-0.09682206809520721,-0.0009162971982732415
1710957934307583000,12.9395830078125,0.03145953640341759,-0.10965022444725037,0.04734202101826668
1710957934326542600,12.95854248046875,0.07330377399921417,-0.05955931544303894,0.061391908675432205
1710957934345502200,12.977502197265625,0.053756099194288254,0.03481929376721382,0.06841685622930527
1710957934364461600,12.996461669921874,-0.0030543238390237093,0.07086031138896942,0.10018182545900345
1710957934383421200,13.015421142578125,-0.03756818547844887,0.06261363625526428,0.10995566099882126
1710957934402380500,13.034380615234374,-0.009773836471140385,0.05803215503692627,0.09346231073141098
1710957934421340200,13.053340087890625,0.03145953640341759,0.041844237595796585,0.05833758786320686
1710957934440299800,13.0722998046875,0.0256563201546669,0.011606430634856224,0.03787361457943916
1710957934459259400,13.09125927734375,0.005803215317428112,-0.008857538923621178,0.017104214057326317
1710957934478218800,13.11021875,0.0308486707508564,0.021380268037319183,-0.030543239787220955
1710957934497178400,13.129178466796875,0.08918625861406326,0.08826996386051178,-0.09682206809520721
1710957934516137700,13.1481376953125,0.11911863088607788,0.1130099818110466,-0.10690133273601532
1710957934535097300,13.167097412109374,0.09865466505289078,0.10384701192378998,-0.10018182545900345
1710957934554057000,13.186056884765625,0.03848448023200035,0.07635809481143951,-0.01893680728971958
1710957934573016600,13.2050166015625,0.004276053514331579,0.07024945318698883,0.0461202897131443
1710957934591976000,13.223975830078125,0.0256563201546669,0.0204639695584774,0.053145237267017365
1710957934610935600,13.242935546875,0.050090912729501724,0,0.07024945318698883
1710957934629895200,13.261895263671875,0.01893680728971958,0.02412915788590908,0.09957095980644226
1710957934648854500,13.2808544921875,-0.03695731982588768,0.008857538923621178,0.13775001466274261
1710957934667814100,13.299814208984374,-0.019242240116000175,-0.006108647678047419,0.2003636509180069
1710957934686773800,13.318773681640625,0.05192350596189499,-0.046425722539424896,0.24770566821098328
1710957934705733400,13.3377333984375,0.09804379940032959,-0.08002328872680664,0.189673513174057
1710957934724692700,13.356692626953125,0.10995566099882126,-0.07941242307424545,0.07330377399921417
1710957934743652400,13.37565234375,0.06811141967773438,-0.06750056147575378,-0.01740964688360691
1710957934762611700,13.39461181640625,0.035735588520765305,-0.05345066636800766,-0.06414080411195755
1710957934781571300,13.4135712890625,0.03237583488225937,-0.021991131827235222,-0.11392628401517868
1710957934800531000,13.432531005859374,0.03695731982588768,0.03787361457943916,-0.16187916696071625
1710957934819490600,13.451490478515625,0.02412915788590908,0.06200277432799339,-0.1692095398902893
1710957934838450000,13.470449951171876,0.02107483521103859,0.028405211865901947,-0.12583814561367035
1710957934857409500,13.489409423828125,0.041844237595796585,-0.0030543238390237093,-0.10537417232990265
1710957934876369200,13.508369140625,0.016798781231045723,-0.0256563201546669,-0.0769689604640007
1710957934895328800,13.527328857421875,-0.04367683082818985,-0.006108647678047419,-0.011911863461136818
1710957934914288000,13.5462880859375,-0.06963858753442764,-0.008552107028663158,0.06322450190782547
1710957934933247700,13.565247802734374,-0.04978547990322113,0.006719512399286032,0.11239911615848541
1710957934952207000,13.58420703125,-0.012522728182375431,0.026878049597144127,0.1285870373249054
1710957934971166700,13.603166748046876,-0.004886918235570192,0.007941242307424545,0.12034036219120026
1710957934990126300,13.622126220703125,-0.036651886999607086,0.0204639695584774,0.11667517572641373
1710957935009086000,13.6410859375,-0.04886918142437935,0.010384701192378998,0.09376774728298187
1710957935028045300,13.66004541015625,-0.018325943499803543,-0.033597562462091446,0.04673115536570549
1710957935047005000,13.6790048828125,-0.000610864779446274,-0.007024944759905338,-0.013439024798572063
1710957935065964500,13.697964599609374,0.007024944759905338,0.011911863461136818,-0.021380268037319183
1710957935084924000,13.716923828125,0.0204639695584774,-0.004276053514331579,-0.025961752980947495
1710957935103883500,13.735883544921874,0.018325943499803543,-0.05711585655808449,-0.01588248461484909
1710957935122843100,13.754843017578125,0.019853105768561363,-0.06597339361906052,-0.017715077847242355
1710957935141802500,13.773802490234376,0.021380268037319183,-0.029016077518463135,-0.01893680728971958
1710957935160762000,13.79276220703125,0.021685699000954628,0.0030543238390237093,-0.024740023538470268
1710957935179721700,13.8117216796875,0.030543239787220955,0.02260199747979641,-0.009162971749901772
1710957935198681300,13.830681396484374,0.010690134018659592,0.040317077189683914,0.01802051067352295
1710957935217641000,13.849640869140625,-0.023518294095993042,0.022296564653515816,0.053145237267017365
1710957935236600300,13.868600341796874,-0.005803215317428112,0.010384701192378998,0.0665842592716217
1710957935255560000,13.887559814453125,0.04734202101826668,-0.038789913058280945,0.061391908675432205
1710957935274519600,13.90651953125,0.10629047453403473,-0.08002328872680664,0.037262752652168274
1710957935293479000,13.92547900390625,0.10903936624526978,-0.08032871782779694,-0.007330377586185932
1710957935312438500,13.9444384765625,0.06719512492418289,-0.04917461425065994,-0.008552107028663158
1710957935331398100,13.963398193359374,0.032681263983249664,0.008552107028663158,-0.023518294095993042
1710957935350357500,13.982357421875,0.030543239787220955,0.028099779039621353,-0.024434590712189674
1710957935369317000,14.001317138671874,0.0513126403093338,0.0412333719432354,-0.038789913058280945
1710957935388276700,14.02027685546875,0.05589412897825241,0.06108647957444191,-0.053756099194288254
1710957935407236400,14.039236328125,0.04214967042207718,0.036651886999607086,-0.022296564653515816
1710957935426195700,14.05819580078125,0.005192350596189499,-0.002443459117785096,0.0054977829568088055
1710957935445155300,14.0771552734375,-0.04581485688686371,0.010079269297420979,0.010384701192378998
1710957935464114700,14.09611474609375,-0.043982263654470444,0.0616973415017128,-0.027488915249705315
1710957935483074300,14.11507421875,-0.004581485874950886,0.11209368705749512,-0.06352993845939636
1710957935502034000,14.134033935546874,-0.008857538923621178,0.14172062277793884,-0.09896009415388107
1710957935520993500,14.15299365234375,-0.025350889191031456,0.16249002516269684,-0.10323614627122879
1710957935539953200,14.171953125,0,0.2617555558681488,-0.1334739476442337
1710957935558912500,14.19091259765625,0.022296564653515816,0.22968515753746033,-0.12980876863002777
1710957935577872100,14.2098720703125,0.04917461425065994,0.0922405794262886,-0.05100720748305321
1710957935596831700,14.228831787109375,0.13164135813713074,0.05070177838206291,0.018631376326084137
1710957935615791000,14.247791015625,0.2260199636220932,0.008246674202382565,0.001832594396546483
1710957935634750700,14.266750732421874,0.13561198115348816,-0.05864302068948746,-0.06047561392188072
1710957935653710300,14.28571044921875,-0.027488915249705315,-0.03451386094093323,-0.04245510324835777
1710957935672669700,14.304669677734376,-0.017715077847242355,0.0054977829568088055,-0.005192350596189499
1710957935691629300,14.32362939453125,0.0824667438864708,0.09834922850131989,-0.014966187067329884
1710957935710589000,14.3425888671875,0.13194678723812103,0.12736530601978302,-0.017104214057326317
1710957935729548300,14.36154833984375,0.1484401375055313,0.07391463965177536,-0.04001164436340332
1710957935748508000,14.3805078125,0.09896009415388107,-0.10231985151767731,-0.05497783049941063
1710957935767467500,14.399467529296874,-0.06322450190782547,-0.3634645342826843,-0.024740023538470268
1710957935786427000,14.418427001953125,-0.1802051067352295,-0.49632763862609863,0.06383536756038666
1710957935805386500,14.437386474609376,-0.11972949653863907,-0.425467312335968,0.033597562462091446
1710957935824346000,14.45634619140625,0.05742128938436508,-0.2519817352294922,-0.03909534588456154
1710957935843305700,14.4753056640625,0.13194678723812103,-0.10140355676412582,-0.03787361457943916
1710957935862265000,14.49426513671875,-0.02412915788590908,-0.01740964688360691,-0.06505709886550903
1710957935881224700,14.513224609375,-0.25411975383758545,0.1130099818110466,-0.08032871782779694
1710957935900184000,14.53218408203125,-0.2993237376213074,0.16187916696071625,0.025045456364750862
1710957935919143700,14.551143798828125,-0.07269290834665298,0.15210533142089844,0.08674279600381851
1710957935938103300,14.570103271484374,0.11606431007385254,0.210442915558815,0.02779434807598591
1710957935957063000,14.58906298828125,0.0720820426940918,0.18875721096992493,-0.09712749719619751
1710957935976022300,14.608022216796876,0.008857538923621178,0.12950333952903748,-0.20372340083122253
1710957935994982000,14.62698193359375,0.020769402384757996,0.09834922850131989,-0.26542073488235474
1710957936013941200,14.645941162109375,0.03451386094093323,0.046425722539424896,-0.2461785078048706
1710957936032900900,14.66490087890625,0.026878049597144127,0.016798781231045723,-0.205861434340477
1710957936051860500,14.683860595703125,0.02626718580722809,0.0256563201546669,-0.1536324918270111
1710957936070820000,14.702820068359374,0.01893680728971958,0.040317077189683914,-0.09712749719619751
1710957936089779500,14.721779541015625,-0.015577051788568497,0.059864748269319534,-0.029016077518463135
1710957936108739000,14.740739013671876,-0.09285144507884979,0.022296564653515816,0.0360410213470459
1710957936127698700,14.75969873046875,-0.1496618688106537,-0.029626941308379173,0.08888082206249237
1710957936146658000,14.778657958984375,-0.16096286475658417,-0.16004657745361328,0.15546508133411407
1710957936165617700,14.79761767578125,-0.15821397304534912,-0.23915356397628784,0.21410810947418213
1710957936184577000,14.816576904296875,-0.17165300250053406,-0.17715078592300415,0.2678641974925995
1710957936203536600,14.83553662109375,-0.1747073233127594,-0.010690134018659592,0.26389357447624207
1710957936222496300,14.854496337890625,-0.17318016290664673,0.17623448371887207,0.17562362551689148
1710957936241455900,14.873455810546876,-0.1545487940311432,0.21471896767616272,0.08155044913291931
1710957936260415200,14.892415283203125,-0.10018182545900345,0.16004657745361328,0.013133592903614044
1710957936279374800,14.911374755859375,-0.02871064469218254,0.11331541836261749,-0.023823726922273636
1710957936298334200,14.930334228515624,0.010995565913617611,0.07147117704153061,-0.031154103577136993
1710957936317293800,14.9492939453125,0.018325943499803543,0.040317077189683914,0.006414080038666725
1710957936336253400,14.96825341796875,0.05742128938436508,0.029016077518463135,0.006108647678047419
1710957936355212800,14.987212890625,0.08429934084415436,0.028405211865901947,-0.005192350596189499
1710957936374172400,15.00617236328125,0.0360410213470459,-0.04550942778587341,0.024740023538470268
1710957936393131800,15.0251318359375,-0.03329212963581085,-0.18814635276794434,0.11331541836261749
1710957936412091400,15.04409130859375,-0.04306596517562866,-0.32528549432754517,0.164322629570961
1710957936431051000,15.063051025390624,-0.018631376326084137,-0.3280344009399414,0.1285870373249054
1710957936450010400,15.08201025390625,0.011911863461136818,-0.23335035145282745,0.05406153202056885
1710957936468970000,15.100969970703124,0.003970621153712273,-0.11362084746360779,0.02260199747979641
1710957936487929600,15.1199296875,-0.031154103577136993,-0.05803215503692627,0.023212861269712448
1710957936506889000,15.138888916015626,-0.07330377399921417,-0.006719512399286032,-0.018325943499803543
1710957936525848600,15.1578486328125,-0.08918625861406326,-0.01649334840476513,-0.0821613147854805
1710957936544808000,15.176807861328125,-0.02107483521103859,-0.03543015569448471,-0.10690133273601532
1710957936563767600,15.195767578125,0.07086031138896942,-0.0021380267571657896,-0.09315688163042068
1710957936582727200,15.21472705078125,0.12950333952903748,0.01649334840476513,-0.08368847519159317
1710957936601686800,15.233686767578124,0.13500112295150757,0.021380268037319183,-0.0616973415017128
1710957936620646100,15.252646240234375,0.10537417232990265,0.0204639695584774,-0.05864302068948746
1710957936639605800,15.271605712890626,0.06933315098285675,-0.0027488914784044027,-0.06261363625526428
1710957936658565000,15.290565185546875,0.05742128938436508,-0.005803215317428112,-0.09560033679008484
1710957936677524700,15.309524658203125,0.05100720748305321,0.016187917441129684,-0.10537417232990265
1710957936696484000,15.328484130859374,0.04459312930703163,0.01802051067352295,-0.08277218043804169
1710957936715443700,15.347443603515625,0.04214967042207718,0.06475166976451874,-0.04520399495959282
1710957936734403300,15.3664033203125,0.06811141967773438,0.09926552325487137,-0.028405211865901947
1710957936753362700,15.38536279296875,0.11056652665138245,0.1127045527100563,-0.061391908675432205
1710957936772322300,15.404322265625,0.10751219838857651,0.13744457066059113,-0.07299833744764328
1710957936791281700,15.42328173828125,0.06383536756038666,0.10109812021255493,-0.0668896958231926
1710957936810241300,15.4422412109375,0.06933315098285675,0.03634645417332649,-0.06902772188186646
1710957936829201000,15.461200927734374,0.12461641430854797,0.04428769648075104,-0.09834922850131989
1710957936848160300,15.48016015625,0.13652828335762024,0.09468404203653336,-0.15027274191379547
1710957936867119900,15.499119873046874,0.05283980444073677,0.09010255336761475,-0.16615521907806396
1710957936886079500,15.51807958984375,-0.04367683082818985,0.09407317638397217,-0.10415244847536087
1710957936905038800,15.537038818359376,-0.07269290834665298,0.13591741025447845,-0.01588248461484909
1710957936923998500,15.55599853515625,-0.06963858753442764,0.08460476994514465,0.05283980444073677
1710957936942957800,15.574957763671875,-0.07116574794054031,-0.013133592903614044,0.1182023361325264
1710957936961917400,15.59391748046875,-0.07574722915887833,-0.006719512399286032,0.14477495849132538
1710957936980876800,15.612876708984375,-0.06352993845939636,0.06230820715427399,0.10109812021255493
1710957936999836400,15.63183642578125,-0.05283980444073677,0.11056652665138245,0.036651886999607086
1710957937018796000,15.650796142578125,-0.05833758786320686,0.08368847519159317,-0.008246674202382565
1710957937037755400,15.66975537109375,-0.043982263654470444,0.002443459117785096,-0.03481929376721382
1710957937056715000,15.688715087890625,-0.006719512399286032,-0.02412915788590908,-0.07544180005788803
1710957937075674400,15.70767431640625,0.00946840364485979,-0.005803215317428112,-0.11331541836261749
1710957937094634000,15.726634033203124,0.0030543238390237093,0.03451386094093323,-0.14538581669330597
1710957937113593300,15.74559326171875,0.012217295356094837,0.05406153202056885,-0.14019346237182617
1710957937132553000,15.764552978515624,0.05039634555578232,0.07635809481143951,-0.12461641430854797
1710957937151512300,15.78351220703125,0.05345066636800766,0.09896009415388107,-0.12247838824987411
1710957937170472000,15.802471923828126,0.028099779039621353,0.14049890637397766,-0.14294235408306122
1710957937189431600,15.821431640625,0.025961752980947495,0.23335035145282745,-0.19120067358016968
1710957937208391000,15.840390869140625,0.1081230640411377,0.40897396206855774,-0.20341797173023224
1710957937227350500,15.8593505859375,0.1795942485332489,0.6979129910469055,-0.168904110789299
1710957937246310100,15.87831005859375,0.11698060482740402,0.794124186038971,-0.16859868168830872
1710957937265269500,15.89726953125,0.05711585655808449,0.6023126840591431,-0.14813470840454102
1710957937284228900,15.916228759765625,0.07360920310020447,0.2672533392906189,-0.13164135813713074
1710957937303188500,15.9351884765625,0.09468404203653336,-0.06597339361906052,-0.08399390429258347
1710957937322148000,15.954148193359375,0.07299833744764328,-0.22937972843647003,0.012217295356094837
1710957937341107500,15.973107421875,0.04306596517562866,-0.24892739951610565,0.09193515032529831
1710957937360067000,15.992067138671874,-0.007330377586185932,-0.16554436087608337,0.11148282140493393
1710957937379026700,16.011026611328123,-0.05192350596189499,0.06994401663541794,0.1893680840730667
1710957937397986000,16.029986083984376,-0.01802051067352295,0.6175842881202698,0.29565855860710144
1710957937416945700,16.048945556640625,0.009773836471140385,1.0708459615707397,0.26358816027641296
1710957937435905000,16.067905029296874,-0.01588248461484909,0.8759800791740417,0.16584978997707367
1710957937454864600,16.08686474609375,-0.08002328872680664,0.3402516841888428,0.16523891687393188
1710957937473824000,16.105823974609375,-0.08796452730894089,-0.210442915558815,0.12980876863002777
1710957937492783600,16.12478369140625,-0.07941242307424545,-0.6071996092796326,0.09865466505289078
1710957937511743200,16.1437431640625,-0.08338304609060287,-0.7238747477531433,0.07299833744764328
1710957937530702600,16.16270263671875,-0.06047561392188072,-0.5900954008102417,0.04153880476951599
1710957937549662200,16.181662109375,-0.034208428114652634,-0.25534147024154663,0.06017018109560013
1710957937568621600,16.20062158203125,-0.013744457624852657,0.04062250629067421,0.033597562462091446
1710957937587581200,16.219581298828125,0.03329212963581085,0.11484257876873016,0.0027488914784044027
1710957937606540500,16.23854052734375,0.11056652665138245,0.013744457624852657,-0.01649334840476513
1710957937625500200,16.257500244140626,0.1539379209280014,-0.13988803327083588,-0.000305432389723137
1710957937644459800,16.276459716796875,0.14752385020256042,-0.24892739951610565,-0.005803215317428112
1710957937663419100,16.295419189453124,0.12125665694475174,-0.26939135789871216,0.01435532234609127
1710957937682378800,16.314378662109377,0.09896009415388107,-0.21746785938739777,-0.02412915788590908
1710957937701338400,16.33333837890625,0.08857539296150208,-0.14752385020256042,-0.07513637095689774
1710957937720297700,16.352297607421875,0.10323614627122879,-0.09529490768909454,-0.13683371245861053
1710957937739257000,16.371257080078124,0.09193515032529831,-0.129197895526886,-0.205861434340477
1710957937758216700,16.390216796875,0.06963858753442764,-0.27519458532333374,-0.22754712402820587
1710957937777176300,16.40917626953125,-0.09621120244264603,-0.42302384972572327,-0.11575887352228165
1710957937796135700,16.4281357421875,-0.37293294072151184,-0.23426663875579834,0.40225446224212646
1710957937815095300,16.44709521484375,-0.21319180727005005,0.6814196705818176,0.7608320713043213
1710957937834055000,16.466054931640624,0.09560033679008484,1.5332705974578857,0.5510000586509705
1710957937853014300,16.48501416015625,0.12125665694475174,1.3261874914169312,0.11362084746360779
1710957937871974000,16.503973876953125,-0.028099779039621353,0.4975493550300598,-0.05589412897825241
1710957937890933200,16.522933349609374,-0.10873392969369888,-0.020158538594841957,-0.13255766034126282
1710957937909892900,16.541892822265623,-0.11117739230394363,-0.33536475896835327,-0.2629773020744324
1710957937928852500,16.5608525390625,-0.11728604137897491,-0.4050033390522003,-0.34636032581329346
1710957937947811800,16.579811767578125,-0.11056652665138245,-0.1750127524137497,-0.3692677617073059
1710957937966771500,16.598771484375,-0.09712749719619751,0.10690133273601532,-0.35643959045410156
1710957937985731000,16.61773095703125,0.0054977829568088055,0.3078758418560028,-0.3897317349910736
1710957938004690400,16.6366904296875,0.11392628401517868,0.23182319104671478,-0.35094180703163147
1710957938023650000,16.655650146484376,-0.10445787757635117,-0.10506874322891235,0.04520399495959282
1710957938042609400,16.674609375,-0.34238970279693604,-0.4667007029056549,0.555276095867157
1710957938061569000,16.693569091796874,-0.17226386070251465,-0.56382817029953,0.5619956254959106
1710957938080528600,16.712528564453127,0.16157373785972595,-0.3488037884235382,0.2214384824037552
1710957938099488300,16.73148828125,0.24556763470172882,-0.19211697578430176,0.08582650125026703
1710957938118447600,16.750447509765625,0.06352993845939636,-0.17348559200763702,0.28527384996414185
1710957938137407000,16.769406982421874,-0.20219624042510986,-0.25320345163345337,0.360410213470459
1710957938156366600,16.78836669921875,-0.35705047845840454,-0.2620609998703003,0.2816086709499359
1710957938175326200,16.807326171875,-0.2620609998703003,-0.19242240488529205,0.19608759880065918
1710957938194285800,16.826285888671876,-0.0665842592716217,0.09896009415388107,0.14019346237182617
1710957938213245200,16.8452451171875,0.057726722210645676,0.2556469142436981,0.05864302068948746
1710957938232204800,16.864204833984374,0.09590577334165573,0.189673513174057,-0.035735588520765305
1710957938251164400,16.883164306640627,0.09162971377372742,0.05406153202056885,-0.13622283935546875
1710957938270123800,16.902123779296875,0.08399390429258347,-0.0513126403093338,-0.20402882993221283
1710957938289083400,16.92108349609375,0.09162971377372742,-0.06475166976451874,-0.21380266547203064
1710957938308043000,16.94004296875,0.12217295914888382,-0.008857538923621178,-0.2202167510986328
1710957938327002400,16.95900244140625,0.13744457066059113,0.043982263654470444,-0.17226386070251465
1710957938345962000,16.9779619140625,0.12980876863002777,0.037262752652168274,-0.08368847519159317
1710957938364921600,16.996921630859376,0.09285144507884979,-0.01588248461484909,0.09101885557174683
1710957938383881000,17.015880859375,0.044898562133312225,-0.14080433547496796,0.25503605604171753
1710957938402840600,17.034840576171874,0.0021380267571657896,-0.291687935590744,0.33139413595199585
1710957938421800200,17.05380029296875,-0.04001164436340332,-0.41386088728904724,0.3582721948623657
1710957938440759600,17.072759521484375,-0.06872228533029556,-0.4676169753074646,0.3237583339214325
1710957938459719200,17.09171923828125,0.011300998739898205,-0.39217519760131836,0.2458730787038803
1710957938478678800,17.1106787109375,0.2000582218170166,-0.32681265473365784,0.11545344442129135
1710957938497638100,17.12963818359375,0.26450446248054504,-0.37110036611557007,0.06841685622930527
1710957938516597800,17.14859765625,0.13255766034126282,-0.5516108870506287,0.08124501258134842
1710957938535557400,17.167557373046876,0.03787361457943916,-0.5103775262832642,0.09865466505289078
1710957938554517000,17.18651708984375,0.08918625861406326,-0.24373504519462585,0.13530655205249786
1710957938573476400,17.205476318359374,0.13255766034126282,-0.019242240116000175,0.12370011955499649
1710957938592436000,17.22443603515625,0.1185077652335167,-0.017715077847242355,0.15271618962287903
1710957938611395600,17.2433955078125,0.08368847519159317,-0.08949168771505356,0.1591302752494812
1710957938630355000,17.26235498046875,0.0308486707508564,-0.164322629570961,0.1380554437637329
1710957938649314600,17.281314453125,0.012522728182375431,-0.10720676928758621,0.010690134018659592
1710957938668274200,17.300274169921874,0.0461202897131443,0.022296564653515816,-0.11209368705749512
1710957938687233800,17.31923388671875,0.056199558079242706,0.17745621502399445,-0.16218459606170654
1710957938706193200,17.338193115234375,0.08155044913291931,0.22235478460788727,-0.22418737411499023
1710957938725152800,17.35715283203125,0.10079269111156464,0.09285144507884979,-0.2861901521682739
1710957938744112400,17.3761123046875,0.07941242307424545,-0.003665188793092966,-0.282524973154068
1710957938763072000,17.395072021484374,0.0513126403093338,0.08338304609060287,-0.25900667905807495
1710957938782031400,17.41403125,0.09132428467273712,0.19639302790164948,-0.22846342623233795
1710957938800991000,17.432990966796876,0.09926552325487137,0.18234314024448395,-0.17195843160152435
1710957938819950600,17.45195068359375,0.07116574794054031,0.10354158282279968,-0.11942406743764877
1710957938838910200,17.47091015625,0.043371398001909256,0.0461202897131443,-0.09193515032529831
1710957938857869600,17.48986962890625,0.010384701192378998,0.0256563201546669,-0.043982263654470444
1710957938876829200,17.5088291015625,-0.021380268037319183,0.033597562462091446,-0.001832594396546483
1710957938895788800,17.527788818359376,-0.040317077189683914,0.033597562462091446,0.00946840364485979
1710957938914748200,17.546748046875,-0.0513126403093338,0.07055488228797913,-0.013744457624852657
1710957938933707800,17.565707763671874,-0.06230820715427399,0.1795942485332489,-0.05742128938436508
1710957938952667400,17.58466748046875,-0.06261363625526428,0.287106454372406,-0.1026252806186676
1710957938971627000,17.603626953125,-0.06352993845939636,0.3442223072052002,-0.1279761642217636
1710957938990586400,17.62258642578125,-0.08857539296150208,0.3173442482948303,-0.1130099818110466
1710957939009546000,17.6415458984375,-0.1493564397096634,0.268169641494751,-0.06444623321294785
1710957939028505600,17.660505615234374,-0.20280711352825165,0.22327107191085815,-0.04917461425065994
1710957939047465200,17.67946533203125,-0.1444695144891739,0.11575887352228165,-0.050090912729501724
1710957939066424800,17.6984248046875,-0.0717766135931015,-0.004276053514331579,-0.061391908675432205
1710957939085384200,17.71738427734375,-0.04764745384454727,0.009773836471140385,-0.06566796451807022
1710957939104343800,17.73634375,-0.04276053607463837,0.012522728182375431,-0.0766635313630104
1710957939123303400,17.755303466796875,-0.07910698652267456,0.007635809946805239,-0.07024945318698883
1710957939142263000,17.774262939453124,-0.07849612087011337,-0.01435532234609127,-0.037262752652168274
1710957939161222400,17.793222412109376,-0.04978547990322113,-0.08063415437936783,-0.034208428114652634
1710957939180182000,17.81218212890625,-0.04001164436340332,-0.11759147047996521,-0.05406153202056885
1710957939199141600,17.8311416015625,-0.04764745384454727,-0.11514800786972046,-0.08063415437936783
1710957939218101200,17.850101318359375,-0.07330377399921417,-0.1078176349401474,-0.09162971377372742
1710957939237060900,17.869060791015624,-0.09468404203653336,-0.05589412897825241,-0.13775001466274261
1710957939256020500,17.8880205078125,-0.12125665694475174,0.03634645417332649,-0.16310089826583862
1710957939274979800,17.906979736328125,-0.12644900381565094,0.10506874322891235,-0.15302163362503052
1710957939293939500,17.925939453125,-0.1185077652335167,0.1637117564678192,-0.10995566099882126
1710957939312899000,17.944899169921875,-0.10201441496610641,0.1493564397096634,-0.05894844979047775
1710957939331858700,17.963858642578124,-0.10873392969369888,0.05864302068948746,-0.035735588520765305
1710957939350818300,17.982818359375,-0.11148282140493393,-0.015271619893610477,-0.031154103577136993
1710957939369778000,18.00177783203125,-0.09712749719619751,-0.054672397673130035,-0.05039634555578232
1710957939388737500,18.020737548828127,-0.10201441496610641,-0.049480047076940536,-0.0616973415017128
1710957939407697000,18.03969677734375,-0.10873392969369888,0.009162971749901772,-0.0769689604640007
1710957939426656500,18.058656494140624,-0.0922405794262886,0.05955931544303894,-0.05864302068948746
1710957939445616000,18.0776162109375,-0.06841685622930527,0.05222893878817558,-0.03176496922969818
1710957939464575700,18.09657568359375,-0.07116574794054031,0.009162971749901772,-0.003970621153712273
1710957939483535000,18.11553515625,-0.0772743970155716,-0.03695731982588768,0.04245510324835777
1710957939502494700,18.13449462890625,-0.032681263983249664,-0.11209368705749512,0.06230820715427399
1710957939521454300,18.153454345703125,0.03543015569448471,-0.19333870708942413,0.08124501258134842
1710957939540414000,18.1724140625,0.04459312930703163,-0.26358816027641296,0.08979712426662445
1710957939559373600,18.19137353515625,0.01588248461484909,-0.2974911332130432,0.056810423731803894
1710957939578333200,18.210333251953124,-0.025961752980947495,-0.2458730787038803,0.04520399495959282
1710957939597292800,18.229292724609376,-0.06505709886550903,-0.12583814561367035,0.021991131827235222
1710957939616252400,18.24825244140625,-0.06383536756038666,0.0030543238390237093,-0.03237583488225937
1710957939635211800,18.267211669921874,-0.05253437161445618,0.08949168771505356,-0.07544180005788803
1710957939654171400,18.28617138671875,-0.06017018109560013,0.13164135813713074,-0.08979712426662445
1710957939673131000,18.305131103515624,-0.05192350596189499,0.1328630894422531,-0.09437860548496246
1710957939692090600,18.324090576171876,-0.0461202897131443,0.0870482325553894,-0.08155044913291931
1710957939711050200,18.34305029296875,-0.029932374134659767,0.06902772188186646,-0.07147117704153061
1710957939730009600,18.362009521484374,-0.028405211865901947,0.08826996386051178,-0.06414080411195755
1710957939748969200,18.38096923828125,-0.03940077871084213,0.0977383628487587,-0.03787361457943916
1710957939767928800,18.3999287109375,-0.06047561392188072,0.10018182545900345,-0.013744457624852657
1710957939786888400,18.418888427734377,-0.07147117704153061,0.0769689604640007,-0.001221729558892548
1710957939805848000,18.43784814453125,-0.05497783049941063,0.028099779039621353,-0.007941242307424545
1710957939824807700,18.4568076171875,-0.04001164436340332,-0.0009162971982732415,-0.009162971749901772
1710957939843767300,18.475767333984376,-0.05253437161445618,0.01802051067352295,-0.012522728182375431
1710957939862727000,18.494726806640625,-0.05925388261675835,0.03543015569448471,-0.02260199747979641
1710957939881686300,18.513686279296873,-0.048563748598098755,0.05222893878817558,-0.05558869615197182
1710957939900646000,18.53264599609375,-0.032681263983249664,0.0720820426940918,-0.07024945318698883
1710957939919605500,18.55160546875,-0.010384701192378998,0.08307760953903198,-0.06200277432799339
1710957939938565000,18.570565185546876,0.005803215317428112,0.07910698652267456,-0.043371398001909256
1710957939957524500,18.5895244140625,-0.000610864779446274,0.05192350596189499,-0.018325943499803543
1710957939976484000,18.608484130859374,-0.017715077847242355,0.017715077847242355,0.004276053514331579
1710957939995443700,18.627443603515626,-0.014966187067329884,-0.020158538594841957,0.02932151034474373
1710957940014403300,18.6464033203125,-0.010079269297420979,-0.01588248461484909,0.024740023538470268
1710957940033363000,18.665363037109376,-0.01802051067352295,-0.007635809946805239,0.017715077847242355
1710957940052322600,18.684322509765625,-0.02932151034474373,-0.007024944759905338,0.03145953640341759
1710957940071282200,18.7032822265625,-0.027488915249705315,0.011911863461136818,0.016187917441129684
1710957940090241800,18.72224169921875,-0.010995565913617611,0.03023780696094036,-0.014049889519810677
1710957940109201200,18.741201171875,0.000305432389723137,0.03298669680953026,-0.03695731982588768
1710957940128160800,18.760160888671876,0.011911863461136818,0.027488915249705315,-0.06261363625526428
1710957940147120400,18.779120361328125,0.006719512399286032,0.026878049597144127,-0.07757982611656189
1710957940166080000,18.798080078125,-0.0027488914784044027,0.014660755172371864,-0.08124501258134842
1710957940185039600,18.81703955078125,0.007941242307424545,0.01893680728971958,-0.07788526266813278
1710957940203999000,18.8359990234375,0.02932151034474373,0.03543015569448471,-0.08491020649671555
1710957940222958600,18.85495849609375,0.021380268037319183,0.06933315098285675,-0.0766635313630104
1710957940241918200,18.873918212890626,-0.006108647678047419,0.06475166976451874,-0.04520399495959282
1710957940260877800,18.8928779296875,-0.0204639695584774,0.056199558079242706,-0.025350889191031456
1710957940279837400,18.91183740234375,-0.013744457624852657,0.0513126403093338,-0.016187917441129684
1710957940298797000,18.930797119140625,-0.015577051788568497,0.03909534588456154,-0.004581485874950886
1710957940317756700,18.949756591796874,-0.01954767294228077,0.006414080038666725,0.023823726922273636
1710957940336716300,18.96871630859375,-0.023518294095993042,-0.0021380267571657896,0.016187917441129684
1710957940355675600,18.987675537109375,-0.01954767294228077,0.023823726922273636,-0.003970621153712273
1710957940374635300,19.00663525390625,-0.006719512399286032,0.03176496922969818,-0.010384701192378998
1710957940393595000,19.025594970703125,-0.001832594396546483,0.028099779039621353,0.013439024798572063
1710957940412554500,19.044554443359374,0.003665188793092966,0.010384701192378998,0.020158538594841957
1710957940431513900,19.063513916015626,0.0021380267571657896,-0.03909534588456154,0.011606430634856224
1710957940450473500,19.082473388671875,-0.003359756199643016,-0.0772743970155716,0.01435532234609127
1710957940469433000,19.10143310546875,-0.0009162971982732415,-0.08979712426662445,0.03756818547844887
1710957940488392700,19.120392822265625,0.004276053514331579,-0.08521563559770584,0.06750056147575378
1710957940507352300,19.139352294921874,-0.0015271619195118546,-0.06108647957444191,0.08155044913291931
1710957940526312000,19.15831201171875,-0.006414080038666725,-0.03787361457943916,0.06933315098285675
1710957940545271300,19.177271240234376,-0.02412915788590908,-0.03390299528837204,0.05864302068948746
1710957940564231000,19.19623095703125,-0.02626718580722809,-0.043982263654470444,0.04276053607463837
1710957940583190500,19.2151904296875,-0.025350889191031456,-0.03848448023200035,0.031154103577136993
1710957940602150100,19.234150146484374,-0.03451386094093323,-0.02932151034474373,0.026572618633508682
1710957940621109800,19.25310986328125,-0.0412333719432354,-0.04550942778587341,0.027488915249705315
1710957940640069400,19.2720693359375,-0.010690134018659592,-0.054672397673130035,0.029932374134659767
1710957940659029000,19.291029052734373,0.04734202101826668,-0.019242240116000175,0.022907428443431854
1710957940677988400,19.30998828125,0.06750056147575378,-0.028405211865901947,0.02871064469218254
1710957940696948000,19.328947998046875,0.04153880476951599,-0.08521563559770584,0.04062250629067421
1710957940715907600,19.347907470703124,-0.014660755172371864,-0.1585194170475006,0.03940077871084213
1710957940734867200,19.3668671875,-0.09010255336761475,-0.2006690800189972,0.05345066636800766
1710957940753826600,19.38582666015625,-0.1178968995809555,-0.1594357043504715,0.07055488228797913
1710957940772786200,19.4047861328125,-0.06505709886550903,-0.08002328872680664,0.09834922850131989
1710957940791745800,19.423745849609375,0.033597562462091446,0.004276053514331579,0.11698060482740402
1710957940810705400,19.442705322265624,0.07116574794054031,0.057726722210645676,0.10018182545900345
1710957940829665000,19.4616650390625,0.020158538594841957,0.010995565913617611,0.06811141967773438
1710957940848624400,19.480624267578126,-0.05253437161445618,-0.11484257876873016,0.04062250629067421
1710957940867584000,19.499583984375,-0.056199558079242706,-0.16279546916484833,-0.008552107028663158
1710957940886543600,19.518543701171875,0.007635809946805239,-0.12614357471466064,-0.029626941308379173
1710957940905503200,19.537503173828124,0.0720820426940918,-0.046425722539424896,-0.04367683082818985
1710957940924462800,19.556462890625,0.06933315098285675,0.06291907280683517,-0.06475166976451874
1710957940943422200,19.575422119140626,0.021380268037319183,0.0821613147854805,-0.0616973415017128
1710957940962381800,19.5943818359375,-0.015577051788568497,0.030543239787220955,-0.02871064469218254
1710957940981341400,19.613341552734376,-0.010690134018659592,-0.037262752652168274,-0.000610864779446274
1710957941000301000,19.632301025390625,0.0204639695584774,-0.08491020649671555,-0.000610864779446274
1710957941019260400,19.651260498046874,0.02107483521103859,-0.12064579129219055,0.0027488914784044027
1710957941038220000,19.670219970703126,-0.01282816007733345,-0.12705987691879272,0.010079269297420979
1710957941057179600,19.6891796875,-0.034208428114652634,-0.07483093440532684,0.000610864779446274
1710957941076139300,19.70813916015625,-0.041844237595796585,-0.0009162971982732415,-0.006108647678047419
1710957941095099000,19.727098876953125,-0.06994401663541794,0.015271619893610477,0.010690134018659592
1710957941114058200,19.746058349609374,-0.0668896958231926,0.030543239787220955,0.037262752652168274
1710957941133017900,19.765017822265627,-0.03237583488225937,0.024740023538470268,0.04306596517562866
1710957941151977500,19.7839775390625,-0.008552107028663158,0.026878049597144127,0.012522728182375431
1710957941170936800,19.802936767578124,-0.008857538923621178,0.033597562462091446,-0.013133592903614044
1710957941189896400,19.821896484375,-0.004886918235570192,0.0565049909055233,-0.03817904740571976
1710957941208856000,19.84085595703125,0.012217295356094837,0.056199558079242706,-0.07788526266813278
1710957941227815700,19.859815673828123,0.036651886999607086,0.02779434807598591,-0.11606431007385254
1710957941246775000,19.878775146484376,0.04917461425065994,0.008857538923621178,-0.14263692498207092
1710957941265734700,19.897734619140625,0.041844237595796585,0.011911863461136818,-0.1487455666065216
1710957941284694300,19.9166943359375,0.02107483521103859,-0.004276053514331579,-0.11362084746360779
1710957941303654000,19.93565380859375,0.027488915249705315,-0.008857538923621178,-0.06505709886550903
1710957941322613200,19.95461328125,0.05436696484684944,0.004581485874950886,-0.029626941308379173
1710957941341572900,19.97357275390625,0.03848448023200035,-0.013133592903614044,0.021380268037319183
1710957941360532500,19.992532470703125,0,-0.032070402055978775,0.08307760953903198
1710957941379492000,20.0114921875,-0.04978547990322113,-0.020158538594841957,0.12736530601978302
1710957941398451500,20.030451416015627,-0.08277218043804169,0.008552107028663158,0.1285870373249054
1710957941417411000,20.0494111328125,-0.07757982611656189,0.02932151034474373,0.10048725455999374
1710957941436370700,20.06837060546875,-0.04978547990322113,0.036651886999607086,0.05528326332569122
1710957941455330300,20.087330322265625,-0.021685699000954628,0.03023780696094036,0.005192350596189499
1710957941474289700,20.10628955078125,-0.006108647678047419,0.007941242307424545,-0.03787361457943916
1710957941493249300,20.125249267578123,0.003665188793092966,0.001832594396546483,-0.08277218043804169
1710957941512209000,20.144208984375,0.007330377586185932,0.009773836471140385,-0.11178825795650482
1710957941531168300,20.163168212890625,0.014966187067329884,0.001221729558892548,-0.11667517572641373
1710957941550127900,20.1821279296875,0.01802051067352295,-0.020158538594841957,-0.10415244847536087
1710957941569087500,20.20108740234375,0.019242240116000175,-0.03145953640341759,-0.08582650125026703
1710957941588047000,20.220047119140624,0.023212861269712448,-0.027488915249705315,-0.049480047076940536
1710957941607006500,20.23900634765625,0.01282816007733345,-0.02412915788590908,-0.008246674202382565
1710957941625966000,20.257966064453125,0.003359756199643016,-0.016798781231045723,0.024740023538470268
1710957941644925700,20.27692578125,0.003665188793092966,-0.00946840364485979,0.04306596517562866
1710957941663885300,20.29588525390625,0.0030543238390237093,-0.01649334840476513,0.0412333719432354
1710957941682844700,20.3148447265625,0.007024944759905338,-0.054672397673130035,0.027488915249705315
1710957941701804300,20.33380419921875,0.01282816007733345,-0.07330377399921417,0.01588248461484909
1710957941720763600,20.352763671875,0.007941242307424545,-0.06200277432799339,0.004886918235570192
1710957941739723300,20.37172314453125,0.003665188793092966,-0.046425722539424896,0.005192350596189499
1710957941758683000,20.390682861328123,0.014049889519810677,-0.005803215317428112,0.001221729558892548
1710957941777642500,20.409642578125,0.027488915249705315,0.011606430634856224,-0.0015271619195118546
1710957941796602000,20.42860205078125,0.03634645417332649,0.0009162971982732415,-0.0021380267571657896
1710957941815561500,20.4475615234375,0.026878049597144127,-0.016798781231045723,0.0021380267571657896
1710957941834521000,20.46652099609375,0.008246674202382565,-0.047036588191986084,0.016187917441129684
1710957941853480400,20.48548046875,0.01649334840476513,-0.05192350596189499,0.013439024798572063
1710957941872440000,20.504440185546876,0.019853105768561363,-0.03817904740571976,-0.01954767294228077
1710957941891399700,20.523399658203125,0.001832594396546483,-0.016798781231045723,-0.03909534588456154
1710957941910359300,20.542359375,-0.011911863461136818,0.012522728182375431,-0.032070402055978775
1710957941929318700,20.561318603515623,-0.011606430634856224,0.03390299528837204,-0.036651886999607086
1710957941948278300,20.5802783203125,-0.02626718580722809,0.026572618633508682,-0.036651886999607086
1710957941967238000,20.59923779296875,-0.035735588520765305,0.004581485874950886,-0.02260199747979641
1710957941986197200,20.618197265625,-0.025961752980947495,-0.01588248461484909,-0.025350889191031456
1710957942005156900,20.637156982421875,0.0015271619195118546,-0.023518294095993042,-0.036651886999607086
1710957942024116500,20.656116455078124,0.008246674202382565,-0.006414080038666725,-0.054672397673130035
1710957942043075800,20.675075927734376,-0.007330377586185932,-0.001221729558892548,-0.07849612087011337
1710957942062035500,20.694035400390625,-0.0054977829568088055,-0.016798781231045723,-0.09896009415388107
1710957942080995000,20.7129951171875,0.005803215317428112,-0.017104214057326317,-0.09896009415388107
1710957942099954400,20.731954345703127,0.003359756199643016,-0.007024944759905338,-0.09804379940032959
1710957942118914000,20.7509140625,0.001832594396546483,0.00946840364485979,-0.09468404203653336
1710957942137873700,20.769873779296876,-0.013439024798572063,0.020158538594841957,-0.0974329337477684
1710957942156833000,20.7888330078125,-0.014966187067329884,0.007941242307424545,-0.06017018109560013
1710957942175792600,20.807792724609374,-0.004886918235570192,-0.004276053514331579,-0.0256563201546669
1710957942194752300,20.826752197265623,-0.004886918235570192,-0.010995565913617611,0.004581485874950886
1710957942213711600,20.845711669921876,-0.003970621153712273,-0.027488915249705315,0.025350889191031456
1710957942232671200,20.864671142578125,-0.016798781231045723,-0.03390299528837204,0.032070402055978775
1710957942251630800,20.883630859375,-0.043982263654470444,-0.035735588520765305,0.04459312930703163
1710957942270590200,20.902590087890626,-0.043982263654470444,-0.03145953640341759,0.05345066636800766
1710957942289549800,20.9215498046875,-0.026878049597144127,-0.026572618633508682,0.05345066636800766
1710957942308509400,20.940509521484376,-0.018631376326084137,-0.01893680728971958,0.04306596517562866
1710957942327469000,20.959468994140625,-0.03237583488225937,-0.02626718580722809,0.03634645417332649
1710957942346428400,20.978428466796874,-0.0461202897131443,-0.039706211537122726,0.03329212963581085
1710957942365388000,20.997387939453127,-0.03543015569448471,-0.04520399495959282,0.032070402055978775
1710957942384347600,21.01634765625,-0.017715077847242355,-0.044898562133312225,0.020769402384757996
1710957942403307000,21.03530712890625,-0.029016077518463135,-0.03909534588456154,0.01802051067352295
1710957942422266600,21.0542666015625,-0.04886918142437935,-0.040317077189683914,0.021685699000954628
1710957942441226200,21.073226318359374,-0.04825831577181816,-0.035124726593494415,0.015577051788568497
1710957942460185600,21.092185546875,-0.037262752652168274,-0.03023780696094036,0.019242240116000175
1710957942479145200,21.111145263671876,-0.030543239787220955,-0.021991131827235222,0.017715077847242355
1710957942498104800,21.130104736328125,-0.031154103577136993,-0.023823726922273636,0.002443459117785096
1710957942517064200,21.149064208984374,-0.03543015569448471,-0.026878049597144127,-0.011300998739898205
1710957942536023800,21.16802392578125,-0.03237583488225937,-0.033597562462091446,-0.015271619893610477
1710957942554983400,21.1869833984375,-0.019853105768561363,-0.027488915249705315,-0.024434590712189674
1710957942573943000,21.205943115234376,-0.01435532234609127,-0.021380268037319183,-0.0360410213470459
1710957942592902400,21.22490234375,-0.012217295356094837,-0.014049889519810677,-0.04825831577181816
1710957942611862000,21.243862060546874,0.001221729558892548,-0.01740964688360691,-0.056810423731803894
1710957942630821400,21.2628212890625,0.011911863461136818,-0.0204639695584774,-0.06017018109560013
1710957942649781000,21.281781005859376,0.004886918235570192,-0.02779434807598591,-0.06352993845939636
1710957942668740600,21.30074072265625,-0.007941242307424545,-0.03817904740571976,-0.06566796451807022
1710957942687700200,21.3197001953125,0.001832594396546483,-0.025961752980947495,-0.06872228533029556
1710957942706659600,21.33865966796875,0.017104214057326317,-0.015577051788568497,-0.0766635313630104
1710957942725619200,21.357619140625,0.013439024798572063,-0.027488915249705315,-0.07055488228797913
1710957942744578800,21.376578857421876,0.006719512399286032,-0.037262752652168274,-0.05222893878817558
1710957942763538200,21.3955380859375,0.0021380267571657896,-0.035124726593494415,-0.022907428443431854
1710957942782497800,21.414497802734374,0.003359756199643016,-0.03298669680953026,0.0021380267571657896
1710957942801457400,21.43345751953125,0.010079269297420979,-0.026878049597144127,0.018325943499803543
1710957942820416800,21.452416748046875,-0.000610864779446274,-0.022907428443431854,0.0360410213470459
1710957942839376400,21.47137646484375,-0.035735588520765305,-0.04153880476951599,0.061391908675432205
1710957942858336000,21.4903359375,-0.04825831577181816,-0.04550942778587341,0.0766635313630104
1710957942877295600,21.509295654296874,-0.01588248461484909,-0.03848448023200035,0.06383536756038666
1710957942896255200,21.528255126953123,0.011300998739898205,-0.0412333719432354,0.05528326332569122
1710957942915214600,21.547214599609376,-0.000610864779446274,-0.032070402055978775,0.05253437161445618
1710957942934174200,21.56617431640625,-0.01588248461484909,-0.029626941308379173,0.04978547990322113
1710957942953133800,21.5851337890625,-0.01740964688360691,-0.04581485688686371,0.03787361457943916
1710957942972093200,21.60409326171875,-0.016798781231045723,-0.056810423731803894,0.020158538594841957
1710957942991052800,21.623052734375,-0.008246674202382565,-0.06505709886550903,0.01435532234609127
1710957943010012400,21.642012451171876,0.000305432389723137,-0.04917461425065994,0.013439024798572063
1710957943028971800,21.6609716796875,-0.001832594396546483,-0.019853105768561363,0.013744457624852657
1710957943047931400,21.679931396484374,-0.0027488914784044027,-0.003970621153712273,0.01588248461484909
1710957943066891000,21.69889111328125,-0.000305432389723137,-0.01282816007733345,0.016187917441129684
1710957943085850600,21.7178505859375,0.002443459117785096,-0.03909534588456154,0.01740964688360691
1710957943104810200,21.736810302734376,0.0054977829568088055,-0.047952886670827866,0.023823726922273636
1710957943123769600,21.75576953125,0.026878049597144127,-0.03237583488225937,0.025961752980947495
1710957943142729200,21.774729248046874,0.03237583488225937,-0.023212861269712448,0.031154103577136993
1710957943161688800,21.793688720703123,0.018631376326084137,-0.010384701192378998,0.02779434807598591
1710957943180648400,21.8126484375,0.023518294095993042,-0.004276053514331579,0.023212861269712448
1710957943199607800,21.83160791015625,0.04276053607463837,-0.010690134018659592,0.006719512399286032
1710957943218567400,21.8505673828125,0.05222893878817558,-0.026572618633508682,-0.006108647678047419
1710957943237527000,21.869527099609375,0.047952886670827866,-0.029626941308379173,-0.026878049597144127
1710957943256486700,21.888486572265624,0.04214967042207718,-0.03023780696094036,-0.04459312930703163
1710957943275446300,21.9074462890625,0.044898562133312225,-0.0015271619195118546,-0.061391908675432205
1710957943294405600,21.926405517578125,0.047952886670827866,0.03481929376721382,-0.07483093440532684
1710957943313365200,21.945365234375,0.033597562462091446,0.03909534588456154,-0.06505709886550903
1710957943332324900,21.964324951171875,0.0204639695584774,0.01282816007733345,-0.03848448023200035
1710957943351284500,21.983284423828124,0.019853105768561363,-0.014966187067329884,-0.01588248461484909
1710957943370244000,22.002244140625,0.008246674202382565,-0.02871064469218254,0.007941242307424545
1710957943389203500,22.021203369140625,0.021685699000954628,-0.02107483521103859,0.024740023538470268
1710957943408163000,22.0401630859375,0.04581485688686371,-0.011911863461136818,0.04214967042207718
1710957943427122700,22.059122802734375,0.022296564653515816,0.000305432389723137,0.04886918142437935
1710957943446082300,22.078082275390624,-0.014966187067329884,-0.003970621153712273,0.05345066636800766
1710957943465041700,22.097041748046873,-0.014660755172371864,-0.025350889191031456,0.0565049909055233
1710957943484001300,22.116001220703126,0.0021380267571657896,-0.029932374134659767,0.04276053607463837
1710957943502961000,22.1349609375,0.016187917441129684,-0.018631376326084137,0.019242240116000175
1710957943521920500,22.15392041015625,0.02412915788590908,-0.005192350596189499,-0.0030543238390237093
1710957943540880100,22.172880126953125,0.01954767294228077,0.0021380267571657896,-0.016187917441129684
1710957943559839500,22.191839599609374,0.019853105768561363,0.005803215317428112,-0.03023780696094036
1710957943578799000,22.210799072265626,0.02412915788590908,0.007635809946805239,-0.03481929376721382
1710957943597758700,22.2297587890625,0.013439024798572063,-0.005803215317428112,-0.025961752980947495
1710957943616718300,22.24871826171875,0.003359756199643016,-0.012522728182375431,-0.017715077847242355
1710957943635678000,22.267677978515625,0.010690134018659592,0.005192350596189499,-0.016187917441129684
1710957943654637300,22.28663720703125,0.010079269297420979,0.0308486707508564,-0.011911863461136818
1710957943673597000,22.305596923828126,-0.01588248461484909,0.033597562462091446,0.008552107028663158
1710957943692556500,22.324556640625,-0.029016077518463135,0.005192350596189499,0.047036588191986084
1710957943711516200,22.34351611328125,-0.029016077518463135,-0.014966187067329884,0.05436696484684944
1710957943730475800,22.362475830078125,-0.024434590712189674,-0.01802051067352295,0.043371398001909256
1710957943749435400,22.381435302734374,-0.020158538594841957,-0.018631376326084137,0.043371398001909256
1710957943768395000,22.40039501953125,-0.017715077847242355,-0.021380268037319183,0.04428769648075104
1710957943787354600,22.419354736328124,-0.02626718580722809,-0.01588248461484909,0.039706211537122726
1710957943806314000,22.43831396484375,-0.029626941308379173,-0.0204639695584774,0.030543239787220955
1710957943825273600,22.457273681640626,-0.032681263983249664,-0.034208428114652634,0.02871064469218254
1710957943844233200,22.476233154296875,-0.03787361457943916,-0.034208428114652634,0.021991131827235222
1710957943863192800,22.49519287109375,-0.03145953640341759,-0.021991131827235222,0.008552107028663158
1710957943882152400,22.51415234375,-0.03390299528837204,-0.016187917441129684,0.008857538923621178
1710957943901112000,22.533112060546873,-0.03817904740571976,-0.011300998739898205,-0.000305432389723137
1710957943920071400,22.552071533203126,-0.023212861269712448,0.0015271619195118546,-0.024434590712189674
1710957943939031000,22.571031005859375,-0.021991131827235222,-0.013133592903614044,-0.048563748598098755
1710957943957990700,22.58999072265625,-0.04367683082818985,-0.001832594396546483,-0.07574722915887833
1710957943976950300,22.6089501953125,-0.06933315098285675,0.019242240116000175,-0.09040798991918564
1710957943995910000,22.627909912109374,-0.029932374134659767,0.035124726593494415,-0.09407317638397217
1710957944014869500,22.646869384765626,0.021380268037319183,0.05742128938436508,-0.10384701192378998
1710957944033829000,22.6658291015625,0.025045456364750862,0.06352993845939636,-0.10384701192378998
1710957944052788700,22.684788818359376,-0.016798781231045723,0.0665842592716217,-0.10018182545900345
1710957944071748400,22.703748291015625,-0.03329212963581085,0.036651886999607086,-0.09407317638397217
1710957944090707700,22.722707763671874,-0.02412915788590908,0.029016077518463135,-0.09987638890743256
1710957944109667300,22.741667236328126,-0.013439024798572063,0.021991131827235222,-0.09987638890743256
1710957944128627000,22.760626953125,-0.005192350596189499,0.027488915249705315,-0.08949168771505356
1710957944147586600,22.779586669921876,0.003665188793092966,0.04978547990322113,-0.08032871782779694
1710957944166546200,22.798546142578125,0.004886918235570192,0.053756099194288254,-0.06566796451807022
1710957944185505800,22.817505859375,-0.010384701192378998,0.05864302068948746,-0.057726722210645676
1710957944204465400,22.83646533203125,-0.013133592903614044,0.03023780696094036,-0.04367683082818985
1710957944223425000,22.855425048828124,-0.001832594396546483,0.025045456364750862,-0.0409279391169548
1710957944242384400,22.87438427734375,0.006108647678047419,0.04917461425065994,-0.04306596517562866
1710957944261344000,22.893343994140626,-0.015271619893610477,0.05742128938436508,-0.026878049597144127
1710957944280303900,22.912303955078126,-0.032681263983249664,0.05528326332569122,-0.012522728182375431
1710957944299263200,22.93126318359375,-0.0256563201546669,0.05406153202056885,-0.0054977829568088055
1710957944318222800,22.950222900390624,-0.023823726922273636,0.04581485688686371,0.009773836471140385
1710957944337182500,22.969182373046873,-0.02626718580722809,0.03909534588456154,0.025045456364750862
