time,seconds_elapsed,z,y,x
1710957921463763500,0.095763427734375,2.5806591510772705,7.062416076660156,6.082555294036865
1710957921482722300,0.114722412109375,3.043670415878296,6.881757736206055,6.9236321449279785
1710957921501681200,0.13368115234375,3.3655049800872803,6.990631580352783,7.342376232147217
1710957921520640000,0.152639892578125,3.376272678375244,7.165307521820068,7.359126091003418
1710957921539598800,0.171598876953125,3.159722328186035,7.250252723693848,6.971488952636719
1710957921558557400,0.190557373046875,2.7637102603912354,7.361518859863281,6.401997089385986
1710957921577516300,0.209516357421875,2.1894326210021973,7.5050883293151855,5.9545392990112305
1710957921596475100,0.22847509765625,1.7790635824203491,7.590033531188965,5.746363639831543
1710957921615434000,0.24743408203125,1.7084753513336182,7.452445983886719,5.523830890655518
1710957921634392800,0.266392822265625,1.872383713722229,7.2813591957092285,5.37069034576416
1710957921653351700,0.2853515625,2.0303099155426025,7.21316385269165,5.568098068237305
1710957921672310500,0.304310546875,2.258824586868286,7.240681171417236,6.041877269744873
1710957921691269400,0.323269287109375,2.480160713195801,7.269395351409912,6.44387149810791
1710957921710228500,0.342228515625,2.651247501373291,7.197610378265381,6.547959327697754
1710957921729187300,0.361187255859375,2.6452653408050537,7.09711217880249,6.496513366699219
1710957921748146200,0.380146240234375,2.4849462509155273,6.97986364364624,6.3840508460998535
1710957921767105000,0.39910498046875,2.2648067474365234,6.86261510848999,6.183053493499756
1710957921786064000,0.41806396484375,2.2025933265686035,6.845865726470947,5.9545392990112305
1710957921805022700,0.437022705078125,2.181057929992676,6.807580471038818,5.672185897827148
1710957921823981600,0.455981689453125,1.9896320104599,6.874579429626465,5.598008632659912
1710957921842940400,0.4749404296875,1.8831514120101929,7.0301127433776855,5.874379634857178
1710957921861899300,0.493899169921875,1.9884356260299683,7.130611419677734,6.390032768249512
1710957921880858000,0.512858154296875,2.310270309448242,7.014559745788574,6.747759819030762
1710957921899817000,0.53181689453125,2.592623233795166,6.757331371307373,6.778866767883301
1710957921918775800,0.55077587890625,2.5423741340637207,6.715456962585449,6.909275531768799
1710957921937734700,0.569734619140625,2.3880369663238525,6.720242500305176,7.085147857666016
1710957921956693500,0.588693603515625,2.4394826889038086,6.86381196975708,7.083951473236084
1710957921975652400,0.60765234375,2.328216314315796,6.991827964782715,6.853044033050537
1710957921994611200,0.626611083984375,1.994417667388916,7.062416076660156,6.6939215660095215
1710957922013570000,0.645570068359375,1.710868239402771,7.162914752960205,6.4941205978393555
1710957922032529000,0.66452880859375,1.7156537771224976,7.366304397583008,6.4187469482421875
1710957922051488000,0.683488037109375,1.8532410860061646,7.540980339050293,6.421139717102051
1710957922070446800,0.70244677734375,2.063809633255005,7.625925540924072,6.565905570983887
1710957922089405700,0.72140576171875,2.3856441974639893,7.710870742797852,6.68435001373291
1710957922108364500,0.740364501953125,2.5591237545013428,7.6977105140686035,6.68435001373291
1710957922127323400,0.759323486328125,2.526820659637451,7.616354465484619,6.564708709716797
1710957922146282200,0.7782822265625,2.50289249420166,7.864011764526367,6.38165807723999
1710957922165241300,0.797241455078125,2.3090739250183105,8.508877754211426,6.187839508056641
1710957922184200200,0.8162001953125,2.438286304473877,8.781659126281738,6.300302028656006
1710957922203159000,0.835158935546875,2.695514678955078,7.984848976135254,5.595615863800049
1710957922222118000,0.854117919921875,2.6596224308013916,7.252645492553711,4.844269275665283
1710957922241076700,0.87307666015625,2.321038007736206,6.9822564125061035,4.667200565338135
1710957922260035800,0.892035888671875,2.194218397140503,7.026523590087891,5.429314613342285
1710957922278994700,0.91099462890625,2.5698914527893066,7.056434154510498,5.802595138549805
1710957922297953500,0.92995361328125,3.0113673210144043,7.190432071685791,5.491528034210205
1710957922316912400,0.948912353515625,3.460021495819092,7.396214962005615,5.507081508636475
1710957922335871500,0.96787158203125,3.486342668533325,7.4739813804626465,5.645864963531494
1710957922354830300,0.986830322265625,3.4791641235351562,7.3399834632873535,5.598008632659912
1710957922373789200,1.0057890625,3.7435710430145264,7.094718933105469,5.322834014892578
1710957922392748000,1.024748046875,3.789034605026245,7.0887370109558105,5.2630133628845215
1710957922411707000,1.043706787109375,3.996013879776001,7.11984395980835,5.371886730194092
1710957922430666000,1.062666015625,4.431507587432861,7.105486869812012,5.478367328643799
1710957922449624800,1.081624755859375,4.48414945602417,7.105486869812012,5.508277893066406
1710957922468584000,1.100583984375,4.230510234832764,7.312466144561768,5.623133182525635
1710957922487542800,1.119542724609375,4.125226020812988,7.245467185974121,5.458028316497803
1710957922506501600,1.138501708984375,4.18145751953125,7.156932353973389,5.19960355758667
1710957922525460700,1.157460693359375,4.071387767791748,7.100701332092285,5.020142078399658
1710957922544419600,1.176419677734375,3.9254255294799805,7.0995049476623535,4.8813581466674805
1710957922563378700,1.195378662109375,3.830909013748169,7.217949390411377,4.844269275665283
1710957922582337500,1.214337646484375,3.9589250087738037,7.3746795654296875,4.955535888671875
1710957922601296400,1.23329638671875,4.278367042541504,7.3675007820129395,5.185246467590332
1710957922620255200,1.252255126953125,4.535595417022705,7.202396392822266,5.205585479736328
1710957922639214300,1.27121435546875,4.450650215148926,7.107879638671875,5.255835056304932
1710957922658173200,1.290173095703125,4.335794448852539,7.055237770080566,5.272584915161133
1710957922677132300,1.30913232421875,4.247260093688965,7.063612461090088,5.221138954162598
1710957922696091100,1.328091064453125,4.07258415222168,7.215556621551514,5.217549800872803
1710957922715050200,1.34705029296875,4.096512317657471,7.28255558013916,5.237888813018799
1710957922734009000,1.366009033203125,4.18863582611084,7.050451755523682,5.185246467590332
1710957922752968000,1.384968017578125,4.301098823547363,7.045666217803955,5.2151570320129395
1710957922771927000,1.403927001953125,4.418346881866455,7.162914752960205,5.2043890953063965
1710957922790886100,1.42288623046875,4.5583271980285645,7.33759069442749,5.237888813018799
1710957922809845000,1.441844970703125,4.691128730773926,7.294519901275635,5.3455657958984375
1710957922828804000,1.46080419921875,4.724628448486328,7.101897716522217,5.341976642608643
1710957922847763000,1.479762939453125,4.755734920501709,7.03489875793457,5.515456199645996
1710957922866721800,1.4987216796875,4.785645484924316,6.869793891906738,5.5106706619262695
1710957922885681000,1.517680908203125,4.764110088348389,6.738188743591309,5.395814895629883
1710957922904640000,1.536639892578125,4.660022258758545,6.597012042999268,5.276174068450928
1710957922923598800,1.555598876953125,4.669593334197998,6.595815658569336,5.190032482147217
1710957922942558000,1.574557861328125,4.697110652923584,6.661618232727051,5.108676433563232
1710957922961516800,1.593516845703125,4.677968502044678,6.771687984466553,5.088337421417236
1710957922980476000,1.612475830078125,4.6648077964782715,6.9475603103637695,5.188836097717285
1710957922999435000,1.63143505859375,4.820341110229492,7.077969551086426,5.449653625488281
1710957923018393900,1.650393798828125,4.95074987411499,7.106683254241943,5.540580749511719
1710957923037353000,1.66935302734375,4.902893543243408,7.080362319946289,5.296513080596924
1710957923056311800,1.688311767578125,4.697110652923584,7.129415035247803,5.034498691558838
1710957923075271000,1.70727099609375,4.6301116943359375,7.247859954833984,4.770092010498047
1710957923094230000,1.72622998046875,4.691128730773926,7.357929706573486,4.650450706481934
1710957923113188900,1.74518896484375,4.731806755065918,7.29810905456543,4.734199523925781
1710957923132148000,1.76414794921875,4.924428939819336,7.2227349281311035,4.951946258544922
1710957923151107000,1.783107177734375,4.965106964111328,7.1748785972595215,4.941178798675537
1710957923170066200,1.802066162109375,4.72582483291626,7.234699249267578,4.7952165603637695
1710957923189025000,1.82102490234375,4.622933387756348,7.229913711547852,4.71027135848999
1710957923207984000,1.839984130859375,4.72582483291626,7.226324558258057,4.5236310958862305
1710957923226943200,1.858943115234375,4.651647090911865,7.216753005981445,4.383651256561279
1710957923245902000,1.877902099609375,4.6301116943359375,7.031309127807617,4.572684288024902
1710957923264861200,1.896861083984375,4.693521499633789,6.8171515464782715,4.807180881500244
1710957923283820300,1.9158203125,4.790431022644043,6.763313293457031,4.9124650955200195
1710957923302779400,1.934779296875,4.803591251373291,6.898507595062256,4.863411903381348
1710957923321738200,1.95373828125,4.767699241638184,7.3292155265808105,4.88853645324707
1710957923340697300,1.972697265625,4.852644443511963,7.293323516845703,4.738985061645508
1710957923359656400,1.991656494140625,4.644468784332275,6.975078105926514,4.542773723602295
1710957923378615600,2.010615478515625,4.591826438903809,6.922435760498047,4.679164886474609
1710957923397574400,2.029574462890625,4.826323509216309,7.021738052368164,4.682754039764404
1710957923416533500,2.048533447265625,4.752145767211914,7.269395351409912,4.447061061859131
1710957923435492600,2.06749267578125,4.478167533874512,7.274180889129639,4.5308098793029785
1710957923454451700,2.08645166015625,4.457828521728516,7.04207706451416,4.668396949768066
1710957923473410800,2.105410888671875,4.686343193054199,7.0025954246521,4.5822553634643555
1710957923492370000,2.124369873046875,4.645665168762207,7.45364236831665,4.685146808624268
1710957923511328800,2.143328857421875,4.4997029304504395,7.5086774826049805,4.993820667266846
1710957923530288000,2.1622880859375,4.432703971862793,7.043273448944092,5.058426856994629
1710957923549247000,2.1812470703125,4.222135543823242,6.786045074462891,4.82751989364624
1710957923568206000,2.2002060546875,4.311866283416748,6.748956203460693,4.780859470367432
1710957923587165200,2.219165283203125,4.590630054473877,7.046862602233887,4.8191447257995605
1710957923606124300,2.238124267578125,4.666004180908203,7.396214962005615,4.852644443511963
1710957923625083400,2.25708349609375,4.53200626373291,7.4464640617370605,4.9531426429748535
1710957923644042500,2.27604248046875,4.478167533874512,7.208378314971924,5.038087844848633
1710957923663001600,2.295001708984375,4.310669898986816,7.052844524383545,4.989035129547119
1710957923681960700,2.313960693359375,4.311866283416748,7.2059855461120605,5.024927616119385
1710957923700919800,2.332919921875,4.353740692138672,7.439285755157471,5.091926574707031
1710957923719879000,2.35187890625,4.201796531677246,7.445267677307129,5.004588603973389
1710957923738838000,2.370838134765625,4.019941806793213,7.459624767303467,5.042873859405518
1710957923757797000,2.389797119140625,3.9385859966278076,7.409375190734863,5.111069202423096
1710957923776756200,2.408756103515625,3.9732820987701416,7.202396392822266,5.093122959136963
1710957923795715300,2.42771533203125,4.015156269073486,7.101897716522217,5.00578498840332
1710957923814674400,2.44667431640625,3.8883368968963623,7.237092018127441,5.006981372833252
1710957923833633500,2.465633544921875,3.9828531742095947,7.485945701599121,5.179264545440674
1710957923852592600,2.484592529296875,4.153940200805664,7.703692436218262,5.144568920135498
1710957923871551700,2.5035517578125,4.208974838256836,7.611568927764893,5.006981372833252
1710957923890510800,2.5225107421875,4.043870449066162,7.307680130004883,4.923232555389404
1710957923909470000,2.541469970703125,3.9768712520599365,6.9344000816345215,4.859822750091553
1710957923928429300,2.56042919921875,4.006781578063965,6.656832695007324,4.711467742919922
1710957923947388200,2.57938818359375,3.933800458908081,6.798008918762207,4.671986103057861
1710957923966347500,2.598347412109375,3.90987229347229,7.246663570404053,4.895715236663818
1710957923985306600,2.617306640625,3.8871402740478516,7.642675399780273,5.1290154457092285
1710957924004265700,2.636265625,3.9840497970581055,7.905886173248291,5.307280540466309
1710957924023224800,2.655224853515625,4.140779495239258,7.850851058959961,5.400600910186768
1710957924042184000,2.674183837890625,4.1419758796691895,7.464410305023193,5.341976642608643
1710957924061143000,2.69314306640625,4.060619831085205,7.161718368530273,5.290530681610107
1710957924080102100,2.71210205078125,3.9074792861938477,7.390232563018799,5.388636589050293
1710957924099061200,2.731061279296875,4.004388809204102,7.7838521003723145,5.61116886138916
1710957924118020600,2.7500205078125,4.132404804229736,8.049455642700195,5.583651542663574
1710957924136979700,2.768979736328125,3.981656789779663,8.057829856872559,5.465207099914551
1710957924155938800,2.787938720703125,3.9744784832000732,7.737192153930664,5.383851051330566
1710957924174898000,2.80689794921875,3.865604877471924,7.343572616577148,5.112265586853027
1710957924193857000,2.82585693359375,3.8321053981781006,7.245467185974121,5.179264545440674
1710957924212816400,2.84481640625,3.9828531742095947,7.395018577575684,5.352744102478027
1710957924231775500,2.863775390625,4.124029636383057,7.668996810913086,5.313262462615967
1710957924250734600,2.882734619140625,4.060619831085205,7.630711555480957,5.289334297180176
1710957924269693700,2.901693603515625,3.946960926055908,7.267002582550049,5.277370452880859
1710957924288653000,2.920653076171875,4.011567115783691,7.197610378265381,5.196014404296875
1710957924307612200,2.939612060546875,4.147958278656006,7.389036178588867,5.0907301902771
1710957924326571300,2.9585712890625,4.222135543823242,7.501499176025391,5.040481090545654
1710957924345530400,2.9775302734375,4.199403762817383,7.304090976715088,5.08355188369751
1710957924364489700,2.99648974609375,4.176671981811523,7.142575740814209,5.150550842285156
1710957924383448800,3.01544873046875,4.159922122955322,7.338787078857422,5.175675392150879
1710957924402408000,3.034407958984375,4.143172264099121,7.64865779876709,5.182853698730469
1710957924421367300,3.0533671875,4.133601188659668,7.701299667358398,5.107480049133301
1710957924440326400,3.072326416015625,3.930211305618286,7.371089935302734,5.026124000549316
1710957924459285500,3.091285400390625,3.8428730964660645,7.070790767669678,5.0356950759887695
1710957924478244600,3.11024462890625,3.8464624881744385,7.155735969543457,5.010570526123047
1710957924497204000,3.129203857421875,3.8835511207580566,7.365108013153076,5.0979084968566895
1710957924516163000,3.1481630859375,3.972085475921631,7.3914289474487305,5.194818019866943
1710957924535122400,3.167122314453125,3.9732820987701416,7.286144733428955,5.278566837310791
1710957924554081500,3.18608154296875,4.046263217926025,7.083951473236084,5.30847692489624
1710957924573040600,3.20504052734375,4.021138668060303,7.0061845779418945,5.333601474761963
1710957924591999700,3.223999755859375,3.9385859966278076,7.004988193511963,5.568098068237305
1710957924610959000,3.242958984375,4.240081787109375,6.9068827629089355,5.533402442932129
1710957924629918200,3.261918212890625,4.473381996154785,7.115057945251465,5.227120876312256
1710957924648877300,3.280877197265625,4.505684852600098,7.347161769866943,5.066802024841309
1710957924667836700,3.299836669921875,4.376472473144531,7.319644451141357,5.033302307128906
1710957924686795800,3.318795654296875,4.253242015838623,7.274180889129639,4.934000492095947
1710957924705755100,3.337755126953125,4.325026988983154,7.276573657989502,4.9399824142456055
1710957924724714200,3.35671435546875,4.439882278442383,7.105486869812012,4.867001056671143
1710957924743673300,3.37567333984375,4.4721856117248535,7.033702373504639,4.820341110229492
1710957924762632700,3.3946328125,4.322634220123291,7.269395351409912,5.026124000549316
1710957924781591800,3.413591796875,4.508078098297119,7.295716285705566,5.292923450469971
1710957924800551200,3.43255126953125,4.60857629776001,6.991827964782715,5.138586521148682
1710957924819510300,3.45151025390625,4.622933387756348,6.74656343460083,4.951946258544922
1710957924838469400,3.470469482421875,4.478167533874512,6.698707103729248,5.009374141693115
1710957924857428700,3.4894287109375,4.3896331787109375,6.865008354187012,5.259424209594727
1710957924876387800,3.508387939453125,4.418346881866455,6.946363925933838,5.37906551361084
1710957924895347200,3.52734716796875,4.398007869720459,7.012166976928711,5.257031440734863
1710957924914306300,3.546306396484375,4.380061626434326,7.203592777252197,5.166104316711426
1710957924933265700,3.565265625,4.431507587432861,7.231110095977783,5.053641319274902
1710957924952224800,3.584224853515625,4.713860511779785,6.837490558624268,4.947160720825195
1710957924971184000,3.60318408203125,4.89691162109375,6.3529438972473145,4.656432628631592
1710957924990143200,3.622143310546875,4.8538408279418945,6.205785751342773,4.666004180908203
1710957925009102600,3.6411025390625,4.680361270904541,6.4115681648254395,5.066802024841309
1710957925028061700,3.660061767578125,4.587040901184082,6.647261142730713,5.528616905212402
1710957925047021000,3.67902099609375,4.631308078765869,6.844669342041016,5.554937839508057
1710957925065980200,3.697980224609375,4.677968502044678,6.909275531768799,5.3216376304626465
1710957925084939500,3.716939453125,4.7365922927856445,7.0097737312316895,4.999803066253662
1710957925103898600,3.735898681640625,4.691128730773926,7.189235687255859,4.918447017669678
1710957925122858000,3.75485791015625,4.734199523925781,7.135396957397461,5.115854740142822
1710957925141817000,3.773817138671875,4.865804672241211,6.994220733642578,5.146961688995361
1710957925160776400,3.7927763671875,4.872983455657959,7.080362319946289,5.095515727996826
1710957925179735600,3.811735595703125,4.700700283050537,7.392625331878662,5.243870735168457
1710957925198695000,3.83069482421875,4.674378871917725,7.448856830596924,5.3934221267700195
1710957925217654000,3.849654052734375,4.724628448486328,7.197610378265381,5.230710506439209
1710957925236613400,3.86861328125,4.719842433929443,7.000202655792236,5.017749309539795
1710957925255572700,3.88757275390625,4.584648132324219,7.0923261642456055,5.034498691558838
1710957925274531800,3.90653173828125,4.541577339172363,7.17368221282959,5.2390851974487305
1710957925293491000,3.925490966796875,4.493721008300781,7.11984395980835,5.411368370056152
1710957925312450300,3.9444501953125,4.5547380447387695,7.130611419677734,5.429314613342285
1710957925331409700,3.96340966796875,4.5583271980285645,7.0097737312316895,5.420939922332764
1710957925350368800,3.98236865234375,4.694717884063721,6.790830612182617,5.465207099914551
1710957925369328000,4.001328125,4.9986066818237305,6.726224422454834,5.5381879806518555
1710957925388287200,4.020287353515625,5.102694511413574,6.777669906616211,5.513063430786133
1710957925407246600,4.03924658203125,4.991427898406982,6.649653911590576,5.332405090332031
1710957925426206000,4.0582060546875,4.808377265930176,6.674778938293457,5.198407173156738
1710957925445165000,4.0771650390625,4.691128730773926,6.912864685058594,5.124229907989502
1710957925464124400,4.09612451171875,4.767699241638184,7.004988193511963,5.0464630126953125
1710957925483083500,4.11508349609375,4.7988057136535645,6.729813575744629,4.892126083374023
1710957925502043000,4.13404296875,4.656432628631592,6.340980052947998,4.856233596801758
1710957925521002000,4.153001953125,4.673182487487793,6.226124286651611,5.117051124572754
1710957925539961300,4.17196142578125,4.7234320640563965,6.10169792175293,5.279763221740723
1710957925558920700,4.190920654296875,4.561916351318359,6.308676719665527,5.318048477172852
1710957925577879800,4.2098798828125,4.179064750671387,6.92482852935791,5.426921844482422
1710957925596839200,4.228839111328125,3.950550079345703,7.466803073883057,5.520241737365723
1710957925615798500,4.247798583984375,4.333401679992676,7.569694519042969,5.437689304351807
1710957925634757600,4.266757568359375,4.716253280639648,7.3052873611450195,4.999803066253662
1710957925653717000,4.285717041015625,4.516452789306641,7.283751964569092,5.200799942016602
1710957925672676000,4.304676025390625,4.992624282836914,7.11146879196167,5.909075736999512
1710957925691635500,4.323635498046875,5.79063081741333,6.618547439575195,5.7511491775512695
1710957925710594800,4.3425947265625,6.185446739196777,6.09332275390625,5.224728107452393
1710957925729554000,4.361553955078125,6.0023956298828125,5.711667537689209,4.6887359619140625
1710957925748513300,4.38051318359375,5.615954875946045,5.365904808044434,4.139583110809326
1710957925767472600,4.39947265625,5.325226783752441,5.31685209274292,3.968496322631836
1710957925786431700,4.418431640625,4.512863636016846,5.406582832336426,3.7112679481506348
1710957925805391000,4.43739111328125,2.9180471897125244,6.467799663543701,4.363312244415283
1710957925824350200,4.45635009765625,2.9563324451446533,8.400003433227539,6.089733600616455
1710957925843309600,4.4753095703125,4.504488468170166,8.904889106750488,6.984649181365967
1710957925862269000,4.49426904296875,6.40438985824585,7.238288402557373,5.443671703338623
1710957925881228000,4.51322802734375,5.594419479370117,6.168696880340576,4.296313285827637
1710957925900187400,4.5321875,3.744767427444458,7.1856465339660645,6.2500529289245605
1710957925919146800,4.551146728515625,3.7124643325805664,8.462217330932617,9.074779510498047
1710957925938106000,4.570106201171875,4.628915309906006,7.603193759918213,8.62014389038086
1710957925957065200,4.589065185546875,4.588237285614014,5.96889591217041,6.535995006561279
1710957925976024600,4.608024658203125,4.207778453826904,5.198407173156738,5.066802024841309
1710957925994984000,4.62698388671875,4.05703067779541,5.469992637634277,4.336990833282471
1710957926013943000,4.645943115234375,3.8321053981781006,6.368497371673584,4.287938117980957
1710957926032902400,4.66490234375,3.665804386138916,7.172485828399658,5.4951171875
1710957926051861800,4.68386181640625,4.092923164367676,6.830312252044678,6.636493682861328
1710957926070820900,4.70282080078125,5.454439163208008,5.9676995277404785,6.912864685058594
1710957926089780200,4.7217802734375,6.168696880340576,5.065605640411377,6.106483459472656
1710957926108739600,4.740739501953125,5.7511491775512695,5.247459888458252,5.521438121795654
1710957926127698700,4.75969873046875,5.186442852020264,6.193821430206299,5.629115104675293
1710957926146658000,4.778657958984375,5.106283664703369,6.932007312774658,5.828916072845459
1710957926165617400,4.797617431640625,4.516452789306641,7.259823799133301,5.820540904998779
1710957926184576800,4.81657666015625,3.7124643325805664,7.667799949645996,6.239284992218018
1710957926203536000,4.835535888671875,3.7770705223083496,7.956135272979736,6.1914286613464355
1710957926222495200,4.8544951171875,4.694717884063721,7.903493404388428,4.871787071228027
1710957926241454600,4.87345458984375,4.999803066253662,7.629515171051025,3.8811583518981934
1710957926260414000,4.8924140625,4.718646049499512,7.351947784423828,4.758127689361572
1710957926279373000,4.911373046875,5.364708423614502,6.941578388214111,6.141179084777832
1710957926298332400,4.93033251953125,6.26440954208374,6.339783668518066,6.625725746154785
1710957926317291800,4.949291748046875,6.273981094360352,5.765506267547607,6.3122663497924805
1710957926336251000,4.9682509765625,5.385047435760498,5.402993679046631,5.247459888458252
1710957926355210200,4.987210205078125,4.694717884063721,5.203192710876465,4.268795490264893
1710957926374169600,5.006169677734375,4.363312244415283,5.499902725219727,3.869194269180298
1710957926393129000,5.02512890625,4.581058979034424,6.252445697784424,4.035495281219482
1710957926412088000,5.044088134765625,4.906482696533203,6.98704195022583,4.140779495239258
1710957926431047400,5.06304736328125,4.972285270690918,7.375875949859619,4.094119548797607
1710957926450006800,5.0820068359375,4.9878387451171875,7.171289443969727,3.9290146827697754
1710957926468966100,5.100966064453125,5.106283664703369,6.4319071769714355,3.9122650623321533
1710957926487925200,5.11992529296875,5.151747226715088,6.122036933898926,4.2281174659729
1710957926506884600,5.138884521484375,5.004588603973389,6.484549522399902,4.868197441101074
1710957926525844000,5.157843994140625,5.163711071014404,6.868597507476807,5.548955917358398
1710957926544803300,5.17680322265625,5.5692949295043945,6.813562393188477,5.376672267913818
1710957926563762400,5.195762451171875,5.490331649780273,6.63051176071167,4.9160542488098145
1710957926582721800,5.2147216796875,5.155336380004883,6.702296257019043,4.7473602294921875
1710957926601681200,5.23368115234375,5.162514686584473,7.138986587524414,5.0225348472595215
1710957926620640500,5.252640625,5.601597785949707,7.283751964569092,5.158925533294678
1710957926639599600,5.271599609375,5.44008207321167,7.286144733428955,5.016552448272705
1710957926658559000,5.29055908203125,5.19242525100708,7.3292155265808105,5.041677474975586
1710957926677518300,5.309518310546875,5.066802024841309,7.389036178588867,5.002195835113525
1710957926696477700,5.328477783203125,5.477170944213867,7.234699249267578,4.880161762237549
1710957926715436800,5.347436767578125,5.527420520782471,6.748956203460693,4.211368083953857
1710957926734396200,5.366396240234375,5.1529436111450195,6.881757736206055,3.930211305618286
1710957926753355500,5.38535546875,5.222335338592529,7.215556621551514,4.238885402679443
1710957926772315000,5.40431494140625,5.352744102478027,7.299305438995361,4.485345840454102
1710957926791274000,5.42327392578125,5.5345988273620605,7.319644451141357,4.614558696746826
1710957926810233300,5.4422333984375,5.478367328643799,7.325626373291016,4.620540618896484
1710957926829192700,5.461192626953125,5.4867424964904785,7.733603000640869,4.692325115203857
1710957926848152000,5.480152099609375,6.130411624908447,7.408178806304932,5.063212871551514
1710957926867111400,5.499111328125,6.3014984130859375,6.592226505279541,4.755734920501709
1710957926886070500,5.518070556640625,6.3601226806640625,5.989234924316406,4.362115859985352
1710957926905030000,5.53702978515625,5.8612189292907715,5.938985824584961,4.159922122955322
1710957926923989200,5.5559892578125,5.499902725219727,6.190232276916504,4.590630054473877
1710957926942948600,5.574948486328125,5.259424209594727,6.6113691329956055,4.872983455657959
1710957926961907700,5.59390771484375,5.259424209594727,6.758527755737305,4.615755081176758
1710957926980867300,5.612867431640625,4.922036170959473,6.709474563598633,4.393222332000732
1710957926999826400,5.631826416015625,4.528416633605957,6.216553211212158,4.505684852600098
1710957927018785800,5.650785888671875,4.597808837890625,6.063412666320801,4.875376224517822
1710957927037745200,5.6697451171875,4.715056896209717,5.877968788146973,5.167300701141357
1710957927056704500,5.68870458984375,4.919643402099609,6.0849480628967285,5.194818019866943
1710957927075663600,5.70766357421875,5.056034088134766,6.358926296234131,5.1804609298706055
1710957927094623000,5.726623046875,5.051248550415039,6.665207386016846,5.054837703704834
1710957927113582300,5.745582275390625,5.358726501464844,6.768098831176758,5.076373100280762
1710957927132541700,5.764541748046875,5.424529075622559,6.410371780395508,4.628915309906006
1710957927151501000,5.7835009765625,5.570491313934326,6.38883638381958,4.359723091125488
1710957927170460200,5.802460205078125,5.657829284667969,6.537191390991211,4.473381996154785
1710957927189419500,5.82141943359375,5.741578102111816,6.784848690032959,4.858626365661621
1710957927208379000,5.84037890625,5.827719688415527,6.7657060623168945,5.139782905578613
1710957927227338200,5.859338134765625,5.60399055480957,6.705885410308838,5.271388053894043
1710957927246297600,5.878297607421875,5.565705299377441,6.752545356750488,5.004588603973389
1710957927265256700,5.897256591796875,5.407779216766357,6.715456962585449,4.549952030181885
1710957927284216000,5.916216064453125,5.314459323883057,6.9068827629089355,4.293920040130615
1710957927303175400,5.935175537109375,5.292923450469971,6.766902446746826,4.7473602294921875
1710957927322134800,5.954134765625,5.303691387176514,6.3732829093933105,5.076373100280762
1710957927341094100,5.97309423828125,5.13739013671875,6.351747512817383,5.217549800872803
1710957927360053500,5.992053466796875,5.201996326446533,6.331408500671387,5.212764263153076
1710957927379012600,6.0110126953125,5.318048477172852,6.357729911804199,4.741377830505371
1710957927397972200,6.02997216796875,5.300102233886719,6.649653911590576,4.320241451263428
1710957927416931300,6.048931396484375,5.296513080596924,6.941578388214111,4.5391845703125
1710957927435890700,6.067890625,5.333601474761963,6.813562393188477,4.7030930519104
1710957927454850000,6.08685009765625,5.131408214569092,6.681957244873047,4.8191447257995605
1710957927473809400,6.105809326171875,5.102694511413574,6.640082836151123,5.088337421417236
1710957927492768800,6.124768798828125,5.2283172607421875,6.500102519989014,4.956732273101807
1710957927511728000,6.14372802734375,5.438885688781738,6.573083877563477,4.741377830505371
1710957927530687200,6.162687255859375,5.337191104888916,6.69990348815918,4.645665168762207
1710957927549646600,6.181646484375,5.136193752288818,7.044469833374023,4.706682205200195
1710957927568606000,6.20060595703125,5.264209747314453,7.296912670135498,5.00578498840332
1710957927587565300,6.2195654296875,5.438885688781738,7.18086051940918,5.255835056304932
1710957927606524700,6.238524658203125,5.471189022064209,6.778866767883301,5.162514686584473
1710957927625484000,6.257484130859375,5.441278457641602,6.512066841125488,4.874179840087891
1710957927644443400,6.276443359375,5.307280540466309,6.653243541717529,4.680361270904541
1710957927663402800,6.29540283203125,5.219942569732666,6.999006271362305,4.777270317077637
1710957927682362000,6.314362060546875,5.209175109863281,7.156932353973389,4.974678039550781
1710957927701321500,6.333321533203125,5.161318302154541,7.079165935516357,4.992624282836914
1710957927720280800,6.35228076171875,5.0943193435668945,7.000202655792236,4.9531426429748535
1710957927739240000,6.371239990234375,4.983053207397461,6.8865437507629395,4.997410297393799
1710957927758199300,6.39019921875,5.038087844848633,6.792026996612549,4.942375183105469
1710957927777158700,6.40915869140625,5.0811591148376465,6.664011001586914,4.8191447257995605
1710957927796118000,6.428117919921875,4.892126083374023,6.720242500305176,4.794020175933838
1710957927815077400,6.447077392578125,4.898108005523682,6.929614543914795,4.978267669677734
1710957927834036700,6.46603662109375,4.967499732971191,6.937989234924316,5.077569484710693
1710957927852996000,6.48499609375,5.096712112426758,6.809973239898682,5.0356950759887695
1710957927871955500,6.50395556640625,5.133800983428955,6.665207386016846,4.899304389953613
1710957927890914800,6.522914794921875,5.071587562561035,6.75374174118042,4.890929698944092
1710957927909874200,6.541874267578125,5.08355188369751,6.900900363922119,5.040481090545654
1710957927928833500,6.56083349609375,5.0979084968566895,6.994220733642578,5.158925533294678
1710957927947793000,6.57979296875,5.0703911781311035,7.09711217880249,5.1768717765808105
1710957927966752300,6.598752197265625,5.07517671585083,7.144968509674072,5.1804609298706055
1710957927985711600,6.617711669921875,5.1290154457092285,7.015756130218506,5.053641319274902
1710957928004671000,6.6366708984375,5.0979084968566895,6.766902446746826,4.865804672241211
1710957928023630300,6.65563037109375,4.910071849822998,6.722635269165039,4.783252239227295
1710957928042589700,6.674589599609375,4.817948341369629,6.782455921173096,4.917250633239746
1710957928061549000,6.693549072265625,4.922036170959473,6.966702938079834,5.123033046722412
1710957928080508400,6.71250830078125,5.102694511413574,6.912864685058594,5.182853698730469
1710957928099467800,6.7314677734375,5.0464630126953125,6.723831653594971,5.063212871551514
1710957928118427100,6.75042724609375,4.861019134521484,6.775277137756348,5.051248550415039
1710957928137386500,6.769386474609375,4.863411903381348,6.966702938079834,5.13021183013916
1710957928156345900,6.788345947265625,4.945964336395264,6.960721015930176,5.106283664703369
1710957928175305200,6.80730517578125,4.974678039550781,6.819544315338135,5.125426292419434
1710957928194264600,6.8262646484375,4.974678039550781,6.842276573181152,5.1182475090026855
1710957928213224000,6.845223876953125,4.951946258544922,6.961917400360107,5.034498691558838
1710957928232183300,6.864183349609375,4.9986066818237305,6.900900363922119,5.02851676940918
1710957928251142700,6.883142578125,4.995017051696777,6.601797580718994,4.968696117401123
1710957928270102000,6.90210205078125,5.1182475090026855,6.375676155090332,4.978267669677734
1710957928289061400,6.921061279296875,5.136193752288818,6.516852378845215,5.115854740142822
1710957928308020700,6.940020751953125,4.9531426429748535,7.179664134979248,5.188836097717285
1710957928326980400,6.95898046875,4.989035129547119,7.308876991271973,4.928018093109131
1710957928345939700,6.977939697265625,5.027320384979248,6.783652305603027,4.506881237030029
1710957928364899000,6.996899169921875,4.975874900817871,6.332605361938477,4.4721856117248535
1710957928383858400,7.0158583984375,5.103890895843506,6.2775702476501465,4.738985061645508
1710957928402817800,7.03481787109375,5.322834014892578,6.619743824005127,5.148158073425293
1710957928421777200,7.053777099609375,5.472385406494141,7.117451190948486,5.598008632659912
1710957928440736500,7.072736572265625,5.377869129180908,7.244270324707031,5.373083114624023
1710957928459695900,7.09169580078125,5.449653625488281,6.8757758140563965,4.9878387451171875
1710957928478655200,7.1106552734375,5.516652584075928,6.439085960388184,4.807180881500244
1710957928497614600,7.129614501953125,5.48793888092041,6.474977970123291,4.894518852233887
1710957928516574200,7.14857421875,5.430510997772217,6.884150981903076,5.1840500831604
1710957928535533600,7.167533447265625,5.385047435760498,7.04925537109375,5.240281581878662
1710957928554493000,7.186492919921875,5.255835056304932,6.790830612182617,5.14576530456543
1710957928573452300,7.205452392578125,5.158925533294678,6.386443614959717,5.085944652557373
1710957928592411600,7.22441162109375,5.1565327644348145,6.295516490936279,5.02851676940918
1710957928611371000,7.24337109375,5.163711071014404,6.303891181945801,4.951946258544922
1710957928630330400,7.262330322265625,5.015356063842773,6.52044153213501,4.924428939819336
1710957928649290000,7.2812900390625,4.996213912963867,6.616154670715332,4.935196876525879
1710957928668249300,7.300249267578125,5.048855781555176,6.3840508460998535,5.063212871551514
1710957928687208700,7.319208740234375,5.103890895843506,6.175875186920166,5.106283664703369
1710957928706168000,7.33816796875,5.175675392150879,6.311069488525391,5.144568920135498
1710957928725127400,7.35712744140625,5.150550842285156,6.439085960388184,5.103890895843506
1710957928744086800,7.376086669921875,5.125426292419434,6.531209468841553,5.0225348472595215
1710957928763046100,7.395046142578125,5.194818019866943,6.562315940856934,4.844269275665283
1710957928782005800,7.414005859375,5.381458282470703,6.56829833984375,4.744967460632324
1710957928800965000,7.432965087890625,5.278566837310791,6.585047721862793,4.5391845703125
1710957928819924500,7.451924560546875,5.374279499053955,6.620940208435059,4.863411903381348
1710957928838884000,7.470884033203125,5.009374141693115,6.695117950439453,4.744967460632324
1710957928857843500,7.489843505859375,5.095515727996826,6.7310099601745605,4.695914268493652
1710957928876802800,7.508802734375,4.9878387451171875,6.695117950439453,4.746163845062256
1710957928895762200,7.52776220703125,5.02133846282959,6.56829833984375,4.796412944793701
1710957928914721500,7.546721435546875,5.158925533294678,6.38165807723999,4.975874900817871
1710957928933681200,7.56568115234375,5.06082010269165,6.357729911804199,5.0907301902771
1710957928952640500,7.584640625,5.089533805847168,6.38165807723999,5.0943193435668945
1710957928971600000,7.603599853515625,4.845465660095215,6.709474563598633,5.163711071014404
1710957928990559200,7.622559326171875,4.694717884063721,6.971488952636719,5.210371494293213
1710957929009518600,7.6415185546875,4.660022258758545,7.093522548675537,5.318048477172852
1710957929028478200,7.660478271484375,4.758127689361572,7.083951473236084,5.242674350738525
1710957929047437600,7.6794375,4.992624282836914,7.028916358947754,5.160121917724609
1710957929066397000,7.69839697265625,4.9986066818237305,7.070790767669678,5.26181697845459
1710957929085356300,7.717356201171875,4.791627407073975,7.026523590087891,5.436492919921875
1710957929104316000,7.73631591796875,4.677968502044678,6.905686378479004,5.381458282470703
1710957929123275300,7.755275146484375,4.753342151641846,6.951149940490723,5.150550842285156
1710957929142234600,7.774234619140625,4.832305431365967,7.038487911224365,4.9531426429748535
1710957929161194000,7.793194091796875,4.756931304931641,7.028916358947754,4.967499732971191
1710957929180153600,7.812153564453125,4.581058979034424,7.060023307800293,5.157729148864746
1710957929199113000,7.831113037109375,4.691128730773926,7.024130821228027,5.382654666900635
1710957929218072300,7.850072265625,4.721039295196533,6.778866767883301,5.270191669464111
1710957929237032000,7.869031982421875,5.0979084968566895,6.927221775054932,5.5106706619262695
1710957929255991300,7.8879912109375,6.391229152679443,6.38165807723999,6.100501537322998
1710957929274950700,7.90695068359375,4.211368083953857,6.94038200378418,4.2987060546875
1710957929293910300,7.92591015625,5.663811206817627,6.705885410308838,5.676971912384033
1710957929312869600,7.94486962890625,3.882354736328125,7.225128173828125,4.356133460998535
1710957929331829000,7.9638291015625,5.216353416442871,7.202396392822266,5.158925533294678
1710957929350788400,7.982788330078125,4.975874900817871,6.445067882537842,4.666004180908203
1710957929369748000,8.001748046875,4.815555572509766,6.296712875366211,4.293920040130615
1710957929388707300,8.020707275390626,5.546562671661377,6.063412666320801,5.2941203117370605
1710957929407667000,8.0396669921875,4.691128730773926,6.567101955413818,4.789234638214111
1710957929426626300,8.058626220703125,5.525027275085449,6.809973239898682,5.191228866577148
1710957929445585700,8.077585693359374,4.895715236663818,6.966702938079834,5.298905849456787
1710957929464545300,8.096545166015625,4.755734920501709,7.16650390625,5.182853698730469
1710957929483504600,8.115504638671876,5.050052165985107,6.8757758140563965,5.045266628265381
1710957929502464000,8.134464111328125,5.182853698730469,6.8004021644592285,4.615755081176758
1710957929521423600,8.153423583984376,5.2283172607421875,6.861418724060059,4.741377830505371
1710957929540383000,8.172383056640625,5.1529436111450195,6.768098831176758,4.919643402099609
1710957929559342300,8.19134228515625,5.123033046722412,6.81595516204834,4.7126641273498535
1710957929578302000,8.210302001953124,5.059623718261719,6.725028038024902,4.875376224517822
1710957929597261300,8.22926123046875,5.240281581878662,6.988238334655762,5.581258773803711
1710957929616221000,8.248220947265626,5.438885688781738,7.000202655792236,5.267798900604248
1710957929635180300,8.26718017578125,5.343173027038574,7.27537727355957,5.117051124572754
1710957929654139600,8.2861396484375,4.869394302368164,7.761120319366455,4.697110652923584
1710957929673099300,8.305099365234375,4.911268711090088,7.324429988861084,4.918447017669678
1710957929692058600,8.32405859375,4.78803825378418,7.0923261642456055,4.340580463409424
1710957929711018200,8.343018310546874,4.776073932647705,7.34476900100708,4.694717884063721
1710957929729977600,8.3619775390625,5.073980331420898,6.671189308166504,5.168497085571289
1710957929748937000,8.38093701171875,5.069194793701172,6.297909259796143,4.683950424194336
1710957929767896600,8.399896484375,5.148158073425293,6.51326322555542,4.932804107666016
1710957929786856000,8.41885595703125,5.3108696937561035,6.375676155090332,5.258227825164795
1710957929805815600,8.437815673828124,5.333601474761963,6.544369697570801,4.65523624420166
1710957929824775000,8.45677490234375,5.071587562561035,7.038487911224365,4.564309120178223
1710957929843734300,8.475734375,5.639883041381836,6.692724704742432,4.7952165603637695
1710957929862694000,8.49469384765625,5.285745143890381,6.740581512451172,4.3070807456970215
1710957929881653200,8.5136533203125,4.811966419219971,7.133004188537598,4.381258487701416
1710957929900612600,8.532612548828125,4.962714195251465,6.610172748565674,4.2281174659729
1710957929919572200,8.551572265625,5.13739013671875,6.723831653594971,3.7746777534484863
1710957929938531600,8.570531494140624,5.142175674438477,7.106683254241943,4.11206579208374
1710957929957491200,8.5894912109375,5.254638671875,7.237092018127441,4.5391845703125
1710957929976450600,8.608450439453126,5.19242525100708,7.250252723693848,4.451846599578857
1710957929995410000,8.627409912109375,5.140979290008545,7.013363361358643,4.466203689575195
1710957930014369500,8.64636962890625,5.051248550415039,6.857829570770264,4.506881237030029
1710957930033329000,8.665328857421875,4.851448059082031,6.991827964782715,4.435096740722656
1710957930052288500,8.68428857421875,4.711467742919922,6.99541711807251,4.524827480316162
1710957930071248000,8.703247802734374,4.5391845703125,7.058826923370361,4.42193603515625
1710957930090207500,8.72220751953125,4.564309120178223,7.039684295654297,4.482953071594238
1710957930109166800,8.741166748046876,4.7988057136535645,7.083951473236084,4.589433670043945
1710957930128126500,8.76012646484375,5.073980331420898,7.261020183563232,4.657629489898682
1710957930147085800,8.7790859375,5.170889854431152,7.3914289474487305,4.839483737945557
1710957930166045200,8.798045166015624,5.449653625488281,7.306483745574951,4.801198482513428
1710957930185004800,8.8170048828125,5.712863922119141,7.240681171417236,4.486542224884033
1710957930203964200,8.835964111328124,5.7511491775512695,7.386643409729004,4.432703971862793
1710957930222923800,8.854923828125,5.735595703125,7.596015453338623,4.486542224884033
1710957930241883100,8.873883056640626,5.705685615539551,7.4572319984436035,4.559523582458496
1710957930260842500,8.892842529296875,5.7619171142578125,7.221538543701172,4.666004180908203
1710957930279802000,8.911802001953125,5.570491313934326,6.850651264190674,4.803591251373291
1710957930298761500,8.930761474609374,5.414957523345947,6.654439926147461,5.124229907989502
1710957930317721000,8.94972119140625,5.3970112800598145,6.492924213409424,5.587240695953369
1710957930336680400,8.968680419921874,5.259424209594727,6.010770320892334,5.645864963531494
1710957930355639800,8.987639892578125,4.9878387451171875,5.5692949295043945,5.4628143310546875
1710957930374599400,9.006599365234376,4.528416633605957,5.556134223937988,5.234299659729004
1710957930393558800,9.025558837890625,4.217350006103516,5.795416355133057,5.2115678787231445
1710957930412518400,9.044518310546875,4.316651821136475,6.0741801261901855,5.558526992797852
1710957930431477800,9.063477783203124,4.614558696746826,6.151947021484375,6.1088762283325195
1710957930450437400,9.082437255859375,4.907679080963135,5.90668249130249,6.619743824005127
1710957930469396700,9.101396728515626,4.843072891235352,5.337191104888916,6.702296257019043
1710957930488356400,9.1203564453125,4.8574299812316895,4.895715236663818,6.531209468841553
1710957930507315700,9.139315673828126,5.525027275085449,5.406582832336426,6.392425537109375
1710957930526275300,9.158275390625,5.846862316131592,7.025327205657959,5.949753284454346
1710957930545234700,9.177234619140625,5.522634506225586,7.8077802658081055,5.382654666900635
1710957930564194000,9.196194091796874,4.143172264099121,7.549355506896973,4.493721008300781
1710957930583153700,9.215153564453125,3.2817561626434326,7.704888820648193,3.9361932277679443
1710957930602113000,9.234113037109376,3.3020951747894287,7.83410120010376,4.168296813964844
1710957930621072600,9.25307275390625,3.9900317192077637,7.932207107543945,4.675575256347656
1710957930640032000,9.272031982421876,4.468596458435059,8.073383331298828,4.5786662101745605
1710957930658991400,9.290991455078125,4.296313285827637,7.672585964202881,4.435096740722656
1710957930677951000,9.309950927734375,3.428914785385132,6.94038200378418,4.4374895095825195
1710957930696910300,9.328910400390624,2.9766714572906494,6.87816858291626,4.643272399902344
1710957930715870000,9.347869873046875,3.3547372817993164,7.058826923370361,4.377668857574463
1710957930734829300,9.366829345703126,3.978067636489868,7.250252723693848,4.297509670257568
1710957930753788700,9.38578857421875,4.604987144470215,7.208378314971924,4.633700847625732
1710957930772748300,9.404748291015625,5.064409255981445,6.86381196975708,4.968696117401123
1710957930791707600,9.423707763671874,4.975874900817871,6.911668300628662,4.898108005523682
1710957930810667300,9.442667236328125,3.7950167655944824,7.627122402191162,4.753342151641846
1710957930829626600,9.461626708984374,3.3236305713653564,9.247062683105469,6.3601226806640625
1710957930848586200,9.480586181640625,4.693521499633789,9.153742790222168,7.406982421875
1710957930867545600,9.499545654296876,5.320441246032715,8.446663856506348,6.591030120849609
1710957930886505200,9.518505126953125,4.774877548217773,8.26121997833252,6.186643123626709
1710957930905464600,9.537464599609375,3.6873397827148438,7.619943618774414,6.232106685638428
1710957930924424000,9.556423828125,2.754138946533203,7.5433735847473145,5.921039581298828
1710957930943383600,9.575383544921875,2.7457640171051025,7.568498134613037,5.595615863800049
1710957930962343000,9.594343017578124,2.96111798286438,7.793423175811768,5.358726501464844
1710957930981302500,9.613302490234375,3.1214370727539062,7.929814338684082,5.217549800872803
1710957931000262000,9.632261962890626,3.067598581314087,7.323233604431152,5.430510997772217
1710957931019221200,9.65122119140625,2.913261651992798,6.330212116241455,5.753541946411133
1710957931038180900,9.670180908203125,2.678765058517456,5.529813289642334,5.9437713623046875
1710957931057140200,9.68914013671875,2.5016961097717285,5.587240695953369,5.907878875732422
1710957931076099600,9.708099609375,2.5160529613494873,6.267998695373535,6.098108291625977
1710957931095059200,9.72705908203125,2.86061954498291,6.488138675689697,6.254838466644287
1710957931114018600,9.7460185546875,2.9563324451446533,6.592226505279541,6.204588890075684
1710957931132978200,9.764978271484376,3.300898790359497,6.567101955413818,5.986842155456543
1710957931151937500,9.7839375,3.4719855785369873,6.818347930908203,6.142375946044922
1710957931170897200,9.802897216796875,3.710071563720703,7.020541667938232,6.390032768249512
1710957931189856500,9.8218564453125,3.620340585708618,7.302894592285156,6.345765590667725
1710957931208815900,9.84081591796875,3.507878065109253,7.483552932739258,5.92223596572876
1710957931227775500,9.859775390625,3.2650065422058105,7.513463020324707,5.335994720458984
1710957931246734800,9.87873486328125,3.2315070629119873,7.511070251464844,5.006981372833252
1710957931265694500,9.897694580078126,3.4121651649475098,7.33759069442749,4.893322467803955
1710957931284653800,9.91665380859375,3.638286828994751,7.179664134979248,5.071587562561035
1710957931303613200,9.93561328125,3.7471601963043213,7.165307521820068,5.37906551361084
1710957931322572800,9.95457275390625,4.016352653503418,7.338787078857422,5.794219970703125
1710957931341532200,9.9735322265625,4.570291042327881,7.554141044616699,6.203392505645752
1710957931360491800,9.99249169921875,4.786841869354248,7.485945701599121,6.346961975097656
1710957931379451100,10.011451171875,4.1659040451049805,7.402196884155273,6.2536420822143555
1710957931398410800,10.03041064453125,3.326023578643799,7.794619560241699,5.992824077606201
1710957931417370000,10.0493701171875,3.095116138458252,8.074580192565918,5.851647853851318
1710957931436329500,10.06832958984375,3.2207393646240234,7.629515171051025,5.527420520782471
1710957931455289000,10.0872890625,2.4885356426239014,6.91765022277832,5.223531723022461
1710957931474248400,10.10624853515625,2.4358935356140137,6.6915283203125,5.375475883483887
1710957931493208000,10.1252080078125,3.1070802211761475,6.3840508460998535,5.394618511199951
1710957931512167400,10.14416748046875,3.806980848312378,6.392425537109375,5.453242778778076
1710957931531126800,10.163126708984375,4.015156269073486,6.744170665740967,5.651846885681152
1710957931550086100,10.182086181640624,4.357329845428467,7.129415035247803,5.794219970703125
1710957931569045800,10.201045654296875,4.783252239227295,7.1988067626953125,5.660222053527832
1710957931588005000,10.220005126953126,5.045266628265381,7.125825881958008,5.359922885894775
1710957931606964700,10.23896484375,4.852644443511963,7.237092018127441,5.039284706115723
1710957931625924000,10.257924072265626,4.3788652420043945,7.585247993469238,4.949553489685059
1710957931644883500,10.276883544921875,4.332205295562744,7.617550849914551,4.899304389953613
1710957931663843000,10.295843017578125,4.423132419586182,7.416553974151611,4.589433670043945
1710957931682802400,10.314802490234374,4.262813568115234,7.276573657989502,4.46979284286499
1710957931701761800,10.33376171875,3.8919260501861572,7.3304123878479,4.668396949768066
1710957931720721400,10.352721435546876,3.9625144004821777,7.365108013153076,4.928018093109131
1710957931739680800,10.3716806640625,4.159922122955322,7.2681989669799805,4.989035129547119
1710957931758640400,10.390640380859375,4.334598064422607,7.271788120269775,5.059623718261719
1710957931777599700,10.409599853515624,4.169493675231934,7.283751964569092,5.151747226715088
1710957931796559000,10.42855908203125,3.985246181488037,7.2227349281311035,5.194818019866943
1710957931815518700,10.447518798828124,3.8021950721740723,7.038487911224365,5.077569484710693
1710957931834478000,10.46647802734375,3.601198196411133,7.109076023101807,5.026124000549316
1710957931853437400,10.4854375,3.5461630821228027,7.286144733428955,5.13739013671875
1710957931872397000,10.50439697265625,3.4923245906829834,7.46201753616333,5.169693470001221
1710957931891356400,10.5233564453125,3.45882511138916,7.534998416900635,5.146961688995361
1710957931910316000,10.54231591796875,3.190829038619995,7.542177200317383,5.179264545440674
1710957931929275400,10.561275390625,3.0903303623199463,7.338787078857422,5.188836097717285
1710957931948234800,10.58023486328125,2.9826533794403076,7.125825881958008,5.142175674438477
1710957931967194400,10.5991943359375,3.012563705444336,6.999006271362305,5.157729148864746
1710957931986153700,10.61815380859375,3.080759048461914,7.054041385650635,5.340780258178711
1710957932005113000,10.637113037109375,3.2267212867736816,7.024130821228027,5.5106706619262695
1710957932024072700,10.65607275390625,3.397808074951172,6.973881721496582,5.772684574127197
1710957932043032000,10.675031982421874,3.744767427444458,6.984649181365967,5.801398277282715
1710957932061991700,10.69399169921875,3.8057844638824463,7.2059855461120605,5.643472194671631
1710957932080951000,10.712950927734376,3.937389612197876,7.545766353607178,5.8097734451293945
1710957932099910400,10.731910400390625,3.968496322631836,7.781459331512451,5.880361557006836
1710957932118870000,10.7508701171875,3.978067636489868,7.915457248687744,6.004788398742676
1710957932137829400,10.769829345703124,3.906282901763916,8.086544036865234,6.0777692794799805
1710957932156788700,10.788788818359375,3.827319860458374,8.062616348266602,6.149554252624512
1710957932175748400,10.807748291015624,3.751945972442627,7.603193759918213,5.938985824584961
1710957932194707700,10.826707763671875,3.748356580734253,7.312466144561768,5.742774486541748
1710957932213667000,10.8456669921875,3.5952160358428955,7.35314416885376,5.746363639831543
1710957932232626700,10.864626708984375,3.5581271648406982,7.599604606628418,5.91505765914917
1710957932251586000,10.8835859375,3.518645763397217,7.7455668449401855,5.904289722442627
1710957932270545700,10.902545654296874,3.5294134616851807,8.007580757141113,5.947360515594482
1710957932289505000,10.921505126953125,3.6526436805725098,7.976474285125732,5.965306758880615
1710957932308464400,10.94046435546875,3.8117663860321045,7.3292155265808105,5.901896953582764
1710957932327424000,10.959424072265625,3.7710886001586914,6.428318023681641,5.675775527954102
1710957932346383400,10.97838330078125,3.5988051891326904,5.989234924316406,5.745167255401611
1710957932365342700,10.9973427734375,3.594019651412964,6.151947021484375,6.045466423034668
1710957932384302000,11.016302001953125,3.625126361846924,6.744170665740967,6.106483459472656
1710957932403261700,11.03526171875,3.4959139823913574,7.020541667938232,6.004788398742676
1710957932422221000,11.054220947265625,3.3236305713653564,6.784848690032959,5.867201328277588
1710957932441180400,11.073180419921876,3.3475589752197266,6.583851337432861,5.704489231109619
1710957932460140000,11.09214013671875,3.5126636028289795,6.571887493133545,5.517848968505859
1710957932479099400,11.111099365234375,3.775874137878418,6.763313293457031,5.523830890655518
1710957932498059000,11.13005908203125,4.067798614501953,6.945167541503906,5.499902725219727
1710957932517018400,11.149018310546875,4.292723655700684,6.976274490356445,5.474778175354004
1710957932535977700,11.167977783203124,4.420739650726318,7.089933395385742,5.31685209274292
1710957932554937300,11.186937255859375,4.35254430770874,7.406982421875,5.407779216766357
1710957932573896700,11.205896728515626,4.210171222686768,7.612765312194824,5.3347978591918945
1710957932592856300,11.224856201171875,3.809373617172241,7.671389579772949,4.955535888671875
1710957932611815700,11.243815673828125,3.7878382205963135,7.467999458312988,4.6540398597717285
1710957932630775000,11.262775146484374,4.101297855377197,7.403393268585205,4.557130813598633
1710957932649734700,11.281734619140625,4.140779495239258,7.447660446166992,4.445864677429199
1710957932668694000,11.300694091796874,3.9984066486358643,7.3399834632873535,4.402793884277344
1710957932687653600,11.319653564453125,4.059423446655273,7.1820573806762695,4.652843475341797
1710957932706613000,11.338613037109376,4.262813568115234,7.225128173828125,5.008177757263184
1710957932725572400,11.357572265625,4.395615100860596,7.060023307800293,4.977071285247803
1710957932744532000,11.376531982421875,4.287938117980957,6.884150981903076,4.418346881866455
1710957932763491300,11.3954912109375,3.9194436073303223,6.873383045196533,4.024727821350098
1710957932782451000,11.414450927734375,3.8213376998901367,6.786045074462891,4.277170658111572
1710957932801410300,11.433410400390626,4.11206579208374,6.480959892272949,4.146761417388916
1710957932820369700,11.45236962890625,4.460221290588379,6.212964057922363,3.845266103744507
1710957932839329300,11.471329345703126,4.6995038986206055,6.081358909606934,3.814159393310547
1710957932858288600,11.49028857421875,4.043870449066162,6.440282344818115,3.978067636489868
1710957932877248300,11.509248291015625,3.273381471633911,7.596015453338623,4.872983455657959
1710957932896207600,11.52820751953125,3.476771354675293,8.534002304077148,6.004788398742676
1710957932915167000,11.5471669921875,4.500899314880371,8.37966537475586,6.453442573547363
1710957932934126600,11.566126708984376,4.796412944793701,7.701299667358398,6.081358909606934
1710957932953086000,11.5850859375,4.433900356292725,7.904689788818359,6.315855503082275
1710957932972045600,11.604045654296876,4.11206579208374,8.419146537780762,6.881757736206055
1710957932991005000,11.6230048828125,3.806980848312378,8.665607452392578,6.795616149902344
1710957933009964300,11.64196435546875,3.067598581314087,8.57348346710205,6.178267955780029
1710957933028924000,11.660923828125,2.421536445617676,8.668000221252441,6.1914286613464355
1710957933047883300,11.67988330078125,3.115455150604248,8.374878883361816,5.980860233306885
1710957933066843000,11.6988427734375,3.9529430866241455,8.102097511291504,5.172086238861084
1710957933085802200,11.71780224609375,3.735196113586426,7.81974458694458,4.9160542488098145
1710957933104761900,11.736761962890625,3.348755359649658,7.45364236831665,5.394618511199951
1710957933123721200,11.75572119140625,3.3786656856536865,6.454638957977295,5.653043270111084
1710957933142680800,11.774680908203125,3.9385859966278076,5.592026710510254,5.3455657958984375
1710957933161640200,11.79364013671875,4.269991874694824,5.85284423828125,5.004588603973389
1710957933180599800,11.812599853515625,4.289134502410889,6.937989234924316,5.20678186416626
1710957933199559200,11.83155908203125,4.145565032958984,7.759923934936523,5.509474277496338
1710957933218518800,11.850518798828125,3.9589250087738037,7.737192153930664,5.540580749511719
1710957933237478100,11.86947802734375,3.8285162448883057,7.256234645843506,5.13021183013916
1710957933256437500,11.8884375,3.779463291168213,7.0683979988098145,4.808377265930176
1710957933275397000,11.907397216796875,3.6634113788604736,6.988238334655762,4.744967460632324
1710957933294356500,11.9263564453125,3.4683964252471924,7.172485828399658,4.887340068817139
1710957933313316000,11.945316162109375,3.239881753921509,7.366304397583008,5.065605640411377
1710957933332275500,11.964275390625,3.219542980194092,7.448856830596924,5.365904808044434
1710957933351235000,11.983235107421875,3.326023578643799,7.289734363555908,5.464010715484619
1710957933370194400,12.0021943359375,3.3846476078033447,7.058826923370361,5.478367328643799
1710957933389154000,12.021154052734374,3.6945180892944336,6.98704195022583,5.6207404136657715
1710957933408113700,12.04011376953125,4.0426740646362305,7.161718368530273,5.556134223937988
1710957933427073000,12.059072998046876,4.110869407653809,7.2574310302734375,5.454439163208008
1710957933446032600,12.07803271484375,3.9661035537719727,7.274180889129639,5.350351333618164
1710957933464992000,12.096991943359376,3.8009986877441406,7.176074981689453,5.123033046722412
1710957933483951400,12.115951416015625,3.844069480895996,7.087540626525879,5.032105922698975
1710957933502911000,12.134910888671875,3.8536407947540283,7.165307521820068,5.039284706115723
1710957933521870300,12.153870361328124,3.937389612197876,7.3160552978515625,4.95074987411499
1710957933540830000,12.172829833984375,3.8919260501861572,7.506284713745117,4.923232555389404
1710957933559789600,12.19178955078125,3.906282901763916,7.755138397216797,4.980660438537598
1710957933578749000,12.2107490234375,3.996013879776001,7.836493968963623,5.1840500831604
1710957933597708500,12.22970849609375,4.453042984008789,7.331608772277832,5.72123908996582
1710957933616668000,12.24866796875,4.451846599578857,6.880561351776123,5.755934715270996
1710957933635627500,12.26762744140625,4.163511276245117,6.759724140167236,5.5106706619262695
1710957933654587000,12.2865869140625,3.8835511207580566,7.105486869812012,5.4759745597839355
1710957933673546500,12.30554638671875,3.85483717918396,7.435696601867676,5.6685967445373535
1710957933692505900,12.324505859375,3.9864425659179688,7.362715244293213,5.72123908996582
1710957933711465500,12.343465576171875,3.809373617172241,7.122236728668213,5.676971912384033
1710957933730424800,12.3624248046875,3.45882511138916,6.908079147338867,5.61116886138916
1710957933749384400,12.381384521484375,3.2482566833496094,6.948757171630859,5.4520463943481445
1710957933768343800,12.40034375,3.4432718753814697,7.019345283508301,5.388636589050293
1710957933787303400,12.419303466796874,3.510270833969116,7.1988067626953125,5.257031440734863
1710957933806263000,12.438262939453125,3.7842490673065186,7.402196884155273,5.505885124206543
1710957933825222400,12.457222412109376,3.8847475051879883,7.503891944885254,5.5381879806518555
1710957933844182000,12.47618212890625,3.9290146827697754,7.288537979125977,5.461617469787598
1710957933863141400,12.495141357421875,4.0797624588012695,6.970292568206787,5.330012321472168
1710957933882101000,12.51410107421875,4.125226020812988,7.146164894104004,5.3970112800598145
1710957933901060400,12.533060302734375,3.9792640209198,7.572087287902832,5.676971912384033
1710957933920020000,12.55202001953125,4.118047714233398,7.75753116607666,5.816951751708984
1710957933938979600,12.5709794921875,4.244867324829102,7.514659404754639,5.648257732391357
1710957933957939000,12.58993896484375,4.301098823547363,7.342376232147217,5.376672267913818
1710957933976898600,12.608898681640625,3.9565322399139404,7.537391185760498,5.526223659515381
1710957933995858000,12.62785791015625,3.834498405456543,7.5708909034729,6.10169792175293
1710957934014817500,12.646817626953125,3.6406795978546143,7.210771083831787,6.064609050750732
1710957934033777000,12.66577685546875,3.6394832134246826,7.146164894104004,5.763113498687744
1710957934052736500,12.684736572265624,3.607180118560791,6.952346324920654,5.547759532928467
1710957934071696100,12.703696044921875,3.5461630821228027,7.144968509674072,5.536991596221924
1710957934090655500,12.722655517578126,3.62153697013855,7.143772125244141,5.714060306549072
1710957934109615000,12.741614990234375,3.64546537399292,7.500302791595459,5.808577060699463
1710957934128574700,12.76057470703125,3.955335855484009,7.423732280731201,5.776273727416992
1710957934147534000,12.7795341796875,4.027120590209961,7.082755088806152,5.556134223937988
1710957934166493700,12.79849365234375,3.8560338020324707,7.094718933105469,5.5142598152160645
1710957934185453000,12.817453125,3.957728624343872,7.3304123878479,5.8097734451293945
1710957934204412700,12.83641259765625,3.889533281326294,7.389036178588867,5.851647853851318
1710957934223372300,12.855372314453126,3.803391695022583,7.331608772277832,5.698507308959961
1710957934242331600,12.87433154296875,3.5676984786987305,7.250252723693848,5.3312087059021
1710957934261291300,12.893291259765626,3.460021495819092,7.304090976715088,5.2869415283203125
1710957934280250600,12.912250732421874,3.5341989994049072,7.255038261413574,5.4556355476379395
1710957934299210200,12.931210205078125,3.513859987258911,6.929614543914795,5.657829284667969
1710957934318169900,12.950169921875,3.4983067512512207,6.952346324920654,5.821737289428711
1710957934337129200,12.969129150390625,3.586841106414795,7.341179847717285,5.866004943847656
1710957934356088800,12.9880888671875,3.6885361671447754,7.472784996032715,5.715256690979004
1710957934375048400,13.00704833984375,3.6598222255706787,7.210771083831787,5.526223659515381
1710957934394008000,13.026008056640626,3.555734395980835,7.056434154510498,5.474778175354004
1710957934412967400,13.044967529296875,3.5294134616851807,7.271788120269775,5.4759745597839355
1710957934431927000,13.063927001953125,3.651447296142578,7.494320392608643,5.485546112060547
1710957934450886400,13.082886474609374,3.796213150024414,7.377072334289551,5.467599868774414
1710957934469846000,13.101845947265625,3.7232320308685303,7.184450149536133,5.527420520782471
1710957934488805600,13.1208056640625,3.4983067512512207,7.021738052368164,5.558526992797852
1710957934507765200,13.13976513671875,3.414557933807373,6.99541711807251,5.617151260375977
1710957934526724600,13.158724609375,3.456432342529297,7.2059855461120605,5.501099109649658
1710957934545684200,13.177684326171875,3.7052857875823975,7.196413993835449,5.418546676635742
1710957934564643600,13.1966435546875,3.627519130706787,6.976274490356445,5.230710506439209
1710957934583603200,13.215603271484374,3.4025938510894775,6.905686378479004,5.26181697845459
1710957934602562800,13.234562744140625,3.565305709838867,7.219145774841309,5.542973518371582
1710957934621522400,13.2535224609375,3.792623996734619,7.664210796356201,5.684150218963623
1710957934640481800,13.272481689453125,4.035495281219482,7.674978733062744,5.575276851654053
1710957934659441400,13.29144140625,4.261617183685303,7.393822193145752,5.385047435760498
1710957934678400800,13.31040087890625,4.187439441680908,7.05763053894043,5.2737812995910645
1710957934697360400,13.3293603515625,3.9457645416259766,7.000202655792236,5.496313571929932
1710957934716320000,13.348320068359374,3.7328033447265625,7.288537979125977,5.685346603393555
1710957934735279600,13.367279541015625,3.7088751792907715,7.489534854888916,5.858826160430908
1710957934754239000,13.386239013671876,3.735196113586426,7.348358154296875,5.68893575668335
1710957934773198600,13.405198486328125,3.6119658946990967,7.11146879196167,5.594419479370117
1710957934792158200,13.424158203125,3.4169507026672363,7.085147857666016,5.507081508636475
1710957934811117600,13.44311767578125,3.229114055633545,6.978667259216309,5.438885688781738
1710957934830077200,13.4620771484375,3.13220477104187,6.780063152313232,5.325226783752441
1710957934849036800,13.481036865234374,2.9383862018585205,6.97986364364624,5.353940486907959
1710957934867996200,13.49999609375,2.9599215984344482,7.272984504699707,5.667400360107422
1710957934886955800,13.518955810546874,3.2004003524780273,7.186842918395996,5.643472194671631
1710957934905915400,13.537915283203125,3.2410783767700195,6.8554368019104,5.546562671661377
1710957934924875000,13.556875,3.2303106784820557,6.713063716888428,5.618347644805908
1710957934943834600,13.575834716796875,3.2063822746276855,6.842276573181152,5.61116886138916
1710957934962794000,13.5947939453125,3.2937204837799072,7.1856465339660645,5.6446685791015625
1710957934981753600,13.613753662109374,3.493520975112915,7.323233604431152,5.570491313934326
1710957935000713000,13.632712890625,3.473181962966919,7.098308563232422,5.351547718048096
1710957935019672600,13.651672607421874,3.4683964252471924,7.109076023101807,5.284548759460449
1710957935038632200,13.670632080078125,3.510270833969116,7.397411346435547,5.48793888092041
1710957935057591800,13.689591796875,3.5294134616851807,7.258627414703369,5.595615863800049
1710957935076551200,13.70855126953125,3.404986619949341,7.0408806800842285,5.4951171875
1710957935095510800,13.7275107421875,3.4480574131011963,7.070790767669678,5.584847927093506
1710957935114470400,13.746470458984374,3.38105845451355,7.172485828399658,5.54177713394165
1710957935133429800,13.7654296875,3.3714871406555176,7.170093059539795,5.733202934265137
1710957935152389400,13.784389404296874,3.2829527854919434,7.012166976928711,5.822933673858643
1710957935171349000,13.803348876953125,3.4205398559570312,7.1473612785339355,5.61954402923584
1710957935190308400,13.822308349609376,3.407379388809204,7.441678524017334,5.5142598152160645
1710957935209268000,13.84126806640625,3.442075490951538,7.384250640869141,5.521438121795654
1710957935228227600,13.8602275390625,3.3858439922332764,7.190432071685791,5.466403484344482
1710957935247187200,13.879187255859375,3.2650065422058105,6.943971157073975,5.589633464813232
1710957935266146600,13.898146484375,3.2590243816375732,7.001399040222168,5.747560024261475
1710957935285106200,13.917106201171874,3.3571300506591797,7.191628456115723,5.816951751708984
1710957935304065800,13.936065673828125,3.6526436805725098,7.347161769866943,5.739185333251953
1710957935323025400,13.955025390625,3.600001573562622,7.406982421875,5.686542987823486
1710957935341984800,13.97398486328125,3.5605201721191406,7.165307521820068,5.72841739654541
1710957935360944400,13.9929443359375,3.397808074951172,7.164111137390137,5.735595703125
1710957935379904000,14.011904052734375,3.2506494522094727,7.250252723693848,5.79063081741333
1710957935398863400,14.03086328125,3.3236305713653564,7.357929706573486,5.766702651977539
1710957935417823000,14.049822998046874,3.4444682598114014,7.5086774826049805,5.614758491516113
1710957935436782600,14.068782470703125,3.5617165565490723,7.445267677307129,5.710471153259277
1710957935455742200,14.0877421875,3.445664644241333,7.245467185974121,5.803791522979736
1710957935474701600,14.10670166015625,3.5330026149749756,7.194021224975586,5.855237007141113
1710957935493661200,14.1256611328125,3.6837503910064697,7.347161769866943,5.8959150314331055
1710957935512620500,14.14462060546875,3.8153557777404785,7.396214962005615,5.784648895263672
1710957935531580200,14.163580078125,3.504288673400879,7.411767959594727,5.6099724769592285
1710957935550539800,14.182539794921874,3.280559778213501,7.2335028648376465,5.575276851654053
1710957935569499400,14.20149951171875,3.568894863128662,6.902096748352051,5.185246467590332
1710957935588458800,14.220458740234376,3.6191442012786865,6.887740135192871,4.744967460632324
1710957935607418400,14.23941845703125,3.236292600631714,7.384250640869141,4.880161762237549
1710957935626378000,14.2583779296875,3.5748770236968994,7.58644437789917,5.200799942016602
1710957935645337300,14.27733740234375,3.968496322631836,7.061219692230225,5.072783946990967
1710957935664297000,14.296296875,3.8021950721740723,6.429514408111572,5.053641319274902
1710957935683256600,14.315256591796874,3.6813576221466064,6.269195556640625,5.109872817993164
1710957935702216000,14.3342158203125,3.686143398284912,6.425925254821777,4.783252239227295
1710957935721175600,14.353175537109376,3.342773199081421,7.263412952423096,4.299902439117432
1710957935740135200,14.37213525390625,3.012563705444336,8.250452041625977,4.5547380447387695
1710957935759094800,14.3910947265625,3.0592236518859863,8.36411190032959,5.4041900634765625
1710957935778054100,14.41005419921875,3.696911096572876,7.743174076080322,6.027520179748535
1710957935797013800,14.429013671875,3.6921253204345703,6.606583118438721,6.114858150482178
1710957935815973400,14.447973388671874,3.517449378967285,6.256034851074219,6.2297139167785645
1710957935834932700,14.4669326171875,3.7232320308685303,7.512266635894775,6.356533527374268
1710957935853892400,14.485892333984374,3.6083765029907227,8.654839515686035,6.6149582862854
1710957935872852000,14.50485205078125,3.647858142852783,8.673981666564941,7.246663570404053
1710957935891811300,14.523811279296876,4.223331928253174,6.7070817947387695,6.736992359161377
1710957935910771000,14.54277099609375,4.485345840454102,5.882754325866699,5.298905849456787
1710957935929730600,14.56173046875,4.329812526702881,7.055237770080566,4.922036170959473
1710957935948690000,14.58068994140625,3.838087558746338,8.050651550292969,5.704489231109619
1710957935967649500,14.5996494140625,3.6813576221466064,7.793423175811768,5.903093338012695
1710957935986609200,14.618609130859374,3.7328033447265625,6.9930243492126465,5.650650501251221
1710957936005568500,14.637568603515625,3.6047873497009277,6.416353702545166,5.497509956359863
1710957936024528100,14.656528076171876,3.2793633937835693,6.081358909606934,5.62672233581543
1710957936043487700,14.67548779296875,3.0376882553100586,5.933003902435303,5.96171760559082
1710957936062447000,14.694447021484375,2.939582586288452,6.013163089752197,6.014359951019287
1710957936081406700,14.71340673828125,2.977867841720581,6.452246189117432,5.941378593444824
1710957936100366300,14.732366455078125,3.001796007156372,6.922435760498047,5.828916072845459
1710957936119325700,14.75132568359375,2.93001127243042,7.039684295654297,5.601597785949707
1710957936138285300,14.770285400390625,3.053241729736328,6.790830612182617,5.660222053527832
1710957936157245000,14.789244873046876,3.442075490951538,6.669992923736572,5.90668249130249
1710957936176204300,14.808204345703125,3.9840497970581055,6.880561351776123,6.2536420822143555
1710957936195164000,14.827163818359375,4.302295207977295,7.573283672332764,6.515655994415283
1710957936214123500,14.84612353515625,4.2831525802612305,7.922635555267334,6.675975322723389
1710957936233083000,14.865082763671875,4.2723846435546875,7.722835063934326,6.640082836151123
1710957936252042500,14.88404248046875,4.356133460998535,7.372286796569824,6.235695838928223
1710957936271002000,14.903002197265625,4.222135543823242,7.137789726257324,5.903093338012695
1710957936289961500,14.92196142578125,4.01754903793335,7.1473612785339355,5.830112457275391
1710957936308921000,14.940921142578125,4.021138668060303,7.027719974517822,5.651846885681152
1710957936327880400,14.95988037109375,3.5820555686950684,6.830312252044678,5.224728107452393
1710957936346840000,14.978840087890624,3.249453067779541,7.113861560821533,5.038087844848633
1710957936365799700,14.997799560546875,3.198007345199585,7.402196884155273,4.948357105255127
1710957936384759300,15.01675927734375,3.4265220165252686,7.29810905456543,4.8466620445251465
1710957936403718700,15.03571875,3.4229328632354736,7.0061845779418945,5.014159679412842
1710957936422678300,15.05467822265625,3.4672000408172607,6.726224422454834,5.4520463943481445
1710957936441637600,15.0736376953125,3.6095728874206543,6.601797580718994,5.691328525543213
1710957936460597200,15.09259716796875,3.875176191329956,7.038487911224365,5.9545392990112305
1710957936479556900,15.111556884765625,4.000799655914307,7.530212879180908,6.000002861022949
1710957936498516200,15.13051611328125,3.7603209018707275,7.621140003204346,5.959324836730957
1710957936517475800,15.149475830078124,3.438486099243164,7.3052873611450195,6.125626087188721
1710957936536435500,15.168435546875,3.5437703132629395,7.033702373504639,5.956932067871094
1710957936555394800,15.187394775390626,3.665804386138916,7.223931789398193,5.711667537689209
1710957936574354200,15.206354248046875,3.463610887527466,7.478767395019531,5.6446685791015625
1710957936593313800,15.225313720703125,3.4396824836730957,7.719245910644531,5.617151260375977
1710957936612273400,15.2442734375,3.4169507026672363,7.931010723114014,5.4281182289123535
1710957936631233000,15.26323291015625,3.372683525085449,7.769495010375977,5.234299659729004
1710957936650192400,15.2821923828125,3.1417760848999023,7.576872825622559,5.314459323883057
1710957936669152000,15.301152099609375,3.1477582454681396,7.441678524017334,5.662614822387695
1710957936688111400,15.320111328125,3.3128628730773926,7.237092018127441,5.814558982849121
1710957936707071000,15.339071044921875,3.4911282062530518,6.971488952636719,5.649454116821289
1710957936726030300,15.3580302734375,3.376272678375244,6.830312252044678,5.406582832336426
1710957936744990000,15.376989990234375,3.2171499729156494,7.246663570404053,5.400600910186768
1710957936763949600,15.395949462890625,3.3415768146514893,7.698906898498535,5.4759745597839355
1710957936782909000,15.414908935546874,3.4552359580993652,7.451249599456787,5.407779216766357
1710957936801868500,15.43386865234375,3.4468610286712646,6.768098831176758,5.051248550415039
1710957936820828200,15.452828125,3.2853455543518066,6.6113691329956055,4.875376224517822
1710957936839787500,15.47178759765625,2.9563324451446533,7.375875949859619,5.314459323883057
1710957936858747100,15.4907470703125,2.9874391555786133,7.93579626083374,6.014359951019287
1710957936877706500,15.50970654296875,3.221935749053955,7.658228874206543,6.200999736785889
1710957936896666000,15.528666015625,3.311666488647461,7.18086051940918,5.909075736999512
1710957936915625500,15.54762548828125,3.2315070629119873,7.001399040222168,5.753541946411133
1710957936934585000,15.566585205078125,3.528217077255249,7.045666217803955,5.766702651977539
1710957936953544700,15.585544677734376,3.8560338020324707,7.237092018127441,5.7750773429870605
1710957936972504000,15.604504150390625,3.7423746585845947,7.4979095458984375,5.822933673858643
1710957936991463700,15.623463623046876,3.8117663860321045,7.781459331512451,5.935396671295166
1710957937010423000,15.642423095703125,3.9804604053497314,7.653443336486816,5.613562107086182
1710957937029382700,15.661382568359375,4.005585193634033,7.411767959594727,5.361119270324707
1710957937048342000,15.680342041015624,3.875176191329956,7.41416072845459,5.485546112060547
1710957937067301600,15.699301513671875,3.7734813690185547,7.521838188171387,5.770291805267334
1710957937086261200,15.71826123046875,3.7160534858703613,7.288537979125977,5.830112457275391
1710957937105220600,15.737220703125,3.70767879486084,6.8243303298950195,5.706881999969482
1710957937124180200,15.75618017578125,3.5676984786987305,6.668796539306641,5.491528034210205
1710957937143139600,15.7751396484375,3.4923245906829834,6.936792850494385,5.533402442932129
1710957937162099200,15.79409912109375,3.531806230545044,7.372286796569824,5.504688262939453
1710957937181058600,15.81305859375,3.706482172012329,7.326822757720947,5.519045352935791
1710957937200018200,15.83201806640625,4.161118507385254,6.946363925933838,5.583651542663574
1710957937218977800,15.850977783203126,4.256831645965576,7.0025954246521,5.767899036407471
1710957937237937200,15.869937255859375,3.5676984786987305,7.270591735839844,5.704489231109619
1710957937256896800,15.888896728515626,3.1585259437561035,7.062416076660156,5.131408214569092
1710957937275856400,15.9078564453125,2.825923442840576,6.662814617156982,4.570291042327881
1710957937294815700,15.926815673828125,3.0137600898742676,6.569494724273682,4.621737003326416
1710957937313775000,15.945775146484374,3.555734395980835,6.780063152313232,4.956732273101807
1710957937332734700,15.964734619140625,3.8368911743164062,6.983452796936035,5.351547718048096
1710957937351694300,15.9836943359375,3.893122434616089,7.15812873840332,5.795416355133057
1710957937370653700,16.00265380859375,4.570291042327881,7.000202655792236,5.995217323303223
1710957937389613300,16.02161328125,5.575276851654053,6.701099872589111,6.138786315917969
1710957937408572700,16.04057275390625,5.00578498840332,7.176074981689453,6.534798622131348
1710957937427532300,16.0595322265625,3.3439695835113525,7.587640762329102,5.739185333251953
1710957937446492000,16.078491943359374,3.456432342529297,7.1856465339660645,4.5822553634643555
1710957937465451300,16.097451171875,3.7196428775787354,6.936792850494385,3.8428730964660645
1710957937484411000,16.116410888671876,4.041477680206299,7.267002582550049,4.309473514556885
1710957937503370200,16.135370361328125,4.315455436706543,7.487142086029053,5.2977094650268555
1710957937522329900,16.154329833984374,4.676771640777588,7.664210796356201,5.925825119018555
1710957937541289200,16.173289306640626,5.151747226715088,7.660621643066406,6.034698486328125
1710957937560248800,16.192248779296875,4.880161762237549,7.519444942474365,5.8995041847229
1710957937579208400,16.21120849609375,4.406383037567139,7.178467750549316,5.295316696166992
1710957937598167800,16.230167724609377,4.011567115783691,6.87099027633667,4.516452789306641
1710957937617127400,16.24912744140625,3.9804604053497314,6.483353137969971,4.193421840667725
1710957937636086800,16.268086669921875,3.8261234760284424,6.1435723304748535,4.201796531677246
1710957937655046400,16.28704638671875,4.122833251953125,6.000002861022949,4.482953071594238
1710957937674006000,16.306006103515625,4.125226020812988,6.212964057922363,4.64805793762207
1710957937692965400,16.32496533203125,4.109673023223877,6.522834300994873,4.619344234466553
1710957937711925000,16.343925048828126,3.7196428775787354,7.2335028648376465,4.467400074005127
1710957937730884600,16.362884521484375,2.8833513259887695,7.651050567626953,4.575077056884766
1710957937749844000,16.381843994140624,2.4011974334716797,7.45364236831665,4.7234320640563965
1710957937768803600,16.400803466796877,2.3198416233062744,9.367900848388672,6.539584159851074
1710957937787763000,16.419762939453125,5.800201892852783,8.153543472290039,8.219346046447754
1710957937806722600,16.43872265625,7.3304123878479,5.149354457855225,6.973881721496582
1710957937825682000,16.457681884765623,4.944767951965332,6.839883327484131,7.223931789398193
1710957937844641500,16.4766416015625,2.310270309448242,8.884550094604492,7.010970115661621
1710957937863601200,16.49560107421875,3.3068809509277344,7.651050567626953,5.274977684020996
1710957937882560500,16.514560546875,4.750949382781982,6.1675004959106445,3.586841106414795
1710957937901520100,16.53352001953125,4.277170658111572,6.147161483764648,3.7052857875823975
1710957937920479500,16.5524794921875,4.540380954742432,6.87816858291626,5.133800983428955
1710957937939439000,16.571439208984376,4.8574299812316895,7.013363361358643,6.161518096923828
1710957937958398700,16.590398681640625,4.473381996154785,5.508277893066406,6.58265495300293
1710957937977358000,16.609358154296874,2.7601208686828613,4.783252239227295,6.102894306182861
1710957937996317700,16.628317626953127,1.4715858697891235,6.179464340209961,5.343173027038574
1710957938015277300,16.64727734375,3.504288673400879,7.590033531188965,4.996213912963867
1710957938034236700,16.666236572265625,5.344369411468506,6.25723123550415,3.9565322399139404
1710957938053196300,16.6851962890625,3.187239646911621,4.942375183105469,4.4135613441467285
1710957938072155600,16.70415576171875,1.841277003288269,5.605186939239502,5.7750773429870605
1710957938091115300,16.723115234375,3.4743785858154297,7.055237770080566,5.970092296600342
1710957938110075000,16.742074951171876,5.1182475090026855,8.568697929382324,5.00578498840332
1710957938129034500,16.761034423828125,3.9936211109161377,9.547362327575684,5.410171985626221
1710957938147993900,16.779993896484374,3.3643085956573486,8.578269004821777,6.770491600036621
1710957938166953500,16.798953369140627,4.275974273681641,6.654439926147461,6.930810928344727
1710957938185912800,16.817912841796876,5.024927616119385,5.674578666687012,6.011966705322266
1710957938204872400,16.83687255859375,4.693521499633789,6.768098831176758,5.24626350402832
1710957938223832000,16.85583203125,4.074976921081543,8.260024070739746,4.884947299957275
1710957938242791400,16.87479150390625,3.8775691986083984,8.410771369934082,4.505684852600098
1710957938261751000,16.8937509765625,3.792623996734619,8.170292854309082,4.334598064422607
1710957938280710700,16.912710693359376,3.7423746585845947,7.470392227172852,4.527220249176025
1710957938299670000,16.931669921875,3.3296127319335938,6.713063716888428,4.7126641273498535
1710957938318629600,16.950629638671874,3.0855448246002197,6.401997089385986,4.979464054107666
1710957938337589200,16.96958935546875,2.7218358516693115,6.212964057922363,5.161318302154541
1710957938356548900,16.988548828125,2.6356940269470215,6.03948450088501,5.0811591148376465
1710957938375508200,17.00750830078125,2.6835505962371826,6.269195556640625,4.561916351318359
1710957938394467800,17.0264677734375,2.6907291412353516,7.226324558258057,4.350151538848877
1710957938413427200,17.04542724609375,3.050848960876465,8.051848411560059,4.777270317077637
1710957938432386800,17.06438671875,3.5736806392669678,7.806583881378174,5.290530681610107
1710957938451346400,17.083346435546876,4.17427921295166,7.110272407531738,5.436492919921875
1710957938470306000,17.10230615234375,4.130012035369873,7.077969551086426,5.044070243835449
1710957938489265400,17.121265380859374,3.500699520111084,8.068597793579102,4.947160720825195
1710957938508225000,17.14022509765625,3.425325632095337,8.702695846557617,6.080162525177002
1710957938527184600,17.1591845703125,3.680161237716675,8.154739379882812,6.833901405334473
1710957938546144000,17.17814404296875,4.011567115783691,7.010970115661621,6.842276573181152
1710957938565103600,17.197103515625,3.4719855785369873,7.16650390625,6.6149582862854
1710957938584063200,17.216063232421874,3.322434186935425,7.9142608642578125,6.522834300994873
1710957938603022800,17.23502294921875,3.0975089073181152,8.166703224182129,6.145965099334717
1710957938621982200,17.253982177734375,3.308077335357666,8.293522834777832,5.705685615539551
1710957938640941800,17.27294189453125,3.3714871406555176,8.834300994873047,5.887540340423584
1710957938659901400,17.2919013671875,3.7399818897247314,8.861818313598633,6.259624004364014
1710957938678860800,17.31086083984375,3.751945972442627,7.926225185394287,5.911468505859375
1710957938697820400,17.3298203125,3.040081262588501,7.183253765106201,5.516652584075928
1710957938716780000,17.348780029296876,2.562713146209717,7.232306480407715,5.469992637634277
1710957938735739400,17.367739501953125,2.9694929122924805,7.540980339050293,5.749952793121338
1710957938754699000,17.386698974609374,3.266202926635742,7.0683979988098145,5.766702651977539
1710957938773658600,17.40565869140625,2.933600664138794,6.708278179168701,5.661418437957764
1710957938792618200,17.4246181640625,2.6560330390930176,6.460621356964111,5.558526992797852
1710957938811577900,17.443577880859376,2.6321048736572266,6.3601226806640625,5.36351203918457
1710957938830537200,17.462537109375,2.647658348083496,6.766902446746826,5.172086238861084
1710957938849496800,17.481496826171874,2.8223342895507812,7.083951473236084,5.344369411468506
1710957938868456400,17.50045654296875,3.10109806060791,7.013363361358643,5.340780258178711
1710957938887416000,17.519416015625,3.266202926635742,6.918846607208252,5.444868087768555
1710957938906375400,17.53837548828125,3.387040376663208,6.967899322509766,5.665007591247559
1710957938925335000,17.5573349609375,3.555734395980835,7.144968509674072,5.7511491775512695
1710957938944294700,17.576294677734374,3.4576287269592285,6.999006271362305,5.691328525543213
1710957938963254300,17.595254150390623,3.2338998317718506,6.638886451721191,5.558526992797852
1710957938982214000,17.6142138671875,3.1896326541900635,6.711867332458496,5.4173502922058105
1710957939001173200,17.63317333984375,3.3846476078033447,6.989434719085693,5.133800983428955
1710957939020132900,17.6521328125,3.432504177093506,7.286144733428955,5.079962253570557
1710957939039092500,17.671092529296875,3.387040376663208,7.332805156707764,5.190032482147217
1710957939058052000,17.690052001953124,3.3894333839416504,6.844669342041016,5.435296535491943
1710957939077011500,17.709011474609376,3.627519130706787,6.620940208435059,5.533402442932129
1710957939095971000,17.72797119140625,3.7052857875823975,6.807580471038818,5.450850009918213
1710957939114930700,17.7469306640625,3.7232320308685303,7.183253765106201,5.504688262939453
1710957939133890300,17.765890380859375,3.59043025970459,7.287341594696045,5.528616905212402
1710957939152849700,17.784849609375,3.5126636028289795,7.186842918395996,5.661418437957764
1710957939171809300,17.803809326171876,3.6634113788604736,7.203592777252197,5.582455158233643
1710957939190769000,17.822768798828125,3.8213376998901367,7.513463020324707,5.429314613342285
1710957939209728500,17.841728515625,3.8081772327423096,7.713263988494873,5.625525951385498
1710957939228688100,17.860688232421875,3.6394832134246826,7.590033531188965,5.96171760559082
1710957939247647700,17.879647705078124,3.737588882446289,7.420143127441406,6.2668023109436035
1710957939266607000,17.898607177734377,3.9014973640441895,7.170093059539795,6.034698486328125
1710957939285566700,17.917566650390626,4.034298896789551,7.29093074798584,5.661418437957764
1710957939304526300,17.9365263671875,3.9385859966278076,7.511070251464844,5.392225742340088
1710957939323486000,17.95548583984375,3.8488552570343018,7.471588611602783,5.466403484344482
1710957939342445300,17.9744453125,3.924229145050049,7.355536937713623,5.412564754486084
1710957939361405000,17.993405029296873,3.9876389503479004,7.341179847717285,5.381458282470703
1710957939380364500,18.012364501953126,4.121636867523193,7.52423095703125,5.565705299377441
1710957939399324200,18.03132421875,4.0558342933654785,7.441678524017334,5.587240695953369
1710957939418283800,18.05028369140625,4.024727821350098,7.302894592285156,5.473581790924072
1710957939437243100,18.0692431640625,3.793820381164551,7.289734363555908,5.38624382019043
1710957939456202800,18.08820263671875,3.6394832134246826,7.408178806304932,5.544169902801514
1710957939475162400,18.107162353515626,3.7124643325805664,7.4572319984436035,5.519045352935791
1710957939494122000,18.1261220703125,3.623929977416992,7.251449108123779,5.225924491882324
1710957939513081600,18.14508154296875,3.6047873497009277,7.33759069442749,5.30129861831665
1710957939532041200,18.164041259765625,3.7531423568725586,7.651050567626953,5.662614822387695
1710957939551000800,18.183000732421874,3.9074792861938477,7.884350776672363,5.838487148284912
1710957939569960400,18.20196044921875,4.311866283416748,7.692924976348877,5.983253002166748
1710957939588919800,18.220919921875,4.459024906158447,7.5565338134765625,5.882754325866699
1710957939607879400,18.23987939453125,4.329812526702881,7.945367813110352,5.934200286865234
1710957939626839000,18.258839111328125,4.2592244148254395,8.358129501342773,6.138786315917969
1710957939645798700,18.277798583984374,4.299902439117432,8.276773452758789,6.149554252624512
1710957939664758300,18.29675830078125,4.11924409866333,7.974081516265869,5.7858452796936035
1710957939683717600,18.315717529296876,4.073780536651611,7.9250288009643555,5.742774486541748
1710957939702677200,18.33467724609375,3.9732820987701416,7.944170951843262,5.735595703125
1710957939721636900,18.353636962890626,3.9792640209198,8.041080474853516,5.979663848876953
1710957939740596500,18.372596435546875,4.061816215515137,8.14397144317627,5.996413707733154
1710957939759556000,18.39155615234375,4.0558342933654785,8.124829292297363,5.846862316131592
1710957939778515700,18.410515625,3.964907169342041,7.869993686676025,5.7272210121154785
1710957939797475300,18.429475341796874,3.9278182983398438,7.76470947265625,5.736792087554932
1710957939816434700,18.4484345703125,4.101297855377197,8.063812255859375,5.745167255401611
1710957939835394300,18.467394287109375,4.297509670257568,8.188239097595215,5.733202934265137
1710957939854354000,18.48635400390625,4.258028030395508,8.075776100158691,5.737988471984863
1710957939873313500,18.5053134765625,4.139583110809326,8.069794654846191,5.881557941436768
1710957939892273200,18.524273193359374,4.161118507385254,8.011170387268066,5.982056617736816
1710957939911232800,18.543232666015626,4.1659040451049805,7.8077802658081055,5.765506267547607
1710957939930192400,18.5621923828125,4.109673023223877,7.7730841636657715,5.657829284667969
1710957939949151700,18.58115185546875,4.0666022300720215,7.988438606262207,5.636293888092041
1710957939968111400,18.600111328125,4.01037073135376,8.057829856872559,5.61954402923584
1710957939987071000,18.619071044921874,4.01754903793335,7.830512046813965,5.546562671661377
1710957940006030600,18.638030517578127,3.9984066486358643,7.750352382659912,5.568098068237305
1710957940024990200,18.656990234375,4.005585193634033,7.875975608825684,5.667400360107422
1710957940043949800,18.67594970703125,4.1383867263793945,7.779066562652588,5.68893575668335
1710957940062909200,18.6949091796875,4.1036906242370605,7.5804619789123535,5.545366287231445
1710957940081868800,18.713868896484374,4.028316974639893,7.575676441192627,5.5381879806518555
1710957940100828400,18.732828369140623,4.000799655914307,7.70967435836792,5.5345988273620605
1710957940119788000,18.7517880859375,3.9625144004821777,7.844869136810303,5.468796253204346
1710957940138747600,18.77074755859375,4.006781578063965,7.856832981109619,5.392225742340088
1710957940157707300,18.789707275390626,3.9696927070617676,7.612765312194824,5.3455657958984375
1710957940176667000,18.8086669921875,3.893122434616089,7.4225358963012695,5.365904808044434
1710957940195626200,18.827626220703124,3.799802303314209,7.408178806304932,5.44845724105835
1710957940214585900,18.8465859375,3.8392839431762695,7.499105930328369,5.442475318908691
1710957940233545500,18.86554541015625,3.8560338020324707,7.445267677307129,5.280959606170654
1710957940252505000,18.884505126953126,3.7770705223083496,7.293323516845703,5.162514686584473
1710957940271464700,18.903464599609375,3.731606960296631,7.334001541137695,5.158925533294678
1710957940290424000,18.922424072265624,3.7292141914367676,7.428517818450928,5.282155990600586
1710957940309383700,18.9413837890625,3.865604877471924,7.323233604431152,5.2354960441589355
1710957940328343300,18.96034326171875,3.779463291168213,7.0995049476623535,5.134997367858887
1710957940347303000,18.979302978515626,3.7878382205963135,7.073183536529541,5.191228866577148
1710957940366262500,18.998262451171875,3.902693748474121,7.215556621551514,5.106283664703369
1710957940385222100,19.01722216796875,3.9637107849121094,7.189235687255859,4.871787071228027
1710957940404181500,19.036181396484373,3.7363924980163574,7.183253765106201,4.833501815795898
1710957940423141000,19.05514111328125,3.607180118560791,7.250252723693848,4.947160720825195
1710957940442100700,19.074100830078127,3.6598222255706787,7.2813591957092285,4.978267669677734
1710957940461060400,19.093060302734376,3.786641836166382,7.219145774841309,4.968696117401123
1710957940480020000,19.11202001953125,3.875176191329956,7.067201614379883,4.931607246398926
1710957940498979600,19.1309794921875,3.9074792861938477,7.1270222663879395,4.986642360687256
1710957940517939200,19.149939208984375,3.757927894592285,7.251449108123779,4.986642360687256
1710957940536898600,19.168898681640623,3.7663028240203857,7.267002582550049,5.066802024841309
1710957940555858200,19.187858154296876,3.737588882446289,7.226324558258057,4.981856822967529
1710957940574817800,19.20681787109375,3.7878382205963135,7.390232563018799,4.95912504196167
1710957940593777400,19.22577734375,3.7160534858703613,7.392625331878662,4.923232555389404
1710957940612736800,19.24473681640625,3.6945180892944336,7.069594383239746,4.955535888671875
1710957940631696400,19.2636962890625,3.696911096572876,6.74656343460083,4.791627407073975
1710957940650656000,19.282656005859376,3.535395383834839,6.7310099601745605,4.58584451675415
1710957940669615600,19.30161572265625,3.245863914489746,6.861418724060059,4.4961137771606445
1710957940688575200,19.3205751953125,3.1250264644622803,7.071987152099609,4.36809778213501
1710957940707534600,19.33953466796875,3.0448668003082275,7.338787078857422,4.431507587432861
1710957940726494200,19.358494140625,3.2554352283477783,7.323233604431152,4.768895626068115
1710957940745453800,19.377453857421877,3.4815568923950195,6.8171515464782715,4.899304389953613
1710957940764413400,19.396413330078126,3.689732551574707,6.356533527374268,4.8813581466674805
1710957940783373000,19.415373046875,3.672982692718506,6.4187469482421875,4.566701889038086
1710957940802332400,19.43433251953125,3.517449378967285,7.129415035247803,4.377668857574463
1710957940821292000,19.4532919921875,3.314059257507324,7.690532207489014,4.494917392730713
1710957940840251600,19.472251708984373,3.401397466659546,7.624729156494141,4.656432628631592
1710957940859211300,19.491211181640626,3.5377883911132812,7.061219692230225,4.6301116943359375
1710957940878170600,19.510170654296875,3.7052857875823975,6.696314334869385,4.671986103057861
1710957940897130200,19.529130126953124,3.682554006576538,6.770491600036621,4.680361270904541
1710957940916089900,19.54808984375,3.4612178802490234,7.184450149536133,4.82751989364624
1710957940935049500,19.567049560546874,3.308077335357666,7.493124008178711,4.941178798675537
1710957940954009000,19.586009033203126,3.352344512939453,7.372286796569824,4.804787635803223
1710957940972968400,19.604968505859375,3.3379876613616943,7.0755767822265625,4.463810443878174
1710957940991928000,19.623927978515624,3.2374889850616455,7.043273448944092,4.41475772857666
1710957941010887700,19.6428876953125,3.243471145629883,7.331608772277832,4.746163845062256
1710957941029847300,19.661847412109374,3.482753276824951,7.459624767303467,5.020142078399658
1710957941048807000,19.680806884765627,3.528217077255249,7.512266635894775,5.148158073425293
1710957941067766300,19.699766357421876,3.4779677391052246,7.701299667358398,5.394618511199951
1710957941086726000,19.718725830078125,3.510270833969116,7.75753116607666,5.560919761657715
1710957941105685500,19.737685546875,3.5509488582611084,7.5326056480407715,5.272584915161133
1710957941124645000,19.75664501953125,3.4947173595428467,7.47637414932251,5.133800983428955
1710957941143604500,19.7756044921875,3.5294134616851807,7.735995769500732,5.219942569732666
1710957941162564000,19.794564208984376,3.7088751792907715,7.820940971374512,5.274977684020996
1710957941181523700,19.813523681640625,3.762713670730591,7.674978733062744,5.07517671585083
1710957941200483300,19.8324833984375,3.702893018722534,7.5565338134765625,4.930410861968994
1710957941219443000,19.85144287109375,3.597608804702759,7.485945701599121,4.901697158813477
1710957941238402300,19.87040234375,3.566502094268799,7.4464640617370605,4.985445976257324
1710957941257362000,19.88936181640625,3.518645763397217,7.393822193145752,5.115854740142822
1710957941276321500,19.908321533203125,3.542573928833008,7.307680130004883,5.26899528503418
1710957941295281200,19.92728125,3.535395383834839,7.134200572967529,5.14576530456543
1710957941314240500,19.946240478515627,3.311666488647461,7.201199531555176,5.063212871551514
1710957941333200100,19.9652001953125,3.266202926635742,7.326822757720947,5.169693470001221
1710957941352159700,19.98415966796875,3.463610887527466,7.555337429046631,5.1565327644348145
1710957941371119000,20.003119140625,3.59043025970459,7.70249605178833,5.103890895843506
1710957941390078700,20.02207861328125,3.594019651412964,7.6737823486328125,5.257031440734863
1710957941409038300,20.041038330078123,3.7148571014404297,7.564908981323242,5.327619552612305
1710957941427998000,20.059998046875,3.8321053981781006,7.500302791595459,5.212764263153076
1710957941446957300,20.078957275390625,3.8261234760284424,7.46201753616333,5.181657314300537
1710957941465917000,20.0979169921875,3.786641836166382,7.5086774826049805,5.207978248596191
1710957941484876500,20.11687646484375,3.7435710430145264,7.679764270782471,5.167300701141357
1710957941503836200,20.135836181640624,3.7232320308685303,7.678567886352539,5.143372058868408
1710957941522795500,20.15479541015625,3.6909289360046387,7.624729156494141,5.151747226715088
1710957941541755100,20.173755126953125,3.6227335929870605,7.478767395019531,5.174479007720947
1710957941560714800,20.19271484375,3.5270206928253174,7.332805156707764,5.173282623291016
1710957941579674000,20.211674072265627,3.5330026149749756,7.347161769866943,5.20678186416626
1710957941598633700,20.2306337890625,3.5401811599731445,7.3878397941589355,5.234299659729004
1710957941617593300,20.24959326171875,3.5748770236968994,7.366304397583008,5.224728107452393
1710957941636552700,20.268552734375,3.586841106414795,7.386643409729004,5.1529436111450195
1710957941655512300,20.28751220703125,3.5365917682647705,7.448856830596924,5.13021183013916
1710957941674472000,20.306471923828123,3.5198421478271484,7.477570533752441,5.0979084968566895
1710957941693431600,20.325431640625,3.5880374908447266,7.534998416900635,5.138586521148682
1710957941712391200,20.34439111328125,3.6227335929870605,7.557730197906494,5.252245903015137
1710957941731350500,20.3633505859375,3.704089403152466,7.470392227172852,5.320441246032715
1710957941750310100,20.38231005859375,3.686143398284912,7.438089370727539,5.26181697845459
1710957941769269500,20.40126953125,3.559323787689209,7.4464640617370605,5.282155990600586
1710957941788229000,20.42022900390625,3.4791641235351562,7.512266635894775,5.270191669464111
1710957941807188700,20.439188720703125,3.500699520111084,7.594819068908691,5.2115678787231445
1710957941826148400,20.4581484375,3.5808591842651367,7.507481098175049,5.133800983428955
1710957941845107700,20.477107666015623,3.541377544403076,7.405786037445068,5.029713153839111
1710957941864067300,20.4960673828125,3.5066816806793213,7.536194801330566,5.182853698730469
1710957941883027000,20.51502685546875,3.5641093254089355,7.569694519042969,5.335994720458984
1710957941901986300,20.533986328125,3.6059837341308594,7.377072334289551,5.260620594024658
1710957941920946000,20.55294580078125,3.528217077255249,7.423732280731201,5.178068161010742
1710957941939905500,20.571905517578124,3.5126636028289795,7.585247993469238,5.198407173156738
1710957941958865000,20.590864990234376,3.517449378967285,7.519444942474365,5.201996326446533
1710957941977824500,20.609824462890625,3.5258240699768066,7.372286796569824,5.2043890953063965
1710957941996784000,20.6287841796875,3.566502094268799,7.375875949859619,5.167300701141357
1710957942015743700,20.64774365234375,3.607180118560791,7.617550849914551,5.221138954162598
1710957942034703000,20.666703125,3.6155550479888916,7.667799949645996,5.270191669464111
1710957942053662700,20.685662841796876,3.6634113788604736,7.542177200317383,5.178068161010742
1710957942072622000,20.7046220703125,3.7196428775787354,7.483552932739258,5.163711071014404
1710957942091581700,20.723581787109374,3.6394832134246826,7.396214962005615,5.181657314300537
1710957942110541300,20.742541259765623,3.541377544403076,7.5326056480407715,5.2869415283203125
1710957942129501000,20.7615009765625,3.449253797531128,7.525427341461182,5.374279499053955
1710957942148460300,20.780460205078125,3.5198421478271484,7.34476900100708,5.2869415283203125
1710957942167420000,20.799419921875,3.497110366821289,7.328019142150879,5.132604598999023
1710957942186379500,20.818379638671875,3.4779677391052246,7.369893550872803,5.144568920135498
1710957942205339000,20.8373388671875,3.4133615493774414,7.429714202880859,5.186442852020264
1710957942224298500,20.856298583984376,3.4468610286712646,7.560122966766357,5.2737812995910645
1710957942243258000,20.875258056640625,3.541377544403076,7.464410305023193,5.296513080596924
1710957942262217500,20.894217529296874,3.579662561416626,7.36032247543335,5.219942569732666
1710957942281177000,20.913177001953127,3.596412420272827,7.402196884155273,5.224728107452393
1710957942300136700,20.93213671875,3.601198196411133,7.520641803741455,5.218746185302734
1710957942319096000,20.951095947265625,3.544966697692871,7.60080099105835,5.272584915161133
1710957942338055700,20.9700556640625,3.570091485977173,7.509873867034912,5.2354960441589355
1710957942357015300,20.989015380859374,3.5581271648406982,7.428517818450928,5.14576530456543
1710957942375974700,21.007974609375,3.5090744495391846,7.527820110321045,5.168497085571289
1710957942394934300,21.026934326171876,3.507878065109253,7.6869425773620605,5.295316696166992
1710957942413894000,21.045893798828125,3.517449378967285,7.631907939910889,5.31685209274292
1710957942432853200,21.064853271484374,3.451646566390991,7.51585578918457,5.288137912750244
1710957942451812900,21.083812744140626,3.4707891941070557,7.441678524017334,5.284548759460449
1710957942470772500,21.1027724609375,3.445664644241333,7.4811601638793945,5.224728107452393
1710957942489732000,21.121732177734376,3.4133615493774414,7.63310432434082,5.164907455444336
1710957942508691500,21.14069140625,3.4576287269592285,7.670193195343018,5.155336380004883
1710957942527651000,21.159651123046874,3.469592809677124,7.59362268447876,5.111069202423096
1710957942546610400,21.1786103515625,3.4396824836730957,7.5565338134765625,5.087141036987305
1710957942565570000,21.197570068359376,3.4085757732391357,7.6151580810546875,5.181657314300537
1710957942584529700,21.21652978515625,3.4229328632354736,7.616354465484619,5.230710506439209
1710957942603489300,21.2354892578125,3.3894333839416504,7.5708909034729,5.194818019866943
1710957942622448600,21.25444873046875,3.370290756225586,7.598408222198486,5.144568920135498
1710957942641408300,21.273408203125,3.3571300506591797,7.628318786621094,5.160121917724609
1710957942660368000,21.292367919921876,3.3547372817993164,7.598408222198486,5.237888813018799
1710957942679327200,21.3113271484375,3.372683525085449,7.560122966766357,5.2043890953063965
1710957942698286800,21.330286865234374,3.370290756225586,7.558926582336426,5.123033046722412
1710957942717246500,21.34924658203125,3.3846476078033447,7.5565338134765625,5.162514686584473
1710957942736206000,21.3682060546875,3.404986619949341,7.545766353607178,5.140979290008545
1710957942755165400,21.38716552734375,3.434896945953369,7.562515735626221,5.164907455444336
1710957942774125000,21.406125,3.3954153060913086,7.444071292877197,5.114658355712891
1710957942793084700,21.425084716796874,3.321237802505493,7.5050883293151855,5.146961688995361
1710957942812044000,21.4440439453125,3.363112211227417,7.6151580810546875,5.185246467590332
1710957942831003600,21.463003662109376,3.4480574131011963,7.634300708770752,5.221138954162598
1710957942849963300,21.48196337890625,3.5401811599731445,7.451249599456787,5.157729148864746
1710957942868922600,21.500922607421874,3.4755749702453613,7.427321434020996,5.1050872802734375
1710957942887882200,21.51988232421875,3.511467218399048,7.569694519042969,5.223531723022461
1710957942906841900,21.538841796875,3.5952160358428955,7.739584922790527,5.274977684020996
1710957942925801500,21.557801513671876,3.5928232669830322,7.7455668449401855,5.186442852020264
1710957942944760800,21.5767607421875,3.5497524738311768,7.759923934936523,5.167300701141357
1710957942963720400,21.595720458984374,3.480360507965088,7.6630144119262695,5.201996326446533
1710957942982680000,21.61468017578125,3.518645763397217,7.566105365753174,5.236692428588867
1710957943001639700,21.6336396484375,3.5461630821228027,7.539783954620361,5.212764263153076
1710957943020599000,21.65259912109375,3.483949661254883,7.5708909034729,5.233103275299072
1710957943039558700,21.67155859375,3.403790235519409,7.594819068908691,5.193621635437012
1710957943058518300,21.690518310546874,3.372683525085449,7.60080099105835,5.144568920135498
1710957943077478000,21.709477783203123,3.373879909515381,7.64028263092041,5.125426292419434
1710957943096437200,21.728437255859376,3.4265220165252686,7.534998416900635,5.150550842285156
1710957943115396900,21.74739697265625,3.4061830043792725,7.500302791595459,5.125426292419434
1710957943134356500,21.7663564453125,3.3547372817993164,7.616354465484619,5.1804609298706055
1710957943153315800,21.78531591796875,3.339184045791626,7.645068168640137,5.292923450469971
1710957943172275500,21.804275390625,3.321237802505493,7.539783954620361,5.283352375030518
1710957943191235000,21.823235107421876,3.253042459487915,7.555337429046631,5.207978248596191
1710957943210194700,21.842194580078125,3.276970624923706,7.618747234344482,5.161318302154541
1710957943229154300,21.861154296875,3.2578279972076416,7.667799949645996,5.131408214569092
1710957943248113700,21.88011376953125,3.249453067779541,7.6474609375,5.212764263153076
1710957943267073300,21.8990732421875,3.2925238609313965,7.634300708770752,5.254638671875
1710957943286033000,21.918032958984377,3.2685956954956055,7.671389579772949,5.231906890869141
1710957943304992500,21.936992431640626,3.2709884643554688,7.631907939910889,5.197210788726807
1710957943323951900,21.955951904296874,3.2518460750579834,7.472784996032715,5.101497650146484
1710957943342911500,21.974911376953123,3.2207393646240234,7.4572319984436035,5.151747226715088
1710957943361871000,21.99387109375,3.2554352283477783,7.421339511871338,5.322834014892578
1710957943380830700,22.012830810546873,3.298506021499634,7.335197925567627,5.288137912750244
1710957943399790300,22.031790283203126,3.2937204837799072,7.5326056480407715,5.288137912750244
1710957943418749700,22.050749755859375,3.291327476501465,7.828119277954102,5.352744102478027
1710957943437709300,22.069709228515624,3.3296127319335938,7.798209190368652,5.326423168182373
1710957943456669000,22.0886689453125,3.4085757732391357,7.6390862464904785,5.254638671875
1710957943475628500,22.107628662109374,3.45882511138916,7.549355506896973,5.191228866577148
1710957943494588200,22.126588134765626,3.469592809677124,7.539783954620361,5.264209747314453
1710957943513547500,22.145547607421875,3.451646566390991,7.596015453338623,5.325226783752441
1710957943532507100,22.164507080078124,3.431307554244995,7.613961696624756,5.3312087059021
1710957943551466800,22.183466796875,3.383451223373413,7.573283672332764,5.328815937042236
1710957943570426400,22.20242626953125,3.324826955795288,7.560122966766357,5.31685209274292
1710957943589386000,22.221385986328126,3.3403804302215576,7.549355506896973,5.300102233886719
1710957943608345600,22.240345703125,3.3379876613616943,7.507481098175049,5.2354960441589355
1710957943627305200,22.25930517578125,3.284149169921875,7.491927623748779,5.26181697845459
1710957943646264600,22.2782646484375,3.273381471633911,7.550551891326904,5.277370452880859
1710957943665224200,22.29722412109375,3.3403804302215576,7.548159122467041,5.234299659729004
1710957943684183800,22.316183837890627,3.366701364517212,7.430910587310791,5.132604598999023
1710957943703143400,22.335143310546876,3.2793633937835693,7.392625331878662,5.19242525100708
1710957943722103000,22.35410302734375,3.2829527854919434,7.466803073883057,5.313262462615967
1710957943741062400,22.3730625,3.346362352371216,7.487142086029053,5.326423168182373
1710957943760022000,22.39202197265625,3.4121651649475098,7.533802032470703,5.2737812995910645
1710957943778981600,22.410981689453124,3.3439695835113525,7.596015453338623,5.191228866577148
1710957943797941200,22.429941162109376,3.242274761199951,7.601997375488281,5.229514122009277
1710957943816900900,22.44890087890625,3.2865419387817383,7.601997375488281,5.274977684020996
1710957943835860500,22.467860595703126,3.298506021499634,7.573283672332764,5.24626350402832
1710957943854820000,22.486820068359375,3.263810157775879,7.58644437789917,5.237888813018799
1710957943873779700,22.50577978515625,3.315255880355835,7.616354465484619,5.341976642608643
1710957943892739000,22.524739013671876,3.2937204837799072,7.560122966766357,5.267798900604248
1710957943911698700,22.54369873046875,3.208775281906128,7.680960655212402,5.230710506439209
1710957943930658300,22.562658203125,3.236292600631714,7.887939929962158,5.352744102478027
1710957943949618000,22.581617919921875,3.2925238609313965,7.9142608642578125,5.315655708312988
1710957943968577500,22.60057763671875,3.3020951747894287,7.588837146759033,5.346762180328369
1710957943987537200,22.619537109375,3.3296127319335938,7.355536937713623,5.203192710876465
1710957944006496800,22.638496826171874,3.2267212867736816,7.478767395019531,5.124229907989502
1710957944025456400,22.657456298828127,3.1657042503356934,7.765905857086182,5.190032482147217
1710957944044415700,22.676415771484375,3.207578659057617,7.8903326988220215,5.224728107452393
1710957944063375400,22.695375244140624,3.1896326541900635,7.715656757354736,5.113461971282959
1710957944082335000,22.7143349609375,3.1824541091918945,7.590033531188965,5.166104316711426
1710957944101294600,22.733294677734374,3.2231321334838867,7.530212879180908,5.224728107452393
1710957944120254200,22.752254150390623,3.308077335357666,7.491927623748779,5.237888813018799
1710957944139213800,22.7712138671875,3.2925238609313965,7.500302791595459,5.219942569732666
1710957944158173400,22.79017333984375,3.308077335357666,7.618747234344482,5.1840500831604
1710957944177133000,22.809133056640626,3.263810157775879,7.651050567626953,5.108676433563232
1710957944196092400,22.828092529296875,3.207578659057617,7.558926582336426,5.13021183013916
1710957944215052000,22.847052001953124,3.2374889850616455,7.539783954620361,5.148158073425293
1710957944234011600,22.86601171875,3.269792079925537,7.692924976348877,5.2043890953063965
1710957944252971300,22.88497119140625,3.332005500793457,7.726424217224121,5.251049518585205
1710957944271931000,22.903930908203126,3.342773199081421,7.627122402191162,5.170889854431152
1710957944290890500,22.922890380859375,3.3272199630737305,7.581658363342285,5.124229907989502
1710957944309850000,22.94185009765625,3.348755359649658,7.575676441192627,5.213960647583008
1710957944328809700,22.960809814453125,3.401397466659546,7.527820110321045,5.140979290008545
1710957944347769300,22.979769287109374,3.4169507026672363,7.506284713745117,5.058426856994629
1710957944366729000,22.99872900390625,3.34995174407959,7.584051132202148,5.0356950759887695
1710957944385688600,23.0176884765625,3.3176486492156982,7.769495010375977,5.108676433563232
1710957944404648000,23.03664794921875,3.3846476078033447,7.744370460510254,5.157729148864746
1710957944423607800,23.05560791015625,3.4743785858154297,7.679764270782471,5.100301265716553
1710957944442567400,23.0745673828125,3.562912940979004,7.680960655212402,5.07517671585083
1710957944461526800,23.09352685546875,3.6299118995666504,7.798209190368652,5.191228866577148
1710957944480486400,23.112486328125,3.566502094268799,7.828119277954102,5.223531723022461
1710957944499446000,23.131446044921876,3.5497524738311768,7.660621643066406,5.162514686584473
1710957944518405600,23.150405517578125,3.476771354675293,7.5086774826049805,5.024927616119385
1710957944537365200,23.169365234375,3.4791641235351562,7.594819068908691,5.023731231689453
1710957944556324900,23.188324951171875,3.4576287269592285,7.727620601654053,5.079962253570557
1710957944575284500,23.207284423828124,3.4002010822296143,7.741977691650391,5.091926574707031
1710957944594244000,23.226244140625,3.3367912769317627,7.689335346221924,5.062016487121582
1710957944613203700,23.24520361328125,3.31884503364563,7.684549808502197,5.050052165985107
1710957944632163300,23.264163330078127,3.3475589752197266,7.636693477630615,5.044070243835449
1710957944651123000,23.283123046875,3.332005500793457,7.704888820648193,5.063212871551514
1710957944670082600,23.30208251953125,3.5198421478271484,7.812565803527832,5.06082010269165
1710957944689042200,23.321042236328125,3.589233875274658,7.698906898498535,5.030909538269043
1710957944708001800,23.340001708984374,3.5808591842651367,7.521838188171387,4.962714195251465
1710957944726961400,23.35896142578125,3.6323046684265137,7.467999458312988,4.935196876525879
1710957944745921000,23.377921142578124,3.5820555686950684,7.605587005615234,5.02133846282959
1710957944764880600,23.396880615234377,3.620340585708618,7.743174076080322,5.1182475090026855
1710957944783840300,23.41584033203125,3.658625841140747,7.713263988494873,5.057230472564697
1710957944802799900,23.4347998046875,3.5772697925567627,7.548159122467041,5.034498691558838
1710957944821759500,23.453759521484375,3.5198421478271484,7.472784996032715,5.0703911781311035
1710957944840719000,23.472718994140624,3.4432718753814697,7.607979774475098,5.103890895843506
1710957944859678500,23.491678466796873,3.4683964252471924,7.622336387634277,5.162514686584473
1710957944878638300,23.510638427734374,3.410968780517578,7.549355506896973,5.124229907989502
1710957944897598000,23.529597900390623,3.38105845451355,7.512266635894775,5.124229907989502
1710957944916557300,23.548557373046876,3.497110366821289,7.441678524017334,5.178068161010742
1710957944935517000,23.567516845703125,3.518645763397217,7.412964344024658,5.02133846282959
1710957944954476800,23.586476806640626,3.5258240699768066,7.529016494750977,5.042873859405518
1710957944973436200,23.605436279296875,3.4743785858154297,7.708477973937988,5.114658355712891
1710957944992395800,23.624395751953124,3.4229328632354736,7.753942012786865,5.1565327644348145
1710957945011355400,23.64335546875,3.4277184009552,7.491927623748779,5.283352375030518
1710957945030315000,23.66231494140625,3.5676984786987305,7.336394309997559,5.237888813018799
1710957945049274600,23.681274658203126,3.631108283996582,7.405786037445068,5.138586521148682
1710957945068234200,23.700234130859375,3.6358940601348877,7.740781307220459,5.193621635437012
1710957945087193900,23.71919384765625,3.726821184158325,7.931010723114014,5.212764263153076
1710957945106153500,23.738153564453125,3.726821184158325,7.788637638092041,5.076373100280762
1710957945125113000,23.757113037109374,3.696911096572876,7.548159122467041,5.014159679412842
1710957945144072700,23.77607275390625,3.5617165565490723,7.392625331878662,5.056034088134766
1710957945163032300,23.7950322265625,3.4301111698150635,7.35314416885376,5.170889854431152
1710957945181992000,23.813991943359376,3.428914785385132,7.378268718719482,5.234299659729004
1710957945200951600,23.83295166015625,3.4241292476654053,7.4572319984436035,5.225924491882324
1710957945219911200,23.8519111328125,3.4265220165252686,7.478767395019531,5.236692428588867
1710957945238870800,23.870870849609375,3.445664644241333,7.439285755157471,5.212764263153076
1710957945257830400,23.889830322265624,3.4337005615234375,7.365108013153076,5.182853698730469
1710957945276790000,23.9087900390625,3.48993182182312,7.378268718719482,5.205585479736328
1710957945295749600,23.92774951171875,3.541377544403076,7.527820110321045,5.205585479736328
1710957945314709200,23.946709228515626,3.5784661769866943,7.5565338134765625,5.132604598999023
1710957945333668900,23.9656689453125,3.61435866355896,7.424928665161133,5.095515727996826
1710957945352628500,23.98462841796875,3.6538400650024414,7.4261250495910645,5.1804609298706055
1710957945371588000,24.003588134765625,3.6681971549987793,7.616354465484619,5.179264545440674
1710957945390547700,24.022547607421874,3.6095728874206543,7.6630144119262695,5.132604598999023
1710957945409507300,24.04150732421875,3.528217077255249,7.555337429046631,5.1529436111450195
1710957945428466700,24.060466796875,3.59043025970459,7.448856830596924,5.201996326446533
1710957945447426600,24.079426513671876,3.6059837341308594,7.447660446166992,5.088337421417236
1710957945466386200,24.09838623046875,3.482753276824951,7.696514129638672,5.1218366622924805
1710957945485345500,24.117345458984374,3.4576287269592285,7.744370460510254,5.193621635437012
1710957945504305200,24.13630517578125,3.4468610286712646,7.605587005615234,5.170889854431152
1710957945523265000,24.15526513671875,3.4169507026672363,7.503891944885254,5.170889854431152
1710957945542224400,24.174224365234377,3.397808074951172,7.4464640617370605,5.258227825164795
1710957945561184000,24.19318408203125,3.3930225372314453,7.432106971740723,5.270191669464111
1710957945580143600,24.2121435546875,3.4444682598114014,7.4739813804626465,5.181657314300537
1710957945599103200,24.231103271484375,3.4468610286712646,7.545766353607178,5.144568920135498
1710957945618062800,24.250062744140624,3.4133615493774414,7.517052173614502,5.0943193435668945
1710957945637022500,24.2690224609375,3.3894333839416504,7.494320392608643,5.082355499267578
1710957945655982000,24.287982177734374,3.3930225372314453,7.536194801330566,5.179264545440674
1710957945674941700,24.306941650390623,3.3918261528015137,7.503891944885254,5.197210788726807
1710957945693901300,24.3259013671875,3.414557933807373,7.4811601638793945,5.178068161010742
1710957945712861000,24.34486083984375,3.425325632095337,7.551748275756836,5.1218366622924805
1710957945731820500,24.363820556640626,3.404986619949341,7.728816986083984,5.101497650146484
1710957945750780200,24.3827802734375,3.4396824836730957,7.735995769500732,5.132604598999023
1710957945769739800,24.40173974609375,3.4265220165252686,7.665407180786133,5.144568920135498
1710957945788699400,24.420699462890624,3.451646566390991,7.682157039642334,5.154139995574951
1710957945807658800,24.43965869140625,3.421736478805542,7.672585964202881,5.181657314300537
1710957945826618400,24.458618408203126,3.5126636028289795,7.678567886352539,5.241477966308594
1710957945845578000,24.477577880859375,3.5162527561187744,7.788637638092041,5.173282623291016
1710957945864537600,24.49653759765625,3.4576287269592285,7.794619560241699,5.149354457855225
1710957945883497200,24.515497314453125,3.4540395736694336,7.653443336486816,5.030909538269043
1710957945902456800,24.534456787109374,3.4157543182373047,7.712067604064941,5.0356950759887695
1710957945921416400,24.55341650390625,3.397808074951172,7.799405574798584,5.136193752288818
1710957945940376000,24.5723759765625,3.383451223373413,7.740781307220459,5.254638671875
1710957945959335700,24.591335693359376,3.45882511138916,7.477570533752441,5.19960355758667
1710957945978295300,24.61029541015625,3.3511481285095215,7.459624767303467,5.063212871551514
1710957945997255000,24.6292548828125,3.328416347503662,7.684549808502197,5.168497085571289
1710957946016214300,24.64821435546875,3.4408788681030273,7.905886173248291,5.1804609298706055
1710957946035174000,24.667173828125,3.5270206928253174,7.785048484802246,5.078765869140625
1710957946054133500,24.686133544921876,3.4097721576690674,7.540980339050293,5.02851676940918
1710957946073093000,24.705093017578125,3.266202926635742,7.557730197906494,5.169693470001221
1710957946092052700,24.724052734375,3.290131092071533,7.52423095703125,5.375475883483887
1710957946111012400,24.743012451171875,3.4959139823913574,7.622336387634277,5.382654666900635
1710957946129972000,24.761971923828124,3.5126636028289795,7.75753116607666,5.306084156036377
1710957946148931600,24.780931640625,3.2961132526397705,7.587640762329102,5.205585479736328
1710957946167891200,24.79989111328125,2.9970104694366455,7.554141044616699,5.339583873748779
1710957946186850800,24.818850830078127,3.0891339778900146,7.464410305023193,5.584847927093506
