time,seconds_elapsed,z,y,x
1711073457365130500,0.125130615234375,1.9046868085861206,-5.101497650146484,8.126026153564453
1711073457384089600,0.144089599609375,1.9022940397262573,-5.127819061279297,8.258827209472656
1711073457403049000,0.163049072265625,1.9046868085861206,-5.1804609298706055,8.435895919799805
1711073457422008300,0.18200830078125,1.9070796966552734,-5.040481090545654,8.374878883361816
1711073457440967700,0.2009677734375,1.8915263414382935,-5.13739013671875,8.298309326171875
1711073457459926800,0.2199267578125,1.8783657550811768,-5.186442852020264,8.356932640075684
1711073457478886100,0.23888623046875,1.9465612173080444,-5.101497650146484,8.291130065917969
1711073457497845500,0.257845458984375,1.8640087842941284,-5.0464630126953125,8.336593627929688
1711073457516804600,0.2768046875,1.8496519327163696,-4.900500774383545,8.417949676513672
1711073457535764000,0.295763916015625,1.9106688499450684,-4.920839786529541,8.344968795776367
1711073457554723300,0.314723388671875,1.8137595653533936,-4.995017051696777,8.327022552490234
1711073457573682700,0.3336826171875,1.8340985774993896,-5.06799840927124,8.258827209472656
1711073457592641800,0.352641845703125,1.9992033243179321,-5.08355188369751,8.111668586730957
1711073457611601200,0.37160107421875,1.7754744291305542,-4.97348165512085,8.315058708190918
1711073457630560500,0.390560546875,1.8137595653533936,-4.967499732971191,8.458627700805664
1711073457649519900,0.409519775390625,2.1068804264068604,-5.140979290008545,8.368897438049316
1711073457668479000,0.42847900390625,1.9226330518722534,-5.051248550415039,8.325826644897461
1711073457687438300,0.447438232421875,1.5912270545959473,-4.88853645324707,8.438288688659668
1711073457706397700,0.466397705078125,1.7826528549194336,-4.869394302368164,8.475378036499023
1711073457725357000,0.485357177734375,1.9609181880950928,-4.925625324249268,8.445467948913574
1711073457744316200,0.504316162109375,1.8041882514953613,-5.126622676849365,8.365307807922363
1711073457763275500,0.523275634765625,1.6354942321777344,-5.277370452880859,8.353343963623047
1711073457782235000,0.54223486328125,1.674975872039795,-5.224728107452393,8.427521705627441
1711073457801194200,0.5611943359375,1.950150489807129,-5.113461971282959,8.524430274963379
1711073457820153300,0.5801533203125,1.8604196310043335,-5.172086238861084,8.437092781066895
1711073457839112700,0.59911279296875,1.7575281858444214,-5.243870735168457,8.212167739868164
1711073457858072000,0.618072021484375,1.6510475873947144,-5.298905849456787,8.0350980758667
1711073457877031200,0.63703125,1.674975872039795,-5.203192710876465,8.133204460144043
1711073457895990500,0.655990478515625,1.657029628753662,-5.1529436111450195,8.240880966186523
1711073457914950000,0.674949951171875,1.672582983970642,-5.325226783752441,8.226524353027344
1711073457933909200,0.6939091796875,1.664208173751831,-5.416153907775879,8.190631866455078
1711073457952868400,0.712868408203125,1.6307085752487183,-5.367101192474365,8.135597229003906
1711073457971827700,0.73182763671875,1.592423439025879,-5.245067119598389,8.195417404174805
1711073457990787000,0.750787109375,1.6558332443237305,-5.260620594024658,8.288737297058105
1711073458009746400,0.769746337890625,1.7132610082626343,-5.36351203918457,8.280363082885742
1711073458028705800,0.788705810546875,1.6965112686157227,-5.377869129180908,8.291130065917969
1711073458047665000,0.807664794921875,1.5792629718780518,-5.309673309326172,8.301898002624512
1711073458066624300,0.826624267578125,1.573280930519104,-5.221138954162598,8.221738815307617
1711073458085583600,0.84558349609375,1.628315806388855,-5.292923450469971,8.148757934570312
1711073458104543000,0.86454296875,1.6450655460357666,-5.225924491882324,8.25523853302002
1711073458123502000,0.883502197265625,1.6773686408996582,-5.2115678787231445,8.312665939331055
1711073458142461400,0.90246142578125,1.690529227256775,-5.252245903015137,8.292326927185059
1711073458161420800,0.9214208984375,1.6845471858978271,-5.194818019866943,8.26241683959961
1711073458180380200,0.940380126953125,1.6151553392410278,-5.06082010269165,8.304290771484375
1711073458199339500,0.959339599609375,1.6618152856826782,-5.0225348472595215,8.416753768920898
1711073458218299000,0.978298828125,1.7072789669036865,-5.134997367858887,8.411968231201172
1711073458237258000,0.997258056640625,1.6414763927459717,-5.219942569732666,8.411968231201172
1711073458256217300,1.01621728515625,1.6259230375289917,-5.253442287445068,8.34855842590332
1711073458275176700,1.0351767578125,1.7001005411148071,-5.223531723022461,8.2695951461792
1711073458294136000,1.054135986328125,1.6474584341049194,-5.2354960441589355,8.252845764160156
1711073458313095400,1.073095458984375,1.6414763927459717,-5.318048477172852,8.209774017333984
1711073458332054500,1.092054443359375,1.6295121908187866,-5.37906551361084,8.105687141418457
1711073458351014000,1.111013916015625,1.550549030303955,-5.382654666900635,8.096115112304688
1711073458369973200,1.12997314453125,1.534995675086975,-5.37069034576416,8.13798999786377
1711073458388932600,1.1489326171875,1.5433706045150757,-5.344369411468506,8.2157564163208
1711073458407892000,1.16789208984375,1.5565310716629028,-5.358726501464844,8.25404167175293
1711073458426851300,1.186851318359375,1.5541383028030396,-5.359922885894775,8.292326927185059
1711073458445810400,1.205810546875,1.5672988891601562,-5.368297576904297,8.280363082885742
1711073458464769800,1.224769775390625,1.5996019840240479,-5.362315654754639,8.23848819732666
1711073458483729200,1.243729248046875,1.552941918373108,-5.288137912750244,8.260024070739746
1711073458502688500,1.2626884765625,1.5996019840240479,-5.2869415283203125,8.293522834777832
1711073458521647900,1.28164794921875,1.5792629718780518,-5.264209747314453,8.353343963623047
1711073458540607200,1.300607177734375,1.5637096166610718,-5.253442287445068,8.328219413757324
1711073458559566600,1.319566650390625,1.5720844268798828,-5.237888813018799,8.244470596313477
1711073458578526000,1.33852587890625,1.5828521251678467,-5.140979290008545,8.306683540344238
1711073458597485300,1.3574853515625,1.628315806388855,-5.132604598999023,8.328219413757324
1711073458616444400,1.3764443359375,1.6211373805999756,-5.14576530456543,8.342576026916504
1711073458635403800,1.39540380859375,1.6019947528839111,-5.148158073425293,8.329415321350098
1711073458654363100,1.414363037109375,1.6378871202468872,-5.191228866577148,8.324629783630371
1711073458673322500,1.433322509765625,1.6378871202468872,-5.188836097717285,8.319844245910645
1711073458692281900,1.45228173828125,1.6534404754638672,-5.178068161010742,8.321041107177734
1711073458711241200,1.4712412109375,1.6319050788879395,-5.207978248596191,8.315058708190918
1711073458730200600,1.49020068359375,1.5960127115249634,-5.2283172607421875,8.297112464904785
1711073458749160000,1.509159912109375,1.6103696823120117,-5.213960647583008,8.358129501342773
1711073458768119300,1.528119384765625,1.6977076530456543,-5.169693470001221,8.374878883361816
1711073458787078700,1.54707861328125,1.7084753513336182,-5.223531723022461,8.315058708190918
1711073458806038000,1.5660380859375,1.612762451171875,-5.194818019866943,8.271987915039062
1711073458824997400,1.584997314453125,1.5708880424499512,-5.241477966308594,8.221738815307617
1711073458843956700,1.603956787109375,1.6163517236709595,-5.190032482147217,8.313861846923828
1711073458862915800,1.622915771484375,1.6067804098129272,-5.13021183013916,8.307880401611328
1711073458881875500,1.64187548828125,1.5326029062271118,-5.2390851974487305,8.299505233764648
1711073458900834800,1.660834716796875,1.542174220085144,-5.248656272888184,8.350951194763184
1711073458919794200,1.679794189453125,1.6319050788879395,-5.26899528503418,8.358129501342773
1711073458938753300,1.698753173828125,1.6151553392410278,-5.212764263153076,8.380861282348633
1711073458957712600,1.717712646484375,1.5900306701660156,-5.163711071014404,8.380861282348633
1711073458976672000,1.736672119140625,1.6187444925308228,-5.136193752288818,8.301898002624512
1711073458995631400,1.75563134765625,1.6019947528839111,-5.126622676849365,8.331808090209961
1711073459014591000,1.774591064453125,1.5744773149490356,-5.164907455444336,8.361719131469727
1711073459033550300,1.79355029296875,1.5756736993789673,-5.210371494293213,8.303094863891602
1711073459052509400,1.812509521484375,1.6295121908187866,-5.178068161010742,8.23848819732666
1711073459071468800,1.83146875,1.5696916580200195,-5.0703911781311035,8.34855842590332
1711073459090428200,1.85042822265625,1.6067804098129272,-5.07517671585083,8.3629150390625
1711073459109387500,1.869387451171875,1.5996019840240479,-5.078765869140625,8.366504669189453
1711073459128347000,1.888346923828125,1.581655740737915,-5.02133846282959,8.413164138793945
1711073459147306500,1.907306396484375,1.633101463317871,-5.047659397125244,8.486145973205566
1711073459166265900,1.926265869140625,1.6630117893218994,-5.099104881286621,8.468199729919434
1711073459185225200,1.94522509765625,1.6223337650299072,-5.109872817993164,8.437092781066895
1711073459204184600,1.9641845703125,1.5960127115249634,-5.155336380004883,8.405985832214355
1711073459223144000,1.98314404296875,1.5828521251678467,-5.172086238861084,8.396414756774902
1711073459242103300,2.002103271484375,1.597209095954895,-5.161318302154541,8.384450912475586
1711073459261062700,2.021062744140625,1.659422516822815,-5.096712112426758,8.38684368133545
1711073459280022000,2.04002197265625,1.664208173751831,-5.133800983428955,8.243273735046387
1711073459298981400,2.0589814453125,1.6235301494598389,-5.114658355712891,8.167900085449219
1711073459317940700,2.077940673828125,1.6031911373138428,-5.167300701141357,8.237292289733887
1711073459336900000,2.096900146484375,1.6163517236709595,-5.066802024841309,8.415556907653809
1711073459355859500,2.115859375,1.6618152856826782,-5.026124000549316,8.372486114501953
1711073459374818800,2.13481884765625,1.5840486288070679,-5.101497650146484,8.372486114501953
1711073459393778200,2.153778076171875,1.552941918373108,-4.989035129547119,8.538787841796875
1711073459412737500,2.172737548828125,1.6414763927459717,-4.9878387451171875,8.517251968383789
1711073459431697000,2.19169677734375,1.698904037475586,-5.023731231689453,8.489734649658203
1711073459450656300,2.21065625,1.6199408769607544,-5.034498691558838,8.434700012207031
1711073459469615900,2.229615966796875,1.6115660667419434,-5.0356950759887695,8.447860717773438
1711073459488575200,2.2485751953125,1.5960127115249634,-5.064409255981445,8.455039024353027
1711073459507534600,2.26753466796875,1.5637096166610718,-5.1876397132873535,8.482556343078613
1711073459526494000,2.286493896484375,1.6857435703277588,-5.222335338592529,8.251648902893066
1711073459545453300,2.305453369140625,1.5876377820968628,-5.077569484710693,8.200202941894531
1711073459564412700,2.32441259765625,1.5014961957931519,-4.971088886260986,8.335397720336914
1711073459583372000,2.3433720703125,1.6079767942428589,-5.0979084968566895,8.34018325805664
1711073459602331600,2.36233154296875,1.6211373805999756,-5.123033046722412,8.331808090209961
1711073459621291000,2.381291015625,1.5792629718780518,-5.108676433563232,8.368897438049316
1711073459640250400,2.40025048828125,1.6139588356018066,-5.164907455444336,8.3629150390625
1711073459659209700,2.419209716796875,1.6462619304656982,-5.242674350738525,8.338987350463867
1711073459678169000,2.438169189453125,1.5708880424499512,-5.2390851974487305,8.382058143615723
1711073459697128400,2.45712841796875,1.552941918373108,-5.2354960441589355,8.361719131469727
1711073459716087800,2.476087890625,1.5038890838623047,-5.26181697845459,8.37966537475586
1711073459735047400,2.49504736328125,1.6187444925308228,-5.283352375030518,8.327022552490234
1711073459754006800,2.5140068359375,1.688136339187622,-5.2869415283203125,8.256434440612793
1711073459772966100,2.532966064453125,1.5708880424499512,-5.216353416442871,8.22293472290039
1711073459791925500,2.551925537109375,1.5517455339431763,-5.172086238861084,8.263612747192383
1711073459810884900,2.570884765625,1.5649060010910034,-5.198407173156738,8.24686336517334
1711073459829844500,2.589844482421875,1.5278172492980957,-5.119443893432617,8.312665939331055
1711073459848803800,2.608803955078125,1.5337992906570435,-5.0979084968566895,8.34018325805664
1711073459867763200,2.62776318359375,1.5230315923690796,-5.114658355712891,8.358129501342773
1711073459886722600,2.64672265625,1.5649060010910034,-5.112265586853027,8.394021987915039
1711073459905682000,2.665681884765625,1.573280930519104,-5.07517671585083,8.444271087646484
1711073459924641300,2.684641357421875,1.5637096166610718,-5.07517671585083,8.438288688659668
1711073459943601000,2.703600830078125,1.5912270545959473,-5.1182475090026855,8.402397155761719
1711073459962560300,2.722560302734375,1.6187444925308228,-5.13739013671875,8.353343963623047
1711073459981519600,2.74151953125,1.5589239597320557,-5.198407173156738,8.372486114501953
1711073460000479000,2.76047900390625,1.5194423198699951,-5.2283172607421875,8.410771369934082
1711073460019438300,2.779438232421875,1.5649060010910034,-5.212764263153076,8.277970314025879
1711073460038398000,2.79839794921875,1.5314065217971802,-5.126622676849365,8.263612747192383
1711073460057357300,2.817357421875,1.5278172492980957,-5.058426856994629,8.3629150390625
1711073460076316700,2.836316650390625,1.5553346872329712,-5.13021183013916,8.352147102355957
1711073460095276300,2.8552763671875,1.5625132322311401,-5.185246467590332,8.374878883361816
1711073460114235600,2.874235595703125,1.5433706045150757,-5.196014404296875,8.322237014770508
1711073460133195000,2.893195068359375,1.534995675086975,-5.230710506439209,8.312665939331055
1711073460152154400,2.912154296875,1.568495273590088,-5.231906890869141,8.291130065917969
1711073460171113700,2.93111376953125,1.5553346872329712,-5.303691387176514,8.26241683959961
1711073460190073300,2.9500732421875,1.4847464561462402,-5.288137912750244,8.306683540344238
1711073460209032700,2.96903271484375,1.5242279767990112,-5.223531723022461,8.337790489196777
1711073460227992000,2.987991943359375,1.5876377820968628,-5.191228866577148,8.338987350463867
1711073460246951400,3.006951416015625,1.5708880424499512,-5.1768717765808105,8.322237014770508
1711073460265911000,3.0259111328125,1.557727575302124,-5.178068161010742,8.283951759338379
1711073460284870400,3.044870361328125,1.5326029062271118,-5.132604598999023,8.24566650390625
1711073460303829800,3.063829833984375,1.5086746215820312,-5.143372058868408,8.26839828491211
1711073460322789000,3.0827890625,1.4967105388641357,-5.102694511413574,8.338987350463867
1711073460341748700,3.101748779296875,1.4835500717163086,-5.099104881286621,8.410771369934082
1711073460360708000,3.1207080078125,1.4931213855743408,-5.161318302154541,8.4502534866333
1711073460379667500,3.13966748046875,1.5254244804382324,-5.19960355758667,8.46341323852539
1711073460398627000,3.158626953125,1.5230315923690796,-5.1804609298706055,8.4502534866333
1711073460417586400,3.17758642578125,1.5194423198699951,-5.188836097717285,8.445467948913574
1711073460436545800,3.1965458984375,1.5314065217971802,-5.167300701141357,8.431110382080078
1711073460455505200,3.215505126953125,1.5792629718780518,-5.0943193435668945,8.397610664367676
1711073460474464800,3.23446484375,1.5517455339431763,-5.071587562561035,8.373682975769043
1711073460493424000,3.253424072265625,1.5278172492980957,-5.132604598999023,8.344968795776367
1711073460512383500,3.272383544921875,1.5409778356552124,-5.148158073425293,8.244470596313477
1711073460531343000,3.291343017578125,1.561316728591919,-5.132604598999023,8.225327491760254
1711073460550302500,3.310302490234375,1.552941918373108,-5.042873859405518,8.299505233764648
1711073460569261800,3.32926171875,1.552941918373108,-5.1050872802734375,8.334200859069824
1711073460588221400,3.348221435546875,1.5517455339431763,-5.07517671585083,8.391629219055176
1711073460607180800,3.367180908203125,1.545763373374939,-5.111069202423096,8.398807525634766
1711073460626140200,3.38614013671875,1.5672988891601562,-5.1290154457092285,8.4502534866333
1711073460645099800,3.405099853515625,1.5936198234558105,-5.102694511413574,8.459824562072754
1711073460664059100,3.42405908203125,1.5565310716629028,-5.0979084968566895,8.459824562072754
1711073460683018500,3.4430185546875,1.5170495510101318,-5.120640277862549,8.382058143615723
1711073460701978000,3.46197802734375,1.4787644147872925,-5.114658355712891,8.365307807922363
1711073460720937500,3.4809375,1.537388563156128,-5.064409255981445,8.434700012207031
1711073460739896800,3.499896728515625,1.6295121908187866,-5.058426856994629,8.46580696105957
1711073460758856400,3.5188564453125,1.6247265338897705,-5.1565327644348145,8.344968795776367
1711073460777815800,3.53781591796875,1.5493526458740234,-5.103890895843506,8.318648338317871
1711073460796775200,3.556775146484375,1.573280930519104,-5.155336380004883,8.329415321350098
1711073460815734800,3.57573486328125,1.5589239597320557,-4.997410297393799,8.404789924621582
1711073460834694100,3.594694091796875,1.5481562614440918,-5.020142078399658,8.342576026916504
1711073460853653500,3.613653564453125,1.459621787071228,-5.063212871551514,8.409575462341309
1711073460872613000,3.632613037109375,1.5014961957931519,-5.029713153839111,8.5100736618042
1711073460891572500,3.651572509765625,1.5720844268798828,-5.095515727996826,8.517251968383789
1711073460910531800,3.67053173828125,1.573280930519104,-5.111069202423096,8.519644737243652
1711073460929491500,3.689491455078125,1.5649060010910034,-5.0811591148376465,8.425128936767578
1711073460948450800,3.708450927734375,1.592423439025879,-5.038087844848633,8.382058143615723
1711073460967410400,3.727410400390625,1.5696916580200195,-5.027320384979248,8.403593063354492
1711073460986369800,3.746369873046875,1.5290136337280273,-5.077569484710693,8.459824562072754
1711073461005329200,3.7653291015625,1.628315806388855,-5.115854740142822,8.301898002624512
1711073461024288800,3.784288818359375,1.5696916580200195,-5.034498691558838,8.249256134033203
1711073461043248000,3.803248046875,1.5385849475860596,-4.902893543243408,8.382058143615723
1711073461062207700,3.822207763671875,1.6307085752487183,-4.967499732971191,8.395217895507812
1711073461081167000,3.8411669921875,1.557727575302124,-4.934000492095947,8.458627700805664
1711073461100126500,3.86012646484375,1.5314065217971802,-4.8813581466674805,8.544769287109375
1711073461119086000,3.879086181640625,1.6103696823120117,-4.9435715675354,8.551948547363281
1711073461138045400,3.89804541015625,1.633101463317871,-5.038087844848633,8.525627136230469
1711073461157004800,3.9170048828125,1.5720844268798828,-5.07517671585083,8.493324279785156
1711073461175964400,3.93596435546875,1.568495273590088,-5.079962253570557,8.461020469665527
1711073461194923800,3.954923828125,1.561316728591919,-5.108676433563232,8.411968231201172
1711073461213883100,3.973883056640625,1.5625132322311401,-5.140979290008545,8.383254051208496
1711073461232842800,3.9928427734375,1.5900306701660156,-5.120640277862549,8.402397155761719
1711073461251802000,4.011802001953125,1.6055840253829956,-5.150550842285156,8.338987350463867
1711073461270761500,4.030761474609375,1.573280930519104,-5.113461971282959,8.331808090209961
1711073461289721000,4.04972119140625,1.5672988891601562,-5.100301265716553,8.285148620605469
1711073461308680400,4.068680419921875,1.5696916580200195,-5.084748268127441,8.26839828491211
1711073461327640000,4.08764013671875,1.4991034269332886,-5.084748268127441,8.256434440612793
1711073461346599400,4.106599365234375,1.4608181715011597,-5.196014404296875,8.292326927185059
1711073461365559000,4.12555908203125,1.5122638940811157,-5.161318302154541,8.415556907653809
1711073461384518400,4.144518310546875,1.5517455339431763,-5.155336380004883,8.453842163085938
1711073461403478000,4.16347802734375,1.5122638940811157,-5.054837703704834,8.525627136230469
1711073461422437400,4.182437255859375,1.4452649354934692,-4.9986066818237305,8.541180610656738
1711073461441396700,4.201396728515625,1.5050854682922363,-4.981856822967529,8.46341323852539
1711073461460356400,4.2203564453125,1.5433706045150757,-5.084748268127441,8.411968231201172
1711073461479315700,4.239315673828125,1.4608181715011597,-5.190032482147217,8.45743179321289
1711073461498275300,4.258275390625,1.581655740737915,-5.2869415283203125,8.368897438049316
1711073461517234700,4.277234619140625,1.6534404754638672,-5.264209747314453,8.175078392028809
1711073461536194300,4.2961943359375,1.4715858697891235,-5.07517671585083,8.21695327758789
1711073461555153700,4.315153564453125,1.5134602785110474,-5.069194793701172,8.23968505859375
1711073461574113000,4.334113037109375,1.4787644147872925,-5.029713153839111,8.307880401611328
1711073461593072600,4.35307275390625,1.4584254026412964,-4.928018093109131,8.474181175231934
1711073461612032000,4.372031982421875,1.5302101373672485,-5.003392219543457,8.528019905090332
1711073461630991400,4.390991455078125,1.5553346872329712,-5.088337421417236,8.537590980529785
1711073461649951000,4.409950927734375,1.537388563156128,-5.100301265716553,8.496912956237793
1711073461668910300,4.428910400390625,1.495514154434204,-5.162514686584473,8.434700012207031
1711073461687870000,4.447869873046875,1.4404792785644531,-5.173282623291016,8.423932075500488
1711073461706829300,4.466829345703125,1.506281852722168,-5.188836097717285,8.410771369934082
1711073461725789000,4.485788818359375,1.5840486288070679,-5.158925533294678,8.376075744628906
1711073461744748300,4.504748291015625,1.5361921787261963,-5.2354960441589355,8.263612747192383
1711073461763708000,4.5237080078125,1.4620146751403809,-5.2043890953063965,8.23848819732666
1711073461782667300,4.542667236328125,1.4919248819351196,-5.1840500831604,8.171489715576172
1711073461801627000,4.561626953125,1.4799607992172241,-5.223531723022461,8.169096946716309
1711073461820586200,4.580586181640625,1.4117653369903564,-5.134997367858887,8.271987915039062
1711073461839545900,4.5995458984375,1.412961721420288,-5.168497085571289,8.35573673248291
1711073461858505200,4.618505126953125,1.4895321130752563,-5.193621635437012,8.427521705627441
1711073461877464800,4.63746484375,1.5002998113632202,-5.231906890869141,8.443074226379395
1711073461896424200,4.656424072265625,1.4775680303573608,-5.19242525100708,8.410771369934082
1711073461915383600,4.675383544921875,1.490728497505188,-5.19960355758667,8.395217895507812
1711073461934343200,4.69434326171875,1.537388563156128,-5.1529436111450195,8.405985832214355
1711073461953302500,4.713302490234375,1.545763373374939,-5.106283664703369,8.349754333496094
1711073461972262100,4.73226220703125,1.466800332069397,-5.039284706115723,8.415556907653809
1711073461991221500,4.751221435546875,1.4572290182113647,-5.08355188369751,8.342576026916504
1711073462010181000,4.77018115234375,1.5098711252212524,-5.164907455444336,8.2695951461792
1711073462029140500,4.789140380859375,1.4524433612823486,-5.06082010269165,8.337790489196777
1711073462048100000,4.80810009765625,1.4919248819351196,-5.077569484710693,8.403593063354492
1711073462067059500,4.8270595703125,1.5038890838623047,-5.139782905578613,8.396414756774902
1711073462086019000,4.84601904296875,1.4919248819351196,-5.101497650146484,8.432307243347168
1711073462104978400,4.864978515625,1.511067509651184,-5.13739013671875,8.447860717773438
1711073462123938000,4.88393798828125,1.526620864868164,-5.166104316711426,8.409575462341309
1711073462142897400,4.9028974609375,1.5326029062271118,-5.170889854431152,8.37009334564209
1711073462161856800,4.921856689453125,1.495514154434204,-5.163711071014404,8.346165657043457
1711073462180816400,4.94081640625,1.4656038284301758,-5.161318302154541,8.356932640075684
1711073462199775700,4.959775634765625,1.4763715267181396,-5.144568920135498,8.37846851348877
1711073462218735400,4.9787353515625,1.568495273590088,-5.077569484710693,8.409575462341309
1711073462237694700,4.99769482421875,1.5493526458740234,-5.027320384979248,8.417949676513672
1711073462256654300,5.016654296875,1.5314065217971802,-5.0225348472595215,8.346165657043457
1711073462275614000,5.035614013671875,1.506281852722168,-5.0811591148376465,8.317451477050781
1711073462294573300,5.0545732421875,1.5206388235092163,-5.144568920135498,8.358129501342773
1711073462313533000,5.073532958984375,1.5014961957931519,-5.062016487121582,8.380861282348633
1711073462332492300,5.0924921875,1.4727823734283447,-5.1182475090026855,8.33300495147705
1711073462351452000,5.111451904296875,1.4273186922073364,-5.1290154457092285,8.405985832214355
1711073462370411300,5.130411376953125,1.4895321130752563,-5.1218366622924805,8.4562349319458
1711073462389370600,5.14937060546875,1.5182459354400635,-5.125426292419434,8.477770805358887
1711073462408330200,5.168330322265625,1.5002998113632202,-5.0811591148376465,8.468199729919434
1711073462427289600,5.18728955078125,1.4847464561462402,-5.063212871551514,8.421539306640625
1711073462446249200,5.206249267578125,1.5146567821502686,-5.040481090545654,8.405985832214355
1711073462465208600,5.22520849609375,1.4943177700042725,-5.033302307128906,8.419146537780762
1711073462484168200,5.244168212890625,1.456032633781433,-5.078765869140625,8.427521705627441
1711073462503127600,5.26312744140625,1.4632110595703125,-5.134997367858887,8.330612182617188
1711073462522087200,5.282087158203125,1.4943177700042725,-5.078765869140625,8.305487632751465
1711073462541046800,5.301046875,1.4847464561462402,-4.957928657531738,8.422736167907715
1711073462560006100,5.320006103515625,1.521835207939148,-4.968696117401123,8.403593063354492
1711073462578965800,5.3389658203125,1.4656038284301758,-4.980660438537598,8.413164138793945
1711073462597925000,5.357925048828125,1.4787644147872925,-4.984249591827393,8.492127418518066
1711073462616884500,5.376884521484375,1.5493526458740234,-5.038087844848633,8.551948547363281
1711073462635844000,5.395843994140625,1.545763373374939,-5.066802024841309,8.529216766357422
1711073462654803500,5.414803466796875,1.5230315923690796,-5.059623718261719,8.452646255493164
1711073462673763000,5.43376318359375,1.4715858697891235,-5.059623718261719,8.414361000061035
1711073462692722700,5.45272265625,1.4584254026412964,-5.072783946990967,8.438288688659668
1711073462711682000,5.47168212890625,1.4979069232940674,-5.034498691558838,8.47896671295166
1711073462730641700,5.4906416015625,1.557727575302124,-4.986642360687256,8.483752250671387
1711073462749601000,5.50960107421875,1.5481562614440918,-5.036891460418701,8.37966537475586
1711073462768560600,5.528560546875,1.5314065217971802,-5.056034088134766,8.376075744628906
1711073462787520000,5.54752001953125,1.521835207939148,-5.054837703704834,8.429914474487305
1711073462806479600,5.566479736328125,1.5230315923690796,-4.9435715675354,8.483752250671387
1711073462825439000,5.58543896484375,1.511067509651184,-4.898108005523682,8.413164138793945
1711073462844398600,5.604398681640625,1.3938192129135132,-4.942375183105469,8.433503150939941
1711073462863358000,5.62335791015625,1.4524433612823486,-4.9639105796813965,8.557929992675781
1711073462882317600,5.642317626953125,1.5792629718780518,-5.072783946990967,8.578269004821777
1711073462901277000,5.66127685546875,1.581655740737915,-5.117051124572754,8.58185863494873
1711073462920236500,5.680236572265625,1.5541383028030396,-5.103890895843506,8.455039024353027
1711073462939196200,5.699196044921875,1.5852450132369995,-5.06799840927124,8.315058708190918
1711073462958155500,5.718155517578125,1.5565310716629028,-5.077569484710693,8.256434440612793
1711073462977115100,5.737115234375,1.4691931009292603,-5.133800983428955,8.328219413757324
1711073462996074500,5.756074462890625,1.588834285736084,-5.1529436111450195,8.209774017333984
1711073463015033900,5.775033935546875,1.5290136337280273,-5.052444934844971,8.206185340881348
1711073463033993500,5.793993408203125,1.4344971179962158,-4.9363932609558105,8.3629150390625
1711073463052953000,5.812953125,1.511067509651184,-5.042873859405518,8.439485549926758
1711073463071912400,5.831912353515625,1.5290136337280273,-5.057230472564697,8.469395637512207
1711073463090872000,5.8508720703125,1.5014961957931519,-5.002195835113525,8.517251968383789
1711073463109831400,5.86983154296875,1.4775680303573608,-5.050052165985107,8.566305160522461
1711073463128791000,5.888791015625,1.526620864868164,-5.076373100280762,8.548358917236328
1711073463147750700,5.907750732421875,1.5290136337280273,-5.096712112426758,8.496912956237793
1711073463166710000,5.9267099609375,1.4787644147872925,-5.144568920135498,8.432307243347168
1711073463185669400,5.94566943359375,1.423729419708252,-5.155336380004883,8.388039588928223
1711073463204629000,5.96462890625,1.456032633781433,-5.157729148864746,8.39282512664795
1711073463223588600,5.983588623046875,1.5361921787261963,-5.076373100280762,8.413164138793945
1711073463242548000,6.0025478515625,1.5170495510101318,-5.136193752288818,8.344968795776367
1711073463261507600,6.021507568359375,1.4847464561462402,-5.154139995574951,8.25404167175293
1711073463280467200,6.04046728515625,1.454836130142212,-5.1290154457092285,8.248059272766113
1711073463299426600,6.059426513671875,1.4632110595703125,-5.127819061279297,8.321041107177734
1711073463318386200,6.07838623046875,1.466800332069397,-5.142175674438477,8.372486114501953
1711073463337345500,6.097345458984375,1.4344971179962158,-5.179264545440674,8.383254051208496
1711073463356305200,6.11630517578125,1.4333007335662842,-5.150550842285156,8.410771369934082
1711073463375264500,6.135264404296875,1.4967105388641357,-5.2115678787231445,8.39282512664795
1711073463394224000,6.15422412109375,1.5014961957931519,-5.2043890953063965,8.401200294494629
1711073463413183700,6.173183837890625,1.4799607992172241,-5.182853698730469,8.400003433227539
1711073463432143400,6.192143310546875,1.4787644147872925,-5.172086238861084,8.37727165222168
1711073463451102700,6.211102783203125,1.5050854682922363,-5.139782905578613,8.358129501342773
1711073463470062000,6.23006201171875,1.475175142288208,-5.113461971282959,8.359326362609863
1711073463489021700,6.249021728515625,1.4189438819885254,-5.207978248596191,8.382058143615723
1711073463507981300,6.267981201171875,1.5122638940811157,-5.283352375030518,8.177471160888672
1711073463526941000,6.28694091796875,1.4727823734283447,-5.188836097717285,8.14516830444336
1711073463545900300,6.305900390625,1.4404792785644531,-5.0907301902771,8.293522834777832
1711073463564860000,6.32485986328125,1.4943177700042725,-5.134997367858887,8.389236450195312
1711073463583819500,6.343819580078125,1.482353687286377,-5.158925533294678,8.441878318786621
1711073463602779000,6.36277880859375,1.482353687286377,-5.149354457855225,8.427521705627441
1711073463621738500,6.381738525390625,1.4931213855743408,-5.174479007720947,8.3629150390625
1711073463640697900,6.40069775390625,1.511067509651184,-5.157729148864746,8.34736156463623
1711073463659657500,6.419657470703125,1.4919248819351196,-5.207978248596191,8.350951194763184
1711073463678617000,6.4386171875,1.4620146751403809,-5.241477966308594,8.3629150390625
1711073463697576700,6.45757666015625,1.4847464561462402,-5.243870735168457,8.350951194763184
1711073463716536000,6.4765361328125,1.5158531665802002,-5.266602516174316,8.313861846923828
1711073463735495700,6.49549560546875,1.5158531665802002,-5.185246467590332,8.330612182617188
1711073463754455000,6.514455078125,1.4691931009292603,-5.179264545440674,8.303094863891602
1711073463773414700,6.53341455078125,1.4787644147872925,-5.106283664703369,8.343772888183594
1711073463792374300,6.552374267578125,1.4799607992172241,-5.099104881286621,8.365307807922363
1711073463811334000,6.571333984375,1.4452649354934692,-5.091926574707031,8.360522270202637
1711073463830293200,6.590293212890625,1.4021940231323242,-5.077569484710693,8.380861282348633
1711073463849252900,6.6092529296875,1.430907964706421,-5.1804609298706055,8.410771369934082
1711073463868212500,6.62821240234375,1.4787644147872925,-5.1840500831604,8.475378036499023
1711073463887172000,6.647172119140625,1.521835207939148,-5.194818019866943,8.46580696105957
1711073463906131500,6.66613134765625,1.4811571836471558,-5.163711071014404,8.452646255493164
1711073463925091000,6.685091064453125,1.475175142288208,-5.154139995574951,8.394021987915039
1711073463944050700,6.70405078125,1.5182459354400635,-5.109872817993164,8.37129020690918
1711073463963010000,6.723010009765625,1.5194423198699951,-5.051248550415039,8.359326362609863
1711073463981969700,6.7419697265625,1.4608181715011597,-5.06799840927124,8.366504669189453
1711073464000929300,6.76092919921875,1.4404792785644531,-5.138586521148682,8.279166221618652
1711073464019889000,6.779888916015625,1.5038890838623047,-5.210371494293213,8.226524353027344
1711073464038848300,6.79884814453125,1.4536397457122803,-5.016552448272705,8.37009334564209
1711073464057808000,6.817807861328125,1.5038890838623047,-5.02851676940918,8.428717613220215
1711073464076767500,6.836767578125,1.5158531665802002,-5.047659397125244,8.414361000061035
1711073464095727000,6.85572705078125,1.4847464561462402,-5.085944652557373,8.415556907653809
1711073464114686500,6.8746865234375,1.4859428405761719,-5.1182475090026855,8.444271087646484
1711073464133646000,6.89364599609375,1.5290136337280273,-5.106283664703369,8.468199729919434
1711073464152605700,6.912605712890625,1.5158531665802002,-5.112265586853027,8.421539306640625
1711073464171565300,6.9315654296875,1.4368900060653687,-5.142175674438477,8.361719131469727
1711073464190525000,6.95052490234375,1.415354609489441,-5.106283664703369,8.37009334564209
1711073464209484300,6.969484375,1.420140266418457,-5.072783946990967,8.409575462341309
1711073464228444000,6.98844384765625,1.4979069232940674,-5.07517671585083,8.489734649658203
1711073464247403500,7.007403564453125,1.5385849475860596,-5.030909538269043,8.467002868652344
1711073464266363100,7.026363037109375,1.4847464561462402,-5.088337421417236,8.343772888183594
1711073464285322800,7.04532275390625,1.4500504732131958,-5.109872817993164,8.327022552490234
1711073464304282000,7.0642822265625,1.4715858697891235,-5.142175674438477,8.37009334564209
1711073464323241700,7.08324169921875,1.4057832956314087,-4.956732273101807,8.542376518249512
1711073464342201300,7.102201416015625,1.4691931009292603,-5.057230472564697,8.429914474487305
1711073464361161000,7.121160888671875,1.3866406679153442,-5.125426292419434,8.431110382080078
1711073464380120600,7.14012060546875,1.3986048698425293,-5.120640277862549,8.46580696105957
1711073464399080200,7.159080078125,1.4883357286453247,-5.13021183013916,8.434700012207031
1711073464418039800,7.178039794921875,1.4656038284301758,-5.103890895843506,8.493324279785156
1711073464436999200,7.196999267578125,1.4763715267181396,-5.13021183013916,8.414361000061035
1711073464455958800,7.215958740234375,1.537388563156128,-5.123033046722412,8.315058708190918
1711073464474918400,7.23491845703125,1.5182459354400635,-5.077569484710693,8.322237014770508
1711073464493878000,7.2538779296875,1.4213366508483887,-5.082355499267578,8.467002868652344
1711073464512837600,7.272837646484375,1.4464613199234009,-4.980660438537598,8.402397155761719
1711073464531797000,7.291796875,1.4380863904953003,-4.906482696533203,8.337790489196777
1711073464550756600,7.310756591796875,1.404586911201477,-4.899304389953613,8.444271087646484
1711073464569716200,7.32971630859375,1.521835207939148,-5.099104881286621,8.432307243347168
1711073464588675800,7.34867578125,1.4536397457122803,-5.048855781555176,8.505288124084473
1711073464607635500,7.367635498046875,1.4536397457122803,-4.974678039550781,8.592626571655273
1711073464626595000,7.386594970703125,1.439282774925232,-4.996213912963867,8.61057186126709
1711073464645554700,7.4055546875,1.4117653369903564,-5.034498691558838,8.551948547363281
1711073464664514300,7.424514404296875,1.4608181715011597,-5.125426292419434,8.490931510925293
1711073464683473700,7.4434736328125,1.4404792785644531,-5.1290154457092285,8.423932075500488
1711073464702433500,7.46243359375,1.3914263248443604,-5.1529436111450195,8.38564682006836
1711073464721393200,7.48139306640625,1.420140266418457,-5.14576530456543,8.366504669189453
1711073464740352500,7.5003525390625,1.4715858697891235,-5.112265586853027,8.434700012207031
1711073464759312100,7.51931201171875,1.415354609489441,-5.095515727996826,8.400003433227539
1711073464778271700,7.538271728515625,1.4093725681304932,-5.188836097717285,8.329415321350098
1711073464797231400,7.5572314453125,1.4009976387023926,-5.30129861831665,8.287541389465332
1711073464816191000,7.57619091796875,1.4524433612823486,-5.339583873748779,8.25404167175293
1711073464835150600,7.595150634765625,1.4009976387023926,-5.279763221740723,8.260024070739746
1711073464854110200,7.614110107421875,1.3483555316925049,-5.313262462615967,8.24686336517334
1711073464873069800,7.63306982421875,1.412961721420288,-5.3347978591918945,8.181060791015625
1711073464892029200,7.652029296875,1.4380863904953003,-5.3802618980407715,8.159524917602539
1711073464910988800,7.67098876953125,1.389033555984497,-5.277370452880859,8.237292289733887
1711073464929948400,7.689948486328125,1.4057832956314087,-5.26181697845459,8.288737297058105
1711073464948908000,7.708907958984375,1.4057832956314087,-5.233103275299072,8.358129501342773
1711073464967867600,7.72786767578125,1.4273186922073364,-5.1768717765808105,8.391629219055176
1711073464986827300,7.7468271484375,1.3698909282684326,-5.160121917724609,8.47178840637207
1711073465005787000,7.765786865234375,1.322034478187561,-5.251049518585205,8.476573944091797
1711073465024746500,7.78474658203125,1.4608181715011597,-5.255835056304932,8.257631301879883
1711073465043706000,7.8037060546875,1.3938192129135132,-5.13021183013916,8.263612747192383
1711073465062665700,7.822665771484375,1.3483555316925049,-5.1218366622924805,8.331808090209961
1711073465081625300,7.841625244140625,1.428515076637268,-5.197210788726807,8.325826644897461
1711073465100584700,7.860584716796875,1.4009976387023926,-5.14576530456543,8.384450912475586
1711073465119544300,7.87954443359375,1.4189438819885254,-5.174479007720947,8.389236450195312
1711073465138504000,7.89850390625,1.4273186922073364,-5.240281581878662,8.36411190032959
1711073465157463600,7.917463623046875,1.4057832956314087,-5.290530681610107,8.368897438049316
1711073465176423200,7.936423095703125,1.4057832956314087,-5.347958564758301,8.321041107177734
1711073465195382800,7.9553828125,1.397408366203308,-5.367101192474365,8.291130065917969
1711073465214342400,7.97434228515625,1.4177473783493042,-5.368297576904297,8.266005516052246
1711073465233302000,7.993302001953125,1.4943177700042725,-5.292923450469971,8.225327491760254
1711073465252261600,8.01226171875,1.444068431854248,-5.205585479736328,8.22293472290039
1711073465271221200,8.03122119140625,1.3722838163375854,-5.257031440734863,8.173882484436035
1711073465290180900,8.050180908203124,1.3663017749786377,-5.337191104888916,8.141578674316406
1711073465309140500,8.069140380859375,1.3710874319076538,-5.3216376304626465,8.187042236328125
1711073465328100000,8.08810009765625,1.389033555984497,-5.248656272888184,8.23848819732666
1711073465347059700,8.107059814453125,1.3519448041915894,-5.230710506439209,8.350951194763184
1711073465366019000,8.12601904296875,1.357926845550537,-5.217549800872803,8.426324844360352
1711073465384978700,8.144978759765625,1.4249259233474731,-5.196014404296875,8.517251968383789
1711073465403938300,8.163938232421875,1.3782658576965332,-5.217549800872803,8.47298526763916
1711073465422898000,8.18289794921875,1.3651052713394165,-5.2283172607421875,8.4562349319458
1711073465441857500,8.201857421875,1.3794622421264648,-5.279763221740723,8.427521705627441
1711073465460817200,8.220817138671874,1.3962119817733765,-5.233103275299072,8.335397720336914
1711073465479776800,8.23977685546875,1.3854442834854126,-5.188836097717285,8.267202377319336
1711073465498736400,8.258736328125,1.32921302318573,-5.154139995574951,8.264809608459473
1711073465517696000,8.277696044921875,1.353141188621521,-5.240281581878662,8.275577545166016
1711073465536655600,8.296655517578126,1.3986048698425293,-5.330012321472168,8.234899520874023
1711073465555615200,8.315615234375,1.4117653369903564,-5.257031440734863,8.243273735046387
1711073465574574800,8.334574951171875,1.4476577043533325,-5.166104316711426,8.36411190032959
1711073465593534500,8.353534423828124,1.4524433612823486,-5.264209747314453,8.301898002624512
1711073465612494000,8.372494140625,1.3938192129135132,-5.2283172607421875,8.309076309204102
1711073465631453400,8.391453369140624,1.3806586265563965,-5.203192710876465,8.293522834777832
1711073465650413300,8.410413330078125,1.3914263248443604,-5.161318302154541,8.346165657043457
1711073465669373000,8.429373046875,1.4069796800613403,-5.168497085571289,8.413164138793945
1711073465688332300,8.448332275390625,1.4105689525604248,-5.210371494293213,8.417949676513672
1711073465707292000,8.4672919921875,1.4093725681304932,-5.207978248596191,8.413164138793945
1711073465726251500,8.48625146484375,1.439282774925232,-5.160121917724609,8.414361000061035
1711073465745211100,8.505211181640625,1.4488540887832642,-5.185246467590332,8.353343963623047
1711073465764170800,8.524170654296874,1.430907964706421,-5.167300701141357,8.280363082885742
1711073465783130400,8.54313037109375,1.3543375730514526,-5.175675392150879,8.297112464904785
1711073465802090000,8.562090087890626,1.3782658576965332,-5.193621635437012,8.359326362609863
1711073465821049600,8.581049560546875,1.3794622421264648,-5.020142078399658,8.411968231201172
1711073465840009200,8.60000927734375,1.353141188621521,-5.140979290008545,8.372486114501953
1711073465858968800,8.61896875,1.3256237506866455,-5.178068161010742,8.455039024353027
1711073465877928400,8.637928466796875,1.3794622421264648,-5.2151570320129395,8.426324844360352
1711073465896888000,8.65688818359375,1.4117653369903564,-5.205585479736328,8.416753768920898
1711073465915847700,8.67584765625,1.4033905267715454,-5.201996326446533,8.419146537780762
1711073465934807300,8.694807373046874,1.415354609489441,-5.185246467590332,8.38684368133545
1711073465953767000,8.713766845703125,1.4249259233474731,-5.164907455444336,8.372486114501953
1711073465972726500,8.7327265625,1.353141188621521,-5.138586521148682,8.380861282348633
1711073465991686100,8.75168603515625,1.3639088869094849,-5.225924491882324,8.353343963623047
1711073466010645800,8.770645751953126,1.451246976852417,-5.234299659729004,8.183453559875488
1711073466029605000,8.789605224609375,1.3411771059036255,-5.096712112426758,8.250452041625977
1711073466048564700,8.808564697265625,1.3878371715545654,-5.023731231689453,8.376075744628906
1711073466067524600,8.827524658203124,1.435693621635437,-5.150550842285156,8.37129020690918
1711073466086484000,8.84648388671875,1.3698909282684326,-5.0943193435668945,8.397610664367676
1711073466105443600,8.865443603515626,1.3603196144104004,-5.06082010269165,8.449056625366211
1711073466124403200,8.8844033203125,1.4297115802764893,-5.102694511413574,8.528019905090332
1711073466143362800,8.90336279296875,1.5002998113632202,-5.126622676849365,8.524430274963379
1711073466162322400,8.922322509765625,1.4464613199234009,-5.132604598999023,8.486145973205566
1711073466181282000,8.941281982421875,1.3722838163375854,-5.0703911781311035,8.452646255493164
1711073466200241700,8.96024169921875,1.3459627628326416,-5.06799840927124,8.458627700805664
1711073466219201300,8.979201171875,1.3698909282684326,-5.150550842285156,8.426324844360352
1711073466238161000,8.998160888671874,1.466800332069397,-5.173282623291016,8.398807525634766
1711073466257120500,9.01712060546875,1.4835500717163086,-5.173282623291016,8.342576026916504
1711073466276080000,9.036080078125,1.412961721420288,-5.14576530456543,8.343772888183594
1711073466295039700,9.055039794921875,1.389033555984497,-5.200799942016602,8.365307807922363
1711073466313999400,9.073999267578126,1.4847464561462402,-5.216353416442871,8.285148620605469
1711073466332959000,9.092958984375,1.4057832956314087,-5.132604598999023,8.256434440612793
1711073466351918300,9.11191845703125,1.3280165195465088,-5.231906890869141,8.22293472290039
1711073466370878200,9.130878173828124,1.3603196144104004,-5.236692428588867,8.293522834777832
1711073466389837800,9.149837890625,1.3938192129135132,-5.225924491882324,8.358129501342773
1711073466408797200,9.168797119140624,1.4009976387023926,-5.216353416442871,8.407182693481445
1711073466427756800,9.1877568359375,1.4225330352783203,-5.230710506439209,8.39282512664795
1711073466446716400,9.20671630859375,1.4225330352783203,-5.178068161010742,8.360522270202637
1711073466465676000,9.225676025390625,1.3770694732666016,-5.1565327644348145,8.365307807922363
1711073466484635600,9.2446357421875,1.3076776266098022,-5.197210788726807,8.452646255493164
1711073466503595300,9.26359521484375,1.3746765851974487,-5.264209747314453,8.35453987121582
1711073466522555000,9.282554931640625,1.4057832956314087,-5.243870735168457,8.164310455322266
1711073466541514500,9.301514404296874,1.2873386144638062,-5.170889854431152,8.210970878601074
1711073466560474000,9.32047412109375,1.337587833404541,-5.168497085571289,8.360522270202637
1711073466579433700,9.339433837890626,1.3854442834854126,-5.1840500831604,8.382058143615723
1711073466598392800,9.358392822265625,1.3926228284835815,-5.138586521148682,8.446663856506348
1711073466617352400,9.3773525390625,1.4081761837005615,-5.175675392150879,8.451449394226074
1711073466636312000,9.39631201171875,1.4500504732131958,-5.265406131744385,8.438288688659668
1711073466655271700,9.415271728515625,1.4273186922073364,-5.260620594024658,8.408378601074219
1711073466674231300,9.434231201171874,1.4057832956314087,-5.245067119598389,8.324629783630371
1711073466693191000,9.45319091796875,1.3363914489746094,-5.19242525100708,8.276773452758789
1711073466712150500,9.472150634765624,1.3052847385406494,-5.222335338592529,8.34855842590332
1711073466731110100,9.491110107421875,1.4033905267715454,-5.236692428588867,8.36411190032959
1711073466750069500,9.510069580078126,1.4931213855743408,-5.227120876312256,8.321041107177734
1711073466769029000,9.529029052734375,1.4177473783493042,-5.242674350738525,8.270791053771973
1711073466787989000,9.547989013671875,1.3794622421264648,-5.229514122009277,8.220541954040527
1711073466806948600,9.566948486328124,1.3902299404144287,-5.225924491882324,8.177471160888672
1711073466825908000,9.585907958984375,1.3794622421264648,-5.3312087059021,8.243273735046387
1711073466844867600,9.60486767578125,1.3854442834854126,-5.296513080596924,8.252845764160156
1711073466863827200,9.6238271484375,1.3304094076156616,-5.283352375030518,8.279166221618652
1711073466882786800,9.642786865234376,1.3459627628326416,-5.306084156036377,8.334200859069824
1711073466901746400,9.661746337890625,1.3806586265563965,-5.32403039932251,8.34736156463623
1711073466920706000,9.6807060546875,1.3698909282684326,-5.279763221740723,8.34138011932373
1711073466939665700,9.699665771484375,1.3902299404144287,-5.237888813018799,8.331808090209961
1711073466958625300,9.718625244140625,1.3902299404144287,-5.270191669464111,8.34138011932373
1711073466977585000,9.7375849609375,1.399801254272461,-5.289334297180176,8.25404167175293
1711073466996544500,9.75654443359375,1.3926228284835815,-5.249852657318115,8.282755851745605
1711073467015504100,9.775504150390624,1.3399807214736938,-5.233103275299072,8.335397720336914
1711073467034463700,9.794463623046875,1.389033555984497,-5.217549800872803,8.242077827453613
1711073467053423400,9.81342333984375,1.34476637840271,-5.169693470001221,8.249256134033203
1711073467072383000,9.832383056640625,1.3519448041915894,-5.126622676849365,8.388039588928223
1711073467091342300,9.85134228515625,1.412961721420288,-5.20678186416626,8.394021987915039
1711073467110302000,9.870302001953124,1.3507484197616577,-5.197210788726807,8.407182693481445
1711073467129261600,9.889261474609375,1.3615161180496216,-5.219942569732666,8.408378601074219
1711073467148221200,9.90822119140625,1.4033905267715454,-5.257031440734863,8.400003433227539
1711073467167180800,9.927180908203125,1.4069796800613403,-5.280959606170654,8.374878883361816
1711073467186140400,9.946140380859376,1.3782658576965332,-5.303691387176514,8.317451477050781
1711073467205100000,9.96510009765625,1.3399807214736938,-5.2941203117370605,8.274380683898926
1711073467224059600,9.9840595703125,1.332802176475525,-5.278566837310791,8.279166221618652
1711073467243019300,10.003019287109375,1.3938192129135132,-5.266602516174316,8.307880401611328
1711073467261979000,10.021978759765625,1.4871392250061035,-5.233103275299072,8.317451477050781
1711073467280938500,10.0409384765625,1.4632110595703125,-5.146961688995361,8.38684368133545
1711073467299898000,10.059898193359375,1.3878371715545654,-5.126622676849365,8.292326927185059
1711073467318857700,10.078857666015624,1.3591232299804688,-5.241477966308594,8.264809608459473
1711073467337817300,10.0978173828125,1.3663017749786377,-5.14576530456543,8.315058708190918
1711073467356776700,10.116776611328126,1.4057832956314087,-5.160121917724609,8.251648902893066
1711073467375736300,10.135736328125,1.3698909282684326,-5.2283172607421875,8.358129501342773
1711073467394696000,10.154696044921875,1.4297115802764893,-5.271388053894043,8.413164138793945
1711073467413655600,10.173655517578124,1.4273186922073364,-5.2354960441589355,8.427521705627441
1711073467432615200,10.192615234375,1.389033555984497,-5.216353416442871,8.416753768920898
1711073467451574800,10.21157470703125,1.3674981594085693,-5.20678186416626,8.331808090209961
1711073467470534400,10.230534423828125,1.3555340766906738,-5.200799942016602,8.305487632751465
1711073467489494000,10.249493896484376,1.368694543838501,-5.175675392150879,8.325826644897461
1711073467508453600,10.26845361328125,1.3519448041915894,-5.140979290008545,8.35453987121582
1711073467527413200,10.287413330078126,1.3351950645446777,-5.209175109863281,8.367700576782227
1711073467546372900,10.306372802734375,1.3698909282684326,-5.353940486907959,8.295916557312012
1711073467565332500,10.32533251953125,1.3770694732666016,-5.371886730194092,8.176275253295898
1711073467584292000,10.3442919921875,1.3004990816116333,-5.19960355758667,8.285148620605469
1711073467603251700,10.363251708984375,1.34476637840271,-5.0811591148376465,8.440681457519531
1711073467622211000,10.382211181640624,1.412961721420288,-5.196014404296875,8.384450912475586
1711073467641170700,10.401170654296875,1.3639088869094849,-5.2115678787231445,8.3629150390625
1711073467660130300,10.42013037109375,1.3698909282684326,-5.213960647583008,8.37727165222168
1711073467679090000,10.43908984375,1.430907964706421,-5.207978248596191,8.389236450195312
1711073467698049500,10.458049560546876,1.439282774925232,-5.181657314300537,8.383254051208496
1711073467717009200,10.477009033203124,1.3950155973434448,-5.1290154457092285,8.319844245910645
1711073467735968800,10.49596875,1.3663017749786377,-5.126622676849365,8.323433876037598
1711073467754928400,10.514928466796874,1.3830515146255493,-5.134997367858887,8.404789924621582
1711073467773888000,10.533887939453125,1.4333007335662842,-5.0979084968566895,8.4562349319458
1711073467792847600,10.55284765625,1.4632110595703125,-5.076373100280762,8.440681457519531
1711073467811807200,10.57180712890625,1.4333007335662842,-5.112265586853027,8.3629150390625
1711073467830766600,10.5907666015625,1.404586911201477,-5.142175674438477,8.35453987121582
1711073467849726200,10.609726318359375,1.397408366203308,-5.247459888458252,8.328219413757324
1711073467868685800,10.628685791015625,1.3710874319076538,-5.100301265716553,8.37846851348877
1711073467887645400,10.6476455078125,1.3639088869094849,-5.111069202423096,8.324629783630371
1711073467906605000,10.66660498046875,1.317248821258545,-5.174479007720947,8.405985832214355
1711073467925564700,10.685564697265624,1.3806586265563965,-5.191228866577148,8.446663856506348
1711073467944524300,10.704524169921875,1.4165509939193726,-5.181657314300537,8.45743179321289
1711073467963484000,10.72348388671875,1.420140266418457,-5.20678186416626,8.470592498779297
1711073467982443500,10.742443603515625,1.4009976387023926,-5.173282623291016,8.437092781066895
1711073468001403100,10.761403076171876,1.397408366203308,-5.119443893432617,8.423932075500488
1711073468020362800,10.78036279296875,1.4009976387023926,-5.08355188369751,8.415556907653809
1711073468039322000,10.799322021484375,1.2921242713928223,-5.140979290008545,8.461020469665527
1711073468058282000,10.818281982421874,1.3938192129135132,-5.234299659729004,8.289934158325195
1711073468077241600,10.83724169921875,1.4213366508483887,-5.201996326446533,8.151150703430176
1711073468096201200,10.856201171875,1.3040883541107178,-5.036891460418701,8.356932640075684
1711073468115160600,10.87516064453125,1.435693621635437,-5.1218366622924805,8.4502534866333
1711073468134120200,10.8941201171875,1.4715858697891235,-5.200799942016602,8.411968231201172
1711073468153079800,10.913079833984375,1.4033905267715454,-5.150550842285156,8.365307807922363
1711073468172039400,10.932039306640625,1.4572290182113647,-5.178068161010742,8.317451477050781
1711073468190999000,10.9509990234375,1.475175142288208,-5.2390851974487305,8.338987350463867
1711073468209958700,10.969958740234375,1.4452649354934692,-5.260620594024658,8.380861282348633
1711073468228918300,10.988918212890624,1.3950155973434448,-5.203192710876465,8.431110382080078
1711073468247878000,11.0078779296875,1.3543375730514526,-5.143372058868408,8.419146537780762
1711073468266837500,11.02683740234375,1.3603196144104004,-5.157729148864746,8.423932075500488
1711073468285797000,11.045797119140625,1.3962119817733765,-5.190032482147217,8.421539306640625
1711073468304756700,11.0647568359375,1.4967105388641357,-5.196014404296875,8.373682975769043
1711073468323716400,11.08371630859375,1.470389485359192,-5.271388053894043,8.303094863891602
1711073468342676000,11.102676025390625,1.4608181715011597,-5.243870735168457,8.273183822631836
1711073468361635600,11.121635498046874,1.4727823734283447,-5.243870735168457,8.203792572021484
1711073468380595000,11.140594970703125,1.4787644147872925,-5.216353416442871,8.194221496582031
1711073468399554600,11.159554443359376,1.4189438819885254,-5.188836097717285,8.193024635314941
1711073468418514400,11.178514404296875,1.3986048698425293,-5.216353416442871,8.237292289733887
1711073468437473800,11.197473876953126,1.4500504732131958,-5.2354960441589355,8.324629783630371
1711073468456433400,11.216433349609375,1.4141582250595093,-5.223531723022461,8.429914474487305
1711073468475393000,11.23539306640625,1.3830515146255493,-5.149354457855225,8.490931510925293
1711073468494352600,11.2543525390625,1.4333007335662842,-5.216353416442871,8.427521705627441
1711073468513312300,11.273312255859375,1.423729419708252,-5.24626350402832,8.400003433227539
1711073468532271900,11.29227197265625,1.4225330352783203,-5.2151570320129395,8.37129020690918
1711073468551231500,11.3112314453125,1.3794622421264648,-5.245067119598389,8.402397155761719
1711073468570191000,11.330191162109376,1.3399807214736938,-5.327619552612305,8.414361000061035
1711073468589150700,11.349150634765625,1.4799607992172241,-5.408975601196289,8.149953842163086
1711073468608110300,11.3681103515625,1.4021940231323242,-5.278566837310791,8.007580757141113
1711073468627070000,11.387070068359375,1.2741780281066895,-5.170889854431152,8.184649467468262
1711073468646029600,11.406029541015625,1.3926228284835815,-5.2390851974487305,8.298309326171875
1711073468664989200,11.4249892578125,1.4141582250595093,-5.224728107452393,8.413164138793945
1711073468683948800,11.44394873046875,1.4021940231323242,-5.198407173156738,8.468199729919434
1711073468702908400,11.462908447265624,1.4799607992172241,-5.255835056304932,8.36411190032959
1711073468721868000,11.481867919921875,1.435693621635437,-5.260620594024658,8.336593627929688
1711073468740827600,11.50082763671875,1.384247899055481,-5.276174068450928,8.346165657043457
1711073468759787300,11.519787353515625,1.3938192129135132,-5.270191669464111,8.319844245910645
1711073468778747000,11.538746826171876,1.3902299404144287,-5.260620594024658,8.327022552490234
1711073468797706500,11.55770654296875,1.3962119817733765,-5.240281581878662,8.330612182617188
1711073468816666000,11.576666015625,1.4225330352783203,-5.224728107452393,8.313861846923828
1711073468835625700,11.595625732421874,1.4691931009292603,-5.209175109863281,8.273183822631836
1711073468854585300,11.61458544921875,1.4165509939193726,-5.243870735168457,8.298309326171875
1711073468873545000,11.633544921875,1.4859428405761719,-5.276174068450928,8.263612747192383
1711073468892504600,11.652504638671875,1.4620146751403809,-5.277370452880859,8.248059272766113
1711073468911464200,11.671464111328126,1.3495519161224365,-5.219942569732666,8.260024070739746
1711073468930423800,11.690423828125,1.3459627628326416,-5.158925533294678,8.252845764160156
1711073468949383700,11.7093837890625,1.3232308626174927,-5.1876397132873535,8.38684368133545
1711073468968343300,11.72834326171875,1.3902299404144287,-5.284548759460449,8.48734188079834
1711073468987303000,11.747302978515625,1.435693621635437,-5.319244861602783,8.432307243347168
1711073469006262500,11.766262451171874,1.4021940231323242,-5.2737812995910645,8.435895919799805
1711073469025222100,11.78522216796875,1.357926845550537,-5.288137912750244,8.366504669189453
1711073469044181800,11.804181640625,1.399801254272461,-5.340780258178711,8.293522834777832
1711073469063141400,11.823141357421875,1.4081761837005615,-5.26899528503418,8.288737297058105
1711073469082101000,11.84210107421875,1.3698909282684326,-5.191228866577148,8.306683540344238
1711073469101060600,11.861060546875,1.397408366203308,-5.247459888458252,8.212167739868164
1711073469120020200,11.880020263671875,1.4261223077774048,-5.335994720458984,8.09252643585205
1711073469138979800,11.898979736328124,1.3866406679153442,-5.243870735168457,8.179863929748535
1711073469157939500,11.917939453125,1.4093725681304932,-5.201996326446533,8.338987350463867
1711073469176899300,11.9368994140625,1.4273186922073364,-5.162514686584473,8.400003433227539
1711073469195858700,11.955858642578125,1.397408366203308,-5.139782905578613,8.388039588928223
1711073469214818600,11.974818603515626,1.4069796800613403,-5.218746185302734,8.416753768920898
1711073469233778200,11.993778076171875,1.4584254026412964,-5.295316696166992,8.400003433227539
1711073469252737800,12.01273779296875,1.439282774925232,-5.278566837310791,8.384450912475586
1711073469271697400,12.031697509765625,1.3986048698425293,-5.213960647583008,8.324629783630371
1711073469290657000,12.050656982421875,1.353141188621521,-5.223531723022461,8.311469078063965
1711073469309616600,12.06961669921875,1.3698909282684326,-5.24626350402832,8.306683540344238
1711073469328576300,12.088576171875,1.3854442834854126,-5.280959606170654,8.346165657043457
1711073469347536000,12.107535888671874,1.4033905267715454,-5.252245903015137,8.356932640075684
1711073469366495500,12.12649560546875,1.4452649354934692,-5.209175109863281,8.336593627929688
1711073469385455400,12.145455322265626,1.399801254272461,-5.221138954162598,8.295916557312012
1711073469404415000,12.1644150390625,1.4225330352783203,-5.201996326446533,8.270791053771973
1711073469423374600,12.18337451171875,1.4213366508483887,-5.298905849456787,8.26241683959961
1711073469442334200,12.202334228515625,1.3770694732666016,-5.168497085571289,8.310273170471191
1711073469461293800,12.2212939453125,1.3399807214736938,-5.168497085571289,8.26121997833252
1711073469480253400,12.24025341796875,1.3100703954696655,-5.196014404296875,8.389236450195312
1711073469499213000,12.259213134765625,1.3830515146255493,-5.252245903015137,8.440681457519531
1711073469518172700,12.278172607421874,1.412961721420288,-5.309673309326172,8.427521705627441
1711073469537132500,12.297132568359375,1.3830515146255493,-5.252245903015137,8.403593063354492
1711073469556092200,12.316092041015626,1.3698909282684326,-5.2115678787231445,8.35573673248291
1711073469575051800,12.3350517578125,1.420140266418457,-5.201996326446533,8.322237014770508
1711073469594011400,12.354011474609376,1.3926228284835815,-5.1804609298706055,8.310273170471191
1711073469612971000,12.372970947265625,1.3459627628326416,-5.154139995574951,8.325826644897461
1711073469631930600,12.3919306640625,1.32921302318573,-5.243870735168457,8.336593627929688
1711073469650890200,12.41089013671875,1.4141582250595093,-5.300102233886719,8.187042236328125
1711073469669850000,12.42985009765625,1.357926845550537,-5.14576530456543,8.280363082885742
1711073469688809700,12.448809814453124,1.4021940231323242,-5.119443893432617,8.37846851348877
1711073469707769300,12.467769287109375,1.4165509939193726,-5.207978248596191,8.356932640075684
1711073469726729000,12.48672900390625,1.3304094076156616,-5.175675392150879,8.397610664367676
1711073469745688600,12.5056884765625,1.3926228284835815,-5.209175109863281,8.398807525634766
1711073469764648200,12.524648193359376,1.4500504732131958,-5.218746185302734,8.405985832214355
1711073469783608000,12.543608154296875,1.4177473783493042,-5.19242525100708,8.401200294494629
1711073469802567400,12.5625673828125,1.4141582250595093,-5.194818019866943,8.353343963623047
1711073469821527300,12.58152734375,1.4009976387023926,-5.175675392150879,8.329415321350098
1711073469840487000,12.60048681640625,1.3806586265563965,-5.164907455444336,8.342576026916504
1711073469859446500,12.619446533203124,1.3710874319076538,-5.175675392150879,8.37009334564209
1711073469878406100,12.63840625,1.3806586265563965,-5.155336380004883,8.396414756774902
1711073469897365800,12.65736572265625,1.4656038284301758,-5.1290154457092285,8.415556907653809
1711073469916325600,12.67632568359375,1.4919248819351196,-5.127819061279297,8.368897438049316
1711073469935285200,12.69528515625,1.435693621635437,-5.100301265716553,8.39282512664795
1711073469954244900,12.714244873046875,1.3651052713394165,-5.13021183013916,8.425128936767578
1711073469973204500,12.73320458984375,1.3603196144104004,-5.168497085571289,8.384450912475586
1711073469992164000,12.7521640625,1.3818551301956177,-5.1529436111450195,8.328219413757324
1711073470011123700,12.771123779296875,1.3507484197616577,-5.26899528503418,8.34855842590332
1711073470030083600,12.79008349609375,1.3782658576965332,-5.253442287445068,8.440681457519531
1711073470049043200,12.809043212890625,1.415354609489441,-5.1876397132873535,8.429914474487305
1711073470068002800,12.8280029296875,1.3962119817733765,-5.127819061279297,8.400003433227539
1711073470086962400,12.84696240234375,1.3746765851974487,-5.131408214569092,8.37966537475586
1711073470105922000,12.865922119140626,1.4225330352783203,-5.133800983428955,8.346165657043457
1711073470124882000,12.8848818359375,1.415354609489441,-5.13021183013916,8.343772888183594
1711073470143841300,12.90384130859375,1.332802176475525,-5.170889854431152,8.330612182617188
1711073470162801200,12.92280126953125,1.3387842178344727,-5.225924491882324,8.316255569458008
1711073470181760800,12.9417607421875,1.459621787071228,-5.242674350738525,8.182256698608398
1711073470200720400,12.960720458984374,1.3507484197616577,-5.139782905578613,8.256434440612793
1711073470219680000,12.979679931640625,1.3387842178344727,-5.1529436111450195,8.384450912475586
1711073470238639600,12.9986396484375,1.389033555984497,-5.247459888458252,8.434700012207031
1711073470257599500,13.017599609375,1.399801254272461,-5.248656272888184,8.4502534866333
1711073470276559000,13.03655908203125,1.3818551301956177,-5.2869415283203125,8.35453987121582
1711073470295518700,13.055518798828125,1.3722838163375854,-5.283352375030518,8.322237014770508
1711073470314478300,13.074478271484375,1.3663017749786377,-5.233103275299072,8.34736156463623
1711073470333438000,13.09343798828125,1.4033905267715454,-5.242674350738525,8.346165657043457
1711073470352397600,13.1123974609375,1.3555340766906738,-5.207978248596191,8.307880401611328
1711073470371357400,13.131357421875,1.3148560523986816,-5.205585479736328,8.313861846923828
1711073470390317000,13.150317138671875,1.3663017749786377,-5.242674350738525,8.35573673248291
1711073470409276700,13.169276611328126,1.428515076637268,-5.225924491882324,8.383254051208496
1711073470428236300,13.188236328125,1.4727823734283447,-5.216353416442871,8.304290771484375
1711073470447196000,13.20719580078125,1.3818551301956177,-5.2354960441589355,8.294719696044922
1711073470466155800,13.22615576171875,1.3746765851974487,-5.198407173156738,8.267202377319336
1711073470485115400,13.245115478515626,1.4093725681304932,-5.2354960441589355,8.244470596313477
1711073470504075000,13.264074951171875,1.368694543838501,-5.2354960441589355,8.256434440612793
1711073470523034600,13.28303466796875,1.3244273662567139,-5.198407173156738,8.252845764160156
1711073470541994200,13.301994140625,1.301695466041565,-5.1804609298706055,8.391629219055176
1711073470560953900,13.320953857421875,1.4033905267715454,-5.270191669464111,8.4562349319458
1711073470579913500,13.33991357421875,1.4213366508483887,-5.32403039932251,8.415556907653809
1711073470598873300,13.358873291015625,1.3663017749786377,-5.284548759460449,8.380861282348633
1711073470617833000,13.3778330078125,1.3471591472625732,-5.264209747314453,8.323433876037598
1711073470636792600,13.39679248046875,1.3722838163375854,-5.225924491882324,8.312665939331055
1711073470655752200,13.415752197265626,1.3866406679153442,-5.2043890953063965,8.304290771484375
1711073470674711800,13.4347119140625,1.332802176475525,-5.2151570320129395,8.304290771484375
1711073470693671700,13.453671630859375,1.3100703954696655,-5.295316696166992,8.291130065917969
1711073470712631300,13.47263134765625,1.404586911201477,-5.338387489318848,8.169096946716309
1711073470731591000,13.4915908203125,1.3483555316925049,-5.266602516174316,8.172685623168945
1711073470750550500,13.510550537109374,1.3483555316925049,-5.213960647583008,8.289934158325195
1711073470769510100,13.52951025390625,1.3926228284835815,-5.225924491882324,8.323433876037598
1711073470788469800,13.5484697265625,1.3483555316925049,-5.242674350738525,8.34736156463623
1711073470807429600,13.5674296875,1.3603196144104004,-5.241477966308594,8.35573673248291
1711073470826389200,13.58638916015625,1.404586911201477,-5.274977684020996,8.365307807922363
1711073470845348900,13.605348876953125,1.3950155973434448,-5.276174068450928,8.35453987121582
1711073470864308500,13.62430859375,1.373480200767517,-5.284548759460449,8.35453987121582
1711073470883268000,13.64326806640625,1.3555340766906738,-5.2941203117370605,8.316255569458008
1711073470902227700,13.662227783203125,1.3351950645446777,-5.26181697845459,8.327022552490234
1711073470921187300,13.681187255859374,1.34476637840271,-5.2354960441589355,8.318648338317871
1711073470940147200,13.700147216796875,1.3782658576965332,-5.222335338592529,8.301898002624512
1711073470959106800,13.71910693359375,1.4117653369903564,-5.167300701141357,8.353343963623047
1711073470978066400,13.73806640625,1.3866406679153442,-5.2043890953063965,8.317451477050781
1711073470997026000,13.757026123046876,1.4009976387023926,-5.251049518585205,8.285148620605469
1711073471015985700,13.775985595703125,1.3818551301956177,-5.306084156036377,8.252845764160156
1711073471034945300,13.7949453125,1.3459627628326416,-5.264209747314453,8.26839828491211
1711073471053905200,13.8139052734375,1.3519448041915894,-5.1876397132873535,8.256434440612793
1711073471072864800,13.83286474609375,1.306481122970581,-5.237888813018799,8.318648338317871
1711073471091824400,13.851824462890624,1.353141188621521,-5.277370452880859,8.383254051208496
1711073471110784000,13.870783935546875,1.3818551301956177,-5.284548759460449,8.408378601074219
1711073471129743600,13.88974365234375,1.3363914489746094,-5.233103275299072,8.46341323852539
1711073471148703200,13.908703125,1.3758729696273804,-5.240281581878662,8.413164138793945
1711073471167662800,13.927662841796876,1.3651052713394165,-5.209175109863281,8.356932640075684
1711073471186622700,13.946622802734375,1.3698909282684326,-5.182853698730469,8.313861846923828
1711073471205582300,13.965582275390625,1.3507484197616577,-5.154139995574951,8.321041107177734
1711073471224542000,13.9845419921875,1.34476637840271,-5.223531723022461,8.325826644897461
1711073471243501600,14.00350146484375,1.3878371715545654,-5.304887771606445,8.228917121887207
1711073471262461200,14.022461181640624,1.3710874319076538,-5.236692428588867,8.196614265441895
1711073471281420800,14.0414208984375,1.3543375730514526,-5.150550842285156,8.322237014770508
1711073471300380700,14.060380615234376,1.412961721420288,-5.178068161010742,8.323433876037598
1711073471319340000,14.079340087890625,1.3591232299804688,-5.160121917724609,8.353343963623047
1711073471338300000,14.0982998046875,1.3363914489746094,-5.160121917724609,8.415556907653809
1711073471357259500,14.117259521484375,1.4093725681304932,-5.2151570320129395,8.417949676513672
1711073471376219100,14.13621923828125,1.4189438819885254,-5.188836097717285,8.425128936767578
1711073471395178800,14.1551787109375,1.3519448041915894,-5.1840500831604,8.391629219055176
1711073471414138400,14.174138427734375,1.3507484197616577,-5.219942569732666,8.34736156463623
1711073471433098000,14.193097900390624,1.3603196144104004,-5.205585479736328,8.338987350463867
1711073471452057900,14.212057861328125,1.3256237506866455,-5.182853698730469,8.358129501342773
1711073471471017500,14.231017578125,1.3603196144104004,-5.1840500831604,8.37846851348877
1711073471489977000,14.24997705078125,1.4177473783493042,-5.175675392150879,8.384450912475586
1711073471508936700,14.268936767578126,1.415354609489441,-5.2115678787231445,8.299505233764648
1711073471527896300,14.287896240234375,1.3818551301956177,-5.203192710876465,8.287541389465332
1711073471546856000,14.30685595703125,1.3459627628326416,-5.264209747314453,8.325826644897461
1711073471565815600,14.325815673828124,1.3639088869094849,-5.149354457855225,8.376075744628906
1711073471584775400,14.344775390625,1.353141188621521,-5.148158073425293,8.307880401611328
1711073471603735000,14.363735107421874,1.2562319040298462,-5.179264545440674,8.38564682006836
1711073471622694700,14.382694580078125,1.3100703954696655,-5.178068161010742,8.459824562072754
1711073471641654300,14.401654296875,1.3914263248443604,-5.198407173156738,8.46341323852539
1711073471660614000,14.42061376953125,1.4021940231323242,-5.207978248596191,8.435895919799805
1711073471679573500,14.439573486328126,1.3722838163375854,-5.203192710876465,8.382058143615723
1711073471698533000,14.458533203125,1.3926228284835815,-5.162514686584473,8.317451477050781
1711073471717492700,14.47749267578125,1.4009976387023926,-5.1290154457092285,8.304290771484375
1711073471736452600,14.49645263671875,1.3244273662567139,-5.106283664703369,8.37009334564209
1711073471755412200,14.515412109375,1.3746765851974487,-5.2283172607421875,8.324629783630371
1711073471774371800,14.534371826171874,1.435693621635437,-5.243870735168457,8.184649467468262
1711073471793331500,14.55333154296875,1.3304094076156616,-5.054837703704834,8.306683540344238
1711073471812291000,14.572291015625,1.3818551301956177,-5.054837703704834,8.428717613220215
1711073471831250700,14.591250732421875,1.389033555984497,-5.1529436111450195,8.384450912475586
1711073471850210300,14.610210205078126,1.301695466041565,-5.144568920135498,8.455039024353027
1711073471869170000,14.629169921875,1.3495519161224365,-5.178068161010742,8.48734188079834
1711073471888129500,14.648129638671875,1.4452649354934692,-5.225924491882324,8.446663856506348
1711073471907089400,14.66708935546875,1.3962119817733765,-5.234299659729004,8.38684368133545
1711073471926049000,14.686049072265625,1.3411771059036255,-5.194818019866943,8.335397720336914
1711073471945008600,14.705008544921874,1.3208380937576294,-5.198407173156738,8.311469078063965
1711073471963968300,14.72396826171875,1.306481122970581,-5.227120876312256,8.352147102355957
1711073471982928000,14.742927978515626,1.3770694732666016,-5.2043890953063965,8.35453987121582
1711073472001887500,14.761887451171875,1.4656038284301758,-5.166104316711426,8.318648338317871
1711073472020847000,14.78084716796875,1.4428720474243164,-5.140979290008545,8.388039588928223
1711073472039806700,14.799806640625,1.399801254272461,-5.144568920135498,8.376075744628906
1711073472058766600,14.8187666015625,1.3423734903335571,-5.185246467590332,8.334200859069824
1711073472077726200,14.837726318359374,1.3615161180496216,-5.216353416442871,8.361719131469727
1711073472096685800,14.856685791015625,1.357926845550537,-5.134997367858887,8.309076309204102
1711073472115645400,14.8756455078125,1.2837493419647217,-5.124229907989502,8.35573673248291
1711073472134605000,14.89460498046875,1.3040883541107178,-5.167300701141357,8.441878318786621
1711073472153564700,14.913564697265626,1.3770694732666016,-5.172086238861084,8.462217330932617
1711073472172524300,14.932524169921875,1.384247899055481,-5.182853698730469,8.461020469665527
1711073472191484000,14.95148388671875,1.34476637840271,-5.19960355758667,8.413164138793945
1711073472210443500,14.970443603515625,1.322034478187561,-5.217549800872803,8.336593627929688
1711073472229403400,14.9894033203125,1.3399807214736938,-5.289334297180176,8.280363082885742
1711073472248362800,15.00836279296875,1.3710874319076538,-5.283352375030518,8.273183822631836
1711073472267322600,15.027322509765625,1.353141188621521,-5.227120876312256,8.251648902893066
1711073472286282200,15.0462822265625,1.2693923711776733,-5.222335338592529,8.311469078063965
1711073472305241900,15.065241943359375,1.34476637840271,-5.32403039932251,8.210970878601074
1711073472324201500,15.084201416015626,1.3591232299804688,-5.362315654754639,8.15234661102295
1711073472343161000,15.1031611328125,1.3160524368286133,-5.210371494293213,8.301898002624512
1711073472362120700,15.12212060546875,1.3519448041915894,-5.242674350738525,8.359326362609863
1711073472381080300,15.141080322265625,1.337587833404541,-5.26181697845459,8.373682975769043
1711073472400040000,15.1600400390625,1.3387842178344727,-5.213960647583008,8.372486114501953
1711073472418999600,15.17899951171875,1.3651052713394165,-5.2115678787231445,8.380861282348633
1711073472437959200,15.197959228515625,1.3746765851974487,-5.19242525100708,8.404789924621582
1711073472456918800,15.216918701171876,1.3794622421264648,-5.196014404296875,8.39282512664795
1711073472475878400,15.23587841796875,1.3244273662567139,-5.217549800872803,8.367700576782227
1711073472494838300,15.25483837890625,1.31365966796875,-5.234299659729004,8.346165657043457
1711073472513798000,15.2737978515625,1.3256237506866455,-5.254638671875,8.323433876037598
1711073472532757500,15.292757568359375,1.397408366203308,-5.264209747314453,8.2695951461792
1711073472551717000,15.311717041015624,1.4165509939193726,-5.19960355758667,8.299505233764648
1711073472570676700,15.3306767578125,1.3088740110397339,-5.197210788726807,8.34138011932373
1711073472589636400,15.34963623046875,1.3914263248443604,-5.20678186416626,8.289934158325195
1711073472608596000,15.368595947265625,1.3806586265563965,-5.282155990600586,8.212167739868164
1711073472627555600,15.3875556640625,1.275374412536621,-5.300102233886719,8.234899520874023
1711073472646515200,15.40651513671875,1.3124631643295288,-5.225924491882324,8.23968505859375
1711073472665474800,15.425474853515626,1.2873386144638062,-5.2283172607421875,8.34736156463623
1711073472684434400,15.444434326171875,1.3411771059036255,-5.292923450469971,8.415556907653809
1711073472703394300,15.463394287109375,1.3818551301956177,-5.295316696166992,8.390432357788086
1711073472722354000,15.48235400390625,1.3411771059036255,-5.267798900604248,8.395217895507812
1711073472741313500,15.5013134765625,1.3304094076156616,-5.276174068450928,8.366504669189453
1711073472760273200,15.520273193359374,1.3627125024795532,-5.284548759460449,8.305487632751465
1711073472779232800,15.539232666015625,1.3627125024795532,-5.234299659729004,8.288737297058105
1711073472798192400,15.5581923828125,1.3280165195465088,-5.179264545440674,8.288737297058105
1711073472817152000,15.577152099609375,1.3148560523986816,-5.231906890869141,8.319844245910645
1711073472836111600,15.596111572265626,1.3435698747634888,-5.307280540466309,8.22293472290039
1711073472855071200,15.6150712890625,1.3663017749786377,-5.302495002746582,8.15234661102295
1711073472874030800,15.63403076171875,1.3387842178344727,-5.174479007720947,8.343772888183594
1711073472892990500,15.652990478515624,1.389033555984497,-5.2115678787231445,8.318648338317871
1711073472911950000,15.6719501953125,1.353141188621521,-5.203192710876465,8.34138011932373
1711073472930909700,15.69090966796875,1.3423734903335571,-5.178068161010742,8.37966537475586
1711073472949869300,15.709869384765625,1.389033555984497,-5.185246467590332,8.433503150939941
1711073472968829000,15.728828857421876,1.3806586265563965,-5.185246467590332,8.455039024353027
1711073472987788800,15.747788818359375,1.3866406679153442,-5.161318302154541,8.405985832214355
1711073473006748200,15.766748046875,1.3435698747634888,-5.197210788726807,8.360522270202637
1711073473025708000,15.7857080078125,1.32921302318573,-5.219942569732666,8.338987350463867
1711073473044667600,15.804667724609375,1.3399807214736938,-5.213960647583008,8.37846851348877
1711073473063627300,15.823627197265624,1.3639088869094849,-5.210371494293213,8.361719131469727
1711073473082587000,15.8425869140625,1.4273186922073364,-5.172086238861084,8.37846851348877
1711073473101546500,15.86154638671875,1.389033555984497,-5.191228866577148,8.322237014770508
1711073473120506000,15.880506103515625,1.4105689525604248,-5.219942569732666,8.283951759338379
1711073473139465700,15.8994658203125,1.3663017749786377,-5.2869415283203125,8.25523853302002
1711073473158425300,15.91842529296875,1.3746765851974487,-5.24626350402832,8.33300495147705
1711073473177385000,15.937385009765626,1.3902299404144287,-5.120640277862549,8.300702095031738
1711073473196344600,15.956344482421875,1.3052847385406494,-5.218746185302734,8.286344528198242
1711073473215304200,15.97530419921875,1.3004990816116333,-5.216353416442871,8.429914474487305
1711073473234263800,15.994263916015624,1.4009976387023926,-5.224728107452393,8.453842163085938
1711073473253223700,16.0132236328125,1.397408366203308,-5.223531723022461,8.468199729919434
1711073473272183300,16.032183349609376,1.3806586265563965,-5.234299659729004,8.411968231201172
1711073473291143000,16.051142822265625,1.368694543838501,-5.2151570320129395,8.336593627929688
1711073473310102500,16.0701025390625,1.399801254272461,-5.146961688995361,8.309076309204102
1711073473329062100,16.089062255859375,1.3615161180496216,-5.13021183013916,8.295916557312012
1711073473348021800,16.108021728515624,1.2897313833236694,-5.1840500831604,8.37966537475586
1711073473366981400,16.1269814453125,1.3794622421264648,-5.2390851974487305,8.266005516052246
1711073473385941000,16.14594091796875,1.3950155973434448,-5.201996326446533,8.22293472290039
1711073473404900600,16.164900634765626,1.3399807214736938,-5.087141036987305,8.390432357788086
1711073473423860200,16.183860107421875,1.439282774925232,-5.164907455444336,8.37846851348877
1711073473442819800,16.20281982421875,1.3567304611206055,-5.174479007720947,8.368897438049316
1711073473461779700,16.22177978515625,1.3435698747634888,-5.1529436111450195,8.429914474487305
1711073473480739300,16.2407392578125,1.4297115802764893,-5.151747226715088,8.425128936767578
1711073473499699000,16.259698974609375,1.454836130142212,-5.175675392150879,8.462217330932617
1711073473518658600,16.278658447265624,1.423729419708252,-5.161318302154541,8.439485549926758
1711073473537618200,16.2976181640625,1.4009976387023926,-5.172086238861084,8.3629150390625
1711073473556577800,16.316577880859374,1.4069796800613403,-5.172086238861084,8.328219413757324
1711073473575537400,16.335537353515626,1.357926845550537,-5.131408214569092,8.365307807922363
1711073473594497000,16.3544970703125,1.3555340766906738,-5.132604598999023,8.396414756774902
1711073473613456600,16.37345654296875,1.4333007335662842,-5.157729148864746,8.411968231201172
1711073473632416500,16.39241650390625,1.4404792785644531,-5.210371494293213,8.397610664367676
1711073473651376000,16.411376220703126,1.4428720474243164,-5.2390851974487305,8.321041107177734
1711073473670335700,16.430335693359375,1.4009976387023926,-5.255835056304932,8.3629150390625
1711073473689295400,16.44929541015625,1.439282774925232,-5.237888813018799,8.307880401611328
1711073473708255000,16.4682548828125,1.3758729696273804,-5.1050872802734375,8.303094863891602
1711073473727214600,16.487214599609374,1.337587833404541,-5.1768717765808105,8.273183822631836
1711073473746174200,16.50617431640625,1.373480200767517,-5.240281581878662,8.368897438049316
1711073473765134000,16.525134033203123,1.412961721420288,-5.230710506439209,8.410771369934082
1711073473784093700,16.54409375,1.4297115802764893,-5.2115678787231445,8.396414756774902
1711073473803053300,16.56305322265625,1.3746765851974487,-5.196014404296875,8.35573673248291
1711073473822013000,16.582012939453126,1.3674981594085693,-5.2043890953063965,8.336593627929688
1711073473840972500,16.60097265625,1.4225330352783203,-5.1768717765808105,8.359326362609863
1711073473859932200,16.61993212890625,1.3830515146255493,-5.1529436111450195,8.37966537475586
1711073473878892000,16.63889208984375,1.2681959867477417,-5.209175109863281,8.46461009979248
1711073473897851600,16.6578515625,1.412961721420288,-5.309673309326172,8.23011302947998
1711073473916811300,16.676811279296874,1.3651052713394165,-5.280959606170654,8.171489715576172
1711073473935771000,16.69577099609375,1.2897313833236694,-5.167300701141357,8.337790489196777
1711073473954730500,16.71473046875,1.3914263248443604,-5.227120876312256,8.350951194763184
1711073473973690400,16.7336904296875,1.373480200767517,-5.200799942016602,8.394021987915039
1711073473992649700,16.752649658203126,1.384247899055481,-5.198407173156738,8.431110382080078
1711073474011609600,16.771609619140627,1.451246976852417,-5.267798900604248,8.396414756774902
1711073474030569200,16.7905693359375,1.4404792785644531,-5.270191669464111,8.37009334564209
1711073474049528800,16.80952880859375,1.397408366203308,-5.248656272888184,8.35453987121582
1711073474068488700,16.82848876953125,1.4009976387023926,-5.254638671875,8.287541389465332
1711073474087448000,16.847447998046874,1.3758729696273804,-5.248656272888184,8.242077827453613
1711073474106408000,16.866407958984375,1.3435698747634888,-5.229514122009277,8.293522834777832
1711073474125367600,16.885367431640624,1.3758729696273804,-5.225924491882324,8.350951194763184
1711073474144327200,16.9043271484375,1.4763715267181396,-5.230710506439209,8.337790489196777
1711073474163287000,16.923287109375,1.423729419708252,-5.266602516174316,8.318648338317871
1711073474182246700,16.94224658203125,1.3746765851974487,-5.227120876312256,8.300702095031738
1711073474201206300,16.961206298828124,1.397408366203308,-5.237888813018799,8.243273735046387
1711073474220166000,16.980165771484376,1.3603196144104004,-5.306084156036377,8.25404167175293
1711073474239125500,16.99912548828125,1.3627125024795532,-5.290530681610107,8.226524353027344
1711073474258085400,17.01808544921875,1.293320655822754,-5.2283172607421875,8.285148620605469
1711073474277045000,17.037044921875,1.322034478187561,-5.26899528503418,8.384450912475586
1711073474296004600,17.056004638671876,1.3866406679153442,-5.3312087059021,8.403593063354492
1711073474314964200,17.074964111328125,1.3710874319076538,-5.284548759460449,8.432307243347168
1711073474333924000,17.093924072265626,1.368694543838501,-5.259424209594727,8.376075744628906
1711073474352883700,17.1128837890625,1.3639088869094849,-5.270191669464111,8.266005516052246
1711073474371843300,17.13184326171875,1.3698909282684326,-5.251049518585205,8.283951759338379
1711073474390803000,17.150802978515625,1.3950155973434448,-5.2151570320129395,8.283951759338379
1711073474409762800,17.1697626953125,1.3543375730514526,-5.2151570320129395,8.343772888183594
1711073474428722400,17.188722412109374,1.357926845550537,-5.242674350738525,8.257631301879883
1711073474447682000,17.20768212890625,1.3746765851974487,-5.278566837310791,8.15234661102295
1711073474466641700,17.2266416015625,1.32921302318573,-5.161318302154541,8.285148620605469
1711073474485601300,17.245601318359373,1.3663017749786377,-5.213960647583008,8.35573673248291
1711073474504561200,17.26456103515625,1.3950155973434448,-5.251049518585205,8.39282512664795
1711073474523520800,17.283520751953127,1.3603196144104004,-5.283352375030518,8.423932075500488
1711073474542480400,17.30248046875,1.3938192129135132,-5.289334297180176,8.407182693481445
1711073474561440300,17.321440185546876,1.4225330352783203,-5.3216376304626465,8.322237014770508
1711073474580399900,17.34039990234375,1.3639088869094849,-5.279763221740723,8.293522834777832
1711073474599359500,17.359359375,1.3495519161224365,-5.247459888458252,8.270791053771973
1711073474618319000,17.378319091796875,1.3387842178344727,-5.218746185302734,8.281558990478516
1711073474637279000,17.397279052734376,1.293320655822754,-5.2115678787231445,8.360522270202637
1711073474656238600,17.416238525390625,1.3603196144104004,-5.276174068450928,8.335397720336914
1711073474675198200,17.4351982421875,1.4404792785644531,-5.236692428588867,8.335397720336914
1711073474694158000,17.454157958984375,1.3986048698425293,-5.133800983428955,8.373682975769043
1711073474713117700,17.47311767578125,1.4249259233474731,-5.120640277862549,8.380861282348633
1711073474732077300,17.492077392578125,1.4009976387023926,-5.237888813018799,8.322237014770508
1711073474751037000,17.511036865234374,1.3567304611206055,-5.340780258178711,8.281558990478516
1711073474769996800,17.529996826171875,1.3304094076156616,-5.188836097717285,8.256434440612793
1711073474788956400,17.548956298828124,1.3112667798995972,-5.207978248596191,8.264809608459473
1711073474807916000,17.567916015625,1.3232308626174927,-5.248656272888184,8.400003433227539
1711073474826876000,17.5868759765625,1.4105689525604248,-5.24626350402832,8.429914474487305
1711073474845835500,17.60583544921875,1.3698909282684326,-5.168497085571289,8.427521705627441
1711073474864795100,17.624795166015623,1.353141188621521,-5.198407173156738,8.438288688659668
1711073474883754800,17.643754638671876,1.397408366203308,-5.241477966308594,8.365307807922363
1711073474902714600,17.662714599609377,1.3926228284835815,-5.225924491882324,8.312665939331055
1711073474921674200,17.68167431640625,1.3268201351165771,-5.205585479736328,8.260024070739746
1711073474940634000,17.700634033203126,1.275374412536621,-5.191228866577148,8.310273170471191
1711073474959593700,17.71959375,1.3399807214736938,-5.259424209594727,8.248059272766113
1711073474978553300,17.73855322265625,1.415354609489441,-5.266602516174316,8.197810173034668
1711073474997513000,17.757512939453125,1.3543375730514526,-5.157729148864746,8.356932640075684
1711073475016472800,17.776472900390626,1.4093725681304932,-5.253442287445068,8.366504669189453
1711073475035432400,17.795432373046875,1.4021940231323242,-5.225924491882324,8.349754333496094
1711073475054392000,17.81439208984375,1.31365966796875,-5.1840500831604,8.36411190032959
1711073475073352000,17.83335205078125,1.3663017749786377,-5.1768717765808105,8.395217895507812
1711073475092311600,17.8523115234375,1.3698909282684326,-5.151747226715088,8.451449394226074
1711073475111271200,17.871271240234375,1.3627125024795532,-5.120640277862549,8.4502534866333
1711073475130230800,17.890230712890624,1.3674981594085693,-5.164907455444336,8.400003433227539
1711073475149190700,17.909190673828125,1.353141188621521,-5.1768717765808105,8.383254051208496
1711073475168150300,17.928150390625,1.3507484197616577,-5.203192710876465,8.376075744628906
1711073475187110000,17.94710986328125,1.3399807214736938,-5.1876397132873535,8.367700576782227
1711073475206069500,17.966069580078123,1.397408366203308,-5.13739013671875,8.37966537475586
1711073475225029400,17.985029296875,1.3830515146255493,-5.173282623291016,8.329415321350098
1711073475243989000,18.003989013671877,1.4225330352783203,-5.2151570320129395,8.274380683898926
1711073475262948600,18.022948486328126,1.3722838163375854,-5.255835056304932,8.298309326171875
1711073475281908500,18.041908447265627,1.3471591472625732,-5.193621635437012,8.394021987915039
1711073475300868000,18.0608681640625,1.353141188621521,-5.111069202423096,8.304290771484375
1711073475319828000,18.079827880859376,1.3160524368286133,-5.198407173156738,8.305487632751465
1711073475338787600,18.09878759765625,1.3160524368286133,-5.186442852020264,8.470592498779297
1711073475357747200,18.117747314453126,1.4117653369903564,-5.173282623291016,8.453842163085938
1711073475376706800,18.136706787109375,1.415354609489441,-5.179264545440674,8.435895919799805
1711073475395666700,18.155666748046876,1.3758729696273804,-5.191228866577148,8.390432357788086
1711073475414626300,18.174626220703125,1.3926228284835815,-5.201996326446533,8.349754333496094
1711073475433586000,18.1935859375,1.4069796800613403,-5.164907455444336,8.346165657043457
1711073475452545800,18.2125458984375,1.3507484197616577,-5.148158073425293,8.329415321350098
1711073475471505400,18.23150537109375,1.2849457263946533,-5.200799942016602,8.37966537475586
1711073475490465000,18.250465087890625,1.3830515146255493,-5.2977094650268555,8.221738815307617
1711073475509424600,18.269424560546874,1.3722838163375854,-5.223531723022461,8.173882484436035
1711073475528384500,18.288384521484375,1.3148560523986816,-5.063212871551514,8.398807525634766
1711073475547344100,18.30734423828125,1.4333007335662842,-5.149354457855225,8.391629219055176
1711073475566303700,18.3263037109375,1.34476637840271,-5.1876397132873535,8.398807525634766
1711073475585263400,18.345263427734373,1.3495519161224365,-5.163711071014404,8.439485549926758
1711073475604223200,18.36422314453125,1.4057832956314087,-5.212764263153076,8.419146537780762
1711073475623182800,18.383182861328127,1.420140266418457,-5.197210788726807,8.440681457519531
1711073475642142500,18.402142578125,1.384247899055481,-5.185246467590332,8.38564682006836
1711073475661102300,18.421102294921877,1.3399807214736938,-5.1565327644348145,8.328219413757324
1711073475680062000,18.44006201171875,1.301695466041565,-5.168497085571289,8.353343963623047
1711073475699021600,18.459021484375,1.3459627628326416,-5.196014404296875,8.396414756774902
1711073475717981200,18.477981201171875,1.4344971179962158,-5.216353416442871,8.395217895507812
1711073475736941000,18.496941162109376,1.4177473783493042,-5.190032482147217,8.376075744628906
1711073475755900700,18.515900634765625,1.4057832956314087,-5.237888813018799,8.258827209472656
1711073475774860300,18.5348603515625,1.3830515146255493,-5.2115678787231445,8.240880966186523
1711073475793820200,18.553820068359375,1.3722838163375854,-5.2390851974487305,8.236095428466797
1711073475812779800,18.57277978515625,1.3866406679153442,-5.1804609298706055,8.256434440612793
1711073475831739600,18.59173974609375,1.3184453248977661,-5.197210788726807,8.304290771484375
1711073475850699300,18.61069921875,1.2693923711776733,-5.175675392150879,8.374878883361816
1711073475869659000,18.629658935546875,1.357926845550537,-5.225924491882324,8.440681457519531
1711073475888618500,18.648618408203124,1.3878371715545654,-5.266602516174316,8.444271087646484
1711073475907578400,18.667578369140625,1.3495519161224365,-5.237888813018799,8.439485549926758
1711073475926538000,18.6865380859375,1.3459627628326416,-5.229514122009277,8.38564682006836
1711073475945497600,18.70549755859375,1.3806586265563965,-5.196014404296875,8.37009334564209
1711073475964457200,18.724457275390623,1.3938192129135132,-5.191228866577148,8.305487632751465
1711073475983417000,18.7434169921875,1.353141188621521,-5.139782905578613,8.303094863891602
1711073476002376700,18.762376708984377,1.29810631275177,-5.173282623291016,8.35453987121582
1711073476021336300,18.78133642578125,1.4057832956314087,-5.236692428588867,8.227720260620117
1711073476040296200,18.800296142578127,1.384247899055481,-5.185246467590332,8.227720260620117
1711073476059255800,18.819255859375,1.3004990816116333,-5.108676433563232,8.431110382080078
1711073476078215400,18.83821533203125,1.3782658576965332,-5.224728107452393,8.413164138793945
1711073476097175000,18.857175048828125,1.3615161180496216,-5.230710506439209,8.374878883361816
1711073476116135000,18.876135009765626,1.3507484197616577,-5.197210788726807,8.338987350463867
1711073476135094500,18.895094482421875,1.389033555984497,-5.278566837310791,8.294719696044922
1711073476154054100,18.91405419921875,1.3495519161224365,-5.300102233886719,8.310273170471191
1711073476173013800,18.933013671875,1.3304094076156616,-5.326423168182373,8.3629150390625
1711073476191973400,18.951973388671874,1.2658032178878784,-5.320441246032715,8.334200859069824
1711073476210933200,18.970933349609375,1.2681959867477417,-5.315655708312988,8.316255569458008
1711073476229892900,18.989892822265624,1.2717852592468262,-5.314459323883057,8.299505233764648
1711073476248852500,19.0088525390625,1.353141188621521,-5.3108696937561035,8.260024070739746
1711073476267812400,19.027812255859374,1.3387842178344727,-5.335994720458984,8.26121997833252
1711073476286772000,19.04677197265625,1.2993026971817017,-5.2977094650268555,8.356932640075684
1711073476305731600,19.065731689453123,1.353141188621521,-5.264209747314453,8.260024070739746
1711073476324691200,19.084691162109376,1.3124631643295288,-5.315655708312988,8.225327491760254
1711073476343651000,19.103651123046873,1.2837493419647217,-5.26181697845459,8.228917121887207
1711073476362610700,19.122610595703126,1.2658032178878784,-5.1565327644348145,8.260024070739746
1711073476381570300,19.1415703125,1.2658032178878784,-5.123033046722412,8.390432357788086
1711073476400530000,19.160530029296876,1.3387842178344727,-5.2151570320129395,8.425128936767578
1711073476419489800,19.17948974609375,1.3698909282684326,-5.252245903015137,8.425128936767578
1711073476438449400,19.198449462890625,1.332802176475525,-5.219942569732666,8.407182693481445
1711073476457409000,19.217408935546874,1.3184453248977661,-5.236692428588867,8.366504669189453
1711073476476369000,19.236368896484375,1.368694543838501,-5.280959606170654,8.338987350463867
1711073476495328500,19.25532861328125,1.373480200767517,-5.26181697845459,8.288737297058105
1711073476514288000,19.2742880859375,1.3112667798995972,-5.205585479736328,8.286344528198242
1711073476533247700,19.293247802734374,1.2837493419647217,-5.251049518585205,8.273183822631836
1711073476552207600,19.31220751953125,1.3124631643295288,-5.343173027038574,8.191828727722168
1711073476571167200,19.331167236328124,1.317248821258545,-5.2977094650268555,8.213363647460938
1711073476590126800,19.350126953125,1.3124631643295288,-5.245067119598389,8.292326927185059
1711073476609086500,19.36908642578125,1.3399807214736938,-5.255835056304932,8.318648338317871
1711073476628046000,19.388046142578126,1.32921302318573,-5.249852657318115,8.335397720336914
1711073476647006000,19.407005859375,1.3567304611206055,-5.249852657318115,8.34138011932373
1711073476665965600,19.425965576171876,1.3758729696273804,-5.2390851974487305,8.376075744628906
1711073476684925200,19.44492529296875,1.3483555316925049,-5.219942569732666,8.372486114501953
1711073476703885000,19.463885009765626,1.3160524368286133,-5.237888813018799,8.373682975769043
1711073476722844700,19.4828447265625,1.3040883541107178,-5.280959606170654,8.361719131469727
1711073476741804300,19.50180419921875,1.3148560523986816,-5.304887771606445,8.331808090209961
1711073476760764000,19.520763916015625,1.3555340766906738,-5.217549800872803,8.26121997833252
1711073476779723800,19.539723876953126,1.3902299404144287,-5.181657314300537,8.283951759338379
1711073476798683400,19.558683349609375,1.3698909282684326,-5.182853698730469,8.413164138793945
1711073476817643000,19.57764306640625,1.3770694732666016,-5.225924491882324,8.391629219055176
1711073476836602600,19.5966025390625,1.3770694732666016,-5.358726501464844,8.283951759338379
1711073476855562200,19.615562255859373,1.3399807214736938,-5.289334297180176,8.263612747192383
1711073476874522000,19.634522216796874,1.3483555316925049,-5.216353416442871,8.325826644897461
1711073476893481700,19.653481689453123,1.29810631275177,-5.198407173156738,8.644071578979492
1711073476912441300,19.67244140625,1.3854442834854126,-5.203192710876465,8.787641525268555
1711073476931401200,19.691401123046877,1.4165509939193726,-5.191228866577148,8.730213165283203
1711073476950360800,19.71036083984375,1.3232308626174927,-5.149354457855225,8.61894702911377
1711073476969320400,19.729320556640626,1.29810631275177,-5.233103275299072,8.621339797973633
1711073476988280000,19.748280029296875,1.3926228284835815,-5.335994720458984,8.773283958435059
1711073477007239700,19.76723974609375,1.5194423198699951,-5.477170944213867,8.940781593322754
1711073477026199300,19.78619921875,1.3986048698425293,-5.590830326080322,9.170493125915527
1711073477045159200,19.8051591796875,1.423729419708252,-5.962913990020752,9.538987159729004
1711073477064118800,19.824118896484375,1.9453648328781128,-6.453442573547363,9.723235130310059
1711073477083078400,19.843078369140624,2.310270309448242,-6.692724704742432,9.775876998901367
1711073477102038300,19.862038330078125,1.7336000204086304,-6.595815658569336,10.395618438720703
1711073477120997600,19.88099755859375,1.552941918373108,-6.471388816833496,11.038090705871582
1711073477139957500,19.89995751953125,2.4059832096099854,-7.210771083831787,10.691131591796875
1711073477158917000,19.918917236328124,2.214557409286499,-7.069594383239746,9.961320877075195
1711073477177876700,19.937876708984376,1.470389485359192,-5.737988471984863,9.038887977600098
1711073477196836600,19.956836669921874,0.9260223507881165,-4.210171222686768,8.00638484954834
1711073477215796200,19.975796142578126,0.4666004180908203,-2.410768747329712,7.785048484802246
1711073477234755800,19.994755859375,0.989432156085968,-1.1234302520751953,8.398807525634766
1711073477253715500,20.013715576171876,2.069791555404663,-0.4462614357471466,9.357132911682129
1711073477272675000,20.032675048828125,2.4394826889038086,-0.08015955984592438,10.303494453430176
1711073477291635000,20.051635009765626,2.5782663822174072,-0.4043870270252228,10.595418930053711
1711073477310594600,20.070594482421875,2.289931297302246,-0.6747759580612183,10.00439167022705
1711073477329554200,20.08955419921875,1.7407784461975098,-0.5958128571510315,9.54496955871582
1711073477348513800,20.108513671875,1.7072789669036865,-0.6400800347328186,10.040284156799316
1711073477367473400,20.127473388671874,2.1200408935546875,-0.8685946464538574,10.360921859741211
1711073477386433300,20.146433349609374,2.049452543258667,-0.1902294009923935,10.470992088317871
1711073477405393000,20.165392822265623,1.8185452222824097,0.08015955984592438,10.51645565032959
1711073477424352500,20.1843525390625,1.9537396430969238,-0.5000999569892883,10.187442779541016
1711073477443312000,20.20331201171875,1.9070796966552734,-0.5623133182525635,9.958928108215332
1711073477462271700,20.222271728515626,1.7479569911956787,-0.363709032535553,9.82373332977295
1711073477481231600,20.241231689453127,1.8867406845092773,-0.6245267391204834,9.517452239990234
1711073477500191200,20.260191162109376,1.950150489807129,-0.7680960893630981,9.268598556518555
1711073477519150800,20.27915087890625,1.7922241687774658,-0.6484549641609192,9.430113792419434
1711073477538110500,20.2981103515625,1.8424733877182007,-0.5742774605751038,9.573683738708496
1711073477557070000,20.317070068359374,2.1068804264068604,-0.6101697683334351,9.56889820098877
1711073477576030000,20.336030029296875,2.043470621109009,-0.711864709854126,9.591629981994629
1711073477594989300,20.3549892578125,1.8221344947814941,-0.4630111753940582,9.425328254699707
1711073477613949200,20.37394921875,1.7120646238327026,-0.16510476171970367,9.19442081451416
1711073477632908800,20.39290869140625,1.6307085752487183,0.30149564146995544,9.001798629760742
1711073477651868400,20.411868408203127,1.6498512029647827,0.4630111753940582,8.877371788024902
1711073477670828300,20.430828369140624,1.573280930519104,1.0169496536254883,8.739784240722656
1711073477689787600,20.44978759765625,1.451246976852417,1.6450655460357666,8.82951545715332
1711073477708747500,20.46874755859375,1.373480200767517,2.3198416233062744,9.158528327941895
1711073477727707100,20.48770703125,1.4967105388641357,2.4885356426239014,8.934800148010254
1711073477746666800,20.506666748046875,1.373480200767517,3.1274192333221436,8.740981101989746
1711073477765626400,20.52562646484375,1.1234302520751953,3.817748546600342,8.790034294128418
1711073477784586000,20.5445859375,1.046859860420227,4.170690059661865,9.114261627197266
1711073477803545900,20.5635458984375,1.1988041400909424,4.067798614501953,9.570094108581543
1711073477822505500,20.58250537109375,1.3052847385406494,4.011567115783691,9.58205795288086
1711073477841465000,20.601465087890624,1.129412293434143,4.2831525802612305,9.123832702636719
1711073477860424700,20.6204248046875,0.836291491985321,4.704289436340332,8.639286041259766
1711073477879384300,20.63938427734375,0.6927221417427063,4.734199523925781,8.46580696105957
1711073477898344200,20.65834423828125,0.6460621356964111,4.820341110229492,8.526823043823242
1711073477917303800,20.6773037109375,1.0648061037063599,4.870590686798096,8.271987915039062
1711073477936263400,20.696263427734376,1.0803594589233398,5.258227825164795,7.765905857086182
1711073477955223000,20.71522314453125,0.5862415432929993,5.714060306549072,7.404589653015137
1711073477974182700,20.7341826171875,0.38644084334373474,6.028716564178467,7.28255558013916
1711073477993142300,20.753142333984375,0.6293123364448547,6.131608009338379,7.203592777252197
1711073478012102100,20.77210205078125,0.7202396392822266,5.739185333251953,7.086344242095947
1711073478031061800,20.791061767578125,0.7381857633590698,5.381458282470703,6.885347366333008
1711073478050021400,20.810021484375,0.6735795736312866,5.61954402923584,6.610172748565674
1711073478068981000,20.82898095703125,0.5407779216766357,6.178267955780029,6.362515449523926
1711073478087940600,20.847940673828123,0.534795880317688,6.5491557121276855,6.21774959564209
1711073478106900500,20.866900390625,0.6783652305603027,6.873383045196533,6.088537216186523
1711073478125859800,20.88585986328125,0.7034898400306702,7.128218650817871,6.145965099334717
1711073478144819700,20.90481982421875,0.6891329288482666,7.070790767669678,6.308676719665527
1711073478163779300,20.923779296875,0.7573283910751343,6.898507595062256,6.421139717102051
1711073478182739000,20.942739013671876,0.7728816866874695,7.058826923370361,6.380461692810059
1711073478201698600,20.961698486328125,0.6544370055198669,7.603193759918213,6.247660160064697
1711073478220658200,20.980658203125,0.6424728631973267,8.142775535583496,6.090929985046387
1711073478239618000,20.9996181640625,0.6795616149902344,8.4562349319458,5.935396671295166
1711073478258577700,21.01857763671875,0.833898663520813,8.461020469665527,5.708078384399414
1711073478277537300,21.037537353515624,0.833898663520813,8.407182693481445,5.467599868774414
1711073478296497000,21.056496826171873,0.6269195079803467,8.338987350463867,5.248656272888184
1711073478315456500,21.07545654296875,0.49172505736351013,7.966903209686279,5.0703911781311035
1711073478334416400,21.09441650390625,0.605384111404419,7.544569969177246,5.015356063842773
1711073478353376000,21.1133759765625,0.8446664214134216,7.519444942474365,5.024927616119385
1711073478372335600,21.132335693359376,0.8482556343078613,7.83410120010376,5.015356063842773
1711073478391295200,21.151295166015625,0.6867401003837585,8.172685623168945,4.851448059082031
1711073478410254800,21.1702548828125,0.6125625967979431,8.109275817871094,4.42193603515625
1711073478429214700,21.189214599609375,0.5934200286865234,8.02193832397461,4.040280818939209
1711073478448174300,21.20817431640625,0.5970092415809631,8.127222061157227,3.762713670730591
1711073478467134000,21.227134033203125,0.6424728631973267,8.23130989074707,3.623929977416992
1711073478486093600,21.246093505859374,0.7968099117279053,8.438288688659668,3.596412420272827
1711073478505053200,21.26505322265625,0.7872386574745178,8.683553695678711,3.4983067512512207
1711073478524013000,21.284012939453124,0.6281159520149231,8.94556713104248,3.322434186935425
1711073478542972700,21.30297265625,0.5587241053581238,9.140582084655762,3.1070802211761475
1711073478561932300,21.321932373046874,0.550349235534668,9.140582084655762,2.9623143672943115
1711073478580892000,21.340891845703126,0.503689169883728,8.98385238647461,2.8761727809906006
1711073478599851500,21.3598515625,0.42352959513664246,8.812766075134277,2.8582265377044678
1711073478618811400,21.378811279296876,0.5276173949241638,8.658429145812988,2.7254250049591064
1711073478637771000,21.39777099609375,0.5084748268127441,8.516056060791016,2.6967110633850098
1711073478656730600,21.416730712890626,0.3924229145050049,8.563912391662598,2.9204399585723877
1711073478675690200,21.435690185546875,0.4989035129547119,8.672785758972168,3.16331148147583
1711073478694649900,21.45464990234375,0.6891329288482666,8.732605934143066,3.3200414180755615
1711073478713609700,21.473609619140625,0.7334001660346985,8.773283958435059,3.5066816806793213
1711073478732569300,21.4925693359375,0.7010970115661621,8.846264839172363,3.744767427444458
1711073478751529000,21.511529052734375,0.7190431952476501,8.842676162719727,4.084548473358154
1711073478770488600,21.530488525390624,0.8602197170257568,8.642875671386719,4.326223373413086
1711073478789448400,21.549448486328124,1.0492527484893799,8.39282512664795,4.561916351318359
1711073478808408000,21.568407958984373,1.0301101207733154,8.079365730285645,4.883750915527344
1711073478827367700,21.58736767578125,0.9702895879745483,7.841279983520508,5.106283664703369
1711073478846327600,21.60632763671875,1.0504491329193115,7.735995769500732,5.167300701141357
1711073478865287200,21.625287109375,1.1353943347930908,7.664210796356201,5.38624382019043
1711073478884246800,21.644246826171877,1.124626636505127,7.494320392608643,5.656632900238037
1711073478903206400,21.663206298828126,1.1114661693572998,7.022934436798096,5.924628734588623
1711073478922166300,21.682166259765626,1.1114661693572998,6.616154670715332,6.141179084777832
1711073478941126000,21.7011259765625,1.0516455173492432,6.557530403137207,6.503692150115967
1711073478960085500,21.72008544921875,1.1186445951461792,6.608976364135742,6.876972198486328
1711073478979045000,21.739045166015625,1.2693923711776733,6.38883638381958,7.2095746994018555
1711073478998004700,21.758004638671874,1.2167502641677856,5.903093338012695,7.2574310302734375
1711073479016964600,21.776964599609375,1.0815558433532715,5.601597785949707,7.386643409729004
1711073479035924200,21.79592431640625,1.0660024881362915,5.449653625488281,7.6977105140686035
1711073479054884000,21.814884033203125,1.3244273662567139,5.185246467590332,7.911868095397949
1711073479073843700,21.83384375,1.4644074440002441,4.810770034790039,7.945367813110352
1711073479092803300,21.85280322265625,1.3232308626174927,4.46979284286499,7.905886173248291
1711073479111763000,21.871762939453124,1.109073281288147,4.048655986785889,8.049455642700195
1711073479130722800,21.890722900390625,1.3184453248977661,3.7674992084503174,8.208578109741211
1711073479149682400,21.909682373046873,1.5864413976669312,3.783052682876587,8.060222625732422
1711073479168642000,21.92864208984375,1.430907964706421,3.783052682876587,8.14636516571045
1711073479187602000,21.947601806640623,1.3076776266098022,3.345165967941284,8.555537223815918
1711073479206561500,21.9665615234375,1.6342978477478027,2.874976396560669,8.997013092041016
1711073479225521200,21.985521240234377,1.7156537771224976,2.833101987838745,9.290133476257324
1711073479244480800,22.004480712890626,1.4620146751403809,2.7014968395233154,9.262616157531738
1711073479263440600,22.023440673828127,1.2538390159606934,1.978864312171936,9.126225471496582
1711073479282400300,22.042400146484376,1.5984054803848267,1.0528420209884644,9.32722282409668
1711073479301359900,22.06135986328125,1.7742780447006226,0.833898663520813,9.80937671661377
1711073479320319700,22.08031982421875,1.9010975360870361,0.8291130661964417,10.066604614257812
1711073479339279400,22.099279296875,2.0195422172546387,0.5240281820297241,10.021141052246094
1711073479358239200,22.1182392578125,2.090130567550659,0.3888336718082428,10.04148006439209
1711073479377198800,22.13719873046875,1.97407865524292,0.4893322288990021,10.431509971618652
1711073479396158500,22.156158447265625,1.903490424156189,0.4331009089946747,10.642078399658203
1711073479415118000,22.1751181640625,2.1619153022766113,-0.2512463629245758,10.430314064025879
1711073479434078000,22.194077880859375,2.2229323387145996,-0.4055834412574768,10.226923942565918
1711073479453037600,22.21303759765625,1.8496519327163696,-0.019142581149935722,10.526026725769043
1711073479471997400,22.23199755859375,1.9489539861679077,-0.015553346835076809,10.596614837646484
1711073479490957000,22.25095703125,2.359323024749756,-0.6640082597732544,9.973284721374512
1711073479509916700,22.269916748046874,2.210968017578125,-1.1473584175109863,9.430113792419434
1711073479528876300,22.288876220703123,1.8963119983673096,-0.9296116232872009,9.402596473693848
1711073479547836200,22.307836181640624,1.7850457429885864,-0.745364248752594,9.930213928222656
1711073479566795800,22.326795654296873,2.280359983444214,-1.4620146751403809,10.063015937805176
1711073479585755600,22.345755615234374,2.465803623199463,-1.828116536140442,9.967302322387695
1711073479604715300,22.36471533203125,2.115255117416382,-1.4883357286453247,9.729216575622559
1711073479623675000,22.3836748046875,1.710868239402771,-1.4009976387023926,9.471988677978516
1711073479642634800,22.402634765625,2.23848557472229,-1.688136339187622,9.038887977600098
1711073479661594400,22.421594482421874,2.7493531703948975,-2.228914260864258,8.668000221252441
1711073479680554000,22.440553955078126,2.7876384258270264,-2.2540390491485596,8.595019340515137
1711073479699513900,22.459513916015624,2.280359983444214,-1.9130617380142212,9.596415519714355
1711073479718473500,22.478473388671876,2.66560435295105,-2.4993033409118652,10.518848419189453
1711073479737433000,22.49743310546875,3.845266103744507,-3.221935749053955,10.688738822937012
1711073479756393000,22.51639306640625,3.373879909515381,-3.3200414180755615,10.37767219543457
1711073479775352600,22.5353525390625,1.9716858863830566,-3.2338998317718506,10.055837631225586
1711073479794312400,22.5543125,1.8891334533691406,-3.8153557777404785,9.186046600341797
1711073479813272000,22.57327197265625,3.4085757732391357,-4.234099864959717,7.795815944671631
1711073479832232000,22.59223193359375,3.436093330383301,-4.651647090911865,7.076773166656494
1711073479851191600,22.611191650390627,1.633101463317871,-4.919643402099609,7.479963779449463
1711073479870151200,22.630151123046875,0.9355936646461487,-5.172086238861084,8.080561637878418
1711073479889110800,22.64911083984375,2.2133610248565674,-5.9676995277404785,8.639286041259766
1711073479908070700,22.668070556640625,3.1716864109039307,-6.515655994415283,9.072386741638184
1711073479927030300,22.6870302734375,2.225325107574463,-6.434299945831299,9.638289451599121
1711073479945990100,22.705990234375,1.5589239597320557,-6.860222339630127,9.369096755981445
1711073479964949800,22.72494970703125,1.6474584341049194,-7.239484786987305,8.517251968383789
1711073479983909400,22.743909423828125,1.5409778356552124,-7.216753005981445,8.116454124450684
1711073480002869200,22.762869140625,1.2323036193847656,-6.849454879760742,8.112865447998047
1711073480021828900,22.781828857421875,0.9511470198631287,-6.747759819030762,8.033902168273926
1711073480040788500,22.80078857421875,0.833898663520813,-6.768098831176758,7.964509963989258
1711073480059748400,22.819748291015625,0.8602197170257568,-6.67717170715332,7.802994728088379
1711073480078708000,22.8387080078125,0.867398202419281,-6.455835342407227,7.710870742797852
1711073480097667800,22.857667724609374,0.8937192559242249,-6.270391941070557,7.732406139373779
1711073480116627500,22.87662744140625,0.9080761671066284,-6.180660724639893,7.824530124664307
1711073480135587000,22.895587158203124,0.9978070259094238,-6.367300987243652,8.003992080688477
1711073480154547000,22.914546875,1.2370892763137817,-6.63769006729126,8.132007598876953
1711073480173506600,22.933506591796874,1.357926845550537,-6.685546398162842,7.904689788818359
1711073480192466200,22.952466064453127,1.207179069519043,-6.574280261993408,7.501499176025391
1711073480211426000,22.971426025390624,1.2215359210968018,-6.429514408111572,7.256234645843506
1711073480230385700,22.9903857421875,1.3256237506866455,-6.439085960388184,7.472784996032715
1711073480249345500,23.009345458984374,1.4715858697891235,-6.751348972320557,8.085348129272461
1711073480268305200,23.02830517578125,1.9334007501602173,-7.263412952423096,8.233702659606934
1711073480287264800,23.0472646484375,1.7647067308425903,-7.136593341827393,7.759923934936523
1711073480306224600,23.066224609375,1.3100703954696655,-6.798008918762207,7.793423175811768
1711073480325184300,23.085184326171873,1.5337992906570435,-7.17368221282959,8.342576026916504
1711073480344144100,23.10414404296875,2.297109842300415,-7.683353424072266,8.733802795410156
1711073480363103700,23.123103759765623,2.6799614429473877,-7.883154392242432,8.780462265014648
1711073480382063400,23.1420634765625,2.262413740158081,-8.126026153564453,8.965906143188477
1711073480401023200,23.161023193359377,1.8915263414382935,-7.7491559982299805,8.963513374328613
1711073480419982800,23.17998291015625,2.3186452388763428,-6.704689025878906,8.9850492477417
1711073480438942500,23.1989423828125,3.1345977783203125,-5.26181697845459,10.084550857543945
1711073480457902300,23.21790234375,2.8594231605529785,-3.0855448246002197,10.846665382385254
1711073480476862000,23.236862060546876,1.8149559497833252,-1.552941918373108,10.137192726135254
1711073480495821800,23.25582177734375,1.4715858697891235,-1.770688772201538,8.775676727294922
1711073480514781400,23.274781494140626,2.3569302558898926,-1.8939191102981567,8.220541954040527
1711073480533741000,23.293740966796875,2.6321048736572266,-1.2083754539489746,9.4121675491333
1711073480552701000,23.312700927734376,2.861815929412842,-2.4095723628997803,10.447063446044922
1711073480571660500,23.33166064453125,2.664407968521118,-2.737389087677002,10.555936813354492
1711073480590620200,23.3506201171875,2.100898265838623,-2.441875457763672,10.197013854980469
1711073480609580000,23.369580078125,1.3411771059036255,-2.053041934967041,9.42772102355957
1711073480628539600,23.38853955078125,1.1078768968582153,-1.9094724655151367,8.645268440246582
1711073480647499500,23.40749951171875,1.9836499691009521,-1.9381862878799438,9.182456970214844
1711073480666459100,23.426459228515625,2.396411895751953,-0.9954141974449158,9.963713645935059
1711073480685418800,23.445418701171874,2.392822742462158,-0.08255238085985184,10.006784439086914
1711073480704378400,23.46437841796875,2.2360928058624268,-0.49651068449020386,9.66819953918457
1711073480723338200,23.483338134765624,2.059023857116699,-1.4165509939193726,9.731609344482422
1711073480742297900,23.5022978515625,1.9010975360870361,-1.038485050201416,9.80817985534668
1711073480761257700,23.5212578125,2.100898265838623,-0.7657032608985901,9.803394317626953
1711073480780217300,23.54021728515625,2.0889341831207275,-0.914058268070221,10.125228881835938
1711073480799177000,23.559177001953124,1.8065811395645142,-1.3878371715545654,10.01874828338623
1711073480818136800,23.57813671875,1.4644074440002441,-0.9966106414794922,9.751948356628418
1711073480837096400,23.597096435546874,1.2885349988937378,-0.07537391036748886,9.518648147583008
1711073480856056300,23.616056396484375,1.3591232299804688,0.7058826684951782,9.562915802001953
1711073480875016000,23.635015869140624,1.6187444925308228,0.7908278703689575,9.674181938171387
1711073480893975600,23.6539755859375,1.6510475873947144,0.6927221417427063,9.603593826293945
1711073480912935400,23.672935302734373,1.4033905267715454,1.1353943347930908,9.485149383544922
1711073480931895000,23.69189501953125,1.1724830865859985,1.923829436302185,9.302098274230957
1711073480950854700,23.710854736328123,1.2957134246826172,2.7804598808288574,9.129815101623535
1711073480969814500,23.729814453125,1.5050854682922363,3.3690943717956543,9.111868858337402
1711073480988774100,23.748774169921877,1.3316057920455933,3.4887354373931885,9.236295700073242
1711073481007733800,23.767733642578126,1.2011969089508057,3.59043025970459,9.309276580810547
1711073481026693600,23.786693603515626,1.1868400573730469,4.048655986785889,9.364311218261719
1711073481045653200,23.8056533203125,1.2442678213119507,4.548755645751953,8.896514892578125
1711073481064612900,23.82461279296875,0.9858429431915283,4.680361270904541,8.123632431030273
1711073481083572700,23.84357275390625,0.7896314859390259,4.649254322052002,7.513463020324707
1711073481102532400,23.862532470703126,0.6005984544754028,5.138586521148682,7.276573657989502
1711073481121492000,23.881491943359375,0.625723123550415,5.595615863800049,7.0648088455200195
1711073481140451800,23.900451904296876,0.8446664214134216,6.177071571350098,6.812366008758545
1711073481159411500,23.919411376953125,0.8015955686569214,6.522834300994873,6.4319071769714355
1711073481178371000,23.93837109375,0.6376872062683105,6.409175395965576,5.9509501457214355
1711073481197331000,23.9573310546875,0.5084748268127441,6.068198204040527,5.459224700927734
1711073481216290600,23.97629052734375,0.40677985548973083,5.898307800292969,5.017749309539795
1711073481235250200,23.995250244140625,0.30149564146995544,6.0741801261901855,4.938786029815674
1711073481254210000,24.0142099609375,0.4103690981864929,6.427121639251709,4.977071285247803
1711073481273169700,24.033169677734374,0.5419743061065674,6.850651264190674,4.951946258544922
1711073481292129500,24.052129638671875,0.6209374666213989,7.247859954833984,4.981856822967529
1711073481311089200,24.071089111328124,0.625723123550415,7.609176158905029,5.089533805847168
1711073481330048800,24.090048828125,0.6604190468788147,8.030312538146973,5.373083114624023
1711073481349008400,24.10900830078125,0.7154539823532104,8.421539306640625,5.686542987823486
1711073481367968300,24.12796826171875,0.7860422134399414,8.614161491394043,5.85284423828125
1711073481386927900,24.146927978515624,0.8590233325958252,8.531609535217285,6.099305152893066
1711073481405887700,24.1658876953125,0.763310432434082,8.080561637878418,6.406782627105713
1711073481424847400,24.184847412109374,0.7621139883995056,7.654639720916748,6.498906135559082
1711073481443807000,24.203806884765626,0.9906286001205444,7.8664045333862305,6.256034851074219
1711073481462766600,24.2227666015625,1.0887342691421509,8.21695327758789,5.718846321105957
1711073481481726500,24.2417265625,0.97148597240448,8.34018325805664,5.108676433563232
1711073481500686000,24.26068603515625,0.6640082597732544,8.474181175231934,4.711467742919922
1711073481519645700,24.279645751953126,0.623330295085907,8.50289535522461,4.382454872131348
1711073481538605600,24.29860546875,0.6329016089439392,8.210970878601074,4.232903480529785
1711073481557565200,24.317565185546876,0.5168496966362,8.019545555114746,4.320241451263428
1711073481576525000,24.336525146484377,0.48813581466674805,7.936992645263672,4.3310089111328125
1711073481595484700,24.355484619140626,0.5288137793540955,7.995616912841797,4.199403762817383
1711073481614444300,24.3744443359375,0.6496513485908508,8.24686336517334,3.893122434616089
1711073481633404000,24.39340380859375,0.7645068168640137,8.542376518249512,3.2721848487854004
1711073481652363800,24.41236376953125,0.6101697683334351,8.73619556427002,2.706282377243042
1711073481671323400,24.431323486328125,0.4833501875400543,8.834300994873047,2.3234307765960693
1711073481690283000,24.450282958984374,0.5144568681716919,8.766105651855469,2.317448616027832
1711073481709243000,24.469242919921875,0.47976094484329224,8.732605934143066,2.5052852630615234
1711073481728202500,24.488202392578124,0.5479564070701599,8.766105651855469,2.7146573066711426
1711073481747162000,24.507162109375,0.6699903607368469,8.876175880432129,2.9180471897125244
