time,seconds_elapsed,z,y,x
1710955508513913600,0.10691357421875,0.005803215317428112,-0.007024944759905338,-0.007330377586185932
1710955508532874000,0.1258740234375,0.000610864779446274,-0.006108647678047419,-0.001221729558892548
1710955508551834600,0.144834716796875,-0.011911863461136818,-0.000610864779446274,0.0009162971982732415
1710955508570795300,0.163795166015625,-0.017104214057326317,0,0.0027488914784044027
1710955508589756000,0.182755859375,-0.01802051067352295,0.0009162971982732415,-0.000305432389723137
1710955508608716500,0.201716552734375,-0.00946840364485979,0.0030543238390237093,-0.007330377586185932
1710955508627677200,0.22067724609375,0.001221729558892548,-0.002443459117785096,-0.020769402384757996
1710955508646637800,0.239637939453125,-0.003359756199643016,0.005803215317428112,-0.025350889191031456
1710955508665598500,0.258598388671875,-0.012217295356094837,0.009773836471140385,-0.024434590712189674
1710955508684558800,0.277558837890625,-0.011911863461136818,0.0030543238390237093,-0.021380268037319183
1710955508703519500,0.29651953125,-0.009773836471140385,-0.003665188793092966,-0.02107483521103859
1710955508722480000,0.315480224609375,-0.014966187067329884,-0.008857538923621178,-0.02107483521103859
1710955508741440800,0.334440673828125,-0.02260199747979641,-0.007941242307424545,-0.013744457624852657
1710955508760401400,0.3534013671875,-0.023212861269712448,0.002443459117785096,-0.004581485874950886
1710955508779361800,0.37236181640625,-0.01435532234609127,0.004276053514331579,-0.005803215317428112
1710955508798322400,0.391322509765625,0,0.002443459117785096,-0.014049889519810677
1710955508817283000,0.410282958984375,0.008246674202382565,0.003970621153712273,-0.020158538594841957
1710955508836243700,0.42924365234375,0.010995565913617611,0.006719512399286032,-0.021991131827235222
1710955508855204400,0.448204345703125,0.010079269297420979,0.010690134018659592,-0.024434590712189674
1710955508874165000,0.4671650390625,0.004276053514331579,0.023823726922273636,-0.024434590712189674
1710955508893125600,0.486125732421875,-0.0015271619195118546,0.03329212963581085,-0.019242240116000175
1710955508912086300,0.505086181640625,-0.003665188793092966,0.03329212963581085,-0.010079269297420979
1710955508931046700,0.524046630859375,-0.003970621153712273,0.019853105768561363,-0.004581485874950886
1710955508950007300,0.54300732421875,-0.005192350596189499,0.002443459117785096,-0.008246674202382565
1710955508968968000,0.561968017578125,-0.010995565913617611,-0.0027488914784044027,-0.010690134018659592
1710955508987928600,0.580928466796875,-0.013439024798572063,0.0027488914784044027,-0.010384701192378998
1710955509006889200,0.59988916015625,-0.010079269297420979,0.01282816007733345,-0.012522728182375431
1710955509025849900,0.618849853515625,-0.007024944759905338,0.016798781231045723,-0.017715077847242355
1710955509044810200,0.637810302734375,-0.0054977829568088055,0.013744457624852657,-0.01802051067352295
1710955509063771000,0.65677099609375,-0.0054977829568088055,0.007330377586185932,-0.013439024798572063
1710955509082731500,0.6757314453125,-0.007635809946805239,0.003970621153712273,-0.004581485874950886
1710955509101692200,0.694692138671875,-0.00946840364485979,0.000610864779446274,-0.005803215317428112
1710955509120652800,0.71365283203125,-0.011606430634856224,-0.003359756199643016,-0.015577051788568497
1710955509139613400,0.732613525390625,-0.013439024798572063,-0.003970621153712273,-0.020158538594841957
1710955509158574000,0.751573974609375,-0.008552107028663158,0.000610864779446274,-0.023518294095993042
1710955509177534500,0.770534423828125,-0.008857538923621178,0.013133592903614044,-0.02626718580722809
1710955509196495000,0.7894951171875,-0.014660755172371864,0.03237583488225937,-0.025045456364750862
1710955509215455700,0.808455810546875,-0.018631376326084137,0.035124726593494415,-0.01740964688360691
1710955509234416400,0.82741650390625,-0.013439024798572063,0.018631376326084137,-0.008552107028663158
1710955509253377000,0.846376953125,-0.012522728182375431,0.0027488914784044027,-0.010384701192378998
1710955509272337700,0.865337646484375,-0.018325943499803543,-0.007635809946805239,-0.018325943499803543
1710955509291298300,0.88429833984375,-0.01588248461484909,-0.005192350596189499,-0.022907428443431854
1710955509310258700,0.9032587890625,-0.0054977829568088055,0.010079269297420979,-0.023518294095993042
1710955509329219300,0.92221923828125,0.004886918235570192,0.03451386094093323,-0.021380268037319183
1710955509348180000,0.941179931640625,0.011300998739898205,0.05711585655808449,-0.0204639695584774
1710955509367140600,0.960140625,0.014049889519810677,0.0717766135931015,-0.02412915788590908
1710955509386101200,0.979101318359375,0.016798781231045723,0.07238747924566269,-0.0256563201546669
1710955509405062000,0.998061767578125,0.025045456364750862,0.08277218043804169,-0.02932151034474373
1710955509424022300,1.017022216796875,0.037262752652168274,0.10170898586511612,-0.03237583488225937
1710955509442983000,1.03598291015625,0.05528326332569122,0.1285870373249054,-0.035124726593494415
1710955509461943600,1.054943603515625,0.07880155742168427,0.16798780858516693,-0.037262752652168274
1710955509480904200,1.073904296875,0.11148282140493393,0.21838416159152985,-0.03787361457943916
1710955509499864800,1.09286474609375,0.17623448371887207,0.2623664140701294,-0.036651886999607086
1710955509518825500,1.111825439453125,0.24831652641296387,0.2571740746498108,-0.03909534588456154
1710955509537786000,1.1307861328125,0.3072649836540222,0.13469567894935608,-0.044898562133312225
1710955509556746500,1.14974658203125,0.40255987644195557,-0.0204639695584774,-0.05283980444073677
1710955509575707100,1.16870703125,0.546113133430481,-0.12431098520755768,-0.08399390429258347
1710955509594667800,1.187667724609375,0.6487383842468262,-0.129197895526886,-0.11545344442129135
1710955509613628400,1.20662841796875,0.6560688018798828,-0.09468404203653336,-0.11728604137897491
1710955509632589000,1.225589111328125,0.6224712133407593,-0.05833758786320686,-0.10903936624526978
1710955509651549700,1.2445498046875,0.5836812853813171,0.011300998739898205,-0.11423171311616898
1710955509670510300,1.26351025390625,0.5485565662384033,0.09315688163042068,-0.11911863088607788
1710955509689470700,1.282470703125,0.528092622756958,0.12644900381565094,-0.13622283935546875
1710955509708431400,1.301431396484375,0.5195404887199402,0.11942406743764877,-0.16157373785972595
1710955509727392000,1.32039208984375,0.4926624298095703,0.08338304609060287,-0.16676609218120575
1710955509746352600,1.3393525390625,0.46059203147888184,0.008246674202382565,-0.16707152128219604
1710955509765313300,1.358313232421875,0.4419606626033783,-0.060781046748161316,-0.16798780858516693
1710955509784274000,1.37727392578125,0.41844236850738525,-0.0821613147854805,-0.15607595443725586
1710955509803234300,1.396234375,0.39828383922576904,-0.09407317638397217,-0.14049890637397766
1710955509822195000,1.41519482421875,0.40744680166244507,-0.10384701192378998,-0.1383608728647232
1710955509841155600,1.434155517578125,0.4312705397605896,-0.08979712426662445,-0.13775001466274261
1710955509860116200,1.4531162109375,0.43401941657066345,-0.05253437161445618,-0.12431098520755768
1710955509879076900,1.472076904296875,0.4046979248523712,-0.03298669680953026,-0.10659590363502502
1710955509898037500,1.49103759765625,0.3695732057094574,-0.05894844979047775,-0.10934479534626007
1710955509916998100,1.509998046875,0.31184646487236023,-0.11148282140493393,-0.10079269111156464
1710955509935958500,1.52895849609375,0.2516762912273407,-0.21868959069252014,-0.0717766135931015
1710955509954919200,1.547919189453125,0.30024003982543945,-0.39278605580329895,-0.06475166976451874
1710955509973879800,1.5668798828125,0.43493571877479553,-0.6325504779815674,-0.11545344442129135
1710955509992840200,1.585840087890625,0.5790998339653015,-0.9123265743255615,-0.19608759880065918
1710955510011800800,1.60480078125,0.7333431839942932,-1.1462877988815308,-0.26480987668037415
1710955510030761500,1.623761474609375,0.9199623465538025,-1.2107340097427368,-0.3026835024356842
1710955510049722000,1.64272216796875,1.1239912509918213,-1.0638209581375122,-0.31459537148475647
1710955510068682800,1.661682861328125,1.3289363384246826,-0.7797688841819763,-0.3176496922969818
1710955510087643400,1.680643310546875,1.5280781984329224,-0.4862483739852905,-0.31520622968673706
1710955510106603800,1.699603759765625,1.7033964395523071,-0.25411975383758545,-0.2834412455558777
1710955510125564400,1.718564453125,1.8283182382583618,-0.07757982611656189,-0.21777328848838806
1710955510144525000,1.737525146484375,1.878714680671692,0.003970621153712273,-0.1637117564678192
1710955510163485700,1.756485595703125,1.9294164180755615,-0.023823726922273636,-0.10629047453403473
1710955510182446300,1.7754462890625,2.0152428150177,-0.08002328872680664,-0.01588248461484909
1710955510201407000,1.794406982421875,2.0744967460632324,-0.12705987691879272,0.08979712426662445
1710955510220367400,1.813367431640625,2.089462995529175,-0.16768237948417664,0.1905898153781891
1710955510239328000,1.832327880859375,2.019824504852295,-0.17623448371887207,0.2971857190132141
1710955510258288600,1.85128857421875,1.8588615655899048,-0.11514800786972046,0.4001164436340332
1710955510277249300,1.870249267578125,1.6862921714782715,-0.051618073135614395,0.4825831651687622
1710955510296210000,1.8892099609375,1.5143338441848755,-0.0027488914784044027,0.5543597936630249
1710955510315170300,1.90817041015625,1.3597849607467651,0.0665842592716217,0.6038398146629333
1710955510334131000,1.927130859375,1.2455532550811768,0.20372340083122253,0.6209440231323242
1710955510353091600,1.946091552734375,1.1297943592071533,0.3277289569377899,0.61117023229599
1710955510372052200,1.96505224609375,1.0503820180892944,0.3814850449562073,0.5677987933158875
1710955510391012600,1.9840126953125,0.9868520498275757,0.41416633129119873,0.5106829404830933
1710955510409973200,2.00297314453125,0.8991929292678833,0.4150826036930084,0.4630354940891266
1710955510428934000,2.021933837890625,0.7822123765945435,0.30146175622940063,0.462424635887146
1710955510447894500,2.04089453125,0.7272345423698425,0.0925460159778595,0.4917461574077606
1710955510466855200,2.059855224609375,0.8216131329536438,-0.11392628401517868,0.4248564541339874
1710955510485815600,2.078815673828125,0.8894191384315491,-0.3344484567642212,0.31673339009284973
1710955510504776200,2.097776123046875,0.8188642263412476,-0.5262600183486938,0.272751122713089
1710955510523736800,2.11673681640625,0.7238747477531433,-0.6017017960548401,0.24862197041511536
1710955510542697500,2.135697509765625,0.6646208763122559,-0.5326740741729736,0.21502439677715302
1710955510561657900,2.154657958984375,0.5836812853813171,-0.34116798639297485,0.18417572975158691
1710955510580618500,2.173618408203125,0.5146535634994507,-0.1334739476442337,0.15057817101478577
1710955510599579100,2.1925791015625,0.5051851868629456,0.015271619893610477,0.13194678723812103
1710955510618539800,2.211539794921875,0.4822777509689331,0.0717766135931015,0.1029307171702385
1710955510637500400,2.23050048828125,0.411722868680954,0.06566796451807022,0.05406153202056885
1710955510656460800,2.249460693359375,0.33017241954803467,0.03145953640341759,0.024740023538470268
1710955510675421400,2.26842138671875,0.2684750556945801,0.004886918235570192,0.021685699000954628
1710955510694382000,2.287382080078125,0.23457208275794983,-0.017104214057326317,0.022296564653515816
1710955510713342700,2.3063427734375,0.2214384824037552,-0.03909534588456154,0.006414080038666725
1710955510732303000,2.32530322265625,0.2052505612373352,-0.039706211537122726,-0.0256563201546669
1710955510751263700,2.344263671875,0.18845178186893463,-0.022907428443431854,-0.04734202101826668
1710955510770224400,2.363224365234375,0.16126830875873566,-0.004581485874950886,-0.03787361457943916
1710955510789185000,2.38218505859375,0.13622283935546875,0.011300998739898205,-0.024434590712189674
1710955510808145400,2.4011455078125,0.1078176349401474,0.039706211537122726,-0.003970621153712273
1710955510827106000,2.42010595703125,0.09957095980644226,0.05528326332569122,0.02260199747979641
1710955510846066700,2.439066650390625,0.11728604137897491,0.0461202897131443,0.034208428114652634
1710955510865027000,2.458027099609375,0.1444695144891739,0.015577051788568497,0.02932151034474373
1710955510883987700,2.47698779296875,0.14721840620040894,-0.011300998739898205,0.026878049597144127
1710955510902948400,2.4959482421875,0.13775001466274261,-0.011911863461136818,0.036651886999607086
1710955510921908700,2.51490869140625,0.1386663019657135,0.018631376326084137,0.03940077871084213
1710955510940869400,2.533869384765625,0.13255766034126282,0.05864302068948746,0.025045456364750862
1710955510959830000,2.552830078125,0.10567960888147354,0.09162971377372742,0.008857538923621178
1710955510978790700,2.571790771484375,0.07269290834665298,0.14508038759231567,0.011606430634856224
1710955510997751000,2.5907509765625,0.05955931544303894,0.16310089826583862,0.0360410213470459
1710955511016711700,2.609711669921875,0.09071341902017593,0.11056652665138245,0.035735588520765305
1710955511035672300,2.62867236328125,0.11667517572641373,-0.02779434807598591,0.003970621153712273
1710955511054632700,2.6476328125,0.10995566099882126,-0.20830489695072174,-0.010995565913617611
1710955511073593300,2.66659326171875,0.09132428467273712,-0.3274235129356384,0.020769402384757996
1710955511092554000,2.685553955078125,0.09529490768909454,-0.3430005609989166,0.05070177838206291
1710955511111514600,2.7045146484375,0.10079269111156464,-0.2629773020744324,0.06383536756038666
1710955511130475000,2.72347509765625,0.11239911615848541,-0.1337793916463852,0.054672397673130035
1710955511149435600,2.742435546875,0.14294235408306122,-0.01649334840476513,0.029932374134659767
1710955511168396300,2.761396240234375,0.1646280586719513,0.06505709886550903,0.010384701192378998
1710955511187356700,2.780356689453125,0.16676609218120575,0.13103049993515015,0.00946840364485979
1710955511206317300,2.7993173828125,0.17043127119541168,0.1649334877729416,0.016187917441129684
1710955511225278000,2.81827783203125,0.18356487154960632,0.14477495849132538,0.021380268037319183
1710955511244238300,2.83723828125,0.20372340083122253,0.09468404203653336,0.01740964688360691
1710955511263199000,2.856198974609375,0.2153298407793045,0.030543239787220955,0.011300998739898205
1710955511282159600,2.87515966796875,0.20708316564559937,-0.035735588520765305,0.009162971749901772
1710955511301120000,2.8941201171875,0.18845178186893463,-0.07116574794054031,0.014966187067329884
1710955511320080600,2.91308056640625,0.17256930470466614,-0.06597339361906052,0.018631376326084137
1710955511339041300,2.932041259765625,0.15485422313213348,-0.05253437161445618,0.016187917441129684
1710955511358001700,2.951001708984375,0.1380554437637329,-0.031154103577136993,0.00946840364485979
1710955511376962300,2.96996240234375,0.1230892539024353,-0.016187917441129684,0.005192350596189499
1710955511395923000,2.9889228515625,0.12247838824987411,-0.023212861269712448,0.008552107028663158
1710955511414883300,3.00788330078125,0.12003492563962936,-0.04428769648075104,0.01802051067352295
1710955511433844000,3.026843994140625,0.10751219838857651,-0.07055488228797913,0.016187917441129684
1710955511452804600,3.0458046875,0.09498947113752365,-0.08002328872680664,0.003970621153712273
1710955511471765000,3.064764892578125,0.07757982611656189,-0.07849612087011337,0.008246674202382565
1710955511490725600,3.0837255859375,0.061391908675432205,-0.05253437161445618,0.011911863461136818
1710955511509686300,3.102686279296875,0.05955931544303894,-0.009773836471140385,0.0027488914784044027
1710955511528646700,3.121646728515625,0.053756099194288254,0.010079269297420979,-0.007941242307424545
1710955511547607300,3.140607177734375,0.03634645417332649,0.0027488914784044027,-0.018325943499803543
1710955511566568000,3.15956787109375,0.025350889191031456,-0.008552107028663158,-0.03329212963581085
1710955511585528300,3.1785283203125,0.015577051788568497,-0.007941242307424545,-0.04428769648075104
1710955511604489000,3.197489013671875,-0.0009162971982732415,-0.0009162971982732415,-0.047036588191986084
1710955511623449600,3.21644970703125,-0.021685699000954628,-0.011606430634856224,-0.047952886670827866
1710955511642410000,3.235409912109375,-0.03237583488225937,-0.034208428114652634,-0.041844237595796585
1710955511661370600,3.25437060546875,-0.03756818547844887,-0.07941242307424545,-0.037262752652168274
1710955511680331000,3.2733310546875,-0.041844237595796585,-0.11667517572641373,-0.044898562133312225
1710955511699291600,3.292291748046875,-0.044898562133312225,-0.11575887352228165,-0.04917461425065994
1710955511718252300,3.311252197265625,-0.03695731982588768,-0.06566796451807022,-0.06047561392188072
1710955511737212700,3.330212646484375,-0.03390299528837204,0.031154103577136993,-0.06872228533029556
1710955511756173300,3.34917333984375,-0.0513126403093338,0.12431098520755768,-0.07147117704153061
1710955511775133700,3.3681337890625,-0.06750056147575378,0.15271618962287903,-0.0720820426940918
1710955511794094300,3.38709423828125,-0.05742128938436508,0.0821613147854805,-0.08674279600381851
1710955511813055000,3.406054931640625,-0.03481929376721382,-0.040317077189683914,-0.10690133273601532
1710955511832015400,3.425015380859375,-0.021991131827235222,-0.10690133273601532,-0.11026109009981155
1710955511850976000,3.44397607421875,-0.018631376326084137,-0.09957095980644226,-0.11209368705749512
1710955511869936400,3.462936279296875,-0.014966187067329884,-0.06047561392188072,-0.11209368705749512
1710955511888897000,3.48189697265625,-0.016798781231045723,-0.029016077518463135,-0.10506874322891235
1710955511907857400,3.500857421875,-0.016798781231045723,-0.026878049597144127,-0.10445787757635117
1710955511926818000,3.519818115234375,0,-0.025045456364750862,-0.1078176349401474
1710955511945778400,3.5387783203125,0.02260199747979641,0.000610864779446274,-0.10018182545900345
1710955511964739000,3.557739013671875,0.029932374134659767,0.038789913058280945,-0.09162971377372742
1710955511983699700,3.57669970703125,0.024434590712189674,0.06505709886550903,-0.08093958348035812
1710955512002660000,3.59566015625,0.01802051067352295,0.07788526266813278,-0.06841685622930527
1710955512021620700,3.614620849609375,0.013133592903614044,0.07116574794054031,-0.05864302068948746
1710955512040581400,3.633581298828125,0.006719512399286032,0.029626941308379173,-0.04886918142437935
1710955512059541800,3.652541748046875,0.020158538594841957,-0.026878049597144127,-0.049480047076940536
1710955512078502400,3.67150244140625,0.04001164436340332,-0.08032871782779694,-0.05283980444073677
1710955512097462800,3.690462890625,0.04428769648075104,-0.08796452730894089,-0.05436696484684944
1710955512116423400,3.70942333984375,0.03543015569448471,-0.04886918142437935,-0.05833758786320686
1710955512135383800,3.7283837890625,0.01740964688360691,0.023823726922273636,-0.06291907280683517
1710955512154344400,3.747344482421875,-0.005192350596189499,0.0977383628487587,-0.06017018109560013
1710955512173304800,3.766304931640625,-0.018631376326084137,0.1285870373249054,-0.05436696484684944
1710955512192265200,3.78526513671875,-0.023212861269712448,0.1081230640411377,-0.0513126403093338
1710955512211225900,3.804225830078125,-0.01802051067352295,0.04764745384454727,-0.047952886670827866
1710955512230186200,3.823186279296875,-0.01802051067352295,-0.02718348242342472,-0.04673115536570549
1710955512249147000,3.84214697265625,-0.028405211865901947,-0.08796452730894089,-0.050090912729501724
1710955512268107500,3.861107421875,-0.047036588191986084,-0.10965022444725037,-0.059864748269319534
1710955512287068000,3.88006787109375,-0.06597339361906052,-0.10231985151767731,-0.06566796451807022
1710955512306028500,3.899028564453125,-0.07910698652267456,-0.0873536616563797,-0.0821613147854805
1710955512324989000,3.917989013671875,-0.08674279600381851,-0.06627883017063141,-0.09132428467273712
1710955512343949600,3.936949462890625,-0.0821613147854805,-0.035735588520765305,-0.10079269111156464
1710955512362910000,3.955909912109375,-0.07360920310020447,0.026572618633508682,-0.11453714966773987
1710955512381870600,3.97487060546875,-0.07880155742168427,0.10629047453403473,-0.12156209349632263
1710955512400831000,3.9938310546875,-0.08643736690282822,0.16310089826583862,-0.13194678723812103
1710955512419791400,4.012791259765625,-0.08979712426662445,0.18631376326084137,-0.1438586562871933
1710955512438752000,4.031751953125,-0.08399390429258347,0.18173226714134216,-0.14630211889743805
1710955512457712400,4.05071240234375,-0.07483093440532684,0.164322629570961,-0.15210533142089844
1710955512476673000,4.069673095703125,-0.05803215503692627,0.13683371245861053,-0.1484401375055313
1710955512495633700,4.088633544921875,-0.03634645417332649,0.11545344442129135,-0.1340848207473755
1710955512514594000,4.107593994140625,-0.023212861269712448,0.09987638890743256,-0.12064579129219055
1710955512533554400,4.126554443359375,-0.023212861269712448,0.06902772188186646,-0.11087195575237274
1710955512552515000,4.14551513671875,-0.03298669680953026,0.0308486707508564,-0.09804379940032959
1710955512571475500,4.164475341796875,-0.04214967042207718,0.023212861269712448,-0.08063415437936783
1710955512590435800,4.183435791015625,-0.03481929376721382,0.04550942778587341,-0.07635809481143951
1710955512609396500,4.202396484375,-0.021991131827235222,0.07910698652267456,-0.08002328872680664
1710955512628356900,4.22135693359375,-0.026572618633508682,0.10873392969369888,-0.07941242307424545
1710955512647317500,4.2403173828125,-0.03329212963581085,0.1282816082239151,-0.07574722915887833
1710955512666278000,4.25927783203125,-0.03634645417332649,0.1386663019657135,-0.06719512492418289
1710955512685238500,4.278238525390625,-0.03848448023200035,0.14233149588108063,-0.05955931544303894
1710955512704199000,4.297198974609375,-0.03329212963581085,0.12950333952903748,-0.05192350596189499
1710955512723159600,4.31615966796875,-0.025350889191031456,0.10323614627122879,-0.03787361457943916
1710955512742120000,4.335119873046875,-0.017715077847242355,0.0668896958231926,-0.02779434807598591
1710955512761080300,4.354080322265625,-0.008552107028663158,0.024434590712189674,-0.02260199747979641
1710955512780041000,4.373041015625,-0.005192350596189499,-0.0021380267571657896,-0.014966187067329884
1710955512799001300,4.39200146484375,-0.01802051067352295,-0.003359756199643016,-0.003359756199643016
1710955512817962000,4.4109619140625,-0.03909534588456154,-0.017715077847242355,-0.003970621153712273
1710955512836922400,4.42992236328125,-0.053145237267017365,-0.03543015569448471,-0.002443459117785096
1710955512855882800,4.4488828125,-0.06780599057674408,-0.03787361457943916,0.000305432389723137
1710955512874843400,4.467843505859375,-0.08307760953903198,-0.03390299528837204,-0.014049889519810677
1710955512893803800,4.4868037109375,-0.1127045527100563,-0.039706211537122726,-0.036651886999607086
1710955512912764200,4.50576416015625,-0.1594357043504715,-0.047036588191986084,-0.047036588191986084
1710955512931724800,4.524724853515625,-0.21930044889450073,-0.0461202897131443,-0.0513126403093338
1710955512950685200,4.543685302734375,-0.28985533118247986,-0.03237583488225937,-0.05955931544303894
1710955512969645800,4.562645751953125,-0.3646862804889679,0,-0.06750056147575378
1710955512988606200,4.581606201171875,-0.4535670876502991,0.022907428443431854,-0.07269290834665298
1710955513007566600,4.600566650390625,-0.5745183229446411,0.05528326332569122,-0.07605266571044922
1710955513026527000,4.61952685546875,-0.7031053900718689,0.11026109009981155,-0.09376774728298187
1710955513045487600,4.638487548828125,-0.8185588121414185,0.17684535682201385,-0.11148282140493393
1710955513064448000,4.657447998046875,-0.94439697265625,0.22388194501399994,-0.12034036219120026
1710955513083408600,4.67640869140625,-1.099556565284729,0.2263254076242447,-0.1386663019657135
1710955513102369000,4.695369140625,-1.2712095975875854,0.19822561740875244,-0.15546508133411407
1710955513121329400,4.714329345703125,-1.4413354396820068,0.1487455666065216,-0.1646280586719513
1710955513140289800,4.733289794921875,-1.6160427331924438,0.09040798991918564,-0.16279546916484833
1710955513159250400,4.75225048828125,-1.7974696159362793,0.0360410213470459,-0.1493564397096634
1710955513178210800,4.7712109375,-1.9764529466629028,-0.004581485874950886,-0.12644900381565094
1710955513197171500,4.79017138671875,-2.1282529830932617,-0.05222893878817558,-0.12095122784376144
1710955513216131800,4.8091318359375,-2.2305727005004883,-0.12644900381565094,-0.1545487940311432
1710955513235092200,4.82809228515625,-2.2733333110809326,-0.20708316564559937,-0.2214384824037552
1710955513254052600,4.847052490234375,-2.2568399906158447,-0.24892739951610565,-0.2660316228866577
1710955513273013200,4.86601318359375,-2.188117742538452,-0.2110537886619568,-0.24770566821098328
1710955513291973600,4.8849736328125,-2.118173599243164,-0.08032871782779694,-0.21868959069252014
1710955513310934000,4.90393408203125,-2.0576980113983154,0.09834922850131989,-0.20799945294857025
1710955513329894400,4.922894287109375,-2.0195188522338867,0.2938259541988373,-0.20616686344146729
1710955513348855000,4.94185498046875,-2.0189080238342285,0.48991355299949646,-0.20311254262924194
1710955513367815400,4.9608154296875,-2.0097451210021973,0.6502655744552612,-0.16707152128219604
1710955513386775800,4.97977587890625,-1.9660682678222656,0.7513636946678162,-0.08979712426662445
1710955513405736400,4.998736328125,-1.9575161933898926,0.7980948090553284,0.006719512399286032
1710955513424696800,5.01769677734375,-1.9486587047576904,0.6960803866386414,0.07483093440532684
1710955513443657200,5.0366572265625,-1.851225733757019,0.44990190863609314,0.13988803327083588
1710955513462617600,5.05561767578125,-1.7070616483688354,0.18600831925868988,0.22999058663845062
1710955513481578200,5.074578125,-1.573282241821289,-0.050090912729501724,0.3032943606376648
1710955513500538600,5.09353857421875,-1.4272855520248413,-0.24404047429561615,0.34086254239082336
1710955513519499000,5.1124990234375,-1.268460750579834,-0.3066541254520416,0.3588830530643463
1710955513538459400,5.13145947265625,-1.1643083095550537,-0.16340632736682892,0.3894262909889221
1710955513557419800,5.150419677734375,-1.1264346837997437,0.1328630894422531,0.401949018239975
1710955513576380400,5.16938037109375,-1.1126902103424072,0.45051276683807373,0.4050033390522003
1710955513595340800,5.1883408203125,-1.091004490852356,0.6343830823898315,0.3854556679725647
1710955513614301200,5.20730126953125,-1.0458004474639893,0.5797106623649597,0.37293294072151184
1710955513633261600,5.226261474609375,-0.9483675956726074,0.3130682110786438,0.3848448097705841
1710955513652222200,5.24522216796875,-0.8124501705169678,-0.14508038759231567,0.3335321843624115
1710955513671182600,5.2641826171875,-0.6157516837120056,-0.6597339510917664,0.2315177470445633
1710955513690143000,5.28314306640625,-0.4224129915237427,-0.8194751143455505,0.12400554865598679
1710955513709103400,5.302103271484375,-0.3182605504989624,-0.6963858604431152,0.024434590712189674
1710955513728063700,5.321063720703125,-0.26878049969673157,-0.4410443603992462,-0.05070177838206291
1710955513747024400,5.3400244140625,-0.21502439677715302,-0.1127045527100563,-0.10354158282279968
1710955513765984800,5.35898486328125,-0.17653992772102356,0.22479823231697083,-0.1130099818110466
1710955513784945200,5.377945068359375,-0.18387030065059662,0.3857611119747162,-0.07147117704153061
1710955513803905500,5.396905517578125,-0.19425499439239502,0.3787361681461334,-0.00946840364485979
1710955513822866000,5.415865966796875,-0.15577052533626556,0.25320345163345337,0.026878049597144127
1710955513841826300,5.434826416015625,-0.057726722210645676,0.10170898586511612,0.022296564653515816
1710955513860786700,5.45378662109375,0.019853105768561363,0.10995566099882126,0.018325943499803543
1710955513879747000,5.4727470703125,0.038789913058280945,0.17867794632911682,0.0256563201546669
1710955513898707700,5.491707763671875,0.021380268037319183,0.22296564280986786,0.021685699000954628
1710955513917668000,5.510668212890625,-0.006719512399286032,0.23182319104671478,0.000610864779446274
1710955513936628500,5.52962841796875,-0.022907428443431854,0.18570289015769958,-0.019242240116000175
1710955513955588900,5.5485888671875,-0.01954767294228077,0.11148282140493393,-0.021380268037319183
1710955513974549200,5.56754931640625,-0.005192350596189499,0.028405211865901947,-0.02260199747979641
1710955513993509600,5.586509521484375,0.0015271619195118546,-0.04306596517562866,-0.03390299528837204
1710955514012470000,5.605469970703125,-0.015577051788568497,-0.09896009415388107,-0.047952886670827866
1710955514031430400,5.624430419921875,-0.04306596517562866,-0.13133592903614044,-0.047952886670827866
1710955514050391000,5.64339111328125,-0.06017018109560013,-0.13561198115348816,-0.034208428114652634
1710955514069351400,5.662351318359375,-0.06383536756038666,-0.11026109009981155,-0.01802051067352295
1710955514088311800,5.681311767578125,-0.06597339361906052,-0.09040798991918564,-0.007330377586185932
1710955514107272200,5.700272216796875,-0.07147117704153061,-0.08857539296150208,0.002443459117785096
1710955514126232600,5.719232666015625,-0.0665842592716217,-0.08093958348035812,0.010384701192378998
1710955514145193000,5.73819287109375,-0.054672397673130035,-0.06872228533029556,0.009162971749901772
1710955514164153300,5.7571533203125,-0.05070177838206291,-0.03695731982588768,-0.0030543238390237093
1710955514183114000,5.776114013671875,-0.04764745384454727,-0.0204639695584774,-0.014049889519810677
1710955514202074400,5.795074462890625,-0.03848448023200035,-0.013133592903614044,-0.01893680728971958
1710955514221034500,5.814034423828125,-0.043982263654470444,-0.017715077847242355,-0.0256563201546669
1710955514239995000,5.832994873046875,-0.04306596517562866,-0.03451386094093323,-0.032070402055978775
1710955514258955500,5.85195556640625,-0.03787361457943916,-0.03940077871084213,-0.03634645417332649
1710955514277916000,5.870916015625,-0.036651886999607086,-0.02779434807598591,-0.03481929376721382
1710955514296876300,5.889876220703125,-0.04062250629067421,-0.015577051788568497,-0.03298669680953026
1710955514315836700,5.908836669921875,-0.04550942778587341,-0.02260199747979641,-0.027488915249705315
1710955514334797000,5.927797119140625,-0.0412333719432354,-0.035735588520765305,-0.026878049597144127
1710955514353757400,5.94675732421875,-0.021991131827235222,-0.056810423731803894,-0.029626941308379173
1710955514372717800,5.9657177734375,-0.009162971749901772,-0.05742128938436508,-0.029932374134659767
1710955514391678200,5.98467822265625,-0.00946840364485979,-0.041844237595796585,-0.028405211865901947
1710955514410638600,6.003638671875,-0.014966187067329884,-0.014660755172371864,-0.02932151034474373
1710955514429599000,6.022598876953125,-0.014966187067329884,0,-0.03390299528837204
1710955514448559400,6.041559326171875,-0.014660755172371864,-0.0027488914784044027,-0.04306596517562866
1710955514467519700,6.060519775390625,-0.01435532234609127,-0.01649334840476513,-0.04276053607463837
1710955514486480100,6.079480224609375,-0.00946840364485979,-0.02412915788590908,-0.03176496922969818
1710955514505440500,6.0984404296875,-0.016187917441129684,-0.05100720748305321,-0.03756818547844887
1710955514524401200,6.117401123046875,-0.017715077847242355,-0.03848448023200035,-0.03817904740571976
1710955514543361500,6.136361572265625,-0.026878049597144127,-0.02871064469218254,-0.025350889191031456
1710955514562322000,6.155322021484375,-0.030543239787220955,-0.04245510324835777,-0.019242240116000175
1710955514581282300,6.1742822265625,-0.0308486707508564,-0.05833758786320686,-0.023212861269712448
1710955514600242700,6.19324267578125,-0.020769402384757996,-0.06200277432799339,-0.013744457624852657
1710955514619203000,6.212203125,-0.008552107028663158,-0.0616973415017128,-0.001832594396546483
1710955514638163500,6.23116357421875,-0.0015271619195118546,-0.06597339361906052,-0.017104214057326317
1710955514657123800,6.250123779296875,-0.007635809946805239,-0.04581485688686371,-0.0360410213470459
1710955514676084200,6.269084228515625,-0.008552107028663158,-0.03329212963581085,-0.0461202897131443
1710955514695044600,6.288044677734375,-0.001832594396546483,-0.020769402384757996,-0.057726722210645676
1710955514714005000,6.3070048828125,0.0021380267571657896,-0.009773836471140385,-0.06627883017063141
1710955514732965400,6.32596533203125,-0.0021380267571657896,-0.003970621153712273,-0.06261363625526428
1710955514751925800,6.34492578125,-0.006719512399286032,-0.011911863461136818,-0.05222893878817558
1710955514770886100,6.36388623046875,-0.004276053514331579,-0.0204639695584774,-0.04367683082818985
1710955514789846500,6.382846435546875,-0.0027488914784044027,-0.01893680728971958,-0.03848448023200035
1710955514808807000,6.401806884765625,-0.0027488914784044027,-0.018631376326084137,-0.028405211865901947
1710955514827767300,6.420767333984375,-0.0030543238390237093,-0.029626941308379173,-0.02260199747979641
1710955514846727700,6.439727783203125,-0.002443459117785096,-0.03451386094093323,-0.020769402384757996
1710955514865688000,6.45868798828125,0.0030543238390237093,-0.03543015569448471,-0.017104214057326317
1710955514884648400,6.4776484375,0.000610864779446274,-0.04062250629067421,-0.018325943499803543
1710955514903609000,6.496609130859375,-0.006108647678047419,-0.038789913058280945,-0.023823726922273636
1710955514922569200,6.5155693359375,-0.009162971749901772,-0.03451386094093323,-0.023823726922273636
1710955514941529600,6.534529541015625,-0.002443459117785096,-0.032681263983249664,-0.032681263983249664
1710955514960490000,6.553489990234375,0.0054977829568088055,-0.03940077871084213,-0.04001164436340332
1710955514979450600,6.57245068359375,0.006108647678047419,-0.038789913058280945,-0.037262752652168274
1710955514998410800,6.59141064453125,-0.001221729558892548,-0.03451386094093323,-0.02871064469218254
1710955515017371100,6.61037109375,-0.013439024798572063,-0.017104214057326317,-0.0308486707508564
1710955515036331800,6.629331787109375,-0.0256563201546669,0.0030543238390237093,-0.03145953640341759
1710955515055292200,6.648292236328125,-0.023823726922273636,0.011300998739898205,-0.020769402384757996
1710955515074252300,6.667252197265625,-0.019242240116000175,0.001832594396546483,-0.008552107028663158
1710955515093213000,6.686212890625,-0.01435532234609127,-0.016187917441129684,-0.002443459117785096
1710955515112173300,6.70517333984375,-0.01588248461484909,-0.014660755172371864,0
1710955515131133700,6.7241337890625,-0.01893680728971958,-0.004886918235570192,0.000610864779446274
1710955515150094000,6.743093994140625,-0.02107483521103859,0.004886918235570192,-0.0030543238390237093
1710955515169054500,6.762054443359375,-0.018325943499803543,0.013744457624852657,-0.012522728182375431
1710955515188014800,6.781014892578125,-0.010690134018659592,0.014049889519810677,-0.02107483521103859
1710955515206975200,6.799975341796875,-0.001221729558892548,0.00946840364485979,-0.023823726922273636
1710955515225935600,6.818935546875,0.0009162971982732415,0.001832594396546483,-0.01954767294228077
1710955515244896000,6.83789599609375,-0.005192350596189499,-0.0009162971982732415,-0.019853105768561363
1710955515263856400,6.8568564453125,-0.008552107028663158,0.002443459117785096,-0.020769402384757996
1710955515282816800,6.875816650390625,-0.011911863461136818,0.01740964688360691,-0.018325943499803543
1710955515301777200,6.894777099609375,-0.013744457624852657,0.02412915788590908,-0.0204639695584774
1710955515320737500,6.913737548828125,-0.014049889519810677,0.021991131827235222,-0.024434590712189674
1710955515339698000,6.932697998046875,-0.01282816007733345,0.01649334840476513,-0.0204639695584774
1710955515358658300,6.951658203125,-0.007941242307424545,0.007024944759905338,-0.016798781231045723
1710955515377618700,6.97061865234375,-0.013133592903614044,0.0021380267571657896,-0.02412915788590908
1710955515396579000,6.9895791015625,-0.017104214057326317,-0.003665188793092966,-0.03176496922969818
1710955515415539500,7.00853955078125,-0.016798781231045723,-0.007941242307424545,-0.031154103577136993
1710955515434499800,7.027499755859375,-0.012522728182375431,-0.01649334840476513,-0.029626941308379173
1710955515453460200,7.046460205078125,-0.009773836471140385,-0.023212861269712448,-0.028405211865901947
1710955515472420600,7.065420654296875,-0.013133592903614044,-0.023212861269712448,-0.023212861269712448
1710955515491381000,7.084381103515625,-0.010079269297420979,-0.019853105768561363,-0.01588248461484909
1710955515510341400,7.10334130859375,-0.008552107028663158,-0.0054977829568088055,-0.010995565913617611
1710955515529301800,7.1223017578125,-0.008246674202382565,-0.004276053514331579,-0.011300998739898205
1710955515548262100,7.14126220703125,-0.005192350596189499,-0.007635809946805239,-0.014049889519810677
1710955515567222500,7.160222412109375,-0.001221729558892548,-0.009162971749901772,-0.01740964688360691
1710955515586183000,7.179182861328125,-0.0027488914784044027,-0.004886918235570192,-0.020158538594841957
1710955515605143300,7.198143310546875,-0.006414080038666725,-0.0027488914784044027,-0.01649334840476513
1710955515624103700,7.217103759765625,-0.003359756199643016,0,-0.012217295356094837
1710955515643064000,7.23606396484375,0.000305432389723137,-0.000610864779446274,-0.014660755172371864
1710955515662024700,7.255024658203125,-0.003665188793092966,-0.0054977829568088055,-0.01435532234609127
1710955515680984800,7.27398486328125,-0.010995565913617611,-0.006719512399286032,-0.014966187067329884
1710955515699945200,7.2929453125,-0.010690134018659592,-0.009162971749901772,-0.017715077847242355
1710955515718905900,7.31190576171875,-0.005192350596189499,-0.008552107028663158,-0.025045456364750862
1710955515737866200,7.3308662109375,-0.005803215317428112,-0.011606430634856224,-0.02779434807598591
1710955515756826400,7.349826416015625,-0.011911863461136818,-0.012217295356094837,-0.0308486707508564
1710955515775786800,7.368786865234375,-0.01649334840476513,-0.016187917441129684,-0.032681263983249664
1710955515794747400,7.387747314453125,-0.01588248461484909,-0.011300998739898205,-0.032070402055978775
1710955515813707800,7.406707763671875,-0.01649334840476513,-0.007330377586185932,-0.02871064469218254
1710955515832668000,7.42566796875,-0.01282816007733345,-0.013439024798572063,-0.028099779039621353
1710955515851628500,7.444628662109375,-0.013744457624852657,-0.002443459117785096,-0.028405211865901947
1710955515870589000,7.4635888671875,-0.017715077847242355,0.000610864779446274,-0.0256563201546669
1710955515889549300,7.48254931640625,-0.023823726922273636,0.010079269297420979,-0.023518294095993042
1710955515908509700,7.501509765625,-0.023823726922273636,0.013133592903614044,-0.014660755172371864
1710955515927470000,7.520469970703125,-0.022296564653515816,-0.000610864779446274,-0.013133592903614044
1710955515946430500,7.539430419921875,-0.027488915249705315,-0.006719512399286032,-0.011911863461136818
1710955515965390800,7.558390869140625,-0.03023780696094036,-0.01893680728971958,-0.006719512399286032
1710955515984351200,7.577351318359375,-0.024740023538470268,-0.023518294095993042,-0.003665188793092966
1710955516003311600,7.5963115234375,-0.01893680728971958,-0.01740964688360691,-0.0054977829568088055
1710955516022272000,7.61527197265625,-0.017104214057326317,-0.013439024798572063,-0.010384701192378998
1710955516041232400,7.634232421875,-0.013439024798572063,-0.011911863461136818,-0.015577051788568497
1710955516060192800,7.65319287109375,-0.007024944759905338,-0.010690134018659592,-0.018325943499803543
1710955516079153200,7.672153076171875,-0.000610864779446274,-0.009773836471140385,-0.020769402384757996
1710955516098113500,7.691113525390625,0.0009162971982732415,-0.007635809946805239,-0.01893680728971958
1710955516117074000,7.710073974609375,-0.000305432389723137,-0.0015271619195118546,-0.015577051788568497
1710955516136034300,7.729034423828125,-0.004581485874950886,0,-0.014049889519810677
1710955516154994700,7.74799462890625,-0.006719512399286032,-0.003665188793092966,-0.013744457624852657
1710955516173955000,7.766955078125,-0.008246674202382565,-0.008857538923621178,-0.015271619893610477
1710955516192915500,7.78591552734375,-0.005192350596189499,-0.012522728182375431,-0.01954767294228077
1710955516211875800,7.804875732421875,-0.0054977829568088055,-0.011300998739898205,-0.022296564653515816
1710955516230836200,7.823836181640625,-0.013744457624852657,-0.008857538923621178,-0.01954767294228077
1710955516249796600,7.842796630859375,-0.022296564653515816,-0.0030543238390237093,-0.014660755172371864
1710955516268757000,7.861757080078125,-0.01802051067352295,-0.006108647678047419,-0.017104214057326317
1710955516287717400,7.88071728515625,-0.008552107028663158,-0.024740023538470268,-0.023212861269712448
1710955516306677800,7.899677734375,-0.01282816007733345,-0.028099779039621353,-0.018631376326084137
1710955516325638100,7.91863818359375,-0.0204639695584774,-0.02626718580722809,-0.011911863461136818
1710955516344598500,7.9375986328125,-0.020158538594841957,-0.02260199747979641,-0.014966187067329884
1710955516363559000,7.956558837890625,-0.013439024798572063,-0.01954767294228077,-0.019853105768561363
1710955516382519300,7.975519287109375,-0.008552107028663158,-0.012217295356094837,-0.019242240116000175
1710955516401479700,7.994479736328125,-0.007941242307424545,-0.010995565913617611,-0.020158538594841957
1710955516420440000,8.013440185546875,-0.007635809946805239,-0.017104214057326317,-0.025045456364750862
1710955516439400400,8.032400390625,-0.007635809946805239,-0.018325943499803543,-0.025961752980947495
1710955516458360800,8.05136083984375,-0.00946840364485979,-0.02107483521103859,-0.02412915788590908
1710955516477321500,8.070321533203124,-0.009773836471140385,-0.019242240116000175,-0.023212861269712448
1710955516496281600,8.089281494140625,-0.008857538923621178,-0.019853105768561363,-0.019853105768561363
1710955516515242000,8.108241943359374,-0.010995565913617611,-0.028099779039621353,-0.014049889519810677
1710955516534202600,8.12720263671875,-0.01802051067352295,-0.03787361457943916,-0.010690134018659592
1710955516553163000,8.1461630859375,-0.024434590712189674,-0.05436696484684944,-0.013133592903614044
1710955516572123100,8.165123046875,-0.026572618633508682,-0.056810423731803894,-0.016798781231045723
1710955516591083500,8.18408349609375,-0.021991131827235222,-0.0461202897131443,-0.021380268037319183
1710955516610044200,8.203044189453125,-0.01588248461484909,-0.025961752980947495,-0.029016077518463135
1710955516629004500,8.222004638671875,-0.014049889519810677,0.006108647678047419,-0.033597562462091446
1710955516647964700,8.240964599609375,-0.004886918235570192,0.04428769648075104,-0.04245510324835777
1710955516666925300,8.25992529296875,0.03329212963581085,0.07055488228797913,-0.06566796451807022
1710955516685885700,8.2788857421875,0.08613193035125732,0.10354158282279968,-0.10018182545900345
1710955516704845800,8.297845703125,0.13744457066059113,0.15546508133411407,-0.12980876863002777
1710955516723806500,8.316806396484376,0.17867794632911682,0.21319180727005005,-0.15027274191379547
1710955516742766800,8.335766845703125,0.19822561740875244,0.28435754776000977,-0.15179990231990814
1710955516761727200,8.354727294921876,0.19272783398628235,0.33628106117248535,-0.143553227186203
1710955516780687600,8.3736875,0.18814635276794434,0.33017241954803467,-0.1185077652335167
1710955516799648000,8.39264794921875,0.18173226714134216,0.2974911332130432,-0.07024945318698883
1710955516818608400,8.4116083984375,0.15210533142089844,0.24037529528141022,-0.03176496922969818
1710955516837568800,8.43056884765625,0.12522727251052856,0.1545487940311432,-0.01893680728971958
1710955516856529200,8.449529052734375,0.10720676928758621,0.09162971377372742,-0.010384701192378998
1710955516875489500,8.468489501953124,0.07330377399921417,0.06017018109560013,-0.006108647678047419
1710955516894450000,8.487449951171875,0.02779434807598591,0.03695731982588768,-0.0015271619195118546
1710955516913410300,8.506410400390624,-0.014660755172371864,-0.007635809946805239,-0.007941242307424545
1710955516932370700,8.52537060546875,-0.04001164436340332,-0.06963858753442764,-0.024740023538470268
1710955516951330800,8.544330810546874,-0.044898562133312225,-0.12247838824987411,-0.043982263654470444
1710955516970291500,8.56329150390625,-0.051618073135614395,-0.1383608728647232,-0.0616973415017128
1710955516989251600,8.58225146484375,-0.06536252796649933,-0.1340848207473755,-0.0668896958231926
1710955517008212000,8.6012119140625,-0.06994401663541794,-0.10659590363502502,-0.05436696484684944
1710955517027172600,8.620172607421875,-0.06963858753442764,-0.08857539296150208,-0.03756818547844887
1710955517046132700,8.6391328125,-0.06108647957444191,-0.08674279600381851,-0.029016077518463135
1710955517065093000,8.658093017578125,-0.05283980444073677,-0.10629047453403473,-0.035735588520765305
1710955517084053500,8.677053466796876,-0.03023780696094036,-0.09590577334165573,-0.04550942778587341
1710955517103014000,8.696013916015625,0.016187917441129684,-0.027488915249705315,-0.06505709886550903
1710955517121974300,8.714974365234376,0.05742128938436508,0.07819069176912308,-0.07330377399921417
1710955517140934700,8.7339345703125,0.09101885557174683,0.16584978997707367,-0.06902772188186646
1710955517159895000,8.75289501953125,0.13744457066059113,0.21655155718326569,-0.06475166976451874
1710955517178855400,8.77185546875,0.18692462146282196,0.23823726177215576,-0.06841685622930527
1710955517197815800,8.79081591796875,0.2211330533027649,0.2360992431640625,-0.0772743970155716
1710955517216776200,8.809776123046875,0.2412915825843811,0.23212862014770508,-0.0922405794262886
1710955517235736600,8.828736572265624,0.24312418699264526,0.24342961609363556,-0.10659590363502502
1710955517254697000,8.847697021484375,0.2419024556875229,0.2519817352294922,-0.12522727251052856
1710955517273657300,8.8666572265625,0.24281874299049377,0.250149130821228,-0.13652828335762024
1710955517292617700,8.88561767578125,0.23304490745067596,0.2309068888425827,-0.13713914155960083
1710955517311578000,8.904578125,0.20341797173023224,0.1795942485332489,-0.14477495849132538
1710955517330538200,8.923538330078125,0.16676609218120575,0.09865466505289078,-0.15088360011577606
1710955517349499000,8.942498779296875,0.12461641430854797,0.03023780696094036,-0.13103049993515015
1710955517368459000,8.961458984375,0.07422006875276566,-0.023823726922273636,-0.08857539296150208
1710955517387419400,8.98041943359375,0.012217295356094837,-0.08429934084415436,-0.053145237267017365
1710955517406379800,8.9993798828125,-0.03390299528837204,-0.1386663019657135,-0.029016077518463135
1710955517425340200,9.018340087890625,-0.047036588191986084,-0.1695149689912796,0.007635809946805239
1710955517444300500,9.037300537109376,-0.056810423731803894,-0.1905898153781891,0.04550942778587341
1710955517463261000,9.056260986328125,-0.07422006875276566,-0.23793183267116547,0.07971785217523575
1710955517482221300,9.07522119140625,-0.07024945318698883,-0.3087921440601349,0.10384701192378998
1710955517501181400,9.094181396484375,-0.06444623321294785,-0.37812530994415283,0.1383608728647232
1710955517520141800,9.113141845703124,-0.05100720748305321,-0.4584540128707886,0.1340848207473755
1710955517539102200,9.132102294921875,-0.010384701192378998,-0.5213730931282043,0.07116574794054031
1710955517558062600,9.1510625,0.03634645417332649,-0.5390881896018982,-0.005803215317428112
1710955517577023000,9.17002294921875,0.05894844979047775,-0.5030471682548523,-0.05497783049941063
1710955517595983400,9.1889833984375,0.03329212963581085,-0.37751442193984985,-0.05742128938436508
1710955517614943700,9.20794384765625,0.03481929376721382,-0.3029889166355133,-0.06933315098285675
1710955517633903900,9.22690380859375,0.06475166976451874,-0.2910770773887634,-0.13103049993515015
1710955517652864300,9.2458642578125,0.10079269111156464,-0.33689191937446594,-0.210442915558815
1710955517671824600,9.26482470703125,0.13439024984836578,-0.37171122431755066,-0.26542073488235474
1710955517690785000,9.283784912109375,0.14508038759231567,-0.35063639283180237,-0.2660316228866577
1710955517709745400,9.302745361328125,0.12400554865598679,-0.27488914132118225,-0.21868959069252014
1710955517728705800,9.321705810546876,0.08277218043804169,-0.2049451321363449,-0.16646064817905426
1710955517747666000,9.340666015625,0.053756099194288254,-0.17134757339954376,-0.14782927930355072
1710955517766626300,9.359626220703126,0.05253437161445618,-0.12431098520755768,-0.12522727251052856
1710955517785586700,9.378586669921875,0.07605266571044922,-0.053756099194288254,-0.08429934084415436
1710955517804547000,9.397547119140626,0.10506874322891235,0.0054977829568088055,-0.03787361457943916
1710955517823507500,9.416507568359375,0.1178968995809555,0.023823726922273636,-0.01435532234609127
1710955517842467600,9.435467529296876,0.10506874322891235,0.005192350596189499,-0.014049889519810677
1710955517861428000,9.454427978515625,0.0766635313630104,-0.04459312930703163,-0.023518294095993042
1710955517880388400,9.473388427734376,0.04764745384454727,-0.08002328872680664,-0.04306596517562866
1710955517899348700,9.4923486328125,0.023518294095993042,-0.07635809481143951,-0.06108647957444191
1710955517918308900,9.511308837890626,0.006108647678047419,-0.05711585655808449,-0.07544180005788803
1710955517937269200,9.530269287109375,-0.009773836471140385,-0.04978547990322113,-0.09285144507884979
1710955517956229600,9.549229736328124,-0.036651886999607086,-0.050090912729501724,-0.11178825795650482
1710955517975190000,9.56818994140625,-0.07574722915887833,-0.051618073135614395,-0.12675444781780243
1710955517994150400,9.587150390625,-0.09804379940032959,-0.06230820715427399,-0.13041962683200836
1710955518013110500,9.606110595703125,-0.09987638890743256,-0.06963858753442764,-0.13011419773101807
1710955518032071000,9.62507080078125,-0.09896009415388107,-0.03909534588456154,-0.13194678723812103
1710955518051031300,9.64403125,-0.10629047453403473,0.0015271619195118546,-0.11942406743764877
1710955518069991700,9.66299169921875,-0.10690133273601532,0.014049889519810677,-0.09132428467273712
1710955518088951800,9.681951904296875,-0.09682206809520721,0.01435532234609127,-0.0668896958231926
1710955518107912200,9.700912109375,-0.0824667438864708,0.015577051788568497,-0.04673115536570549
1710955518126872600,9.71987255859375,-0.06750056147575378,0.0030543238390237093,-0.036651886999607086
1710955518145832700,9.738832763671875,-0.04153880476951599,-0.03176496922969818,-0.02871064469218254
1710955518164793000,9.75779296875,-0.013744457624852657,-0.03390299528837204,-0.01802051067352295
1710955518183753500,9.77675341796875,-0.003665188793092966,-0.008246674202382565,-0.004581485874950886
1710955518202713900,9.7957138671875,-0.012522728182375431,0.001832594396546483,0.006414080038666725
1710955518221674000,9.814674072265625,-0.01740964688360691,-0.004581485874950886,0.010079269297420979
1710955518240634400,9.83363427734375,-0.014966187067329884,-0.0009162971982732415,0.014049889519810677
1710955518259594500,9.852594482421875,-0.014049889519810677,0.011300998739898205,0.018631376326084137
1710955518278555000,9.871554931640626,-0.01802051067352295,0.015577051788568497,0.0204639695584774
1710955518297515300,9.890515380859375,-0.017104214057326317,0.003359756199643016,0.020769402384757996
1710955518316475600,9.9094755859375,-0.010384701192378998,-0.001832594396546483,0.01588248461484909
1710955518335435800,9.928435791015625,0.0015271619195118546,0.007330377586185932,0.005192350596189499
1710955518354396200,9.947396240234376,0.006719512399286032,0.01588248461484909,-0.007330377586185932
1710955518373356300,9.966356201171875,0.014049889519810677,0.023518294095993042,-0.018325943499803543
1710955518392316700,9.985316650390626,0.026878049597144127,0.02779434807598591,-0.025350889191031456
1710955518411277000,10.004277099609375,0.04367683082818985,0.015577051788568497,-0.03481929376721382
1710955518430237200,10.0232373046875,0.0668896958231926,0.013744457624852657,-0.05894844979047775
1710955518449197600,10.042197509765625,0.07971785217523575,0.02718348242342472,-0.09498947113752365
1710955518468157700,10.06115771484375,0.09407317638397217,0.05222893878817558,-0.11362084746360779
1710955518487118000,10.0801181640625,0.11117739230394363,0.09712749719619751,-0.10231985151767731
1710955518506078500,10.099078369140624,0.11178825795650482,0.13927717506885529,-0.07422006875276566
1710955518525038600,10.11803857421875,0.1026252806186676,0.14110976457595825,-0.05192350596189499
1710955518543999000,10.1369990234375,0.09193515032529831,0.10934479534626007,-0.036651886999607086
1710955518562959400,10.15595947265625,0.0821613147854805,0.07330377399921417,-0.016798781231045723
1710955518581919500,10.17491943359375,0.07757982611656189,0.04214967042207718,0.0054977829568088055
1710955518600879900,10.1938798828125,0.07452550530433655,0.035124726593494415,0.026878049597144127
1710955518619840000,10.212840087890624,0.05589412897825241,0.032681263983249664,0.03940077871084213
1710955518638800400,10.23180029296875,0.0256563201546669,0.008552107028663158,0.03329212963581085
1710955518657760500,10.250760498046875,-0.011911863461136818,0.01282816007733345,0.04825831577181816
1710955518676721000,10.269720947265625,-0.03176496922969818,0.033597562462091446,0.07971785217523575
1710955518695681000,10.288680908203125,-0.025961752980947495,0.018631376326084137,0.09376774728298187
1710955518714641400,10.307641357421875,-0.0204639695584774,-0.011300998739898205,0.08888082206249237
1710955518733601800,10.326601806640625,-0.023823726922273636,-0.05100720748305321,0.0772743970155716
1710955518752562000,10.34556201171875,-0.01435532234609127,-0.07483093440532684,0.06383536756038666
1710955518771522300,10.364522216796875,0.003970621153712273,-0.04520399495959282,0.05925388261675835
1710955518790482400,10.383482421875,0.01282816007733345,0.017104214057326317,0.04917461425065994
1710955518809442800,10.40244287109375,0.006414080038666725,0.0513126403093338,0.031154103577136993
1710955518828403000,10.42140283203125,-0.009162971749901772,0.050090912729501724,0.028405211865901947
1710955518847363300,10.44036328125,-0.013439024798572063,0.02260199747979641,0.02932151034474373
1710955518866323500,10.459323486328126,0.009162971749901772,-0.010690134018659592,0.01802051067352295
1710955518885283800,10.478283935546875,0.04367683082818985,-0.030543239787220955,-0.001221729558892548
1710955518904244000,10.497243896484376,0.057726722210645676,-0.03634645417332649,-0.019242240116000175
1710955518923204400,10.516204345703125,0.0412333719432354,-0.007941242307424545,-0.01435532234609127
1710955518942164500,10.53516455078125,0.01282816007733345,0.04306596517562866,0.008246674202382565
1710955518961124900,10.554124755859375,0.001221729558892548,0.05864302068948746,0.021380268037319183
1710955518980085000,10.5730849609375,0.003359756199643016,0.025961752980947495,0.01740964688360691
1710955518999045000,10.592045166015625,0.004581485874950886,-0.015577051788568497,0.01649334840476513
1710955519018005500,10.611005615234374,0.006719512399286032,-0.04001164436340332,0.016187917441129684
1710955519036965600,10.629965576171875,0.004276053514331579,-0.04214967042207718,0.011300998739898205
1710955519055926000,10.648926025390624,-0.00946840364485979,-0.022296564653515816,0.013133592903614044
1710955519074886100,10.66788623046875,-0.023212861269712448,0.004886918235570192,0.010995565913617611
1710955519093846500,10.686846435546874,-0.025350889191031456,0.011606430634856224,-0.006108647678047419
1710955519112806700,10.705806640625,-0.014660755172371864,-0.0027488914784044027,-0.02779434807598591
1710955519131767000,10.72476708984375,-0.000610864779446274,-0.021380268037319183,-0.03756818547844887
1710955519150727200,10.74372705078125,0.013439024798572063,-0.0412333719432354,-0.043982263654470444
1710955519169687300,10.762687255859374,0.024434590712189674,-0.03817904740571976,-0.04764745384454727
1710955519188647700,10.781647705078125,0.02871064469218254,-0.018325943499803543,-0.04734202101826668
1710955519207607800,10.80060791015625,0.028405211865901947,0.003970621153712273,-0.041844237595796585
1710955519226568200,10.819568115234375,0.025045456364750862,0.031154103577136993,-0.021991131827235222
1710955519245528300,10.8385283203125,0.010079269297420979,0.03176496922969818,-0.026572618633508682
1710955519264488700,10.85748876953125,0.007024944759905338,0.010995565913617611,-0.03237583488225937
1710955519283448800,10.87644873046875,-0.001221729558892548,-0.01893680728971958,-0.014660755172371864
1710955519302409000,10.895408935546875,-0.011606430634856224,-0.07452550530433655,0.0030543238390237093
1710955519321369300,10.914369384765624,-0.015271619893610477,-0.1185077652335167,0.012217295356094837
1710955519340329500,10.93332958984375,-0.012217295356094837,-0.13927717506885529,0.012217295356094837
1710955519359289900,10.952289794921874,-0.008552107028663158,-0.14202606678009033,0.0030543238390237093
1710955519378250000,10.97125,-0.01282816007733345,-0.1233946830034256,-0.014660755172371864
1710955519397210000,10.990210205078125,-0.02871064469218254,-0.08399390429258347,-0.035735588520765305
1710955519416170500,11.00917041015625,-0.033597562462091446,-0.06108647957444191,-0.049480047076940536
1710955519435130600,11.028130615234375,-0.01740964688360691,-0.05253437161445618,-0.06780599057674408
1710955519454091000,11.047091064453125,-0.005803215317428112,-0.04001164436340332,-0.08124501258134842
1710955519473051100,11.066051025390625,0.0009162971982732415,-0.0308486707508564,-0.08399390429258347
1710955519492011300,11.08501123046875,0.008552107028663158,-0.025961752980947495,-0.0772743970155716
1710955519510971600,11.1039716796875,0.001832594396546483,-0.03145953640341759,-0.06750056147575378
1710955519529931800,11.122931884765626,-0.013439024798572063,-0.034208428114652634,-0.04520399495959282
1710955519548892000,11.141891845703125,-0.018325943499803543,-0.05100720748305321,-0.019242240116000175
1710955519567852300,11.160852294921876,-0.01282816007733345,-0.07086031138896942,0
1710955519586812400,11.1798125,-0.011300998739898205,-0.09315688163042068,0.007330377586185932
1710955519605772800,11.198772705078126,-0.007330377586185932,-0.10323614627122879,0.011911863461136818
1710955519624733000,11.21773291015625,-0.010690134018659592,-0.0769689604640007,0.022907428443431854
1710955519643693000,11.236693115234376,-0.017715077847242355,-0.05192350596189499,0.03145953640341759
1710955519662653400,11.2556533203125,-0.01649334840476513,-0.0461202897131443,0.0256563201546669
1710955519681613600,11.274613525390626,-0.005192350596189499,-0.051618073135614395,0.016187917441129684
1710955519700573700,11.29357373046875,0.007941242307424545,-0.05925388261675835,0.003359756199643016
1710955519719534000,11.3125341796875,0.01282816007733345,-0.05070177838206291,-0.016187917441129684
1710955519738494200,11.331494140625,0.011606430634856224,-0.022296564653515816,-0.03329212963581085
1710955519757454600,11.35045458984375,-0.0021380267571657896,0.018325943499803543,-0.038789913058280945
1710955519776414700,11.369414794921875,-0.01802051067352295,0.043982263654470444,-0.041844237595796585
1710955519795374800,11.388374755859376,-0.024434590712189674,0.026878049597144127,-0.046425722539424896
1710955519814335200,11.407335205078125,-0.013133592903614044,-0.020158538594841957,-0.05528326332569122
1710955519833295400,11.42629541015625,0.001221729558892548,-0.05406153202056885,-0.05742128938436508
1710955519852255500,11.44525537109375,-0.000305432389723137,-0.051618073135614395,-0.05100720748305321
1710955519871215600,11.464215576171876,-0.018631376326084137,-0.02626718580722809,-0.0409279391169548
1710955519890176000,11.483176025390625,-0.02779434807598591,-0.010384701192378998,-0.029626941308379173
1710955519909136100,11.50213623046875,-0.025350889191031456,-0.003665188793092966,-0.01893680728971958
1710955519928096300,11.52109619140625,-0.020158538594841957,-0.008246674202382565,-0.009162971749901772
1710955519947056600,11.540056640625,-0.02626718580722809,-0.0054977829568088055,-0.002443459117785096
1710955519966016800,11.559016845703125,-0.036651886999607086,-0.000610864779446274,0.003970621153712273
1710955519984977200,11.57797705078125,-0.03756818547844887,0.000610864779446274,0.006719512399286032
1710955520003937300,11.596937255859375,-0.03451386094093323,0.010079269297420979,0.001832594396546483
1710955520022897400,11.6158974609375,-0.0409279391169548,0.022296564653515816,0.002443459117785096
1710955520041857800,11.63485791015625,-0.04550942778587341,0.024434590712189674,0.008857538923621178
1710955520060818000,11.65381787109375,-0.04276053607463837,0.009773836471140385,0.0204639695584774
1710955520079778000,11.672778076171875,-0.02779434807598591,-0.025961752980947495,0.02932151034474373
1710955520098738400,11.691738525390624,-0.010995565913617611,-0.053145237267017365,0.02412915788590908
1710955520117698600,11.710698486328125,0.0021380267571657896,-0.0720820426940918,0.010384701192378998
1710955520136658700,11.72965869140625,0.007024944759905338,-0.06902772188186646,-0.005192350596189499
1710955520155619000,11.748619140625,-0.004276053514331579,-0.029016077518463135,-0.01588248461484909
1710955520174579200,11.7675791015625,-0.01649334840476513,0.012522728182375431,-0.02932151034474373
1710955520193539300,11.786539306640625,-0.018631376326084137,0.026572618633508682,-0.04367683082818985
1710955520212499700,11.805499755859374,-0.01802051067352295,0.007941242307424545,-0.050090912729501724
1710955520231459800,11.8244599609375,-0.02626718580722809,-0.019242240116000175,-0.053145237267017365
1710955520250420000,11.843419921875,-0.03695731982588768,-0.036651886999607086,-0.051618073135614395
1710955520269380000,11.862380126953125,-0.04276053607463837,-0.041844237595796585,-0.05039634555578232
1710955520288340500,11.881340576171874,-0.04550942778587341,-0.03298669680953026,-0.04764745384454727
1710955520307300600,11.900300537109375,-0.054672397673130035,-0.022296564653515816,-0.04001164436340332
1710955520326261000,11.919260986328124,-0.05742128938436508,-0.0256563201546669,-0.02932151034474373
1710955520345221000,11.93822119140625,-0.05253437161445618,-0.01802051067352295,-0.0256563201546669
1710955520364181200,11.95718115234375,-0.05497783049941063,-0.007024944759905338,-0.01649334840476513
1710955520383141600,11.9761416015625,-0.04825831577181816,-0.000610864779446274,-0.006719512399286032
1710955520402101800,11.995101806640625,-0.03787361457943916,0.004886918235570192,-0.0027488914784044027
1710955520421062000,12.014061767578125,-0.02779434807598591,0.005192350596189499,-0.0027488914784044027
1710955520440022300,12.033022216796875,-0.01893680728971958,0.001221729558892548,-0.007024944759905338
1710955520458982400,12.051982421875,-0.013439024798572063,0.0030543238390237093,-0.011911863461136818
1710955520477942500,12.070942626953125,-0.009773836471140385,0.0009162971982732415,-0.018631376326084137
1710955520496903000,12.08990283203125,-0.006414080038666725,0.001221729558892548,-0.02412915788590908
1710955520515863000,12.108863037109375,-0.004886918235570192,0.005192350596189499,-0.025045456364750862
1710955520534823200,12.1278232421875,-0.0030543238390237093,0.005803215317428112,-0.02107483521103859
1710955520553783600,12.146783447265625,-0.008246674202382565,0.0030543238390237093,-0.02107483521103859
1710955520572743700,12.16574365234375,-0.010384701192378998,-0.011911863461136818,-0.026878049597144127
1710955520591703800,12.184703857421875,-0.004581485874950886,-0.022907428443431854,-0.032681263983249664
1710955520610664200,12.203664306640626,-0.002443459117785096,-0.024434590712189674,-0.03756818547844887
1710955520629624300,12.222624267578125,-0.004581485874950886,-0.020158538594841957,-0.039706211537122726
1710955520648584400,12.24158447265625,-0.007024944759905338,-0.021380268037319183,-0.039706211537122726
1710955520667544600,12.260544677734375,-0.009162971749901772,-0.023212861269712448,-0.03909534588456154
1710955520686505000,12.2795048828125,-0.012522728182375431,-0.02779434807598591,-0.03451386094093323
1710955520705465000,12.298465087890625,-0.013439024798572063,-0.032070402055978775,-0.033597562462091446
1710955520724425200,12.31742529296875,-0.01588248461484909,-0.03695731982588768,-0.0360410213470459
1710955520743385600,12.336385498046875,-0.014049889519810677,-0.04886918142437935,-0.03848448023200035
1710955520762345700,12.355345703125,-0.01282816007733345,-0.027488915249705315,-0.03756818547844887
1710955520781305900,12.374305908203125,-0.017715077847242355,-0.001832594396546483,-0.033597562462091446
1710955520800266200,12.393266357421876,-0.016798781231045723,0.007330377586185932,-0.0308486707508564
1710955520819226400,12.412226318359375,-0.012522728182375431,-0.003359756199643016,-0.02626718580722809
1710955520838186500,12.4311865234375,-0.016187917441129684,-0.013744457624852657,-0.023823726922273636
1710955520857147000,12.45014697265625,-0.02718348242342472,-0.006108647678047419,-0.014660755172371864
1710955520876107000,12.46910693359375,-0.03543015569448471,0.0030543238390237093,-0.006414080038666725
1710955520895067100,12.488067138671875,-0.032070402055978775,0.001832594396546483,-0.0021380267571657896
1710955520914027500,12.507027587890626,-0.029626941308379173,-0.001221729558892548,-0.006414080038666725
1710955520932987600,12.525987548828125,-0.03329212963581085,-0.0027488914784044027,-0.012522728182375431
1710955520951947800,12.54494775390625,-0.031154103577136993,0.0054977829568088055,-0.009773836471140385
1710955520970908000,12.563907958984375,-0.017104214057326317,0.019242240116000175,-0.003359756199643016
1710955520989868300,12.582868408203124,-0.008857538923621178,0.024740023538470268,-0.003970621153712273
1710955521008828400,12.601828369140625,-0.009773836471140385,0.015271619893610477,-0.012217295356094837
1710955521027788800,12.620788818359374,-0.014049889519810677,0.0027488914784044027,-0.016187917441129684
1710955521046749000,12.6397490234375,-0.013133592903614044,0.0027488914784044027,-0.016187917441129684
1710955521065709000,12.658708984375,-0.00946840364485979,0.010690134018659592,-0.01802051067352295
1710955521084669400,12.67766943359375,-0.012217295356094837,0.023518294095993042,-0.017715077847242355
1710955521103629600,12.696629638671874,-0.010384701192378998,0.017104214057326317,-0.010690134018659592
1710955521122589700,12.715589599609375,-0.011911863461136818,0.006414080038666725,-0.003359756199643016
1710955521141550000,12.734550048828124,-0.020769402384757996,0.006108647678047419,0.000610864779446274
1710955521160510200,12.75351025390625,-0.015577051788568497,0.0009162971982732415,-0.008857538923621178
1710955521179470300,12.77247021484375,-0.009162971749901772,-0.010384701192378998,-0.014660755172371864
1710955521198430700,12.7914306640625,-0.012522728182375431,-0.008246674202382565,-0.013744457624852657
1710955521217390800,12.810390869140624,-0.01282816007733345,0.003359756199643016,-0.015271619893610477
1710955521236351000,12.82935107421875,-0.009162971749901772,0.009773836471140385,-0.01893680728971958
1710955521255311400,12.848311279296874,-0.004886918235570192,0.00946840364485979,-0.021991131827235222
1710955521274271500,12.867271484375,0,0.0054977829568088055,-0.01740964688360691
1710955521293231600,12.886231689453124,0.007024944759905338,0.000610864779446274,-0.015577051788568497
1710955521312192000,12.90519189453125,0.015271619893610477,-0.009773836471140385,-0.0204639695584774
1710955521331152100,12.924152099609374,0.02107483521103859,-0.013744457624852657,-0.021991131827235222
1710955521350112300,12.9431123046875,0.02107483521103859,-0.01802051067352295,-0.02260199747979641
1710955521369072400,12.962072265625,0.02107483521103859,-0.020158538594841957,-0.02718348242342472
1710955521388032800,12.98103271484375,0.020158538594841957,-0.021991131827235222,-0.03176496922969818
1710955521406993000,12.999992919921874,0.021380268037319183,-0.016187917441129684,-0.03451386094093323
1710955521425953000,13.018953125,0.03176496922969818,-0.005192350596189499,-0.025961752980947495
1710955521444913200,13.0379130859375,0.047036588191986084,0.003665188793092966,-0.019853105768561363
1710955521463873500,13.05687353515625,0.05955931544303894,0.0030543238390237093,-0.01893680728971958
1710955521482833700,13.075833740234375,0.0665842592716217,-0.003970621153712273,-0.016798781231045723
1710955521501793800,13.094793701171875,0.08002328872680664,-0.015577051788568497,-0.020769402384757996
1710955521520754200,13.113754150390625,0.10323614627122879,-0.019853105768561363,-0.03451386094093323
1710955521539714300,13.13271435546875,0.1279761642217636,-0.024740023538470268,-0.0412333719432354
1710955521558674400,13.15167431640625,0.16249002516269684,-0.03023780696094036,-0.0409279391169548
1710955521577634800,13.170634765625,0.2006690800189972,-0.04062250629067421,-0.05100720748305321
1710955521596595000,13.189594970703125,0.2254091054201126,-0.05345066636800766,-0.06047561392188072
1710955521615555000,13.20855517578125,0.23823726177215576,-0.06047561392188072,-0.05497783049941063
1710955521634515200,13.22751513671875,0.2513708472251892,-0.06444623321294785,-0.0412333719432354
1710955521653475600,13.2464755859375,0.2712239623069763,-0.051618073135614395,-0.04153880476951599
1710955521672435700,13.265435791015625,0.27580544352531433,-0.02718348242342472,-0.04917461425065994
1710955521691395800,13.284395751953125,0.2666424810886383,-0.004581485874950886,-0.05192350596189499
1710955521710356200,13.303356201171875,0.25442516803741455,0.021991131827235222,-0.04428769648075104
1710955521729316400,13.32231640625,0.23976442217826843,0.03176496922969818,-0.032070402055978775
1710955521748276500,13.3412763671875,0.2211330533027649,0.02871064469218254,-0.02718348242342472
1710955521767236900,13.36023681640625,0.19089524447917938,0.02260199747979641,-0.029016077518463135
1710955521786197000,13.379197021484375,0.15668681263923645,0.011606430634856224,-0.029932374134659767
1710955521805157000,13.3981572265625,0.12247838824987411,0.0021380267571657896,-0.025350889191031456
1710955521824117500,13.417117431640625,0.09712749719619751,-0.0027488914784044027,-0.01649334840476513
1710955521843077400,13.436077392578126,0.0821613147854805,-0.0009162971982732415,-0.014660755172371864
1710955521862037800,13.455037841796875,0.06811141967773438,0.003665188793092966,-0.01282816007733345
1710955521880998000,13.473997802734376,0.048563748598098755,-0.000610864779446274,-0.00946840364485979
1710955521899958000,13.4929580078125,0.030543239787220955,-0.012522728182375431,-0.008857538923621178
1710955521918918400,13.51191845703125,0.017104214057326317,-0.01954767294228077,-0.01282816007733345
1710955521937878500,13.53087841796875,0.000610864779446274,-0.018631376326084137,-0.015577051788568497
1710955521956838700,13.549838623046876,-0.019853105768561363,-0.015271619893610477,-0.01893680728971958
1710955521975799000,13.568799072265625,-0.03817904740571976,-0.010384701192378998,-0.02260199747979641
1710955521994759200,13.58775927734375,-0.047036588191986084,-0.009162971749901772,-0.024434590712189674
1710955522013719300,13.60671923828125,-0.049480047076940536,-0.020769402384757996,-0.025045456364750862
1710955522032679400,13.625679443359376,-0.05558869615197182,-0.03756818547844887,-0.034208428114652634
1710955522051639800,13.644639892578125,-0.06230820715427399,-0.05222893878817558,-0.03817904740571976
1710955522070600000,13.663599853515626,-0.06047561392188072,-0.06047561392188072,-0.03634645417332649
1710955522089560000,13.68256005859375,-0.05070177838206291,-0.05742128938436508,-0.03390299528837204
1710955522108520200,13.701520263671876,-0.0360410213470459,-0.05070177838206291,-0.03023780696094036
1710955522127480300,13.720480224609375,-0.016187917441129684,-0.04520399495959282,-0.023518294095993042
1710955522146440700,13.739440673828126,0.004276053514331579,-0.0461202897131443,-0.016798781231045723
1710955522165400800,13.75840087890625,0.024740023538470268,-0.04978547990322113,-0.01282816007733345
1710955522184361000,13.77736083984375,0.04245510324835777,-0.04367683082818985,-0.013133592903614044
1710955522203321000,13.796321044921875,0.05436696484684944,-0.014660755172371864,-0.007941242307424545
1710955522222281500,13.815281494140624,0.061391908675432205,0.016187917441129684,0.001832594396546483
1710955522241241300,13.834241455078125,0.06719512492418289,0.03390299528837204,0.006108647678047419
1710955522260201700,13.85320166015625,0.07422006875276566,0.0308486707508564,0.0054977829568088055
1710955522279161900,13.872161865234375,0.08155044913291931,0.007941242307424545,-0.003970621153712273
1710955522298122000,13.8911220703125,0.08002328872680664,-0.010384701192378998,-0.014660755172371864
1710955522317082000,13.91008203125,0.06963858753442764,-0.009162971749901772,-0.014049889519810677
1710955522336042500,13.92904248046875,0.06322450190782547,0.013744457624852657,-0.004276053514331579
1710955522355002600,13.948002685546875,0.05925388261675835,0.030543239787220955,-0.000610864779446274
1710955522373962800,13.966962646484374,0.050090912729501724,0.023212861269712448,-0.0021380267571657896
1710955522392923000,13.9859228515625,0.035124726593494415,0.001832594396546483,-0.003359756199643016
1710955522411883000,14.004883056640624,0.02107483521103859,-0.017715077847242355,-0.007330377586185932
1710955522430843100,14.023843017578125,0.013439024798572063,-0.025961752980947495,-0.012217295356094837
1710955522449803500,14.042803466796874,0.010079269297420979,-0.027488915249705315,-0.020158538594841957
1710955522468763600,14.061763671875,0.003359756199643016,-0.02260199747979641,-0.035124726593494415
1710955522487723800,14.080723876953124,-0.009773836471140385,-0.010384701192378998,-0.044898562133312225
1710955522506684000,14.099683837890625,-0.011606430634856224,-0.003665188793092966,-0.047036588191986084
1710955522525644000,14.11864404296875,-0.0027488914784044027,-0.011606430634856224,-0.04734202101826668
1710955522544604200,14.137604248046875,0.004276053514331579,-0.03695731982588768,-0.049480047076940536
1710955522563564300,14.156564208984374,0.007635809946805239,-0.06108647957444191,-0.053756099194288254
1710955522582524700,14.175524658203125,0.010079269297420979,-0.07574722915887833,-0.059864748269319534
1710955522601484800,14.19448486328125,0.025045456364750862,-0.08521563559770584,-0.06475166976451874
1710955522620445000,14.21344482421875,0.05497783049941063,-0.08338304609060287,-0.07116574794054031
1710955522639405000,14.232405029296874,0.0925460159778595,-0.07880155742168427,-0.08277218043804169
1710955522658365200,14.251365234375,0.1331685185432434,-0.09285144507884979,-0.10170898586511612
1710955522677325300,14.2703251953125,0.1737910360097885,-0.10659590363502502,-0.11514800786972046
1710955522696285400,14.289285400390625,0.21227550506591797,-0.11575887352228165,-0.12034036219120026
1710955522715245600,14.30824560546875,0.24740023910999298,-0.1279761642217636,-0.11698060482740402
1710955522734206000,14.3272060546875,0.281914085149765,-0.1328630894422531,-0.10934479534626007
1710955522753165800,14.346165771484374,0.31673339009284973,-0.12125665694475174,-0.09804379940032959
1710955522772126200,14.365126220703125,0.3503309488296509,-0.1078176349401474,-0.08674279600381851
1710955522791086300,14.38408642578125,0.3842339515686035,-0.08765909820795059,-0.0824667438864708
1710955522810046500,14.40304638671875,0.4098902642726898,-0.07330377399921417,-0.08399390429258347
1710955522829006600,14.422006591796874,0.4303542375564575,-0.07330377399921417,-0.0821613147854805
1710955522847966700,14.440966796875,0.4529562294483185,-0.07757982611656189,-0.07880155742168427
1710955522866926800,14.4599267578125,0.4877755343914032,-0.07941242307424545,-0.08032871782779694
1710955522885887000,14.478886962890625,0.5247328281402588,-0.0772743970155716,-0.09560033679008484
1710955522904847000,14.49784716796875,0.5488619804382324,-0.09346231073141098,-0.12431098520755768
1710955522923807200,14.51680712890625,0.5656607747077942,-0.13194678723812103,-0.14294235408306122
1710955522942767400,14.535767333984374,0.5815432667732239,-0.1484401375055313,-0.14141519367694855
1710955522961727500,14.5547275390625,0.5974257588386536,-0.13194678723812103,-0.11881320178508759
1710955522980687600,14.5736875,0.6142245531082153,-0.0925460159778595,-0.08949168771505356
1710955522999647700,14.592647705078125,0.6270527243614197,-0.06017018109560013,-0.07147117704153061
1710955523018607900,14.61160791015625,0.6316341757774353,-0.05222893878817558,-0.06352993845939636
1710955523037568000,14.630568115234375,0.6276635527610779,-0.054672397673130035,-0.05742128938436508
1710955523056528100,14.649528076171874,0.6142245531082153,-0.05711585655808449,-0.039706211537122726
1710955523075488300,14.66848828125,0.6114756464958191,-0.05222893878817558,-0.0009162971982732415
1710955523094448400,14.687448486328124,0.6090322136878967,-0.021380268037319183,0.03634645417332649
1710955523113408800,14.70640869140625,0.5897899270057678,0.027488915249705315,0.06780599057674408
1710955523132368600,14.72536865234375,0.5537489056587219,0.05925388261675835,0.09285144507884979
1710955523151328800,14.744328857421875,0.5238165259361267,0.05528326332569122,0.10690133273601532
1710955523170289000,14.763288818359374,0.4880809485912323,0.04459312930703163,0.1285870373249054
1710955523189249000,14.7822490234375,0.43982264399528503,0.03695731982588768,0.16004657745361328
1710955523208209200,14.801209228515624,0.41447174549102783,-0.004581485874950886,0.16859868168830872
1710955523227169300,14.820169189453125,0.4266890585422516,-0.0818558782339096,0.14813470840454102
1710955523246129400,14.83912939453125,0.44440412521362305,-0.14660754799842834,0.12705987691879272
1710955523265089500,14.858089599609375,0.44440412521362305,-0.16584978997707367,0.11881320178508759
1710955523284049700,14.877049560546874,0.41386088728904724,-0.11728604137897491,0.11667517572641373
1710955523303009800,14.896009765625,0.3536907136440277,-0.0308486707508564,0.12370011955499649
1710955523321970000,14.914969970703124,0.2938259541988373,0.04276053607463837,0.12767073512077332
1710955523340930000,14.933929931640625,0.25350889563560486,0.08949168771505356,0.12034036219120026
1710955523359890200,14.95289013671875,0.22937972843647003,0.10629047453403473,0.10598503798246384
1710955523378850300,14.971850341796875,0.20189081132411957,0.08093958348035812,0.09590577334165573
1710955523397810400,14.990810546875,0.17318016290664673,0.027488915249705315,0.09437860548496246
1710955523416770600,15.0097705078125,0.1386663019657135,-0.012217295356094837,0.0922405794262886
1710955523435730700,15.028730712890624,0.09376774728298187,-0.03940077871084213,0.08399390429258347
1710955523454690800,15.04769091796875,0.04245510324835777,-0.05803215503692627,0.0665842592716217
1710955523473651000,15.06665087890625,0.005803215317428112,-0.06536252796649933,0.0461202897131443
1710955523492610800,15.08561083984375,-0.01282816007733345,-0.06444623321294785,0.028405211865901947
1710955523511571000,15.104571044921874,-0.026878049597144127,-0.04764745384454727,0.011606430634856224
1710955523530531000,15.123531005859375,-0.04886918142437935,-0.01954767294228077,-0.000610864779446274
1710955523549491200,15.1424912109375,-0.0616973415017128,-0.000610864779446274,-0.013439024798572063
1710955523568451300,15.161451416015625,-0.05955931544303894,-0.0030543238390237093,-0.032681263983249664
1710955523587411500,15.180411376953124,-0.043982263654470444,-0.0256563201546669,-0.05100720748305321
1710955523606371600,15.19937158203125,-0.036651886999607086,-0.04550942778587341,-0.07238747924566269
1710955523625331500,15.21833154296875,-0.04001164436340332,-0.06108647957444191,-0.08949168771505356
1710955523644291600,15.23729150390625,-0.036651886999607086,-0.06230820715427399,-0.0922405794262886
1710955523663251700,15.256251708984376,-0.022296564653515816,-0.04581485688686371,-0.08399390429258347
1710955523682211800,15.2752119140625,-0.013133592903614044,-0.03756818547844887,-0.0772743970155716
1710955523701172000,15.294171875,-0.013133592903614044,-0.025045456364750862,-0.07483093440532684
1710955523720132000,15.313132080078125,-0.011300998739898205,-0.003970621153712273,-0.06902772188186646
1710955523739092200,15.33209228515625,-0.0021380267571657896,0.008857538923621178,-0.05864302068948746
1710955523758052000,15.351052001953125,0.016798781231045723,0.0054977829568088055,-0.049480047076940536
1710955523777012200,15.37001220703125,0.03756818547844887,-0.00946840364485979,-0.03787361457943916
1710955523795972400,15.388972412109375,0.04734202101826668,-0.02871064469218254,-0.023212861269712448
1710955523814932500,15.407932373046876,0.047952886670827866,-0.05436696484684944,-0.014966187067329884
1710955523833892600,15.426892578125,0.04367683082818985,-0.08399390429258347,-0.0204639695584774
1710955523852852500,15.4458525390625,0.04306596517562866,-0.10720676928758621,-0.02260199747979641
1710955523871812600,15.4648125,0.048563748598098755,-0.10506874322891235,-0.01954767294228077
1710955523890772700,15.483772705078126,0.044898562133312225,-0.08277218043804169,-0.021685699000954628
1710955523909732900,15.50273291015625,0.04673115536570549,-0.07635809481143951,-0.02626718580722809
1710955523928693000,15.52169287109375,0.0513126403093338,-0.06963858753442764,-0.03481929376721382
1710955523947653000,15.540653076171875,0.03940077871084213,-0.05925388261675835,-0.04245510324835777
1710955523966613200,15.55961328125,0.01893680728971958,-0.05925388261675835,-0.05039634555578232
1710955523985573000,15.578572998046875,0.008857538923621178,-0.07757982611656189,-0.06291907280683517
1710955524004533200,15.597533203125,0.0030543238390237093,-0.10018182545900345,-0.07422006875276566
1710955524023493400,15.616493408203125,-0.001221729558892548,-0.1178968995809555,-0.08429934084415436
1710955524042453500,15.63545361328125,0.0009162971982732415,-0.1288924664258957,-0.09437860548496246
1710955524061413400,15.654413330078125,0.001221729558892548,-0.13041962683200836,-0.10048725455999374
1710955524080373500,15.67337353515625,-0.004886918235570192,-0.11728604137897491,-0.10048725455999374
1710955524099333600,15.692333740234375,-0.013133592903614044,-0.09010255336761475,-0.09529490768909454
1710955524118293800,15.711293701171876,-0.015577051788568497,-0.050090912729501724,-0.08949168771505356
1710955524137253600,15.730253662109375,-0.018631376326084137,-0.007024944759905338,-0.08338304609060287
1710955524156213800,15.7492138671875,-0.026878049597144127,0.023518294095993042,-0.07330377399921417
1710955524175174000,15.768173828125,-0.04245510324835777,0.0461202897131443,-0.059864748269319534
1710955524194134000,15.787134033203126,-0.054672397673130035,0.047036588191986084,-0.044898562133312225
1710955524213094100,15.80609423828125,-0.05070177838206291,0.032681263983249664,-0.037262752652168274
1710955524232054000,15.825053955078126,-0.040317077189683914,0.02626718580722809,-0.03543015569448471
1710955524251014100,15.84401416015625,-0.04245510324835777,0.029016077518463135,-0.02932151034474373
1710955524269974300,15.862974365234376,-0.05100720748305321,0.014049889519810677,-0.01802051067352295
1710955524288934400,15.881934326171875,-0.04673115536570549,-0.001221729558892548,-0.004276053514331579
1710955524307894300,15.900894287109375,-0.03940077871084213,0.007635809946805239,-0.0027488914784044027
1710955524326854400,15.9198544921875,-0.03237583488225937,0.019242240116000175,-0.014966187067329884
1710955524345814500,15.938814453125,-0.033597562462091446,0.02260199747979641,-0.029626941308379173
1710955524364774400,15.9577744140625,-0.04276053607463837,0.022296564653515816,-0.03298669680953026
1710955524383734500,15.976734619140625,-0.04459312930703163,0.007941242307424545,-0.035735588520765305
1710955524402694700,15.995694580078125,-0.029016077518463135,-0.028405211865901947,-0.046425722539424896
1710955524421654800,16.01465478515625,-0.0054977829568088055,-0.07483093440532684,-0.06291907280683517
1710955524440614700,16.03361474609375,0.00946840364485979,-0.14019346237182617,-0.05955931544303894
1710955524459574800,16.05257470703125,0.004581485874950886,-0.20341797173023224,-0.07483093440532684
1710955524478535000,16.071534912109374,-0.000610864779446274,-0.24923282861709595,-0.07910698652267456
1710955524497494800,16.090494873046875,-0.016798781231045723,-0.24862197041511536,-0.09804379940032959
1710955524516455000,16.109454833984376,-0.06017018109560013,-0.22724169492721558,-0.13744457066059113
1710955524535415000,16.1284150390625,-0.09957095980644226,-0.2211330533027649,-0.16523891687393188
1710955524554375200,16.147375244140626,-0.15790854394435883,-0.23457208275794983,-0.21227550506591797
1710955524573335000,16.1663349609375,-0.19730933010578156,-0.3228420317173004,-0.2254091054201126
1710955524592295200,16.185295166015624,-0.20341797173023224,-0.4046979248523712,-0.20738859474658966
1710955524611255300,16.20425537109375,-0.17134757339954376,-0.46975502371788025,-0.19944734871387482
1710955524630215400,16.22321533203125,-0.12003492563962936,-0.5369501113891602,-0.2202167510986328
1710955524649175300,16.24217529296875,-0.060781046748161316,-0.583375871181488,-0.23793183267116547
1710955524668135400,16.261135498046876,-0.02260199747979641,-0.5641336441040039,-0.22846342623233795
1710955524687095300,16.28009521484375,-0.007024944759905338,-0.5219839811325073,-0.22663083672523499
1710955524706055400,16.299055419921874,0.011300998739898205,-0.47036588191986084,-0.21227550506591797
1710955524725015600,16.318015625,0.0412333719432354,-0.4169152081012726,-0.18173226714134216
1710955524743975700,16.3369755859375,0.09865466505289078,-0.37354379892349243,-0.18112140893936157
1710955524762935600,16.355935546875,0.15638138353824615,-0.32528549432754517,-0.1744018942117691
1710955524781895700,16.374895751953126,0.19394956529140472,-0.282524973154068,-0.1740964651107788
1710955524800855800,16.393855712890623,0.22418737411499023,-0.29413139820098877,-0.18875721096992493
1710955524819816000,16.41281591796875,0.27427828311920166,-0.3387245237827301,-0.18600831925868988
1710955524838775800,16.43177587890625,0.30573782324790955,-0.34605491161346436,-0.16584978997707367
1710955524857736000,16.45073583984375,0.3182605504989624,-0.370184063911438,-0.16768237948417664
1710955524876696000,16.469696044921875,0.36682429909706116,-0.3970620930194855,-0.17745621502399445
1710955524895656000,16.488656005859376,0.42363473773002625,-0.374765545129776,-0.1637117564678192
1710955524914616000,16.507615966796877,0.47097674012184143,-0.3017672002315521,-0.1484401375055313
1710955524933576200,16.526576171875,0.5009090900421143,-0.19883649051189423,-0.1533270627260208
1710955524952536000,16.5455361328125,0.5308414697647095,-0.09010255336761475,-0.14813470840454102
1710955524971496200,16.56449609375,0.5604684352874756,0.022296564653515816,-0.13713914155960083
1710955524990456300,16.583456298828125,0.5876519083976746,0.1185077652335167,-0.09560033679008484
1710955525009416400,16.60241650390625,0.6395754218101501,0.21899501979351044,-0.04764745384454727
1710955525028376300,16.621376220703127,0.6973021626472473,0.3069595396518707,-0.014049889519810677
1710955525047336400,16.64033642578125,0.7461713552474976,0.34788748621940613,0.019242240116000175
1710955525066296600,16.659296630859377,0.7800742983818054,0.36835145950317383,0.07452550530433655
1710955525085256400,16.67825634765625,0.7666352987289429,0.4059196412563324,0.1182023361325264
1710955525104216600,16.697216552734375,0.7345649003982544,0.42455101013183594,0.1288924664258957
1710955525123176400,16.716176513671876,0.7568614482879639,0.4159989058971405,0.1438586562871933
1710955525142136600,16.735136474609376,0.7929024696350098,0.4373791813850403,0.15210533142089844
1710955525161096700,16.7540966796875,0.7922916412353516,0.46059203147888184,0.16157373785972595
1710955525180056800,16.773056884765627,0.7971785664558411,0.4303542375564575,0.1637117564678192
1710955525199016700,16.7920166015625,0.8008437156677246,0.3610210716724396,0.15027274191379547
1710955525217976800,16.810976806640625,0.8164207935333252,0.3344484567642212,0.15149445831775665
1710955525236937000,16.82993701171875,0.7910698652267456,0.3500255048274994,0.2153298407793045
1710955525255897000,16.84889697265625,0.7452550530433655,0.27000224590301514,0.22204934060573578
1710955525274857000,16.86785693359375,0.7159335017204285,0.20677772164344788,0.19211697578430176
1710955525293817000,16.886817138671876,0.7244856357574463,0.13591741025447845,0.189673513174057
1710955525312777000,16.90577685546875,0.7635809779167175,0.005803215317428112,0.16676609218120575
1710955525331737000,16.924737060546875,0.7907644510269165,-0.0977383628487587,0.14080433547496796
1710955525350697200,16.943697265625,0.7638863921165466,-0.10903936624526978,0.12034036219120026
1710955525369657300,16.9626572265625,0.695164144039154,-0.09621120244264603,0.06719512492418289
1710955525388617200,16.9816171875,0.6811142563819885,-0.05070177838206291,-0.0021380267571657896
1710955525407577300,17.000577392578126,0.7067705392837524,0.0821613147854805,-0.050090912729501724
1710955525426537500,17.019537353515624,0.7455604672431946,0.2672533392906189,-0.041844237595796585
1710955525445497600,17.03849755859375,0.6963858604431152,0.47586366534233093,-0.02871064469218254
1710955525464457500,17.05745751953125,0.5571087002754211,0.6548470258712769,-0.06872228533029556
1710955525483417600,17.07641748046875,0.46364638209342957,0.749531090259552,-0.1340848207473755
1710955525502377700,17.095377685546875,0.5161807537078857,0.8384119272232056,-0.16035200655460358
1710955525521337600,17.114337646484376,0.5711585879325867,0.8973603844642639,-0.09804379940032959
1710955525540297700,17.133297607421873,0.5794052481651306,0.9239329695701599,0.016798781231045723
1710955525559257900,17.1522578125,0.4789179861545563,0.916297197341919,0.09590577334165573
1710955525578217700,17.1712177734375,0.3637699782848358,0.880256175994873,0.13683371245861053
1710955525597177900,17.190177734375,0.29474225640296936,0.7953459620475769,0.2000582218170166
1710955525616138000,17.209137939453125,0.287106454372406,0.6472112536430359,0.2678641974925995
1710955525635098000,17.22809814453125,0.32070401310920715,0.476779967546463,0.3381136655807495
1710955525654058000,17.24705810546875,0.3179551064968109,0.31551164388656616,0.36835145950317383
1710955525673018000,17.26601806640625,0.29962918162345886,0.14660754799842834,0.32192572951316833
1710955525691978200,17.284978271484373,0.24740023910999298,0.03848448023200035,0.268169641494751
1710955525710938000,17.303938232421874,0.14752385020256042,0.010690134018659592,0.22204934060573578
1710955525729898200,17.322898193359375,0.08460476994514465,-0.02412915788590908,0.2110537886619568
1710955525748858400,17.3418583984375,0.16615521907806396,-0.10934479534626007,0.2009745091199875
1710955525767818200,17.360818359375,0.3549124300479889,-0.10384701192378998,0.22510367631912231
1710955525786778400,17.3797783203125,0.47922343015670776,-0.06750056147575378,0.2880227565765381
1710955525805738500,17.398738525390623,0.5115992426872253,0.05345066636800766,0.36193737387657166
1710955525824698600,17.41769873046875,0.41874781250953674,0.24892739951610565,0.43921178579330444
1710955525843658500,17.436658447265625,0.2525925934314728,0.4725039005279541,0.5195404887199402
1710955525862618600,17.45561865234375,0.11911863088607788,0.5888736248016357,0.562911868095398
1710955525881578800,17.474578857421875,0.05039634555578232,0.44348782300949097,0.5561923980712891
1710955525900539000,17.493538818359376,0.03176496922969818,0.11331541836261749,0.4776962697505951
1710955525919498800,17.512498779296877,0.04764745384454727,-0.19914191961288452,0.3961458206176758
1710955525938459000,17.531458984375,0.0974329337477684,-0.3753764033317566,0.3491092324256897
1710955525957418800,17.550418701171875,0.19792018830776215,-0.3448331654071808,0.3863719701766968
1710955525976379000,17.56937890625,0.28008151054382324,-0.19425499439239502,0.48930269479751587
1710955525995339000,17.588339111328125,0.2577849328517914,0.18234314024448395,0.6291907429695129
1710955526014299100,17.607299072265626,0.10476330667734146,0.6789761781692505,0.7892373204231262
1710955526033259000,17.626259033203127,0.05192350596189499,0.5061014890670776,0.5342012643814087
1710955526052219100,17.64521923828125,0.25534147024154663,-0.23273947834968567,-0.029016077518463135
1710955526071179300,17.66417919921875,0.34208428859710693,-0.6322450637817383,-0.2883281707763672
1710955526090139400,17.683139404296874,0.1081230640411377,-0.25503605604171753,-0.23762640357017517
1710955526109099300,17.702099365234375,-0.09651663154363632,0.18295399844646454,-0.29016077518463135
1710955526128059400,17.721059326171876,-0.11331541836261749,0.18906265497207642,-0.5186241865158081
1710955526147019500,17.74001953125,-0.12064579129219055,0.19639302790164948,-0.6017017960548401
1710955526165979400,17.7589794921875,-0.13713914155960083,0.30085089802742004,-0.47494736313819885
1710955526184939500,17.777939453125,-0.19822561740875244,0.41905322670936584,-0.3536907136440277
1710955526203899600,17.796899658203124,-0.32620179653167725,0.5067123174667358,-0.2968802750110626
1710955526222859800,17.81585986328125,-0.4364628791809082,0.4712821841239929,-0.22907429933547974
1710955526241819600,17.834819580078126,-0.4734202027320862,0.27000224590301514,-0.16707152128219604
1710955526260779800,17.85377978515625,-0.49418962001800537,-0.06230820715427399,-0.143553227186203
1710955526279740000,17.872739990234376,-0.5094612240791321,-0.45448338985443115,-0.168904110789299
1710955526298699800,17.89169970703125,-0.4889972507953644,-0.9132428169250488,-0.2406807243824005
1710955526317660000,17.910659912109374,-0.4150826036930084,-1.2818996906280518,-0.3341430425643921
1710955526336620000,17.9296201171875,-0.2932150959968567,-1.454469084739685,-0.40286532044410706
1710955526355580000,17.948579833984375,-0.20647229254245758,-1.3350449800491333,-0.4621191918849945
1710955526374540000,17.9675400390625,-0.19303326308727264,-0.9566142559051514,-0.5299251675605774
1710955526393500200,17.986500244140625,-0.26939135789871216,-0.4627300798892975,-0.5757400393486023
1710955526412460300,18.005460205078126,-0.411722868680954,-0.01954767294228077,-0.618806004524231
1710955526431420400,18.02442041015625,-0.5415316224098206,0.3292561173439026,-0.6264418363571167
1710955526450380300,18.04338037109375,-0.4199695289134979,0.44501498341560364,-0.5656607747077942
1710955526469340400,18.06234033203125,0.08918625861406326,0.24984370172023773,-0.46517354249954224
1710955526488300500,18.081300537109374,0.3707949221134186,0.09468404203653336,-0.14172062277793884
1710955526507260400,18.100260498046875,0.21868959069252014,0.08124501258134842,-0.07941242307424545
1710955526526220500,18.119220458984376,0.04886918142437935,0.19853104650974274,-0.2993237376213074
1710955526545180700,18.1381806640625,-0.13164135813713074,0.2159406989812851,-0.3127627670764923
1710955526564140500,18.157140625,-0.34086254239082336,0.21685700118541718,-0.12217295914888382
1710955526583100700,18.1761005859375,-0.47067132592201233,0.054672397673130035,-0.047952886670827866
1710955526602060800,18.195060791015624,-0.2513708472251892,-0.19303326308727264,-0.10659590363502502
1710955526621021000,18.21402099609375,0.08613193035125732,-0.43921178579330444,-0.19914191961288452
1710955526639981000,18.23298095703125,0.1380554437637329,-0.4456258714199066,-0.3020726442337036
1710955526658941000,18.25194091796875,-0.09957095980644226,-0.1902843713760376,-0.3707949221134186
1710955526677901000,18.270901123046876,-0.37781986594200134,0.19700388610363007,-0.33017241954803467
1710955526696861000,18.28986083984375,-0.5488619804382324,0.5354229807853699,-0.2715294063091278
1710955526715821000,18.308821044921874,-0.5751292109489441,0.5839866995811462,-0.2935205399990082
1710955526734781200,18.32778125,-0.49480047821998596,0.35766133666038513,-0.37171122431755066
1710955526753741300,18.3467412109375,-0.364991694688797,0.026878049597144127,-0.4175260663032532
1710955526772701200,18.365701171875,-0.24434591829776764,-0.37110036611557007,-0.42882707715034485
1710955526791661300,18.384661376953126,-0.16707152128219604,-0.7800742983818054,-0.5186241865158081
1710955526810621400,18.403621337890623,-0.15760311484336853,-1.0189224481582642,-0.5986474752426147
1710955526829581600,18.42258154296875,-0.19364413619041443,-0.9825760126113892,-0.5067123174667358
1710955526848541400,18.44154150390625,-0.26480987668037415,-0.7150171995162964,-0.44990190863609314
1710955526867501600,18.46050146484375,-0.268169641494751,-0.3390299379825592,-0.562911868095398
1710955526886461400,18.47946142578125,-0.19303326308727264,0.08063415437936783,-0.6743947267532349
1710955526905421600,18.498421630859376,-0.13713914155960083,0.35796675086021423,-0.6676751971244812
1710955526924381700,18.517381591796877,-0.07483093440532684,0.43860089778900146,-0.6059778332710266
1710955526943341800,18.536341796875,0.000305432389723137,0.5122101306915283,-0.5381718873977661
1710955526962301700,18.5553017578125,0.11331541836261749,0.4685332775115967,-0.5516108870506287
1710955526981261800,18.57426171875,0.10751219838857651,0.40286532044410706,-0.7134900689125061
1710955527000222000,18.593221923828125,-0.2516762912273407,0.6362156867980957,-0.7086031436920166
1710955527019182000,18.61218212890625,-0.6633991599082947,1.053130865097046,-0.28985533118247986
1710955527038142000,18.631141845703127,-0.6175842881202698,0.9111047983169556,0.1078176349401474
1710955527057102000,18.65010205078125,0.08888082206249237,0.21135921776294708,0.14110976457595825
1710955527076062200,18.669062255859377,0.6310232877731323,-0.11698060482740402,0.18173226714134216
1710955527095022000,18.68802197265625,0.3185659945011139,0.13927717506885529,0.17653992772102356
1710955527113982200,18.706982177734375,-0.47586366534233093,0.4685332775115967,0.09040798991918564
1710955527132942000,18.725942138671876,-0.7690787315368652,-0.23029601573944092,-0.08093958348035812
1710955527151902200,18.744902099609376,-0.23854269087314606,-1.4242312908172607,-0.11178825795650482
1710955527170862300,18.7638623046875,0.11484257876873016,-1.8521419763565063,-0.13530655205249786
1710955527189822500,18.782822509765627,-0.10109812021255493,-1.2675443887710571,-0.16157373785972595
1710955527208782300,18.8017822265625,-0.33536475896835327,-0.21166464686393738,-0.10140355676412582
1710955527227742500,18.820742431640625,-0.21746785938739777,0.6096430420875549,0.09315688163042068
1710955527246702600,18.83970263671875,-0.013133592903614044,1.082452416419983,0.1997527778148651
1710955527265662500,18.858662353515626,-0.14660754799842834,1.2470804452896118,0.12614357471466064
1710955527284622600,18.87762255859375,-0.4111120104789734,0.6896663308143616,0.09834922850131989
1710955527303582700,18.896582763671876,-0.4175260663032532,-0.35063639283180237,0.09957095980644226
1710955527322542600,18.91554248046875,-0.20402882993221283,-1.1487312316894531,0.05894844979047775
1710955527341502700,18.934502685546875,-0.006414080038666725,-1.424842119216919,0.000610864779446274
1710955527360462600,18.953462646484375,0.04001164436340332,-1.1166608333587646,-0.03909534588456154
1710955527379422700,18.972422607421876,-0.032681263983249664,-0.4786125421524048,-0.06933315098285675
1710955527398382800,18.9913828125,-0.08521563559770584,0.1178968995809555,-0.12217295914888382
1710955527417342700,19.0103427734375,-0.14477495849132538,0.6120865345001221,-0.20647229254245758
1710955527436302800,19.029302734375,-0.2620609998703003,0.8072578310966492,-0.2254091054201126
1710955527455263000,19.048262939453124,-0.36163195967674255,0.6798924803733826,-0.2370155304670334
1710955527474222800,19.067222900390625,-0.38698282837867737,0.43432486057281494,-0.25534147024154663
1710955527493183000,19.086182861328126,-0.35246896743774414,0.14752385020256042,-0.2571740746498108
1710955527512143000,19.10514306640625,-0.2886336147785187,-0.18723005056381226,-0.23182319104671478
1710955527531103000,19.12410302734375,-0.21410810947418213,-0.5115992426872253,-0.18295399844646454
1710955527550063000,19.14306298828125,-0.17806708812713623,-0.7409789562225342,-0.19272783398628235
1710955527569023000,19.16202294921875,-0.2205221801996231,-0.7544180154800415,-0.24984370172023773
1710955527587983000,19.180983154296875,-0.25350889563560486,-0.5943714380264282,-0.29474225640296936
1710955527606943200,19.199943115234376,-0.23273947834968567,-0.3298669755458832,-0.27458372712135315
1710955527625903000,19.218903076171873,-0.26480987668037415,-0.06902772188186646,-0.22724169492721558
1710955527644863200,19.23786328125,-0.40286532044410706,0.006108647678047419,-0.20952661335468292
1710955527663823400,19.2568232421875,-0.4630354940891266,-0.054672397673130035,-0.22693626582622528
1710955527682783200,19.275783203125,-0.38301220536231995,-0.10384701192378998,-0.21288637816905975
1710955527701743000,19.2947431640625,-0.2309068888425827,-0.21166464686393738,-0.19394956529140472
1710955527720703200,19.313703125,-0.1178968995809555,-0.39217519760131836,-0.18845178186893463
1710955527739663400,19.332663330078127,-0.10170898586511612,-0.42088583111763,-0.1533270627260208
1710955527758623200,19.351623291015624,-0.21807873249053955,-0.36682429909706116,-0.16157373785972595
1710955527777583400,19.370583251953125,-0.3347539007663727,-0.32162031531333923,-0.2107483446598053
1710955527796543200,19.389543212890626,-0.3185659945011139,-0.22266021370887756,-0.18784092366695404
1710955527815503400,19.40850341796875,-0.26358816027641296,-0.06261363625526428,-0.1545487940311432
1710955527834463500,19.42746337890625,-0.23457208275794983,0.006414080038666725,-0.1539379209280014
1710955527853423400,19.44642333984375,-0.18814635276794434,-0.07635809481143951,-0.1951712965965271
1710955527872383500,19.465383544921874,-0.15057817101478577,-0.1695149689912796,-0.19089524447917938
1710955527891343400,19.48434326171875,-0.16584978997707367,-0.2101374864578247,-0.18661919236183167
1710955527910303500,19.503303466796876,-0.16035200655460358,-0.23335035145282745,-0.21838416159152985
1710955527929263400,19.522263427734377,-0.11209368705749512,-0.18387030065059662,-0.28435754776000977
1710955527948223500,19.541223388671874,-0.1026252806186676,-0.05711585655808449,-0.27519458532333374
1710955527967183400,19.560183349609375,-0.12400554865598679,0.004886918235570192,-0.28466299176216125
1710955527986143500,19.5791435546875,-0.15027274191379547,-0.014966187067329884,-0.30054548382759094
1710955528005103600,19.598103515625,-0.1637117564678192,-0.020158538594841957,-0.2419024556875229
1710955528024063500,19.6170634765625,-0.1337793916463852,-0.09926552325487137,-0.2211330533027649
1710955528043023600,19.636023681640626,-0.08796452730894089,-0.21655155718326569,-0.28588470816612244
1710955528061983500,19.6549833984375,-0.043371398001909256,-0.2831358313560486,-0.33719736337661743
1710955528080943600,19.673943603515625,0.0009162971982732415,-0.2877173125743866,-0.33017241954803467
1710955528099903500,19.692903564453125,0.0308486707508564,-0.2513708472251892,-0.3347539007663727
1710955528118863600,19.711863525390626,0.0513126403093338,-0.18631376326084137,-0.3433060050010681
1710955528137823500,19.730823486328124,0.03848448023200035,-0.060781046748161316,-0.347582072019577
1710955528156783600,19.74978369140625,0.000610864779446274,0.020158538594841957,-0.3597993552684784
1710955528175743500,19.768743408203125,0.006414080038666725,0.01649334840476513,-0.3753764033317566
1710955528194703600,19.78770361328125,0.05070177838206291,0.04581485688686371,-0.35246896743774414
1710955528213663500,19.80666357421875,0.05436696484684944,0.04062250629067421,-0.33322674036026
1710955528232623600,19.82562353515625,0.03817904740571976,-0.036651886999607086,-0.3530798554420471
1710955528251583500,19.84458349609375,0.03481929376721382,-0.07391463965177536,-0.33719736337661743
1710955528270543600,19.863543701171874,0.056810423731803894,-0.07360920310020447,-0.2669478952884674
1710955528289503500,19.88250341796875,0.07360920310020447,-0.08277218043804169,-0.2260199636220932
1710955528308463600,19.901463623046876,0.05345066636800766,-0.07024945318698883,-0.21227550506591797
1710955528327423500,19.920423583984373,0.008857538923621178,-0.025961752980947495,-0.18142683804035187
1710955528346383600,19.939383544921874,-0.009773836471140385,0.013439024798572063,-0.10690133273601532
1710955528365343500,19.958343505859375,0.01740964688360691,0.025045456364750862,-0.06444623321294785
1710955528384303400,19.977303466796876,0.056199558079242706,0.004581485874950886,-0.04550942778587341
1710955528403263500,19.996263427734377,0.04214967042207718,-0.049480047076940536,-0.021380268037319183
1710955528422223400,20.015223388671874,-0.0015271619195118546,-0.10354158282279968,0.022907428443431854
1710955528441183500,20.03418359375,-0.0021380267571657896,-0.10720676928758621,0.05253437161445618
1710955528460143400,20.053143310546876,0.04459312930703163,-0.06383536756038666,0.06352993845939636
1710955528479103500,20.072103515625,0.0870482325553894,-0.030543239787220955,0.06994401663541794
1710955528498063400,20.0910634765625,0.09132428467273712,-0.007635809946805239,0.09926552325487137
1710955528517023200,20.110023193359375,0.06780599057674408,-0.001832594396546483,0.12522727251052856
1710955528535983400,20.1289833984375,0.06230820715427399,0.010079269297420979,0.13011419773101807
1710955528554943200,20.147943115234376,0.05925388261675835,0.07849612087011337,0.10995566099882126
1710955528573903400,20.1669033203125,0.030543239787220955,0.15699224174022675,0.08613193035125732
1710955528592863200,20.18586328125,-0.010995565913617611,0.19272783398628235,0.061391908675432205
1710955528611823400,20.2048232421875,-0.03695731982588768,0.19242240488529205,0.04276053607463837
1710955528630783200,20.223783203125,-0.03695731982588768,0.1649334877729416,0.02871064469218254
1710955528649743400,20.242743408203125,-0.07055488228797913,0.11362084746360779,0.000610864779446274
1710955528668703200,20.261703125,-0.14721840620040894,0.04062250629067421,-0.03298669680953026
1710955528687663000,20.2806630859375,-0.16157373785972595,-0.010079269297420979,-0.0513126403093338
1710955528706623200,20.299623291015624,-0.11148282140493393,0.008246674202382565,-0.020769402384757996
1710955528725583000,20.3185830078125,-0.05253437161445618,-0.011911863461136818,-0.05894844979047775
1710955528744543200,20.337543212890626,0.006719512399286032,-0.05864302068948746,-0.1185077652335167
1710955528763503000,20.356503173828123,0.08032871782779694,-0.05558869615197182,-0.2214384824037552
1710955528782463000,20.375462890625,0.16646064817905426,0.02871064469218254,-0.3390299379825592
1710955528801423000,20.394423095703125,0.2577849328517914,0.17073670029640198,-0.3845393657684326
1710955528820383000,20.413383056640626,0.26878049969673157,0.42302384972572327,-0.3646862804889679
1710955528839342800,20.4323427734375,0.18203771114349365,0.7467821836471558,-0.14691297709941864
1710955528858303000,20.451302978515624,0.06261363625526428,0.8851430416107178,0.09285144507884979
1710955528877262800,20.470262939453125,0.10384701192378998,0.6985238790512085,0.3042106628417969
1710955528896222700,20.48922265625,0.39767298102378845,0.4175260663032532,0.3582721948623657
1710955528915182800,20.508182861328127,0.3069595396518707,0.693026065826416,-0.2874118685722351
1710955528934142700,20.527142822265624,-0.185092031955719,1.0809252262115479,-0.24984370172023773
1710955528953102600,20.5461025390625,-0.43463030457496643,0.1328630894422531,0.34574946761131287
1710955528972062700,20.565062744140626,-0.15790854394435883,-1.2409718036651611,0.2101374864578247
1710955528991022600,20.584022705078127,0.33658650517463684,-1.9523237943649292,-0.3237583339214325
1710955529009982700,20.602982666015624,0.48594292998313904,-1.7846415042877197,-0.33139413595199585
1710955529028942600,20.621942626953125,0.19272783398628235,-0.9492838382720947,-0.1539379209280014
1710955529047902500,20.64090234375,0.03695731982588768,0.16187916696071625,-0.10079269111156464
1710955529066862600,20.659862548828126,0.14202606678009033,1.0152572393417358,-0.036651886999607086
1710955529085822500,20.678822509765624,0.21868959069252014,1.2678498029708862,0.04062250629067421
1710955529104782300,20.6977822265625,0.13683371245861053,1.0228930711746216,-0.07635809481143951
1710955529123742200,20.7167421875,-0.07849612087011337,0.5079340934753418,-0.10629047453403473
1710955529142702300,20.735702392578126,-0.08491020649671555,-0.2605338394641876,-0.011606430634856224
1710955529161662200,20.754662109375,0.14477495849132538,-0.8359684348106384,-0.04825831577181816
1710955529180622000,20.7736220703125,0.36774060130119324,-1.0690133571624756,-0.09896009415388107
1710955529199582200,20.792582275390625,0.383928507566452,-1.0146464109420776,-0.13194678723812103
1710955529218542000,20.8115419921875,0.24831652641296387,-0.5772672295570374,-0.12247838824987411
1710955529237502200,20.830502197265623,0.02871064469218254,0.0870482325553894,-0.07788526266813278
1710955529256462000,20.849462158203124,-0.1698204129934311,0.5803215503692627,-0.03756818547844887
1710955529275422000,20.868421875,-0.26878049969673157,0.7183769941329956,0.001832594396546483
1710955529294381800,20.8873818359375,-0.22418737411499023,0.4731147587299347,0.02412915788590908
1710955529313342000,20.906342041015623,-0.09621120244264603,0.04153880476951599,-0.012217295356094837
1710955529332301800,20.9253017578125,-0.009162971749901772,-0.3087921440601349,-0.020769402384757996
1710955529351261700,20.94426171875,0.03695731982588768,-0.4871646761894226,-0.01282816007733345
1710955529370221600,20.9632216796875,0.06566796451807022,-0.4608974754810333,-0.007941242307424545
1710955529389181400,20.982181396484375,0.03237583488225937,-0.2211330533027649,-0.011300998739898205
1710955529408141600,21.0011416015625,-0.05742128938436508,0.13591741025447845,0.03390299528837204
1710955529427101400,21.020101318359377,-0.10965022444725037,0.43004879355430603,0.08338304609060287
1710955529446061600,21.0390615234375,-0.08979712426662445,0.5604684352874756,0.15699224174022675
1710955529465021400,21.058021484375,-0.02932151034474373,0.42394015192985535,0.18295399844646454
1710955529483981300,21.076981201171876,0.023518294095993042,0.1798996776342392,0.2107483446598053
1710955529502941200,21.095941162109376,0.035735588520765305,-0.09376774728298187,0.2761108875274658
1710955529521901300,21.1149013671875,0.0027488914784044027,-0.3692677617073059,0.29962918162345886
1710955529540861200,21.133861083984375,-0.019242240116000175,-0.5338957905769348,0.25411975383758545
1710955529559821000,21.152821044921875,-0.04306596517562866,-0.47036588191986084,0.24495677649974823
1710955529578781000,21.171781005859376,-0.024434590712189674,-0.33169957995414734,0.2516762912273407
1710955529597741000,21.190740966796874,0.013133592903614044,-0.12950333952903748,0.22296564280986786
1710955529616701000,21.209700927734374,0.008857538923621178,0.07513637095689774,0.21655155718326569
1710955529635661000,21.2286611328125,-0.011606430634856224,0.16065743565559387,0.1747073233127594
1710955529654621000,21.247620849609376,-0.031154103577136993,0.18784092366695404,0.1490510106086731
1710955529673580800,21.266580810546873,-0.022296564653515816,0.17043127119541168,0.16646064817905426
1710955529692540700,21.285540771484374,0.05436696484684944,0.10048725455999374,0.1637117564678192
1710955529711500500,21.30450048828125,0.11087195575237274,0.014049889519810677,0.14233149588108063
1710955529730460700,21.323460693359376,0.09315688163042068,-0.025045456364750862,0.16340632736682892
1710955529749420500,21.342420654296873,0.06444623321294785,0.018325943499803543,0.2507599890232086
1710955529768380400,21.36138037109375,0.050090912729501724,0.049480047076940536,0.33108872175216675
1710955529787340500,21.380340576171875,0.05406153202056885,0.09590577334165573,0.3637699782848358
1710955529806300400,21.399300537109376,0.07635809481143951,0.12553271651268005,0.4153880476951599
1710955529825260300,21.41826025390625,0.1380554437637329,0.09682206809520721,0.4725039005279541
1710955529844220400,21.437220458984374,0.21930044889450073,0.04214967042207718,0.47097674012184143
1710955529863180300,21.45618017578125,0.2886336147785187,0.007024944759905338,0.4838049113750458
1710955529882140200,21.47514013671875,0.3139844834804535,-0.003359756199643016,0.5528326034545898
1710955529901100000,21.49410009765625,0.34788748621940613,-0.0668896958231926,0.56382817029953
1710955529920060200,21.51306005859375,0.4224129915237427,-0.12431098520755768,0.5433642268180847
1710955529939020000,21.53202001953125,0.4618137776851654,-0.08491020649671555,0.5656607747077942
1710955529957980000,21.55097998046875,0.4410443603992462,0.000610864779446274,0.5852084755897522
1710955529976939800,21.569939697265625,0.4673115611076355,0.0772743970155716,0.5769617557525635
1710955529995900000,21.58889990234375,0.5348120927810669,0.1853974610567093,0.5919279456138611
1710955530014859800,21.60785986328125,0.5467239618301392,0.2782489061355591,0.5998691916465759
1710955530033819600,21.626819580078124,0.49999281764030457,0.2938259541988373,0.6087267398834229
1710955530052779800,21.64577978515625,0.4786125421524048,0.36651885509490967,0.62857985496521
1710955530071739600,21.66473974609375,0.48594292998313904,0.45509424805641174,0.637742817401886
1710955530090699500,21.683699462890626,0.5225948095321655,0.5073232054710388,0.6374374032020569
1710955530109659400,21.702659423828123,0.61117023229599,0.5305360555648804,0.6502655744552612
1710955530128619500,21.72161962890625,0.6533198952674866,0.5225948095321655,0.6621774435043335
1710955530147579400,21.740579345703125,0.5665770769119263,0.4938841760158539,0.6551524996757507
1710955530166539300,21.759539306640626,0.43432486057281494,0.4572322964668274,0.6029235124588013
1710955530185499400,21.77849951171875,0.3277289569377899,0.476779967546463,0.5897899270057678
1710955530204459300,21.797459228515624,0.32559093832969666,0.4728093445301056,0.6178897023200989
1710955530223419100,21.816419189453125,0.41935867071151733,0.3851502537727356,0.5604684352874756
1710955530242379300,21.835379150390626,0.4627300798892975,0.25870123505592346,0.4572322964668274
1710955530261339100,21.854339111328127,0.39675667881965637,0.050090912729501724,0.3631591200828552
1710955530280299000,21.873299072265624,0.3032943606376648,-0.11026109009981155,0.34636032581329346
1710955530299259000,21.8922587890625,0.268169641494751,-0.1432477980852127,0.3546070158481598
1710955530318219000,21.911218994140626,0.2770271897315979,-0.06200277432799339,0.33231043815612793
1710955530337179000,21.930178955078127,0.23182319104671478,0.0015271619195118546,0.2367101013660431
1710955530356138800,21.949138671875,0.16584978997707367,0.04520399495959282,0.14263692498207092
1710955530375099000,21.968098876953125,0.13072505593299866,0.2110537886619568,0.16707152128219604
1710955530394058800,21.987058837890626,0.13225223124027252,0.3295615613460541,0.189673513174057
1710955530413018600,22.0060185546875,0.15729768574237823,0.27397283911705017,0.14813470840454102
1710955530431978800,22.024978759765624,0.13133592903614044,0.2156352698802948,0.15515965223312378
1710955530450938600,22.043938720703125,0.08063415437936783,0.1288924664258957,0.1230892539024353
1710955530469898500,22.0628984375,0.143553227186203,0.08338304609060287,0.17745621502399445
1710955530488858600,22.081858642578126,0.24006985127925873,0.11117739230394363,0.3020726442337036
1710955530507818500,22.100818603515624,0.29016077518463135,0.08918625861406326,0.29443681240081787
1710955530526778400,22.1197783203125,0.23884813487529755,0.02412915788590908,0.22846342623233795
1710955530545738200,22.13873828125,0.2049451321363449,0.06872228533029556,0.27519458532333374
1710955530564698400,22.157698486328126,0.23945899307727814,0.10048725455999374,0.32589635252952576
1710955530583658200,22.176658203125,0.3271180987358093,0.1285870373249054,0.3536907136440277
1710955530602618000,22.1956181640625,0.36254823207855225,0.19669845700263977,0.3695732057094574
1710955530621578200,22.214578125,0.31031930446624756,0.2260199636220932,0.3390299379825592
1710955530640538000,22.2335380859375,0.2910770773887634,0.18570289015769958,0.35277441143989563
1710955530659498000,22.252498046875,0.3335321843624115,0.21502439677715302,0.39675667881965637
1710955530678458000,22.2714580078125,0.36651885509490967,0.20433427393436432,0.3842339515686035
1710955530697418000,22.29041796875,0.32131487131118774,0.16584978997707367,0.31459537148475647
1710955530716377900,22.3093779296875,0.24495677649974823,0.2614501118659973,0.2874118685722351
1710955530735338000,22.328337890625,0.17043127119541168,0.39889469742774963,0.282524973154068
1710955530754297900,22.3472978515625,0.13652828335762024,0.4276053309440613,0.2608392536640167
1710955530773257700,22.3662578125,0.12247838824987411,0.3631591200828552,0.21716243028640747
1710955530792217600,22.385217529296874,0.09162971377372742,0.20830489695072174,0.14599667489528656
1710955530811177700,22.404177734375,0.07086031138896942,0.05070177838206291,0.0824667438864708
1710955530830137600,22.4231376953125,0.06383536756038666,-0.07391463965177536,0.08063415437936783
1710955530849097700,22.44209765625,0.0461202897131443,-0.22510367631912231,0.12003492563962936
1710955530868057600,22.4610576171875,0.013744457624852657,-0.2507599890232086,0.15271618962287903
1710955530887017500,22.480017578125,-0.03634645417332649,-0.15515965223312378,0.11636973917484283
1710955530905977600,22.4989775390625,-0.06536252796649933,-0.10506874322891235,0.05497783049941063
1710955530924937500,22.5179375,-0.03145953640341759,0.03787361457943916,0.1279761642217636
1710955530943897300,22.5368974609375,0.02932151034474373,0.19089524447917938,0.2257145345211029
1710955530962857500,22.555857421875,0.012217295356094837,0.08918625861406326,0.14294235408306122
1710955530981817300,22.5748173828125,-0.03909534588456154,-0.11087195575237274,0.06841685622930527
1710955531000777200,22.593777099609376,-0.05192350596189499,-0.10354158282279968,0.15515965223312378
1710955531019737300,22.6127373046875,0.005803215317428112,-0.053756099194288254,0.2055560052394867
1710955531038697200,22.631697265625,0.05436696484684944,-0.07086031138896942,0.056199558079242706
1710955531057657000,22.650656982421875,-0.016798781231045723,-0.032070402055978775,-0.07299833744764328
1710955531076617000,22.669616943359376,-0.1182023361325264,0.1386663019657135,0.009773836471140385
1710955531095577000,22.6885771484375,-0.05345066636800766,0.31673339009284973,0.1383608728647232
1710955531114537000,22.707536865234374,0.04428769648075104,0.3292561173439026,0.1130099818110466
1710955531133497000,22.7264970703125,0.011606430634856224,0.19120067358016968,0.07544180005788803
1710955531152457000,22.74545703125,-0.06261363625526428,0.023823726922273636,0.09193515032529831
1710955531171416800,22.764416748046877,-0.053756099194288254,-0.13041962683200836,0.05558869615197182
1710955531190377000,22.783376953125,0.06566796451807022,-0.15302163362503052,0.039706211537122726
1710955531209336800,22.8023369140625,0.11942406743764877,-0.08857539296150208,0.06047561392188072
1710955531228296700,22.821296630859376,0.04276053607463837,-0.11667517572641373,0.05039634555578232
1710955531247256800,22.8402568359375,-0.05283980444073677,-0.1646280586719513,0.04153880476951599
1710955531266216700,22.859216796875,-0.04978547990322113,-0.13622283935546875,0.0668896958231926
1710955531285176600,22.878176513671875,0.04306596517562866,-0.04306596517562866,0.08093958348035812
1710955531304136700,22.89713671875,0.11087195575237274,-0.016187917441129684,0.05222893878817558
1710955531323096600,22.9160966796875,0.08613193035125732,-0.038789913058280945,0.032070402055978775
1710955531342056400,22.935056396484374,0.053145237267017365,-0.05222893878817558,0.0616973415017128
