time,seconds_elapsed,z,y,x
1710889396342706000,0.047705810546875,0,0,0
1710889396361665000,0.0666650390625,-0.030179500579833984,-0.053571224212646484,-0.20646452903747559
1710889396380624600,0.085624755859375,-0.3767681121826172,-0.14416933059692383,-0.29743051528930664
1710889396399584000,0.104583984375,-0.9701614379882812,-0.3371415138244629,-0.8275201320648193
1710889396418543400,0.12354345703125,-1.4766249656677246,-0.4064755439758301,-1.5378978252410889
1710889396437503000,0.1425029296875,-1.2798042297363281,-0.3917403221130371,-1.9184975624084473
1710889396456462300,0.16146240234375,-0.35941505432128906,-0.20562458038330078,-1.601771593093872
1710889396475421700,0.180421630859375,0.3080630302429199,0.5754241943359375,-0.8556158542633057
1710889396494381000,0.199381103515625,0.6312599182128906,0.5921955108642578,-0.2506539821624756
1710889396513340700,0.218340576171875,0.23842072486877441,0.2730379104614258,-0.2362823486328125
1710889396532300000,0.237300048828125,-0.21169781684875488,3.2976889610290527,-0.059841156005859375
1710889396551259400,0.25625927734375,0.07456064224243164,1.2874627113342285,-0.34680986404418945
1710889396570218800,0.27521875,0.3076012134552002,0.94354248046875,1.2733783721923828
1710889396589178400,0.294178466796875,0.8665883541107178,1.0926885604858398,3.796969413757324
1710889396608137700,0.3131376953125,1.5803136825561523,1.3552470207214355,3.808199405670166
1710889396627097000,0.33209716796875,1.2678606510162354,1.0354080200195312,2.862947463989258
1710889396646056400,0.351056396484375,0.36713743209838867,0.6963443756103516,1.9005708694458008
1710889396665016000,0.37001611328125,-1.127164602279663,1.2022342681884766,2.131723165512085
1710889396683975400,0.388975341796875,-1.4561516046524048,1.4773969650268555,2.5521464347839355
1710889396702934800,0.407934814453125,-1.738000512123108,1.250783920288086,2.3014378547668457
1710889396721894400,0.426894287109375,-1.6923218965530396,0.9106473922729492,1.9997942447662354
1710889396740853800,0.445853759765625,-1.5718417167663574,0.7765541076660156,2.0541210174560547
1710889396759813000,0.464813232421875,-1.5501000881195068,0.978546142578125,2.2573764324188232
1710889396778772500,0.4837724609375,-1.36570405960083,0.9670448303222656,2.530139207839966
1710889396797732000,0.502732177734375,-0.9270880818367004,0.49218177795410156,2.547370433807373
1710889396816691500,0.52169140625,-0.8058475255966187,-0.1319751739501953,2.306121587753296
1710889396835650800,0.54065087890625,-0.7410072088241577,-0.3617744445800781,2.552946090698242
1710889396854610400,0.5596103515625,-0.7490389347076416,-0.3291196823120117,2.662100076675415
1710889396873569800,0.57856982421875,-0.6640559434890747,-0.18193912506103516,2.750732183456421
1710889396892529200,0.597529052734375,-0.650505781173706,-0.05576038360595703,2.7261452674865723
1710889396911488500,0.616488525390625,-0.27372676134109497,-0.1994314193725586,2.848351240158081
1710889396930448100,0.6354482421875,0.491060733795166,-0.8568687438964844,2.3668384552001953
1710889396949407500,0.654407470703125,0.5586779117584229,-1.1951465606689453,1.461863398551941
1710889396968366800,0.673366943359375,0.5091696977615356,-0.7140283584594727,1.3460794687271118
1710889396987326200,0.692326171875,0.7089130878448486,-0.04635810852050781,1.0692704916000366
1710889397006285800,0.711285888671875,0.21901583671569824,0.6850852966308594,0.06653344631195068
1710889397025245200,0.7302451171875,0.11513018608093262,1.4239006042480469,-0.8303592205047607
1710889397044204500,0.74920458984375,0.3164200782775879,1.3098640441894531,-1.3627715110778809
1710889397063164000,0.768163818359375,0.5255061388015747,0.9888448715209961,-1.65530526638031
1710889397082123500,0.78712353515625,0.5600539445877075,0.9958648681640625,-1.7054153680801392
1710889397101083000,0.806082763671875,0.8781177997589111,1.3238143920898438,-2.131417989730835
1710889397120042200,0.825042236328125,0.5765478610992432,1.8723220825195312,-2.9690847396850586
1710889397139001900,0.844001953125,0.36347246170043945,2.710322380065918,-3.024653434753418
1710889397157961200,0.862961181640625,0.1696760654449463,3.0845041275024414,-2.9832499027252197
1710889397176920600,0.881920654296875,-0.20340609550476074,2.458540916442871,-3.064068555831909
1710889397195880000,0.9008798828125,-0.4106872081756592,0.9759130477905273,-2.8641817569732666
1710889397214839600,0.919839599609375,-0.45915913581848145,-0.3123006820678711,-2.1765995025634766
1710889397233799000,0.938798828125,-0.43006038665771484,-1.3218059539794922,-1.8163340091705322
1710889397252758300,0.95775830078125,-0.43946123123168945,-1.7272930145263672,-1.907681941986084
1710889397271717600,0.976717529296875,-0.2561061382293701,-1.7918496131896973,-2.353297710418701
1710889397290677200,0.99567724609375,-0.3170647621154785,-1.4239473342895508,-2.656846046447754
1710889397309636600,1.01463671875,-0.5003945827484131,-0.7141284942626953,-3.0649635791778564
1710889397328596000,1.033595947265625,-1.0322790145874023,-0.44328880310058594,-3.4779369831085205
1710889397347555600,1.0525556640625,-1.529489278793335,-0.3316764831542969,-3.6383302211761475
1710889397366515000,1.071514892578125,-1.505874752998352,-0.4985380172729492,-3.691749334335327
1710889397385474300,1.090474365234375,-1.1296218633651733,-0.6345977783203125,-2.9433202743530273
1710889397404434000,1.109433837890625,-1.5308051109313965,-0.18232250213623047,-2.1981520652770996
1710889397423393300,1.128393310546875,-1.5923550128936768,0.23363113403320312,-1.5583844184875488
1710889397442352600,1.1473525390625,-1.3357384204864502,0.16416263580322266,-1.356430172920227
1710889397461312300,1.166312255859375,-1.2107856273651123,-0.2477426528930664,-1.3360912799835205
1710889397480271600,1.185271728515625,-1.235914707183838,-0.2836627960205078,-1.2168525457382202
1710889397499231000,1.20423095703125,-1.4816217422485352,0.18760013580322266,-0.9960726499557495
1710889397518190600,1.223190673828125,-1.2742609977722168,0.7381248474121094,-0.719218373298645
1710889397537150000,1.24214990234375,-1.1210647821426392,0.42704105377197266,-0.6857454776763916
1710889397556109300,1.261109375,-1.2424250841140747,0.3534965515136719,-0.5308318138122559
1710889397575069000,1.28006884765625,-1.4219489097595215,0.07187080383300781,-0.7355397939682007
1710889397594028300,1.2990283203125,-1.5252227783203125,-0.2273273468017578,-0.7577769756317139
1710889397612987600,1.317987548828125,-1.7801836729049683,-0.4577474594116211,-0.8820012807846069
1710889397631947300,1.336947265625,-2.0755131244659424,-0.6758365631103516,-1.1393126249313354
1710889397650906600,1.35590673828125,-2.595200777053833,-0.8281478881835938,-1.694575548171997
1710889397669866000,1.374865966796875,-2.8709235191345215,-0.7110710144042969,-1.7760848999023438
1710889397688825600,1.39382568359375,-2.825063467025757,-0.5513687133789062,-1.544028878211975
1710889397707785000,1.412784912109375,-3.1463189125061035,-0.31130218505859375,-1.1913807392120361
1710889397726744600,1.43174462890625,-3.0435729026794434,-0.11654186248779297,-0.6737065315246582
1710889397745704000,1.450703857421875,-2.1373884677886963,-0.08915901184082031,0.44248664379119873
1710889397764663300,1.469663330078125,-1.3002605438232422,-0.10741996765136719,1.7239389419555664
1710889397783623000,1.488622802734375,-1.2344002723693848,-0.09422016143798828,2.327481985092163
1710889397802582300,1.507582275390625,-0.37363529205322266,0.1932544708251953,3.324650764465332
1710889397821542000,1.5265419921875,0.28629302978515625,0.9349584579467773,3.963608741760254
1710889397840501200,1.545501220703125,1.3492116928100586,0.6175470352172852,3.719142198562622
1710889397859460600,1.564460693359375,2.5045135021209717,0.27040863037109375,3.69176983833313
1710889397878420200,1.583420166015625,2.8488309383392334,-0.6746749877929688,2.925910472869873
1710889397897379600,1.602379638671875,0.5479593276977539,-0.6539554595947266,1.206721305847168
1710889397916339000,1.6213388671875,-0.1526174545288086,-0.19989585876464844,-0.3835475444793701
1710889397935298600,1.640298583984375,0.41965293884277344,-0.6884818077087402,-0.6637260913848877
1710889397954258000,1.6592578125,2.0482468605041504,-0.8588309288024902,1.861999273300171
1710889397973217500,1.678217529296875,3.3832461833953857,-0.3396458625793457,4.65385103225708
1710889397992177000,1.697177001953125,1.6641888618469238,-0.5596885681152344,4.312453269958496
1710889398011136500,1.716136474609375,0.8817682266235352,-1.561263084411621,2.435232162475586
1710889398030096000,1.735095947265625,0.6581077575683594,-2.4114904403686523,1.4416477680206299
1710889398049055500,1.754055419921875,0.740990400314331,-2.832845687866211,1.958519458770752
1710889398068014800,1.773014892578125,0.397336483001709,-3.145681619644165,2.6928749084472656
1710889398086974500,1.791974365234375,-0.36069464683532715,-3.171426296234131,2.150118589401245
1710889398105933800,1.810933837890625,-0.28066277503967285,-2.678739547729492,1.649446964263916
1710889398124893400,1.8298935546875,0.3731856346130371,-2.234078884124756,1.4019465446472168
1710889398143852800,1.848852783203125,0.5288100242614746,-2.455611228942871,0.046494483947753906
1710889398162812400,1.8678125,-0.2998371124267578,-1.7700629234313965,-1.5308074951171875
1710889398181771800,1.886771728515625,0.10739421844482422,-0.3197488784790039,-1.0270318984985352
1710889398200731100,1.905731201171875,1.289503574371338,0.8640904426574707,-0.5333914756774902
1710889398219690800,1.924690673828125,1.1315088272094727,1.555516242980957,-1.1252107620239258
1710889398238650000,1.943650146484375,0.3965272903442383,1.5510597229003906,-2.3763160705566406
1710889398257609700,1.962609619140625,0.06687116622924805,1.938713550567627,-2.066689968109131
1710889398276569000,1.981569091796875,0.46417999267578125,2.6658496856689453,-0.2803201675415039
1710889398295528700,2.00052880859375,1.132345199584961,2.107616424560547,1.2178125381469727
1710889398314488000,2.019488037109375,1.4045801162719727,1.366227149963379,1.0178871154785156
1710889398333447700,2.03844775390625,1.2854957580566406,0.7487382888793945,-0.6737995147705078
1710889398352407000,2.057406982421875,2.8286757469177246,3.90195369720459,-2.0944972038269043
1710889398371366700,2.07636669921875,1.478893756866455,2.0205283164978027,-1.2386984825134277
1710889398390326000,2.095325927734375,1.8984785079956055,0.6189389228820801,-2.9006805419921875
1710889398409285600,2.11428564453125,1.6334376335144043,1.3445725440979004,-3.841322422027588
1710889398428245000,2.133244873046875,1.2436165809631348,1.4099946022033691,-4.035386562347412
1710889398447204600,2.15220458984375,2.1364340782165527,0.7493247985839844,-3.71933650970459
1710889398466164000,2.1711640625,0.8551955223083496,1.483586311340332,-2.898594379425049
1710889398485123600,2.19012353515625,1.1907501220703125,2.4914517402648926,-2.4458069801330566
1710889398504083000,2.2090830078125,1.7165884971618652,1.1725378036499023,-1.1357316970825195
1710889398523042600,2.22804248046875,1.9628500938415527,-0.1210789680480957,-0.8687105178833008
1710889398542002200,2.247002197265625,1.5470614433288574,-1.2163152694702148,-1.3807573318481445
1710889398560961500,2.26596142578125,0.6720929145812988,-1.0873441696166992,-1.847928524017334
1710889398579921200,2.284921142578125,1.0887060165405273,-1.412461280822754,-1.9013690948486328
1710889398598880500,2.303880615234375,0.8869686126708984,-2.778073310852051,-2.008932113647461
1710889398617840000,2.322840087890625,0.12100505828857422,-1.7548789978027344,-3.1493067741394043
1710889398636799500,2.341799560546875,0.19011259078979492,-0.8116974830627441,-3.1884231567382812
1710889398655759000,2.360759033203125,0.2655324935913086,-1.4180445671081543,-2.271888494491577
1710889398674718500,2.379718505859375,0.30030250549316406,-0.904597282409668,-1.5120477676391602
1710889398693678000,2.398677978515625,0.352935791015625,-0.659247875213623,-1.2068250179290771
1710889398712637700,2.4176376953125,0.5322999954223633,-1.0670595169067383,-0.3601186275482178
1710889398731597000,2.43659716796875,-0.5034198760986328,-1.0288276672363281,-0.31951475143432617
1710889398750556700,2.455556640625,-1.6745471954345703,-0.9543294906616211,-0.7239995002746582
1710889398769516000,2.47451611328125,-2.1153602600097656,-0.8397965431213379,-0.6390413045883179
1710889398788475600,2.4934755859375,-2.3966426849365234,-0.2057342529296875,0.1282428503036499
1710889398807435000,2.51243505859375,-2.810122013092041,-0.5721902847290039,0.9791639447212219
1710889398826394600,2.53139453125,-2.9456076622009277,-1.5405282974243164,0.9557725787162781
1710889398845354200,2.550354248046875,-3.1405587196350098,-1.2850227355957031,1.002160668373108
1710889398864313600,2.569313720703125,-3.090993881225586,-0.9009709358215332,0.7908504605293274
1710889398883273200,2.588273193359375,-2.7910852432250977,-0.6773176193237305,0.9250801205635071
1710889398902232800,2.60723291015625,-2.9404139518737793,-0.44797754287719727,0.438517302274704
1710889398921192200,2.626192138671875,-3.143815517425537,0.041173458099365234,-0.39602118730545044
1710889398940151600,2.645151611328125,-2.3760838508605957,0.6626129150390625,0.4178752899169922
1710889398959111200,2.664111083984375,-1.5207538604736328,1.7435040473937988,1.616577386856079
1710889398978070800,2.68307080078125,-0.4356198310852051,2.9775819778442383,2.8383281230926514
1710889398997030100,2.702030029296875,0.3573794364929199,3.4035329818725586,3.899326801300049
1710889399015989800,2.72098974609375,-0.12633180618286133,2.759531021118164,3.2848172187805176
1710889399034949400,2.739949462890625,-0.9069461822509766,2.5111799240112305,2.030843734741211
1710889399053908700,2.75890869140625,-1.4180636405944824,2.511749267578125,1.5053374767303467
1710889399072868400,2.777868408203125,-1.649785041809082,2.3831491470336914,2.151381254196167
1710889399091827700,2.79682763671875,-1.1422243118286133,1.2359399795532227,2.6693050861358643
1710889399110787300,2.815787353515625,-1.2585291862487793,-0.15363597869873047,2.1554176807403564
1710889399129747000,2.834746826171875,-1.452378273010254,-1.0966911315917969,1.4389495849609375
1710889399148706300,2.853706298828125,-1.3450851440429688,-1.199859619140625,0.705488920211792
1710889399167666000,2.872666015625,-0.7578063011169434,-0.8867673873901367,-0.03972327709197998
1710889399186625500,2.89162548828125,-0.2797250747680664,0.16065025329589844,-0.2906011939048767
1710889399205585000,2.9105849609375,0.01375722885131836,1.3306198120117188,-0.5330474376678467
1710889399224544500,2.92954443359375,0.4579958915710449,2.068075180053711,-0.6791254281997681
1710889399243503900,2.94850390625,1.0238242149353027,2.253727912902832,-0.46354568004608154
1710889399262463500,2.96746337890625,1.2182707786560059,1.8304686546325684,-0.03174173831939697
1710889399281423000,2.986423095703125,0.6669645309448242,1.9512085914611816,0.7477318048477173
1710889399300382500,3.005382568359375,0.6702008247375488,2.41984224319458,1.291353702545166
1710889399319342000,3.024342041015625,1.2984504699707031,1.2864937782287598,0.9157278537750244
1710889399338301400,3.043301513671875,1.574038028717041,0.1761794090270996,0.14600086212158203
1710889399357261000,3.062260986328125,0.796900749206543,0.04658985137939453,-0.24145746231079102
1710889399376220700,3.081220703125,0.2050309181213379,0.2332601547241211,-0.7050285339355469
1710889399395180000,3.100179931640625,-0.36227941513061523,0.2005167007446289,-1.0141921043395996
1710889399414139600,3.1191396484375,-0.8138375282287598,0.23390865325927734,-1.0944011211395264
1710889399433099300,3.138099365234375,-0.7015619277954102,0.6561331748962402,-1.5142948627471924
1710889399452058600,3.15705859375,-0.305387020111084,-0.11487770080566406,-2.299816131591797
1710889399471018200,3.176018310546875,-0.026165485382080078,-0.881371021270752,-2.491133213043213
1710889399489977900,3.194977783203125,-0.08039093017578125,-1.0063433647155762,-2.368508815765381
1710889399508937200,3.213937255859375,0.2727227210998535,-1.3232426643371582,-1.9823503494262695
1710889399527896800,3.232896728515625,0.6601581573486328,-0.6265158653259277,-1.3533713817596436
1710889399546856400,3.2518564453125,0.3757600784301758,0.36257362365722656,-1.0896973609924316
1710889399565816000,3.270816162109375,-0.24939393997192383,0.6050257682800293,-1.3070051670074463
1710889399584775400,3.289775390625,-0.9991164207458496,0.2680215835571289,-1.1288819313049316
1710889399603734800,3.30873486328125,-1.2593979835510254,0.1764073371887207,-0.12678027153015137
1710889399622694400,3.3276943359375,-0.8176889419555664,0.32942771911621094,0.9192695617675781
1710889399641654000,3.346654052734375,-0.29913997650146484,0.3560762405395508,2.0167958736419678
1710889399660613600,3.365613525390625,0.19635248184204102,0.05896568298339844,2.629892349243164
1710889399679573000,3.384572998046875,0.43413496017456055,-0.47278499603271484,2.297633647918701
1710889399698532600,3.40353271484375,0.16205692291259766,-0.6375312805175781,1.472651720046997
1710889399717492000,3.422491943359375,-0.5336060523986816,-0.12027454376220703,0.9646091461181641
1710889399736451600,3.44145166015625,-0.9455323219299316,-0.25320911407470703,0.7189464569091797
1710889399755411200,3.4604111328125,-0.9167304039001465,-0.7775382995605469,1.0330532789230347
1710889399774370800,3.479370849609375,-0.7425975799560547,-0.42784976959228516,1.3487529754638672
1710889399793330200,3.498330078125,-0.8919882774353027,0.04845619201660156,1.7294360399246216
1710889399812289800,3.517289794921875,-1.0459818840026855,-0.5350909233093262,2.1292409896850586
1710889399831249200,3.536249267578125,-0.9028401374816895,-0.7596287727355957,2.760186195373535
1710889399850208800,3.555208740234375,-0.9768199920654297,-0.8315110206604004,2.495603561401367
1710889399869168400,3.57416845703125,-1.2462244033813477,-0.6348867416381836,2.169090747833252
1710889399888128000,3.5931279296875,-1.2734780311584473,-0.49393606185913086,2.204957962036133
1710889399907087400,3.61208740234375,-0.795323371887207,-0.21856355667114258,1.810049057006836
1710889399926047000,3.631046875,-0.857421875,0.277921199798584,1.2200829982757568
1710889399945006300,3.65000634765625,-0.9489989280700684,1.0086097717285156,0.7244834899902344
1710889399963966000,3.668966064453125,-0.9008655548095703,1.8337345123291016,0.08805226534605026
1710889399982925600,3.687925537109375,-0.7644219398498535,1.9223155975341797,-0.39152732491493225
1710889400001885200,3.70688525390625,-0.32477760314941406,1.6048316955566406,0.026644691824913025
1710889400020844500,3.725844482421875,0.3006114959716797,2.6789488792419434,1.1926002502441406
1710889400039804200,3.74480419921875,1.0805597305297852,2.6176137924194336,1.8029592037200928
1710889400058763800,3.763763671875,1.5462322235107422,2.6404614448547363,0.5519711375236511
1710889400077723100,3.78272314453125,1.1838550567626953,2.8787693977355957,-1.3351842164993286
1710889400096682800,3.801682861328125,0.17171669006347656,1.7487821578979492,-2.200850009918213
1710889400115642400,3.820642333984375,0.25325489044189453,1.4587082862854004,-1.3219510316848755
1710889400134602000,3.83960205078125,-0.4237833023071289,1.9565658569335938,-0.33803749084472656
1710889400153561300,3.858561279296875,-1.0759825706481934,1.1878690719604492,-0.2186753749847412
1710889400172521000,3.87752099609375,-0.3262929916381836,0.053612709045410156,0.302778959274292
1710889400191480300,3.896480224609375,-0.7511110305786133,-0.704740047454834,0.4634568691253662
1710889400210440000,3.91543994140625,-0.9727873802185059,-1.6513886451721191,0.3202859163284302
1710889400229399600,3.934399658203125,-0.49295902252197266,-1.7130084037780762,0.5412453413009644
1710889400248359200,3.953359130859375,-0.043631553649902344,-1.4262230396270752,0.6240572929382324
1710889400267318500,3.972318603515625,-0.5308132171630859,-1.9929180145263672,0.0437014102935791
1710889400286278100,3.991278076171875,-0.7386846542358398,-1.7843568325042725,-0.8973548412322998
1710889400305237500,4.010237548828125,-1.1611061096191406,-1.8239803314208984,-1.3718781471252441
1710889400324197000,4.029197021484375,-0.6198358535766602,-0.6853506565093994,-0.5899169445037842
1710889400343156700,4.04815673828125,-0.6315908432006836,-0.3817119598388672,-0.9193675518035889
1710889400362116400,4.067116455078125,0.4966897964477539,-0.7977461814880371,-0.253082275390625
1710889400381075700,4.08607568359375,0.7924060821533203,-0.9234378337860107,-0.2844967842102051
1710889400400035300,4.105035400390625,-0.6176490783691406,-0.8395829200744629,-0.3535611629486084
1710889400418995000,4.123994873046875,-1.3096485137939453,-0.7422373294830322,-1.0514097213745117
1710889400437954300,4.142954345703125,-0.7644672393798828,-1.0494170188903809,-1.0482738018035889
1710889400456914000,4.161913818359375,-0.06286907196044922,-1.3599743843078613,-0.18244552612304688
1710889400475873500,4.18087353515625,0.14817333221435547,-0.8698916435241699,-0.4881720542907715
1710889400494833000,4.1998330078125,0.10677623748779297,-0.572704553604126,-0.7626428604125977
1710889400513792500,4.21879248046875,0.8866958618164062,-1.1148805618286133,-0.15783357620239258
1710889400532752100,4.237752197265625,1.4876394271850586,-0.5089535713195801,0.24180245399475098
1710889400551711700,4.256711669921875,3.247378349304199,-0.8709187507629395,-0.6104147434234619
1710889400570671000,4.275671142578125,3.027695655822754,-0.8993561267852783,-0.9592974185943604
1710889400589630700,4.294630615234375,3.054060935974121,-0.3432624340057373,-1.1898908615112305
1710889400608590300,4.31359033203125,2.41342830657959,-0.5560412406921387,-1.2392628192901611
1710889400627549700,4.3325498046875,0.5043082237243652,-0.8506145477294922,-3.6023097038269043
1710889400646509300,4.35150927734375,0.30682945251464844,-1.039137840270996,-5.885239601135254
1710889400665469000,4.370468994140625,0.833803653717041,-1.401890754699707,-4.200158596038818
1710889400684428300,4.38942822265625,0.7334737777709961,-0.9368138313293457,-0.5418376922607422
1710889400703388000,4.408387939453125,1.9228334426879883,-1.46299409866333,-0.028267621994018555
1710889400722347500,4.427347412109375,1.4309024810791016,-0.9128732681274414,-0.7514033317565918
1710889400741307000,4.446306884765625,-0.6996545791625977,-1.5286712646484375,-2.0092034339904785
1710889400760266500,4.4652666015625,-4.775146484375,-2.0759215354919434,-4.801493167877197
1710889400779226000,4.48422607421875,-5.667680263519287,-2.830467700958252,-4.089080810546875
1710889400798185700,4.503185791015625,-4.58967399597168,-1.0445923805236816,-5.483675956726074
1710889400817145000,4.52214501953125,-0.6732292175292969,-0.34638309478759766,-2.8159656524658203
1710889400836104700,4.541104736328125,-1.545130968093872,-0.11405754089355469,1.5019571781158447
1710889400855064300,4.560064208984375,-0.3079342842102051,0.6702880859375,6.426173210144043
1710889400874023700,4.579023681640625,1.3431944847106934,1.18023681640625,6.738147735595703
1710889400892983300,4.5979833984375,5.65734338760376,0.38437652587890625,5.336717128753662
1710889400911943000,4.61694287109375,2.3292107582092285,-0.644078254699707,3.338106632232666
1710889400930902300,4.63590234375,-0.9560556411743164,-0.4424762725830078,3.6380929946899414
1710889400949862000,4.65486181640625,-3.0995335578918457,-1.0920372009277344,3.22999906539917
1710889400968821500,4.673821533203125,-1.2053184509277344,-3.3826093673706055,0.5540841817855835
1710889400987780900,4.69278076171875,-1.9423160552978516,-4.0373454093933105,-1.0847218036651611
1710889401006740500,4.711740478515625,-1.9353954792022705,-3.002901554107666,-1.0465627908706665
1710889401025700000,4.7307001953125,-2.5297677516937256,-2.5368223190307617,-0.4563799500465393
1710889401044659700,4.74965966796875,-3.048602342605591,-1.773359775543213,0.20321354269981384
1710889401063619000,4.768619140625,-3.2196035385131836,-0.590031623840332,-0.17046058177947998
1710889401082578700,4.78757861328125,-2.2437143325805664,-0.20404911041259766,-1.7210209369659424
1710889401101538300,4.806538330078125,-0.957465648651123,-0.7989401817321777,-2.0505902767181396
1710889401120498000,4.825497802734375,-0.31213808059692383,-0.43217992782592773,-1.604546308517456
1710889401139457300,4.844457275390625,0.5669021606445312,1.5990490913391113,-1.1719017028808594
1710889401158417000,4.8634169921875,1.6517996788024902,2.9343438148498535,-0.48490139842033386
1710889401177376300,4.882376220703125,3.167665481567383,2.7818617820739746,0.9425424337387085
1710889401196335900,4.9013359375,4.6736249923706055,1.9776058197021484,1.535366177558899
1710889401215295500,4.92029541015625,5.001900672912598,1.4619274139404297,0.8216327428817749
1710889401234255000,4.939255126953125,3.7137885093688965,1.4619379043579102,-0.2330482006072998
1710889401253214500,4.95821435546875,2.6008214950561523,1.9138927459716797,-0.7962897419929504
1710889401272174000,4.977174072265625,1.5804061889648438,2.343153476715088,-1.5706543922424316
1710889401291133700,4.9961337890625,0.979240894317627,1.5676732063293457,-2.1056997776031494
1710889401310093000,5.015093017578125,0.6116108894348145,0.6539783477783203,-1.4644042253494263
1710889401329052700,5.034052734375,0.3354182243347168,0.5025639533996582,0.2666921615600586
1710889401348012300,5.05301220703125,0.0749521255493164,0.17415189743041992,0.9153487682342529
1710889401366971600,5.0719716796875,-0.23027372360229492,-0.536933422088623,0.670119047164917
1710889401385931300,5.09093115234375,-0.5016336441040039,-1.1767854690551758,0.815751314163208
1710889401404891000,5.109890869140625,-0.8706259727478027,-1.3699092864990234,1.072751760482788
1710889401423850500,5.1288505859375,-0.955864429473877,-0.7002615928649902,1.1286375522613525
1710889401442809900,5.147809814453125,-1.4486703872680664,-0.5180339813232422,0.1952362060546875
1710889401461769500,5.16676953125,-1.7369656562805176,-0.5026254653930664,-0.921229362487793
1710889401480728800,5.185728759765625,-2.168980598449707,-0.47260570526123047,-1.5255262851715088
1710889401499688400,5.2046884765625,-1.991966724395752,0.4950423240661621,-1.0925922393798828
1710889401518648000,5.22364794921875,-1.4173674583435059,0.9213447570800781,-0.8091416358947754
1710889401537607700,5.242607666015625,-0.16182422637939453,0.3998908996582031,-0.2827565670013428
1710889401556567300,5.2615673828125,0.3111734390258789,-0.10697269439697266,0.48146629333496094
1710889401575526700,5.280526611328125,0.4519467353820801,-0.5069794654846191,0.8056526184082031
1710889401594486300,5.299486328125,0.05273580551147461,-0.6241216659545898,-0.1864161491394043
1710889401613445600,5.318445556640625,-0.3693580627441406,-0.44307994842529297,-0.2182750701904297
1710889401632405200,5.3374052734375,-0.8581447601318359,-0.2815361022949219,-0.2931833267211914
1710889401651364900,5.35636474609375,-0.18184518814086914,0.24909067153930664,0.2142500877380371
1710889401670324500,5.375324462890625,0.6564607620239258,0.2000875473022461,0.514129638671875
1710889401689283800,5.394283935546875,0.8373265266418457,-0.6564078330993652,0.36618852615356445
1710889401708243500,5.413243408203125,0.6806292533874512,-0.6176085472106934,0.2090907096862793
1710889401727203000,5.432203125,1.2234764099121094,0.4568018913269043,0.1784353256225586
1710889401746162400,5.451162353515625,1.6470327377319336,0.7156815528869629,0.09562969207763672
1710889401765122000,5.4701220703125,1.2829604148864746,0.40915822982788086,0.4148688316345215
1710889401784081700,5.48908154296875,0.6117987632751465,0.14151859283447266,0.32926464080810547
1710889401803041000,5.508041015625,-1.3644180297851562,-0.7067561149597168,-1.3378071784973145
1710889401822000600,5.527000732421875,-2.9204843044281006,-1.4436659812927246,-2.515230178833008
1710889401840960300,5.545960205078125,-2.9885411262512207,-0.42272424697875977,-2.023845911026001
1710889401859920000,5.564919921875,-2.6451470851898193,-0.8782134056091309,-1.3080792427062988
1710889401878879200,5.583879150390625,-1.417902946472168,-2.192343235015869,0.2844879627227783
1710889401897838800,5.6028388671875,-0.27503156661987305,-2.120502471923828,0.5887250900268555
1710889401916798500,5.621798583984375,2.083035945892334,1.0630226135253906,2.846619129180908
1710889401935757800,5.6407578125,3.293132781982422,2.6604533195495605,2.511324882507324
1710889401954717400,5.659717529296875,1.828176498413086,1.600755214691162,0.3703899383544922
1710889401973677000,5.678677001953125,0.2521171569824219,0.2831892967224121,-0.9287195205688477
1710889401992636700,5.69763671875,-1.6007609367370605,0.6607294082641602,-1.8283621072769165
1710889402011596000,5.716595947265625,-1.373786449432373,0.3005638122558594,-0.5325233936309814
1710889402030555600,5.7355556640625,-0.272763729095459,0.045015811920166016,1.2152750492095947
1710889402049515300,5.754515380859375,0.1589522361755371,-0.4045548439025879,2.618802070617676
1710889402068474600,5.773474609375,0.40073347091674805,-0.25819969177246094,3.4905295372009277
1710889402087434200,5.792434326171875,0.8347454071044922,-0.26198244094848633,3.767155170440674
1710889402106393900,5.811393798828125,0.2813739776611328,-0.8358044624328613,2.4463772773742676
1710889402125353200,5.830353271484375,-0.6202397346496582,-1.28554105758667,1.7413411140441895
1710889402144312800,5.849312744140625,-1.0217175483703613,-1.4766063690185547,0.6943352222442627
1710889402163272400,5.8682724609375,-1.3039588928222656,-1.2898516654968262,0.00347137451171875
1710889402182232000,5.887232177734375,-1.2870798110961914,-0.6807413101196289,-0.3129160404205322
1710889402201191400,5.90619140625,-1.315202236175537,-0.23085641860961914,-0.39450669288635254
1710889402220151000,5.925151123046875,-1.2597525119781494,-0.0013499259948730469,-0.46440553665161133
1710889402239110700,5.944110595703125,-0.7134594917297363,1.3052005767822266,-0.553551197052002
1710889402258070000,5.963070068359375,-1.0612237453460693,1.477017879486084,-1.3142457008361816
1710889402277029600,5.982029541015625,-1.484325647354126,1.7344484329223633,-1.7439537048339844
1710889402295989200,6.0009892578125,-1.3516993522644043,1.6365785598754883,-0.94266676902771
1710889402314948900,6.019948974609375,-1.3230981826782227,1.3949127197265625,-0.49625325202941895
1710889402333908200,6.038908203125,0.009925127029418945,0.9215879440307617,0.2225632667541504
1710889402352867800,6.057867919921875,1.3762259483337402,0.7953090667724609,0.6013729572296143
1710889402371827500,6.076827392578125,2.666459083557129,1.3112773895263672,2.159245014190674
1710889402390787000,6.095787109375,2.9183452129364014,2.0934982299804688,2.8454058170318604
1710889402409746400,6.114746337890625,2.2634894847869873,1.2834091186523438,2.5277414321899414
1710889402428706000,6.1337060546875,1.4504506587982178,0.7204437255859375,1.6293890476226807
1710889402447665400,6.15266552734375,0.20069432258605957,0.600895881652832,0.74324631690979
1710889402466625000,6.171625,-1.304687261581421,-0.08221626281738281,0.08573150634765625
1710889402485584600,6.190584716796875,-1.7902464866638184,-0.5214147567749023,0.04259014129638672
1710889402504544300,6.209544189453125,-1.8505709171295166,-0.6753950119018555,0.2552347183227539
1710889402523503900,6.22850390625,-1.6055305004119873,-0.802515983581543,0.39293670654296875
1710889402542463200,6.247463134765625,-1.0901517868041992,-0.5878829956054688,0.19492578506469727
1710889402561422800,6.2664228515625,-0.9745724201202393,-0.7009305953979492,-0.28609228134155273
1710889402580382500,6.285382568359375,-0.880948543548584,-0.9440212249755859,-0.9831628799438477
1710889402599342000,6.304342041015625,-0.9395620822906494,-0.5928783416748047,-1.255903959274292
1710889402618301400,6.323301513671875,-1.1502652168273926,-0.2862062454223633,-1.2474074363708496
1710889402637261000,6.342260986328125,-0.7487735748291016,0.17572402954101562,-0.867365837097168
1710889402656220700,6.361220703125,-0.15497159957885742,0.4997262954711914,-0.648951530456543
1710889402675180300,6.38018017578125,-0.28685522079467773,0.2507638931274414,-0.7288068532943726
1710889402694140000,6.399139892578125,-0.19899559020996094,-0.030945777893066406,-0.603468656539917
1710889402713099300,6.418099365234375,0.052426815032958984,-0.3332509994506836,-0.46710896492004395
1710889402732059000,6.437058837890625,0.49831628799438477,-0.11737632751464844,-0.602692723274231
1710889402751018500,6.4560185546875,0.8625569343566895,0.8376016616821289,-0.5282015800476074
1710889402769978000,6.47497802734375,1.431990146636963,1.1702919006347656,-0.3210669755935669
1710889402788937700,6.493937744140625,1.9706110954284668,0.7169857025146484,0.16333937644958496
1710889402807897000,6.51289697265625,2.3122310638427734,0.29631614685058594,0.5236438512802124
1710889402826856700,6.531856689453125,2.0242600440979004,-0.2894468307495117,0.35577166080474854
1710889402845816300,6.55081640625,1.6255908012390137,-0.7876567840576172,0.018851637840270996
1710889402864776000,6.56977587890625,1.6255345344543457,-0.9463062286376953,-0.28902745246887207
1710889402883735300,6.5887353515625,1.3112294673919678,-0.8273963928222656,-0.3670703172683716
1710889402902695000,6.60769482421875,0.6734189987182617,-1.0996713638305664,-0.5289337635040283
1710889402921654500,6.626654541015625,0.28182435035705566,-1.6821532249450684,-0.8609226942062378
1710889402940614100,6.6456142578125,0.14702320098876953,-2.122291088104248,-1.0390795469284058
1710889402959573800,6.66457373046875,0.23398709297180176,-2.340465545654297,-1.0230717658996582
1710889402978533000,6.683533203125,0.26768064498901367,-2.0627012252807617,-1.0016838312149048
1710889402997492700,6.70249267578125,0.042493581771850586,-1.4426789283752441,-1.058994174003601
1710889403016452400,6.721452392578125,-0.0279843807220459,-0.74224853515625,-0.9928066730499268
1710889403035412000,6.740411865234375,0.07881784439086914,-0.05245208740234375,-0.5358841419219971
1710889403054371600,6.75937158203125,0.011467933654785156,0.7405271530151367,0.16455698013305664
1710889403073331200,6.778331298828125,-0.37644100189208984,1.8377904891967773,0.974574089050293
1710889403092290800,6.797290771484375,-0.6278133392333984,2.4375782012939453,1.4151356220245361
1710889403111250400,6.81625048828125,-0.14127016067504883,1.8683748245239258,1.4980802536010742
1710889403130209800,6.835209716796875,0.6482446193695068,0.5051956176757812,1.2905175685882568
1710889403149169400,6.85416943359375,1.0495119094848633,-0.5573053359985352,0.7951035499572754
1710889403168129000,6.87312890625,0.960900068283081,-0.7639894485473633,0.2565743923187256
1710889403187088600,6.892088623046875,0.5961081981658936,-0.5247726440429688,-0.5075250864028931
1710889403206048300,6.91104833984375,0.28566527366638184,-0.328704833984375,-1.321781873703003
1710889403225007900,6.9300078125,0.30475878715515137,-0.12084579467773438,-1.8569310903549194
1710889403243967500,6.948967529296875,0.3417396545410156,0.027085304260253906,-2.253756046295166
1710889403262927000,6.967927001953125,0.3259398937225342,0.07964515686035156,-2.346971035003662
1710889403281886500,6.986886474609375,-0.5224220752716064,0.24181175231933594,-2.559485912322998
1710889403300846000,7.00584619140625,-1.0448758602142334,0.5503635406494141,-2.450441837310791
1710889403319805700,7.0248056640625,-0.8529102802276611,0.7956790924072266,-1.649900197982788
1710889403338765300,7.043765380859375,-0.263211727142334,0.7513360977172852,-0.47779250144958496
1710889403357725000,7.062724853515625,0.29048633575439453,0.4811687469482422,1.1494858264923096
1710889403376684500,7.0816845703125,0.6452889442443848,0.2336444854736328,2.18127179145813
1710889403395644200,7.10064404296875,0.5791244506835938,0.1250438690185547,2.4684882164001465
1710889403414603500,7.119603515625,0.22184014320373535,0.03635978698730469,1.9404172897338867
1710889403433563100,7.138563232421875,-0.4355570077896118,-0.4982872009277344,1.1326954364776611
1710889403452523000,7.15752294921875,-1.080573558807373,-0.7676601409912109,0.5734456777572632
1710889403471482600,7.176482666015625,-0.8694882392883301,-0.694340705871582,0.5931900143623352
1710889403490442000,7.19544189453125,-0.11884236335754395,-0.3128852844238281,0.49730271100997925
1710889403509401600,7.214401611328125,0.5223653316497803,-0.07896232604980469,0.11943742632865906
1710889403528361200,7.233361328125,0.4284839630126953,0.24139785766601562,0.19747516512870789
1710889403547320800,7.25232080078125,0.3132646083831787,0.5355310440063477,0.5296163558959961
1710889403566280400,7.271280517578125,0.3553001880645752,0.1956348419189453,0.2035803198814392
1710889403585240000,7.290239990234375,0.33765649795532227,-0.027932167053222656,-0.21309667825698853
1710889403604199700,7.30919970703125,-0.15783345699310303,0.058465003967285156,-0.3105483651161194
1710889403623159300,7.3281591796875,-0.9323045015335083,-0.14024066925048828,-0.34846556186676025
1710889403642119000,7.347118896484375,-1.008736252784729,-0.5253658294677734,-0.4251861572265625
1710889403661078500,7.36607861328125,-0.5774072408676147,-0.7817497253417969,-0.8871477842330933
1710889403680038100,7.3850380859375,-0.440132737159729,-0.8404521942138672,-1.2749838829040527
1710889403698997800,7.403997802734375,-0.24285686016082764,-0.943852424621582,-1.5294365882873535
1710889403717957400,7.422957275390625,-0.1065436601638794,-0.8357706069946289,-1.6930958032608032
1710889403736917000,7.4419169921875,0.02352142333984375,-0.6098690032958984,-1.712461233139038
1710889403755876600,7.460876708984375,-0.04093146324157715,-0.4398183822631836,-1.5403211116790771
1710889403774836200,7.479836181640625,0.1354917287826538,-0.014581680297851562,-1.156515121459961
1710889403793795800,7.4987958984375,0.34902989864349365,0.3806772232055664,-0.90288245677948
1710889403812755500,7.51775537109375,0.5912021398544312,0.3189992904663086,-1.0016953945159912
1710889403831715000,7.536715087890625,0.5157361030578613,0.21715641021728516,-1.1113536357879639
1710889403850674700,7.5556748046875,0.34619784355163574,0.3528299331665039,-0.834526538848877
1710889403869634300,7.57463427734375,0.41427648067474365,0.3350200653076172,-0.6620047092437744
1710889403888594000,7.593593994140625,0.5933307409286499,0.42463111877441406,-0.15134024620056152
1710889403907553500,7.612553466796875,0.9864535331726074,-0.2245807647705078,0.06984829902648926
1710889403926513200,7.63151318359375,0.870786190032959,-0.7563266754150391,-0.469846248626709
1710889403945472800,7.65047265625,0.283657431602478,-0.7383155822753906,-0.9613467454910278
1710889403964432400,7.669432373046875,0.11824905872344971,-0.6283550262451172,-1.0087237358093262
1710889403983392000,7.68839208984375,0.2586005926132202,-0.6632671356201172,-1.1370875835418701
1710889404002351600,7.7073515625,0.08278834819793701,-0.8685121536254883,-1.2855157852172852
1710889404021311200,7.726311279296875,-0.1610521674156189,-0.6078653335571289,-1.0988991260528564
1710889404040270800,7.745270751953125,-0.34347909688949585,-0.30246448516845703,-1.0736849308013916
1710889404059230500,7.76423046875,-0.11006098985671997,-0.03331947326660156,-0.7568676471710205
1710889404078190000,7.783190185546875,0.15725338459014893,0.26429271697998047,0.07827353477478027
1710889404097149700,7.802149658203125,0.4551149904727936,0.43152523040771484,0.7064921855926514
1710889404116109300,7.821109375,0.5917999744415283,0.11279773712158203,0.618499755859375
1710889404135069000,7.84006884765625,0.3809707760810852,0.03211212158203125,0.6469206809997559
1710889404154028500,7.859028564453125,0.022948160767555237,-0.05991077423095703,0.5709381103515625
1710889404172988200,7.87798828125,0.05788467824459076,0.06605339050292969,0.29056644439697266
1710889404191947800,7.89694775390625,0.2581562101840973,-0.06591033935546875,-0.28795576095581055
1710889404210907400,7.915907470703125,-0.006979040801525116,-0.44104909896850586,-0.5156254768371582
1710889404229867000,7.934866943359375,-0.4041638970375061,-0.3010983467102051,-0.441866397857666
1710889404248827000,7.953826904296875,-0.42585352063179016,-0.17772483825683594,-0.4156475067138672
1710889404267786200,7.9727861328125,-0.12995615601539612,-0.48132848739624023,-0.2990760803222656
1710889404286745900,7.991745849609375,0.2962433695793152,-0.6920633316040039,-0.1367030143737793
1710889404305705700,8.010705810546876,0.100616455078125,-0.29837608337402344,0.49530601501464844
1710889404324665000,8.0296650390625,-0.0788804292678833,0.11649751663208008,0.7714972496032715
1710889404343625000,8.048625,0.10054981708526611,0.11950969696044922,0.1864180564880371
1710889404362584600,8.06758447265625,-0.09497255086898804,-0.24463987350463867,-0.45532703399658203
1710889404381544200,8.086544189453125,-0.5530341863632202,-0.4448366165161133,-0.5741915702819824
1710889404400503800,8.10550390625,-0.733322024345398,-0.34029483795166016,-0.3692917823791504
1710889404419463400,8.12446337890625,-0.3591492176055908,0.11446237564086914,0.09195613861083984
1710889404438423000,8.143423095703126,-0.1648569107055664,0.3154153823852539,0.7975974082946777
1710889404457382700,8.162382568359375,-0.2739098072052002,-0.26744508743286133,0.9560256004333496
1710889404476342300,8.18134228515625,-0.5103131532669067,-0.713047981262207,0.706296443939209
1710889404495302000,8.200302001953125,-0.4147125482559204,-0.6452412605285645,0.3126368522644043
1710889404514261500,8.219261474609375,-0.3536630868911743,-0.20540666580200195,0.27475404739379883
1710889404533221400,8.238221435546874,-0.3512403964996338,-0.35022592544555664,0.3300642967224121
1710889404552181000,8.257180908203125,0.0010364055633544922,-0.40160036087036133,-0.02111959457397461
1710889404571140600,8.276140625,0.2053159475326538,-0.30094146728515625,-0.30641984939575195
1710889404590100200,8.295100341796875,-0.18141531944274902,-0.5668768882751465,0.09460639953613281
1710889404609059800,8.314059814453126,-0.46005749702453613,-0.6053152084350586,0.4053945541381836
1710889404628019500,8.33301953125,-0.09145522117614746,-0.2423267364501953,0.6623721122741699
1710889404646979000,8.35197900390625,0.4182926416397095,-0.20862865447998047,0.5409135818481445
1710889404665938700,8.370938720703125,0.21727216243743896,-0.40493249893188477,0.03431892395019531
1710889404684898300,8.389898193359375,-0.22626185417175293,-0.4281282424926758,-0.5621676445007324
1710889404703858000,8.40885791015625,-0.23576903343200684,-0.1264948844909668,-1.0276365280151367
1710889404722817800,8.42781787109375,0.11593055725097656,0.014361858367919922,-0.8757867813110352
1710889404741777400,8.44677734375,0.5671448707580566,0.1411905288696289,-0.14261245727539062
1710889404760737000,8.465737060546875,0.7106121778488159,0.30941104888916016,0.4613971710205078
1710889404779696600,8.484696533203126,0.6767668724060059,0.11983466148376465,0.5266275405883789
1710889404798656300,8.50365625,0.3513948917388916,-0.026178836822509766,0.356170654296875
1710889404817616000,8.522615966796875,0.01393890380859375,-0.09316110610961914,0.2714691162109375
1710889404836575500,8.541575439453124,0.28605222702026367,0.4200470447540283,0.7030048370361328
1710889404855535000,8.56053515625,0.11709380149841309,1.5791468620300293,1.880965232849121
1710889404874494700,8.57949462890625,-0.42259764671325684,1.833202600479126,3.600250244140625
1710889404893454600,8.59845458984375,-0.7763643264770508,1.0929713249206543,4.518893241882324
1710889404912414200,8.617414306640624,-0.609208345413208,0.4311232566833496,4.001255035400391
1710889404931373800,8.636373779296875,0.32190752029418945,-0.5363748073577881,2.312154769897461
1710889404950333400,8.65533349609375,0.9285178184509277,-0.40361452102661133,0.21821308135986328
1710889404969293000,8.67429296875,1.2123576402664185,-0.5776399374008179,-2.2347359657287598
1710889404988252700,8.693252685546875,0.6379852294921875,-0.8786648511886597,-3.8100404739379883
1710889405007212300,8.71221240234375,-0.33254098892211914,-1.6509970426559448,-3.943876266479492
1710889405026172000,8.731171875,-0.8260045051574707,-2.3261184692382812,-2.5888614654541016
1710889405045131800,8.7501318359375,-0.7030558586120605,-1.4220576286315918,0.008498191833496094
1710889405064091400,8.76909130859375,-0.562737226486206,0.5687258243560791,2.4610729217529297
1710889405083051000,8.788051025390626,-0.6926946640014648,0.4895355701446533,3.61505126953125
1710889405102010600,8.8070107421875,-0.5541775226593018,-1.5933480262756348,3.2485971450805664
1710889405120970200,8.82597021484375,-0.320263147354126,-3.162583827972412,2.1597366333007812
1710889405139929900,8.844929931640625,-0.6122887134552002,-2.5696752071380615,1.8229751586914062
1710889405158889500,8.863889404296875,-0.5503466129302979,-0.9755252599716187,0.7551612854003906
1710889405177849300,8.882849365234375,-0.456409215927124,-0.355904221534729,-0.5971698760986328
1710889405196809000,8.90180908203125,-0.5109012126922607,-1.4292618036270142,-1.1970820426940918
1710889405215768600,8.9207685546875,-0.25511765480041504,-2.407792091369629,-1.759317398071289
1710889405234728200,8.939728271484375,-0.02773594856262207,-1.6494741439819336,-2.1456947326660156
1710889405253687800,8.958687744140626,0.09623289108276367,-0.06007349491119385,-2.055911064147949
1710889405272647400,8.9776474609375,-0.12284708023071289,0.5415186882019043,-1.504258155822754
1710889405291607000,8.99660693359375,0.6499042510986328,-0.2793157696723938,-0.5853195190429688
1710889405310566700,9.015566650390625,1.9180774688720703,-1.2506067752838135,-0.8247547149658203
1710889405329526500,9.034526611328126,1.2463428974151611,-1.0097925662994385,-0.7415761947631836
1710889405348486100,9.053486083984374,-0.05219459533691406,-0.4427037239074707,0.6822490692138672
1710889405367445800,9.07244580078125,-1.1166496276855469,0.20324446260929108,2.0009822845458984
1710889405386405400,9.0914052734375,-0.9814257621765137,0.7280889749526978,2.79695463180542
1710889405405365000,9.110364990234375,0.09331941604614258,0.7718494534492493,1.8756237030029297
1710889405424324600,9.12932470703125,0.5584716796875,0.6202164888381958,1.1506414413452148
1710889405443284500,9.148284423828125,-0.7748570442199707,0.48579663038253784,1.3996047973632812
1710889405462243800,9.167243896484376,-1.3523335456848145,0.014920353889465332,2.7213807106018066
1710889405481203700,9.18620361328125,-0.2859969139099121,-0.3599271774291992,2.3080787658691406
1710889405500163300,9.205163330078125,1.1426477432250977,0.2024596929550171,0.6540117263793945
1710889405519123000,9.224123046875,1.5490140914916992,1.2437740564346313,-0.3892035484313965
1710889405538082600,9.24308251953125,1.005894660949707,1.7828049659729004,-0.16209697723388672
1710889405557042200,9.262042236328124,0.43532562255859375,1.6087310314178467,0.5270376205444336
1710889405576001800,9.281001708984375,0.030011653900146484,1.6814866065979004,0.5275692939758301
1710889405594961700,9.299961669921874,-0.5497474670410156,1.947684645652771,0.35636329650878906
1710889405613921300,9.31892138671875,-0.86181640625,1.8340823650360107,0.6932668685913086
1710889405632881000,9.337880859375,-0.522578239440918,1.3959181308746338,1.0788326263427734
1710889405651840500,9.356840576171875,-0.07039213180541992,1.0750393867492676,1.6564388275146484
1710889405670800100,9.375800048828125,-0.14299631118774414,1.3141279220581055,2.4119982719421387
1710889405689759700,9.394759765625,-0.9959421157836914,1.0689525604248047,3.1929941177368164
1710889405708719400,9.41371923828125,-1.1513185501098633,0.016664981842041016,2.752347469329834
1710889405727679200,9.43267919921875,-0.1351919174194336,-0.8570666313171387,0.7098045349121094
1710889405746638800,9.451638916015625,0.3973665237426758,-0.4633324146270752,-0.9597582817077637
1710889405765598500,9.470598388671876,-0.5279617309570312,0.5899252891540527,-0.984670877456665
1710889405784558000,9.48955810546875,-1.378920555114746,0.863440990447998,0.010370492935180664
1710889405803517700,9.508517578125,-0.571624755859375,0.3326578140258789,0.9495155811309814
1710889405822477300,9.527477294921875,0.8354721069335938,0.18535375595092773,1.2839162349700928
1710889405841437200,9.546437255859376,1.5613512992858887,0.36011838912963867,1.7305009365081787
1710889405860396500,9.565396484375,1.3136286735534668,0.19402503967285156,2.082857608795166
1710889405879356400,9.5843564453125,0.5151281356811523,-0.13302898406982422,1.704996943473816
1710889405898316000,9.60331591796875,-0.24129295349121094,-0.07416105270385742,0.8866246938705444
1710889405917275600,9.622275634765625,-0.7156915664672852,0.2978391647338867,-0.17713427543640137
1710889405936235300,9.6412353515625,-0.9034948348999023,0.4239826202392578,-1.7257097959518433
1710889405955195000,9.66019482421875,-1.2122306823730469,0.02496337890625,-2.953813076019287
1710889405974154500,9.679154541015626,-1.7590570449829102,-0.41988372802734375,-3.2619783878326416
1710889405993114400,9.6981142578125,-1.8747329711914062,-0.321444034576416,-2.6770541667938232
1710889406012074000,9.717073974609375,-0.8453741073608398,-0.10030937194824219,-1.635221242904663
1710889406031033600,9.73603369140625,-0.2706789970397949,-0.2699623107910156,-0.8955166339874268
1710889406049993200,9.7549931640625,0.15380048751831055,-0.021000385284423828,-0.1656244993209839
1710889406068952800,9.773952880859374,0.08816957473754883,0.47910451889038086,-0.05569577217102051
1710889406087912400,9.792912353515625,0.1553044319152832,0.7421321868896484,-1.068912148475647
1710889406106872000,9.8118720703125,1.2578468322753906,2.69984769821167,-2.771131992340088
1710889406125831700,9.830831787109375,0.2931942939758301,4.10334587097168,-3.4801783561706543
1710889406144791600,9.84979150390625,1.5579638481140137,2.1827149391174316,-1.953723669052124
1710889406163751200,9.868751220703125,1.4848952293395996,-0.26453638076782227,-0.09646803140640259
1710889406182710800,9.887710693359375,-0.8640518188476562,-1.9161639213562012,0.0339735746383667
1710889406201670400,9.90667041015625,-3.275430202484131,-2.829929828643799,0.6324368119239807
1710889406220630000,9.925630126953125,-3.111402988433838,-3.5305380821228027,1.2406630516052246
1710889406239589600,9.944589599609374,-0.7429704666137695,-0.2755775451660156,1.4645805358886719
1710889406258549200,9.96354931640625,2.867493152618408,2.542726993560791,1.491452932357788
1710889406277509000,9.982509033203126,3.63069486618042,1.161339282989502,1.7949674129486084
1710889406296468700,10.00146875,0.06531429290771484,-0.1574997901916504,2.3203928470611572
1710889406315428400,10.020428466796876,-1.5018787384033203,-1.3303942680358887,1.8617594242095947
1710889406334388000,10.039387939453125,-0.8166756629943848,-0.8271670341491699,1.2132444381713867
1710889406353347600,10.05834765625,-0.2548975944519043,1.4577484130859375,0.7993875741958618
1710889406372307200,10.07730712890625,-0.07901191711425781,1.5518784523010254,-0.24463984370231628
1710889406391266800,10.096266845703125,0.41773366928100586,-0.5379514694213867,-0.8990222811698914
1710889406410226700,10.115226806640624,-0.5067415237426758,-1.2101960182189941,-1.2478289604187012
1710889406429186000,10.13418603515625,-1.2779741287231445,-0.5355930328369141,-2.058267116546631
1710889406448146000,10.15314599609375,-0.005601406097412109,-0.04610919952392578,-1.388142466545105
1710889406467105500,10.17210546875,0.6434454917907715,-0.04355621337890625,-0.008259981870651245
1710889406486065200,10.191065185546876,-0.6335391998291016,-0.1639862060546875,0.5413963198661804
1710889406505024800,10.210024658203125,-1.5457100868225098,0.5940008163452148,0.00008526444435119629
1710889406523984400,10.228984375,0.3815751075744629,0.23579025268554688,0.3712668716907501
1710889406542944000,10.247944091796874,1.7133517265319824,-0.6384186744689941,2.164151430130005
1710889406561903600,10.266903564453125,0.5538430213928223,0.1088404655456543,2.192603826522827
1710889406580863200,10.28586328125,-0.08130550384521484,0.6441564559936523,0.600519061088562
1710889406599823000,10.304822998046875,0.1303563117980957,-0.12565851211547852,0.7861709594726562
1710889406618782700,10.32378271484375,1.6175084114074707,-0.6285805702209473,0.14365316927433014
1710889406637742300,10.342742431640625,-0.2563800811767578,-0.3063688278198242,0.39602968096733093
1710889406656702000,10.361701904296876,-0.7897367477416992,-0.8132405281066895,-0.733070969581604
1710889406675661600,10.38066162109375,-0.33697080612182617,-0.17431640625,-0.4472266435623169
1710889406694621200,10.39962109375,-0.31624603271484375,0.7163934707641602,-0.2158728837966919
1710889406713580800,10.418580810546874,-0.4757552146911621,0.36485958099365234,-0.7734323740005493
1710889406732540400,10.43754052734375,-0.4136528968811035,-0.732017993927002,-0.9934729337692261
1710889406751500000,10.4565,-0.341278076171875,-0.8366775512695312,-0.635831356048584
1710889406770460000,10.4754599609375,-0.3928108215332031,0.5700817108154297,0.8496438264846802
1710889406789419300,10.494419189453126,-0.2308187484741211,1.1788926124572754,1.113703727722168
1710889406808379100,10.513379150390625,0.20559453964233398,-0.07868337631225586,0.5346214771270752
1710889406827338800,10.5323388671875,-0.1763768196105957,-0.5315513610839844,-0.020596057176589966
1710889406846298400,10.55129833984375,-0.8964066505432129,0.2828178405761719,-0.9504625797271729
1710889406865258000,10.570258056640625,0.3246641159057617,-0.039432525634765625,-0.508344292640686
1710889406884217600,10.589217529296874,1.948972225189209,-0.6171703338623047,1.8348665237426758
1710889406903177200,10.60817724609375,0.7362370491027832,-0.18868541717529297,2.109365224838257
1710889406922136800,10.62713671875,-1.4688878059387207,0.23191499710083008,0.35422831773757935
1710889406941096400,10.646096435546875,-0.05894327163696289,-0.5773019790649414,-1.380342721939087
1710889406960056000,10.66505615234375,0.5294504165649414,-0.18628311157226562,0.5741918683052063
1710889406979015700,10.684015625,0.9741101264953613,-0.3199009895324707,0.7461675405502319
1710889406997975300,10.702975341796876,0.3435635566711426,-0.8237347602844238,-0.07630792260169983
1710889407016935200,10.72193505859375,-0.4665045738220215,0.29773426055908203,0.8178086280822754
1710889407035894800,10.740894775390625,-0.6382160186767578,0.45026206970214844,0.3608025908470154
1710889407054854400,10.7598544921875,-0.06115102767944336,-0.1711750030517578,-1.0065475702285767
1710889407073814000,10.77881396484375,1.3735880851745605,-0.8304977416992188,-0.8836452960968018
1710889407092773600,10.797773681640624,0.7785110473632812,-1.1025094985961914,-0.11154872179031372
1710889407111733200,10.816733154296875,-0.37204599380493164,-0.28050994873046875,0.2505548596382141
1710889407130692900,10.83569287109375,-0.6246695518493652,0.1864323616027832,0.29033422470092773
1710889407149652500,10.854652587890625,-0.4531545639038086,0.41128063201904297,-0.6063101291656494
1710889407168612000,10.873612060546876,-0.3150138854980469,0.6111054420471191,-1.6555932760238647
1710889407187571700,10.89257177734375,-0.02282571792602539,0.7059473991394043,-1.8002996444702148
1710889407206531600,10.911531494140625,0.4568777084350586,1.179802417755127,-1.5200273990631104
1710889407225491200,10.9304912109375,0.4245319366455078,1.3038849830627441,-1.0999133586883545
1710889407244450800,10.949450927734375,0.4089975357055664,1.023153305053711,-0.6224873065948486
1710889407263410400,10.968410400390624,1.1429805755615234,0.0958561897277832,0.10919666290283203
1710889407282370000,10.9873701171875,0.6325464248657227,-0.6401424407958984,1.0112847089767456
1710889407301329700,11.00632958984375,0.048309326171875,-0.42444419860839844,0.9350440502166748
1710889407320289300,11.025289306640625,-0.19891834259033203,0.07578516006469727,0.3415471315383911
1710889407339249000,11.044248779296876,0.038120269775390625,0.004552364349365234,0.5117920637130737
1710889407358208500,11.06320849609375,-0.3291597366333008,-0.11145734786987305,1.2963398694992065
1710889407377168100,11.082168212890625,-0.8282661437988281,0.26264047622680664,0.9712629318237305
1710889407396128000,11.1011279296875,-0.6454305648803711,0.4057736396789551,0.1218792200088501
1710889407415087600,11.120087646484375,-0.25791168212890625,0.01709604263305664,0.23085367679595947
1710889407434047200,11.139047119140624,-0.35236358642578125,-0.20577478408813477,1.286854863166809
1710889407453006800,11.1580068359375,-0.49483776092529297,-0.16909503936767578,1.7678418159484863
1710889407471966500,11.176966552734376,-0.33177757263183594,-0.022227764129638672,1.1070587635040283
1710889407490926000,11.195926025390625,-0.07896995544433594,-0.21137380599975586,0.39511358737945557
1710889407509885700,11.2148857421875,-0.1824474334716797,-0.17407941818237305,0.3041926622390747
1710889407528845300,11.23384521484375,-0.25966548919677734,-0.018732547760009766,-0.04694974422454834
1710889407547805200,11.25280517578125,0.025247573852539062,-0.10750627517700195,-0.5352661609649658
1710889407566764800,11.271764892578124,-0.017464637756347656,-0.5807232856750488,-0.5292400121688843
1710889407585724400,11.290724365234375,-0.3415384292602539,-0.7942357063293457,0.1367936134338379
1710889407604684000,11.30968408203125,-0.2176952362060547,-0.5795431137084961,0.6027394533157349
1710889407623643600,11.3286435546875,0.18391036987304688,-0.43405771255493164,0.5016613006591797
1710889407642603300,11.347603271484376,0.24012279510498047,-0.5713067054748535,0.574662446975708
1710889407661563100,11.366563232421875,-0.056270599365234375,-0.3492422103881836,0.5311006307601929
1710889407680522500,11.3855224609375,-0.1987781524658203,0.026237010955810547,-0.06447875499725342
1710889407699482400,11.404482421875,-0.19411563873291016,0.17435288429260254,-0.26984572410583496
1710889407718442000,11.42344189453125,-0.3927640914916992,-0.025703907012939453,0.024080395698547363
1710889407737401600,11.442401611328124,-0.3032846450805664,-0.2588067054748535,0.46997880935668945
1710889407756361200,11.461361328125,-0.1557483673095703,-0.20214128494262695,0.5830321311950684
1710889407775320800,11.48032080078125,0.15768814086914062,-0.19113731384277344,0.49533891677856445
1710889407794280400,11.499280517578125,0.4107332229614258,0.02968597412109375,0.30582094192504883
1710889407813240300,11.518240234375,0.18025875091552734,0.47887516021728516,0.10414981842041016
1710889407832200000,11.537199951171875,-0.22548389434814453,0.596031904220581,-0.22551345825195312
1710889407851159600,11.55615966796875,-0.3347339630126953,0.17399215698242188,-0.51336669921875
1710889407870119200,11.575119140625,-0.19023704528808594,-0.26677894592285156,-0.3927363157272339
1710889407889078800,11.594078857421875,0.014971733093261719,-0.37553834915161133,0.16602516174316406
1710889407908038700,11.61303857421875,0.26601123809814453,-0.33591413497924805,0.6914474964141846
1710889407926998300,11.631998291015625,0.45250892639160156,-0.06111860275268555,0.5527944564819336
1710889407945958000,11.6509580078125,0.3832664489746094,-0.03524589538574219,-0.14027810096740723
1710889407964917500,11.66991748046875,-0.13428401947021484,-0.1722397804260254,-0.3512558937072754
1710889407983877000,11.688877197265626,-0.6776132583618164,-0.25621843338012695,-0.3569842576980591
1710889408002837000,11.7078369140625,-0.5514717102050781,-0.5418376922607422,-0.3877854347229004
1710889408021796600,11.726796630859376,-0.10137653350830078,-0.4786219596862793,-0.2294708490371704
1710889408040756200,11.745756103515625,0.18944549560546875,-0.07861089706420898,0.02303481101989746
1710889408059715800,11.7647158203125,0.4724559783935547,0.34474992752075195,0.09982061386108398
1710889408078675500,11.783675537109374,0.6512832641601562,0.7939977645874023,0.1370481252670288
1710889408097635300,11.80263525390625,0.5846238136291504,0.8918533325195312,0.42069077491760254
1710889408116595000,11.821594970703124,0.3432197570800781,0.185760498046875,0.8170677423477173
1710889408135554600,11.840554443359375,0.0813913345336914,-0.2751126289367676,1.220633625984192
1710889408154514200,11.85951416015625,0.10651302337646484,-0.28578901290893555,0.9929431676864624
1710889408173474000,11.87847412109375,0.2344827651977539,-0.18593120574951172,0.36640846729278564
1710889408192433700,11.89743359375,-0.0257415771484375,-0.3915896415710449,0.14160370826721191
1710889408211393300,11.916393310546875,-0.4723167419433594,-0.44800233840942383,0.2069934606552124
1710889408230353000,11.935352783203125,-0.7150716781616211,-0.40461111068725586,-0.005177736282348633
1710889408249312800,11.954312744140625,-0.2848386764526367,-0.5333957672119141,-0.21380043029785156
1710889408268272400,11.9732724609375,-0.17043590545654297,-0.5325613021850586,-0.2442786693572998
1710889408287232000,11.99223193359375,-0.3890647888183594,-0.34950828552246094,-0.14677536487579346
1710889408306191600,12.011191650390625,-0.8323068618774414,-0.023252487182617188,-0.009412884712219238
1710889408325151200,12.030151123046876,-1.0846004486083984,0.22393178939819336,0.05463540554046631
1710889408344111000,12.049111083984375,-0.5180521011352539,0.2686347961425781,0.0322568416595459
1710889408363070700,12.06807080078125,0.10607719421386719,0.06187152862548828,-0.0066754817962646484
1710889408382030300,12.0870302734375,-0.061583518981933594,-0.1925063133239746,0.0817497968673706
1710889408400990200,12.105990234375,-0.5090179443359375,-0.15089797973632812,0.5349230766296387
1710889408419949800,12.12494970703125,-0.4384894371032715,-0.012829303741455078,0.8330425024032593
1710889408438909400,12.143909423828125,-0.2381000518798828,0.3284144401550293,0.684431254863739
1710889408457869000,12.162869140625,-0.12719154357910156,0.9078707695007324,0.3051058053970337
1710889408476829000,12.181828857421875,-0.10734415054321289,0.9320178031921387,0.027152538299560547
1710889408495788500,12.20078857421875,0.3395981788635254,0.5038228034973145,-1.253954291343689
1710889408514748200,12.219748046875,0.3062443733215332,0.504889965057373,-1.5384420156478882
1710889408533708000,12.2387080078125,-0.5940251350402832,-0.34709596633911133,-1.9767146110534668
1710889408552667600,12.257667724609375,-1.373692512512207,-0.7224588394165039,-0.9596250057220459
1710889408571627500,12.27662744140625,-0.5663905143737793,-0.4655585289001465,-0.5412697792053223
1710889408590587100,12.295587158203125,0.6296744346618652,-0.023489952087402344,-0.017945289611816406
1710889408609546800,12.314546630859375,0.6920318603515625,-0.305661678314209,0.5024427175521851
1710889408628506400,12.33350634765625,1.0173897743225098,-0.5634222030639648,0.8675694465637207
1710889408647466200,12.35246630859375,1.0250511169433594,0.298980712890625,0.8186789751052856
1710889408666425900,12.37142578125,0.6039881706237793,1.1549015045166016,0.7751948237419128
1710889408685385500,12.390385498046875,0.6978645324707031,0.8044233322143555,0.5644087195396423
1710889408704345000,12.409344970703126,1.0453290939331055,0.2123546600341797,0.23283809423446655
1710889408723305000,12.428304931640625,1.0392837524414062,0.3924226760864258,-0.4786034822463989
1710889408742264600,12.4472646484375,0.895416259765625,0.4436531066894531,-0.8167270421981812
1710889408761224400,12.466224365234375,0.8713459968566895,-0.11021947860717773,-0.40363627672195435
1710889408780184000,12.48518408203125,0.23888254165649414,-0.22884082794189453,0.1365903615951538
1710889408799143700,12.504143798828125,0.018552780151367188,-0.30693578720092773,0.5067423582077026
1710889408818103600,12.523103515625,-0.08241462707519531,-1.289346694946289,0.5095497369766235
1710889408837063200,12.542063232421874,-0.4620242118835449,-2.64070463180542,0.9749460816383362
1710889408856023000,12.56102294921875,-2.233565330505371,-1.221144199371338,0.9281357526779175
1710889408874982700,12.579982666015624,-3.1360979080200195,1.929053783416748,0.3809766173362732
1710889408893942300,12.5989423828125,-1.225412368774414,2.2453980445861816,-0.4497833847999573
1710889408912902100,12.617902099609376,0.5804734230041504,0.7385826110839844,-0.2707679271697998
1710889408931861800,12.63686181640625,1.2099814414978027,-0.3160223960876465,0.1972280740737915
1710889408950821400,12.6558212890625,0.8286099433898926,-0.6087141036987305,0.43073153495788574
1710889408969781200,12.67478125,0.3099851608276367,-0.7325568199157715,0.7824520468711853
1710889408988740900,12.693740966796875,-0.17612457275390625,-0.8415288925170898,0.804105281829834
1710889409007700700,12.71270068359375,-0.7215981483459473,-0.003364086151123047,0.44981855154037476
1710889409026660400,12.731660400390625,-0.6025662422180176,1.0104355812072754,0.3208962678909302
1710889409045620000,12.750619873046874,-0.08179998397827148,0.7085113525390625,0.3887375593185425
1710889409064579800,12.769579833984375,-0.6592235565185547,0.0586857795715332,0.2757191061973572
1710889409083539500,12.78853955078125,-0.7317910194396973,-0.23482131958007812,0.2543407678604126
1710889409102499000,12.8074990234375,-0.19961977005004883,-0.17681026458740234,0.2594504654407501
1710889409121459000,12.826458984375,0.45659446716308594,0.017801761627197266,0.07821270823478699
1710889409140418600,12.84541845703125,0.8878731727600098,0.46845531463623047,0.11453256011009216
1710889409159378400,12.86437841796875,0.6816310882568359,0.7973065376281738,0.042170584201812744
1710889409178338000,12.883338134765625,0.5179686546325684,0.8731279373168945,0.2427750527858734
1710889409197298000,12.9022978515625,-0.08359909057617188,0.4760580062866211,0.5212424993515015
1710889409216257500,12.921257568359374,-0.7745723724365234,-0.3041505813598633,0.7166241407394409
1710889409235217400,12.940217529296875,-0.46207666397094727,-1.2535572052001953,0.373629629611969
1710889409254177000,12.959177001953124,-0.4160590171813965,-1.2238874435424805,-0.38494884967803955
1710889409273137000,12.978136962890625,-0.1553664207458496,-0.29207515716552734,-0.6601231694221497
1710889409292096500,12.997096435546876,0.5471434593200684,0.1750049591064453,-0.15346527099609375
1710889409311056100,13.01605615234375,0.7435970306396484,-0.4801654815673828,0.4822860360145569
1710889409330016000,13.03501611328125,0.6994285583496094,-1.062492847442627,0.5407949090003967
1710889409348975600,13.0539755859375,0.44374656677246094,-0.4677762985229492,-0.45297348499298096
1710889409367935500,13.072935546875,-0.012759685516357422,0.2780308723449707,-1.265031337738037
1710889409386895000,13.09189501953125,-0.4488697052001953,0.05651044845581055,-1.3292068243026733
1710889409405855000,13.11085498046875,0.29145240783691406,-0.9137353897094727,-0.40770500898361206
1710889409424814600,13.129814697265624,0.6766605377197266,-0.7570853233337402,0.4714357852935791
1710889409443774500,13.1487744140625,-0.10255956649780273,0.1748495101928711,0.4507570266723633
1710889409462734000,13.167734130859374,-0.7182774543762207,0.5761804580688477,0.06726258993148804
1710889409481694000,13.18669384765625,-0.426025390625,0.07783126831054688,-0.029934406280517578
1710889409500653600,13.205653564453126,-0.23186922073364258,-0.2383408546447754,0.2874576449394226
1710889409519613400,13.224613525390625,-0.5999746322631836,0.07083606719970703,0.26824474334716797
1710889409538573000,13.243572998046876,-1.0400209426879883,0.6058244705200195,-0.16653960943222046
1710889409557533000,13.262532958984375,-0.2121744155883789,0.6400017738342285,-0.3461253046989441
1710889409576492500,13.281492431640626,0.5727815628051758,0.1411142349243164,0.49736011028289795
1710889409595452400,13.300452392578125,0.2140336036682129,-0.5071563720703125,1.3980056047439575
1710889409614412000,13.319412109375,0.24717235565185547,-0.7611842155456543,0.2607545852661133
1710889409633371600,13.33837158203125,-0.02528095245361328,0.38017845153808594,-1.0774891376495361
1710889409652331500,13.35733154296875,-0.32972145080566406,0.29239749908447266,-0.8611645102500916
1710889409671291100,13.376291015625,-0.2305159568786621,-1.0641016960144043,-0.3006856441497803
1710889409690251000,13.3952509765625,0.6289901733398438,-0.7215280532836914,-0.5116139650344849
1710889409709210600,13.414210693359376,0.5578041076660156,-0.08466339111328125,0.23845088481903076
1710889409728170500,13.43317041015625,-0.6717371940612793,0.4886174201965332,0.9878685474395752
1710889409747130000,13.452130126953126,-0.8766002655029297,0.5324368476867676,0.15462207794189453
1710889409766090000,13.471090087890625,-0.2575244903564453,0.3150300979614258,-0.527212381362915
1710889409785049600,13.490049560546876,-0.9523286819458008,-0.28405284881591797,-0.5248343348503113
1710889409804009500,13.509009521484375,-0.8503355979919434,-0.35958194732666016,-0.5674167275428772
1710889409822969000,13.527968994140625,-0.8925895690917969,-0.4645991325378418,-0.4512052536010742
1710889409841929000,13.546928955078124,-0.6597223281860352,0.025174617767333984,-0.08325052261352539
1710889409860888600,13.565888671875,-0.6951227188110352,0.8877964019775391,-0.7073174715042114
1710889409879848400,13.584848388671874,0.9255805015563965,0.878786563873291,-0.6820811033248901
1710889409898808300,13.603808349609375,1.5715551376342773,-0.9074883460998535,0.7770578861236572
1710889409917768000,13.622767822265626,0.046112060546875,-0.9444842338562012,1.8790152072906494
1710889409936727800,13.641727783203125,0.6147298812866211,0.33624982833862305,0.9820802211761475
1710889409955687400,13.6606875,1.032447338104248,0.8638725280761719,-0.15243589878082275
1710889409974647300,13.679647216796875,0.7368350028991699,-0.9994425773620605,-0.07622957229614258
1710889409993607000,13.69860693359375,-0.577765941619873,-0.29921817779541016,0.942335844039917
1710889410012566800,13.71756689453125,-0.6679816246032715,0.5938386917114258,0.31270718574523926
1710889410031526400,13.7365263671875,0.43709850311279297,0.8364696502685547,-0.4582761526107788
1710889410050486300,13.755486328125,1.4605984687805176,0.22424697875976562,0.06149482727050781
1710889410069446000,13.77444580078125,0.07121086120605469,-0.06141805648803711,1.8515077829360962
1710889410088405800,13.79340576171875,-0.49347400665283203,0.17401790618896484,1.3562049865722656
1710889410107365400,13.812365478515625,0.281217098236084,0.20757579803466797,-0.09235215187072754
1710889410126325200,13.8313251953125,0.9954900741577148,-0.10351181030273438,-0.8168584704399109
1710889410145284900,13.850284912109375,0.5879278182983398,-0.7068676948547363,-0.4378969669342041
1710889410164244700,13.86924462890625,0.12259483337402344,-0.6021099090576172,0.6488227844238281
1710889410183204400,13.888204345703125,-0.4740314483642578,0.4914374351501465,1.8908023834228516
1710889410202164200,13.907164306640626,0.02472686767578125,1.0445833206176758,1.4118391275405884
1710889410221123800,13.926123779296875,0.08066082000732422,0.6119217872619629,-0.3560570478439331
1710889410240083700,13.945083740234375,-0.33591794967651367,0.5480003356933594,-0.7464252710342407
1710889410259043300,13.964043212890624,-0.9920926094055176,-0.967984676361084,-1.031947374343872
1710889410278003200,13.983003173828125,-0.5356879234313965,-1.315213680267334,-1.9101536273956299
1710889410296962800,14.001962890625,-0.6155815124511719,-0.17797183990478516,-0.6873030066490173
1710889410315922700,14.020922607421875,-0.8107719421386719,0.2446436882019043,1.2325774431228638
1710889410334882300,14.03988232421875,0.28759145736694336,0.6018881797790527,1.1174595355987549
1710889410353842200,14.05884228515625,0.8593153953552246,-0.24788379669189453,0.18697643280029297
1710889410372802000,14.077802001953126,0.9098143577575684,-1.081662654876709,-0.695855975151062
1710889410391761700,14.09676171875,0.55523681640625,-0.7441487312316895,-1.0932955741882324
1710889410410721500,14.115721435546876,0.4486274719238281,-0.9346942901611328,0.05397689342498779
1710889410429681200,14.13468115234375,1.1043214797973633,-1.1598930358886719,1.5640984773635864
1710889410448641000,14.15364111328125,0.7946429252624512,-0.020343303680419922,1.4947638511657715
1710889410467600600,14.1726005859375,0.6311492919921875,0.97967529296875,0.8086469173431396
1710889410486560500,14.191560546875,0.4427332878112793,0.7076363563537598,-0.2358253002166748
1710889410505520000,14.21052001953125,-0.14616680145263672,0.1864471435546875,-1.1234452724456787
1710889410524480000,14.22947998046875,-0.9349651336669922,-0.36180830001831055,-1.1352832317352295
1710889410543439600,14.248439697265624,-1.15057373046875,-0.5515565872192383,-0.37357163429260254
1710889410562399500,14.2673994140625,-0.27823972702026367,-0.15332746505737305,-0.19836866855621338
1710889410581359000,14.286359130859376,0.4025287628173828,0.6709475517272949,0.07793235778808594
1710889410600319000,14.305319091796875,0.5565857887268066,0.8467817306518555,0.8194022178649902
1710889410619278600,14.324278564453126,0.39385414123535156,0.6923999786376953,0.6703455448150635
1710889410638238500,14.343238525390625,0.025542259216308594,0.6270875930786133,0.3649475574493408
1710889410657198300,14.3621982421875,-0.3551168441772461,0.18443584442138672,-0.16261720657348633
1710889410676158000,14.381157958984375,-0.6665525436401367,-0.3386530876159668,-0.388309121131897
1710889410695117800,14.400117919921875,-1.3232574462890625,-0.3419804573059082,0.15245461463928223
1710889410714077400,14.419077392578124,-1.5066118240356445,0.5450057983398438,0.6844772100448608
1710889410733037300,14.438037353515625,-1.2723174095153809,0.5780124664306641,0.8109173774719238
1710889410751997000,14.456996826171874,-0.8189029693603516,0.15074682235717773,0.927640438079834
1710889410770956500,14.47595654296875,-0.7799339294433594,-0.1417374610900879,0.6748937368392944
1710889410789916400,14.49491650390625,-0.7359747886657715,-1.0559725761413574,-0.22283947467803955
1710889410808876000,14.5138759765625,-0.9183897972106934,-1.415243148803711,-0.8759661912918091
1710889410827836000,14.5328359375,-0.9321908950805664,-0.6247715950012207,-1.1409790515899658
1710889410846795500,14.55179541015625,0.13089466094970703,0.5012683868408203,-1.1004801988601685
1710889410865755400,14.57075537109375,1.6823534965515137,0.6846599578857422,-0.6309614777565002
1710889410884715300,14.58971533203125,1.7232041358947754,-0.37218618392944336,0.7448464632034302
1710889410903675000,14.6086748046875,-0.5038528442382812,-1.0828766822814941,1.6012771129608154
1710889410922634800,14.627634765625,-1.2526893615722656,-1.2170157432556152,1.253335952758789
1710889410941594400,14.646594482421875,-0.09463214874267578,-0.25441408157348633,-0.5259267091751099
1710889410960554200,14.66555419921875,0.8912138938903809,1.1306357383728027,-2.1982979774475098
1710889410979513900,14.684513916015625,0.3808560371398926,1.1576061248779297,-1.7535723447799683
1710889410998473700,14.7034736328125,-0.6373090744018555,-0.7710762023925781,0.466808557510376
1710889411017433300,14.722433349609375,0.1401500701904297,-0.671903133392334,1.9773719310760498
1710889411036393200,14.741393310546876,1.9692745208740234,1.195051670074463,1.3173624277114868
1710889411055352800,14.760352783203125,-0.16363048553466797,1.2131142616271973,1.5221900939941406
1710889411074312700,14.779312744140626,-1.965364933013916,-0.5559196472167969,-0.5102829933166504
1710889411093272300,14.798272216796875,-0.3068532943725586,-1.3895840644836426,-2.2922849655151367
1710889411112232200,14.817232177734375,0.05124711990356445,-0.4293217658996582,-1.709578037261963
1710889411131191800,14.83619189453125,-0.9722824096679688,-0.7528553009033203,-0.6377086639404297
1710889411150151700,14.855151611328125,-0.03534746170043945,-2.1111764907836914,-1.4143861532211304
1710889411169111300,14.874111328125,-2.413148880004883,-0.4382014274597168,-0.08622241020202637
1710889411188071200,14.8930712890625,-0.26138877868652344,0.4827852249145508,0.5068988800048828
1710889411207030800,14.91203076171875,0.5386371612548828,-0.5407752990722656,0.49885857105255127
1710889411225990400,14.930990478515625,-1.5782408714294434,-1.0357236862182617,0.13486814498901367
1710889411244950300,14.9499501953125,-0.7385988235473633,0.901578426361084,-1.9087070226669312
1710889411263910000,14.968909912109375,0.1929488182067871,0.36530208587646484,-1.453629493713379
1710889411282869800,14.987869873046876,1.4483389854431152,-1.6320056915283203,0.7891267538070679
1710889411301829600,15.00682958984375,-1.1587400436401367,0.3460273742675781,3.402523994445801
1710889411320789200,15.025789306640625,1.6767935752868652,2.608078956604004,2.017155170440674
1710889411339749000,15.0447490234375,3.0122032165527344,1.2825427055358887,2.794853687286377
1710889411358708700,15.063708740234375,-1.5268430709838867,1.156010627746582,3.4777846336364746
1710889411377668600,15.082668701171874,0.8402833938598633,0.3332657814025879,0.545163631439209
1710889411396628200,15.101628173828125,1.4121437072753906,0.08429336547851562,-1.9875953197479248
1710889411415587800,15.120587890625,-0.9074606895446777,0.8093018531799316,-2.8804526329040527
1710889411434547700,15.139547607421875,-0.2695646286010742,0.30928468704223633,-2.7403292655944824
1710889411453507600,15.158507568359376,-1.0652904510498047,-0.6260499954223633,-1.8108397722244263
1710889411472467200,15.17746728515625,-0.7072300910949707,-0.42935848236083984,-0.37238240242004395
1710889411491426800,15.1964267578125,0.9667682647705078,1.4029669761657715,0.08481335639953613
1710889411510386700,15.21538671875,1.759164571762085,0.6905522346496582,1.9363973140716553
1710889411529346300,15.23434619140625,-0.8654570579528809,-2.351750373840332,0.43554019927978516
1710889411548306200,15.25330615234375,-0.8204007148742676,-1.0457592010498047,-1.7102795839309692
1710889411567265800,15.272265869140625,-1.3403959274291992,1.257537841796875,-1.1736927032470703
1710889411586225700,15.2912255859375,-1.477963924407959,-1.1394672393798828,-0.23444008827209473
1710889411605185300,15.310185302734375,-0.36496782302856445,-2.5529260635375977,-0.4898257255554199
1710889411624145200,15.329145263671874,-0.11277484893798828,-0.08024787902832031,-1.1112134456634521
1710889411643104800,15.348104736328125,-0.5139727592468262,1.0198936462402344,-0.1352221965789795
1710889411662064600,15.367064697265626,0.5655460357666016,0.3853902816772461,1.1704864501953125
1710889411681024300,15.386024169921875,-0.7016415596008301,-0.3871288299560547,1.2092487812042236
1710889411699984100,15.404984130859376,0.48352622985839844,1.0011787414550781,-0.0049054622650146484
1710889411718943700,15.42394384765625,0.4701228141784668,1.1556410789489746,-1.2869192361831665
1710889411737903400,15.4429033203125,0.2674732208251953,0.029746055603027344,-0.0597994327545166
1710889411756863200,15.46186328125,1.88895845413208,-0.8722410202026367,0.6668438911437988
1710889411775822800,15.48082275390625,1.5917792320251465,0.2545299530029297,0.49742770195007324
1710889411794782700,15.49978271484375,-0.0659174919128418,1.127058506011963,0.9269497394561768
1710889411813742300,15.518742431640625,-1.0682950019836426,-0.00237274169921875,0.712580680847168
1710889411832702200,15.5377021484375,-0.06274127960205078,-0.5470428466796875,-0.6006875038146973
1710889411851661800,15.556661865234375,-0.12225627899169922,0.13372421264648438,-0.6292154788970947
1710889411870621400,15.575621337890626,0.2863173484802246,0.5139894485473633,0.839935302734375
1710889411889581300,15.594581298828125,0.7475433349609375,-0.11844253540039062,1.5844745635986328
1710889411908541000,15.613541015625,-0.028141498565673828,0.07410049438476562,2.788959503173828
1710889411927500800,15.632500732421875,-1.8044843673706055,0.3682241439819336,0.10521149635314941
1710889411946460400,15.65146044921875,-1.1393046379089355,0.23822021484375,-2.2548375129699707
1710889411965420300,15.670420166015624,0.0035390853881835938,-0.3632974624633789,-1.0209991931915283
1710889411984380000,15.6893798828125,-1.0022683143615723,-0.4768028259277344,0.3482632637023926
1710889412003339800,15.70833984375,-0.7482023239135742,0.3167076110839844,1.4930734634399414
1710889412022299400,15.72729931640625,-0.550412654876709,0.5407133102416992,0.03251147270202637
1710889412041259300,15.74625927734375,-1.227005958557129,0.11119937896728516,-1.8736876249313354
1710889412060219000,15.765218994140625,-0.8259973526000977,-0.6121006011962891,-1.6340868473052979
1710889412079178800,15.7841787109375,-0.06932592391967773,-0.5691375732421875,0.6124608516693115
1710889412098138400,15.803138427734375,0.33503055572509766,1.016739845275879,1.4794855117797852
1710889412117098200,15.82209814453125,1.0619332790374756,1.0656023025512695,2.2365760803222656
1710889412136057900,15.841057861328125,0.9104363918304443,0.4895515441894531,2.206387519836426
1710889412155017500,15.860017578125,0.8914327621459961,0.30898094177246094,0.7192704677581787
1710889412173977300,15.878977294921874,1.1736106872558594,0.27407073974609375,-0.40830564498901367
1710889412192937000,15.89793701171875,0.5313940048217773,0.16323089599609375,0.28244924545288086
1710889412211896800,15.916896728515624,0.3858516216278076,0.33933448791503906,1.0639441013336182
1710889412230856400,15.9358564453125,0.6819713115692139,0.06509208679199219,0.23136258125305176
1710889412249816000,15.954816162109376,1.377838134765625,-0.1190481185913086,-0.39749813079833984
1710889412268776000,15.97377587890625,0.5928976535797119,-0.8283061981201172,-0.7860760688781738
1710889412287735600,15.992735595703126,-0.3438129425048828,-0.25232791900634766,-0.23700368404388428
1710889412306695400,16.0116953125,-0.15522098541259766,-0.27474021911621094,0.45294713973999023
1710889412325655000,16.030655029296874,0.08301258087158203,-0.2556791305541992,0.2987961769104004
1710889412344615000,16.049614990234375,-0.766176700592041,-0.3312263488769531,-0.7415227890014648
1710889412363574500,16.068574462890624,-0.5631704330444336,-0.1623983383178711,0.10383176803588867
1710889412382534100,16.0875341796875,0.07507038116455078,0.31185054779052734,0.6607627868652344
1710889412401494000,16.106493896484373,0.1719522476196289,0.39894866943359375,1.3759286403656006
1710889412420453600,16.12545361328125,-0.032013893127441406,0.014695167541503906,0.8853754997253418
1710889412439413500,16.14441357421875,0.15553951263427734,0.055538177490234375,-0.8298063278198242
1710889412458373000,16.163373046875,-0.5680122375488281,-0.08318614959716797,-1.1113052368164062
1710889412477333000,16.1823330078125,-0.7283830642700195,-0.36878013610839844,-0.5658810138702393
1710889412496292600,16.201292724609374,-0.527501106262207,0.03744029998779297,-0.5217580795288086
1710889412515252500,16.22025244140625,0.1518702507019043,0.46775054931640625,0.28394150733947754
1710889412534212000,16.239212158203124,-0.1204376220703125,-0.2001018524169922,0.8038146495819092
1710889412553172000,16.258171875,0.08795738220214844,0.09864044189453125,0.013355731964111328
1710889412572131600,16.277131591796874,0.6612145900726318,0.054207801818847656,-0.6092004776000977
1710889412591091500,16.296091552734374,0.8687114715576172,-0.5648288726806641,0.4412829875946045
1710889412610051000,16.315051025390623,0.09889078140258789,-0.11454391479492188,0.9635560512542725
1710889412629011000,16.334010986328124,-0.4988441467285156,0.1793994903564453,0.425459623336792
1710889412647970600,16.352970458984377,-0.25163793563842773,-0.02421283721923828,-0.09956169128417969
1710889412666930400,16.371930419921874,0.2021803855895996,-0.15353775024414062,-0.034311771392822266
1710889412685890000,16.39089013671875,0.19011163711547852,-0.2296428680419922,-0.016516923904418945
1710889412704850000,16.409849853515624,-0.8953123092651367,-0.2872791290283203,-0.8388991355895996
1710889412723809500,16.4288095703125,-0.27915430068969727,-0.23721694946289062,-0.7873942852020264
1710889412742769200,16.44776904296875,-0.27820682525634766,-0.04419898986816406,-0.05132889747619629
1710889412761729000,16.46672900390625,-0.32360315322875977,-0.041253089904785156,0.2182161808013916
1710889412780688600,16.485688720703124,-0.38152265548706055,-0.44729042053222656,-0.6873327493667603
1710889412799648500,16.5046484375,-0.26868486404418945,-0.004969596862792969,-0.22030949592590332
1710889412818608000,16.523608154296873,-0.0045223236083984375,-0.19870758056640625,0.5101876258850098
1710889412837568000,16.542568115234374,-0.01550436019897461,-0.0478973388671875,0.23047709465026855
1710889412856527600,16.561527587890627,0.08989429473876953,0.18994903564453125,0.06407380104064941
1710889412875487500,16.580487548828124,-0.0021963119506835938,-0.19989490509033203,-0.34000658988952637
1710889412894447000,16.599447021484377,-0.029499530792236328,-0.39461803436279297,-0.07227540016174316
1710889412913407000,16.618406982421874,-0.7385382652282715,-0.08283615112304688,-0.1738753318786621
1710889412932366600,16.63736669921875,-0.1896653175354004,0.5292882919311523,0.08634424209594727
1710889412951326500,16.656326416015624,0.6259608268737793,0.10573387145996094,0.9624104499816895
1710889412970286000,16.6752861328125,0.45331454277038574,-0.10113811492919922,1.316286563873291
1710889412989246000,16.694245849609374,0.2295529842376709,0.27142333984375,0.4561607837677002
1710889413008205600,16.71320556640625,0.8670408725738525,0.04494190216064453,-0.39791643619537354
1710889413027165400,16.73216552734375,0.4515242576599121,-0.17476940155029297,-0.3155176639556885
1710889413046125000,16.751125,0.012589454650878906,0.1294870376586914,0.7675015926361084
1710889413065085000,16.7700849609375,-0.08050012588500977,-0.042301177978515625,0.7578718662261963
1710889413084044500,16.78904443359375,-0.11648082733154297,0.18388938903808594,-0.014750003814697266
1710889413103004400,16.80800439453125,0.3311882019042969,-0.08400535583496094,-0.2862238883972168
1710889413121964000,16.826964111328124,0.003912925720214844,-0.6049995422363281,-0.4042961597442627
1710889413140924000,16.845923828125,-0.4024372100830078,0.2541036605834961,-0.8506393432617188
1710889413159883500,16.864883544921874,0.17174100875854492,0.029329299926757812,-0.09810137748718262
1710889413178843400,16.883843505859375,0.22217607498168945,-0.4608488082885742,0.41260218620300293
1710889413197803000,16.902802978515624,-0.4804391860961914,0.35196399688720703,-0.04307913780212402
1710889413216763000,16.921762939453124,0.10366964340209961,0.045551300048828125,-0.2932600975036621
1710889413235722500,16.940722412109373,0.7156336307525635,-0.09873390197753906,0.26650547981262207
1710889413254682400,16.959682373046874,0.2568843364715576,0.28655147552490234,0.7366857528686523
1710889413273642000,16.97864208984375,0.15958881378173828,0.4021291732788086,0.5159454345703125
1710889413292601900,16.997601806640624,0.08454084396362305,0.05772686004638672,0.3302650451660156
1710889413311561700,17.016561767578125,0.025473594665527344,-0.4661293029785156,0.1511523723602295
1710889413330521300,17.035521240234374,0.1112220287322998,-0.4016437530517578,-0.5305904150009155
1710889413349481200,17.054481201171875,-0.4565291404724121,0.2772388458251953,-0.8638883829116821
1710889413368440800,17.07344091796875,-0.564208984375,-0.42935943603515625,-0.33875513076782227
1710889413387400700,17.092400634765625,-0.3612551689147949,-0.7490739822387695,0.06844735145568848
1710889413406360300,17.1113603515625,-0.07230758666992188,0.16170406341552734,0.08255958557128906
1710889413425320200,17.1303203125,-0.008461475372314453,0.026256561279296875,-0.420149564743042
1710889413444280000,17.149280029296875,0.06852436065673828,-0.4951286315917969,-0.5427210330963135
1710889413463239700,17.16823974609375,0.20915603637695312,-0.1007070541381836,-0.3760688304901123
1710889413482199600,17.187199462890625,0.09290266036987305,0.21923065185546875,-0.0015110969543457031
1710889413501159200,17.2061591796875,0.10953712463378906,0.19333744049072266,0.0933377742767334
1710889413520119000,17.225119140625,0.5208165645599365,0.01578998565673828,0.4922640323638916
1710889413539078700,17.24407861328125,1.077570915222168,0.1278362274169922,0.9112632274627686
1710889413558038500,17.26303857421875,0.4298095703125,0.5608425140380859,0.7934436798095703
1710889413576998400,17.281998291015626,-0.07749462127685547,0.2590599060058594,0.8740930557250977
1710889413595958000,17.3009580078125,-0.17460155487060547,-0.2954740524291992,0.5663187503814697
1710889413614918000,17.31991796875,-0.22632169723510742,-0.33851051330566406,0.3272993564605713
1710889413633877500,17.33887744140625,-0.7440652847290039,-0.4080696105957031,-0.6479413509368896
1710889413652837400,17.35783740234375,-1.1100845336914062,-0.4163169860839844,-1.2427594661712646
1710889413671797200,17.37679736328125,-0.6524763107299805,-0.5748462677001953,-0.7946531772613525
1710889413690756900,17.3957568359375,-1.0492668151855469,-0.37099647521972656,-0.32037973403930664
1710889413709716700,17.414716796875,-0.377835750579834,0.056372642517089844,-0.15206432342529297
1710889413728676400,17.43367626953125,0.38912296295166016,-0.035302162170410156,0.15557241439819336
1710889413747636200,17.45263623046875,0.1566481590270996,-0.09720802307128906,0.2752199172973633
1710889413766596000,17.47159619140625,0.096771240234375,0.3457498550415039,-0.21282744407653809
1710889413785555700,17.4905556640625,0.2541160583496094,0.33336734771728516,-0.4966573715209961
1710889413804515600,17.509515625,0.28296947479248047,0.03818225860595703,0.4733567237854004
1710889413823475500,17.528475341796874,0.5699014663696289,0.15559673309326172,0.5733773708343506
1710889413842435000,17.54743505859375,0.3705897331237793,0.5453882217407227,0.3732798099517822
1710889413861395000,17.56639501953125,0.08962821960449219,0.33413124084472656,0.2815988063812256
1710889413880354800,17.585354736328124,0.06678080558776855,-0.04683494567871094,0.1477494239807129
1710889413899314400,17.604314453125,0.35051536560058594,0.03752899169921875,0.35712766647338867
1710889413918274300,17.6232744140625,-0.2796621322631836,-0.21737098693847656,-0.05419135093688965
1710889413937234200,17.642234130859375,-0.610081672668457,-0.2961406707763672,-0.6176207065582275
1710889413956193800,17.66119384765625,-0.29276132583618164,-0.4319753646850586,-0.6252636909484863
1710889413975153700,17.680153564453125,-0.03946208953857422,-0.38161754608154297,0.041464805603027344
1710889413994113500,17.699113525390626,-0.44666385650634766,-0.009842872619628906,0.21876144409179688
1710889414013073200,17.7180732421875,0.12569236755371094,-0.08937358856201172,0.2788670063018799
1710889414032033000,17.737032958984376,0.3800234794616699,-0.4161224365234375,-0.19536042213439941
1710889414050992600,17.75599267578125,-0.33736371994018555,-0.06578350067138672,-0.6671736240386963
1710889414069952500,17.774952392578125,-0.39266061782836914,-0.04051399230957031,-1.0382665395736694
1710889414088912400,17.793912353515626,0.09134745597839355,-0.3462667465209961,-0.7792315483093262
1710889414107872000,17.8128720703125,0.49347972869873047,0.12232589721679688,0.37001585960388184
1710889414126831900,17.831831787109376,0.7316670417785645,0.2203960418701172,0.5706050395965576
1710889414145791700,17.850791748046873,-0.002086162567138672,0.12860774993896484,0.2340703010559082
1710889414164751400,17.86975146484375,-0.3135380744934082,0.2753877639770508,0.45865368843078613
1710889414183711200,17.888711181640623,-0.014545917510986328,0.0544586181640625,0.3363635540008545
1710889414202671000,17.907671142578124,-0.37314319610595703,0.012089729309082031,-0.09470129013061523
1710889414221630700,17.926630615234377,-0.6321277618408203,0.0024137496948242188,-0.28137755393981934
1710889414240590600,17.945590576171874,-0.06843090057373047,-0.3204965591430664,-0.050768136978149414
1710889414259550500,17.964550537109375,-0.0641322135925293,-0.2438526153564453,0.11725640296936035
1710889414278510300,17.98351025390625,-0.2470541000366211,0.07003593444824219,0.4723665714263916
1710889414297470000,18.002469970703125,0.056487083435058594,-0.18486595153808594,0.12407469749450684
1710889414316429800,18.021429931640625,0.09989595413208008,-0.5341720581054688,-0.12828326225280762
1710889414335389700,18.0403896484375,0.2366502285003662,0.03139495849609375,0.14976072311401367
1710889414354349300,18.059349365234375,0.46817588806152344,-0.3046579360961914,0.3030672073364258
1710889414373309200,18.07830908203125,-0.14319181442260742,-0.3059234619140625,0.10531044006347656
1710889414392269000,18.09726904296875,-0.5814709663391113,0.3383607864379883,-0.2816646099090576
1710889414411229000,18.11622900390625,0.06151533126831055,0.15880107879638672,-0.11375164985656738
1710889414430188500,18.1351884765625,0.29866790771484375,-0.1052398681640625,0.20671892166137695
1710889414449148400,18.1541484375,-0.01024484634399414,0.3140268325805664,0.026166439056396484
1710889414468108300,18.1731083984375,-0.051418304443359375,0.18533897399902344,-0.3706169128417969
1710889414487068000,18.19206787109375,0.2414402961730957,-0.2813835144042969,-0.33355236053466797
1710889414506027800,18.21102783203125,0.0902395248413086,0.04858589172363281,-0.3679652214050293
1710889414524987600,18.229987548828124,-0.06768369674682617,0.17013931274414062,-0.016686201095581055
1710889414543947500,18.248947509765625,-0.07301568984985352,-0.1780252456665039,0.5720014572143555
1710889414562907100,18.2679072265625,-0.21979999542236328,-0.035246849060058594,0.3267345428466797
1710889414581867000,18.286866943359374,-0.010047435760498047,0.02477741241455078,-0.17541933059692383
1710889414600827000,18.305826904296875,-0.11419010162353516,-0.22582244873046875,-0.1532578468322754
1710889414619786800,18.324786865234376,-0.2283482551574707,-0.47075653076171875,-0.3005955219268799
1710889414638746400,18.343746337890625,-0.2540268898010254,-0.15997600555419922,-0.44716596603393555
1710889414657706200,18.362706298828126,0.03647899627685547,0.06983089447021484,-0.19516992568969727
1710889414676666000,18.381666015625,-0.23016691207885742,-0.04482269287109375,0.13113188743591309
1710889414695625700,18.400625732421876,0.006325721740722656,0.03485584259033203,0.3438131809234619
1710889414714585900,18.4195859375,0.6866779327392578,0.2897624969482422,0.26771068572998047
1710889414733545500,18.43854541015625,0.5591931343078613,0.17296695709228516,0.12465667724609375
1710889414752505300,18.45750537109375,-0.012876510620117188,-0.09957408905029297,-0.16799283027648926
1710889414771465200,18.47646533203125,0.08068704605102539,-0.041797637939453125,-0.13509368896484375
1710889414790424800,18.4954248046875,-0.11821699142456055,0.13267230987548828,-0.1334223747253418
1710889414809384700,18.514384765625,0.010671138763427734,0.16515827178955078,-0.20008063316345215
1710889414828344600,18.533344482421874,0.2460482120513916,-0.10835933685302734,0.15973997116088867
1710889414847304400,18.552304443359375,-0.09163522720336914,-0.13353919982910156,0.5154280662536621
1710889414866264000,18.57126416015625,-0.0033364295959472656,0.054596900939941406,-0.003785848617553711
1710889414885224000,18.590223876953125,-0.02581501007080078,-0.21968746185302734,-0.35623860359191895
1710889414904183800,18.609183837890626,-0.33975648880004883,-0.19590377807617188,-0.2094135284423828
1710889414923143400,18.628143310546875,-0.387117862701416,-0.08307552337646484,-0.18200993537902832
1710889414942103300,18.647103271484376,-0.05638694763183594,-0.1253194808959961,-0.017491817474365234
1710889414961063200,18.666063232421877,0.23303771018981934,0.06920146942138672,0.21360087394714355
1710889414980023000,18.68502294921875,-0.01626443862915039,-0.10135650634765625,0.07105708122253418
1710889414998983000,18.70398291015625,-0.10869741439819336,-0.1044778823852539,-0.20108294486999512
1710889415017942500,18.722942626953124,-0.3294224739074707,0.008444786071777344,-0.43633055686950684
1710889415036902400,18.74190234375,-0.30980825424194336,0.033257484436035156,-0.27520179748535156
1710889415055862300,18.7608623046875,0.2086176872253418,0.004464149475097656,0.2735595703125
1710889415074822100,18.779822265625,0.459522008895874,0.3889026641845703,0.4755244255065918
1710889415093781800,18.79878173828125,0.10252141952514648,0.15668964385986328,0.3709702491760254
1710889415112741600,18.81774169921875,-0.06323623657226562,-0.05395984649658203,0.1922149658203125
1710889415131701500,18.836701416015625,-0.042119503021240234,0.0999135971069336,-0.19727253913879395
1710889415150661400,18.855661376953126,-0.2183375358581543,0.0036172866821289062,-0.3083958625793457
1710889415169621000,18.87462109375,0.035012245178222656,-0.0029001235961914062,-0.005624532699584961
1710889415188580900,18.893580810546876,0.3518800735473633,-0.10932350158691406,0.0007567405700683594
1710889415207540700,18.912540771484377,-0.045444488525390625,0.021131515502929688,0.10942268371582031
1710889415226500600,18.93150048828125,-0.20156097412109375,0.09637832641601562,0.24249649047851562
1710889415245460200,18.950460205078127,-0.01460123062133789,-0.19162559509277344,-0.04803037643432617
1710889415264420000,18.969420166015624,0.1543431282043457,-0.040366172790527344,-0.3243272304534912
1710889415283380000,18.9883798828125,0.09851980209350586,-0.023120880126953125,-0.10277128219604492
1710889415302339800,19.00733984375,-0.21846389770507812,-0.15091609954833984,0.1349320411682129
1710889415321299500,19.026299560546875,-0.07157659530639648,0.0628957748413086,-0.023748397827148438
1710889415340259300,19.04525927734375,0.1167917251586914,0.05948925018310547,-0.10928511619567871
1710889415359219200,19.06421923828125,0.12493705749511719,-0.09625625610351562,0.062259674072265625
1710889415378179000,19.083178955078125,-0.003154754638671875,-0.07831764221191406,-0.1142582893371582
1710889415397138700,19.102138671875,-0.013754844665527344,-0.037232398986816406,-0.11121821403503418
1710889415416098600,19.1210986328125,-0.06311798095703125,0.07135009765625,0.23117375373840332
1710889415435058400,19.140058349609376,0.06050586700439453,0.051657676696777344,0.20003008842468262
1710889415454018300,19.159018310546877,-0.15298938751220703,-0.07270240783691406,-0.0505068302154541
1710889415472978000,19.17797802734375,-0.03513336181640625,0.0026407241821289062,0.010811805725097656
1710889415491937800,19.196937744140627,0.01630258560180664,0.08368968963623047,-0.13393330574035645
1710889415510897700,19.215897705078124,-0.1783585548400879,-0.005208015441894531,-0.17873764038085938
1710889415529857300,19.234857177734376,-0.05039548873901367,-0.17197895050048828,0.06917548179626465
1710889415548817200,19.253817138671874,0.003711223602294922,-0.015011787414550781,0.1398937702178955
1710889415567777000,19.272777099609375,-0.14098501205444336,0.13219261169433594,-0.25203895568847656
1710889415586737000,19.29173681640625,0.05698823928833008,0.0026035308837890625,-0.2826218605041504
1710889415605696800,19.31069677734375,0.08399057388305664,-0.14783382415771484,0.24155020713806152
1710889415624656400,19.329656494140625,0.021863937377929688,0.1769733428955078,0.44701671600341797
1710889415643616300,19.3486162109375,0.3302452564239502,0.3275613784790039,0.43103551864624023
1710889415662576000,19.367576171875,0.15989971160888672,-0.2787008285522461,-0.1060190200805664
1710889415681535700,19.38653564453125,-0.27762651443481445,-0.19720172882080078,-0.5046176910400391
1710889415700495600,19.40549560546875,-0.22429704666137695,0.1702556610107422,-0.11272311210632324
1710889415719455500,19.42445556640625,0.062039852142333984,-0.062071800231933594,0.04793262481689453
1710889415738415400,19.443415283203127,-0.0702829360961914,-0.23552703857421875,-0.452486515045166
1710889415757375200,19.462375244140624,0.23621225357055664,0.12464237213134766,-0.009874343872070312
1710889415776334800,19.4813349609375,0.1825270652770996,0.30544567108154297,0.7023212909698486
1710889415795294700,19.500294677734374,0.11343955993652344,0.16428470611572266,0.5576777458190918
1710889415814254600,19.519254638671875,-0.14866924285888672,0.02249908447265625,0.03510332107543945
1710889415833214200,19.538214111328124,-0.1688828468322754,0.022680282592773438,-0.259840726852417
1710889415852174000,19.557174072265624,-0.07508611679077148,-0.04531574249267578,-0.3219177722930908
1710889415871134000,19.576134033203125,-0.0022368431091308594,-0.09358882904052734,-0.4474947452545166
1710889415890093600,19.595093505859374,-0.11886358261108398,-0.1893768310546875,-0.06332969665527344
1710889415909053400,19.614053466796875,-0.3632330894470215,-0.006741523742675781,0.192795991897583
1710889415928013300,19.633013427734376,-0.12673091888427734,-0.36839866638183594,-0.19765543937683105
1710889415946973200,19.65197314453125,-0.10017776489257812,-0.32773685455322266,-0.6271224021911621
1710889415965932800,19.670932861328126,-0.07923698425292969,0.1623554229736328,-0.1043386459350586
1710889415984892700,19.689892578125,0.2651181221008301,0.2705545425415039,1.0220401287078857
1710889416003852500,19.7088525390625,0.6008963584899902,0.10377979278564453,1.3440227508544922
1710889416022812400,19.7278125,0.34850382804870605,0.1799001693725586,0.42900538444519043
1710889416041772000,19.74677197265625,0.028139591217041016,0.20368099212646484,-0.36198997497558594
1710889416060732000,19.76573193359375,-0.06397628784179688,-0.1278400421142578,-0.5764919519424438
1710889416079691800,19.78469189453125,-0.39408302307128906,-0.06291675567626953,-0.7666535377502441
1710889416098651400,19.8036513671875,0.08677244186401367,0.18356037139892578,-0.0935811996459961
1710889416117611300,19.822611328125,0.314363956451416,-0.02476787567138672,0.4538733959197998
1710889416136571100,19.841571044921874,-0.11646652221679688,0.03497314453125,0.1610856056213379
1710889416155530800,19.86053076171875,-0.16145563125610352,-0.07457637786865234,-0.015645980834960938
1710889416174490600,19.87949072265625,-0.1595301628112793,-0.13633346557617188,-0.18434500694274902
1710889416193450500,19.898450439453125,-0.25255489349365234,0.11050987243652344,-0.04187583923339844
1710889416212410000,19.91741015625,-0.10570478439331055,-0.16481971740722656,-0.04564952850341797
1710889416231370000,19.936369873046875,-0.010000228881835938,-0.07375431060791016,0.05381584167480469
1710889416250329900,19.955329833984376,0.018873214721679688,0.11673450469970703,0.27179789543151855
1710889416269289500,19.97428955078125,-0.15513324737548828,-0.2494344711303711,-0.2947978973388672
1710889416288249300,19.993249267578125,0.05304574966430664,-0.11109447479248047,-0.28037571907043457
1710889416307209200,20.012209228515626,0.12754249572753906,0.2720365524291992,0.23575234413146973
1710889416326168800,20.0311689453125,0.2454066276550293,-0.014883041381835938,0.5400426387786865
1710889416345128700,20.050128662109376,0.24913311004638672,-0.08234024047851562,0.21256756782531738
1710889416364088600,20.069088623046873,-0.06296825408935547,0.2573375701904297,0.017812728881835938
1710889416383048400,20.08804833984375,-0.12326478958129883,0.03899574279785156,-0.1566758155822754
1710889416402008000,20.107008056640623,0.03674125671386719,-0.08233451843261719,-0.4449617862701416
1710889416420968000,20.125968017578124,-0.06388092041015625,0.06136894226074219,-0.22244811058044434
1710889416439927800,20.144927734375,-0.13183259963989258,0.05972480773925781,0.3072535991668701
1710889416458887400,20.163887451171874,0.14496374130249023,0.04053020477294922,0.15089654922485352
1710889416477847300,20.182847412109375,0.12431097030639648,0.1232757568359375,-0.11674189567565918
1710889416496807200,20.20180712890625,0.010624408721923828,-0.08252334594726562,0.01704716682434082
1710889416515766800,20.220766845703125,-0.04089689254760742,-0.19031143188476562,0.0808250904083252
1710889416534726700,20.2397265625,-0.15529346466064453,-0.009082794189453125,0.10437250137329102
1710889416553686500,20.2586865234375,-0.13788938522338867,-0.06119346618652344,-0.10773372650146484
1710889416572646100,20.277646240234375,-0.19260883331298828,-0.21261215209960938,-0.3786337375640869
1710889416591606000,20.29660595703125,-0.0948171615600586,-0.16237926483154297,-0.25185728073120117
1710889416610566000,20.31556591796875,0.05329322814941406,-0.10445499420166016,0.03802347183227539
1710889416629525500,20.334525390625,-0.06466245651245117,0.00870513916015625,0.10430312156677246
1710889416648485400,20.3534853515625,-0.0447535514831543,-0.0030727386474609375,0.07643866539001465
1710889416667445200,20.3724453125,0.16468429565429688,0.11115169525146484,0.07800126075744629
1710889416686404900,20.39140478515625,0.044599056243896484,0.028334617614746094,0.05847501754760742
1710889416705364700,20.41036474609375,-0.08200454711914062,0.1685161590576172,-0.11417365074157715
1710889416724324400,20.429324462890627,0.2814064025878906,0.05006217956542969,-0.01835775375366211
1710889416743284200,20.4482841796875,0.3724813461303711,0.0659027099609375,0.21545028686523438
1710889416762244000,20.467244140625,-0.058721065521240234,0.0911264419555664,0.12015032768249512
1710889416781204000,20.486203857421874,-0.13961505889892578,0.009531021118164062,-0.14926648139953613
1710889416800163600,20.50516357421875,0.02517080307006836,0.07374763488769531,-0.16257309913635254
1710889416819123500,20.52412353515625,-0.09292125701904297,0.017563819885253906,0.28156447410583496
1710889416838083300,20.543083251953124,0.1542654037475586,-0.13692951202392578,0.3149888515472412
1710889416857043000,20.56204296875,-0.18042707443237305,-0.12055206298828125,-0.2177717685699463
1710889416876002800,20.5810029296875,-0.31090736389160156,-0.12465286254882812,-0.3520801067352295
1710889416894962400,20.59996240234375,-0.268674373626709,-0.061713218688964844,0.09503483772277832
1710889416913922300,20.61892236328125,0.18351364135742188,0.0022115707397460938,0.18874311447143555
1710889416932882200,20.637882080078125,0.06841707229614258,-0.17743587493896484,0.0233001708984375
1710889416951841800,20.656841796875,-0.16299724578857422,-0.017508506774902344,0.021356582641601562
1710889416970801700,20.6758017578125,-0.13978004455566406,0.03714179992675781,-0.3370091915130615
1710889416989761300,20.69476123046875,-0.08625221252441406,-0.13650894165039062,-0.38521528244018555
1710889417008721200,20.71372119140625,0.253450870513916,0.12090778350830078,0.15766286849975586
1710889417027681000,20.732680908203125,0.3849947452545166,0.16208648681640625,0.19942307472229004
1710889417046640600,20.751640625,0.05468177795410156,0.035503387451171875,0.09271717071533203
1710889417065600500,20.7706005859375,-0.18690872192382812,0.10426902770996094,0.17976665496826172
1710889417084560400,20.789560302734376,-0.023227214813232422,0.16996097564697266,0.09154105186462402
1710889417103520000,20.80852001953125,0.2523989677429199,0.0040378570556640625,-0.18852877616882324
1710889417122479900,20.82747998046875,0.1740727424621582,0.04115104675292969,0.2159285545349121
1710889417141439500,20.846439453125,-0.02241802215576172,-0.0043697357177734375,0.2772531509399414
1710889417160399400,20.8653994140625,-0.21869516372680664,-0.01186370849609375,-0.09447550773620605
1710889417179359200,20.884359130859377,-0.23616266250610352,-0.027435302734375,-0.06437110900878906
1710889417198318800,20.90331884765625,0.06893396377563477,0.03963470458984375,0.001580953598022461
1710889417217278700,20.92227880859375,0.09442520141601562,-0.055092811584472656,-0.15694165229797363
1710889417236238300,20.94123828125,-0.2788100242614746,-0.28460121154785156,-0.14490532875061035
1710889417255198200,20.9601982421875,-0.08371305465698242,-0.10247516632080078,-0.2977762222290039
1710889417274158000,20.979157958984374,0.07568359375,-0.015202522277832031,-0.27522778511047363
1710889417293117700,20.99811767578125,-0.09332704544067383,-0.056969642639160156,0.21246647834777832
1710889417312077600,21.01707763671875,0.07460927963256836,0.1609811782836914,0.28775739669799805
1710889417331037200,21.036037109375,0.2867000102996826,0.08944320678710938,0.1998918056488037
1710889417349997000,21.0549970703125,0.3125157356262207,-0.0019140243530273438,0.31489109992980957
1710889417368957000,21.07395703125,-0.06147003173828125,-0.055640220642089844,0.08694863319396973
1710889417387916500,21.09291650390625,-0.20508432388305664,0.07597827911376953,-0.5200939178466797
1710889417406876400,21.11187646484375,0.22165822982788086,0.0034933090209960938,-0.38379788398742676
1710889417425836300,21.130836181640625,0.14709043502807617,-0.10772228240966797,0.2344975471496582
1710889417444796000,21.1497958984375,0.0037355422973632812,0.019608497619628906,0.3026466369628906
1710889417463755800,21.168755859375,0.09378862380981445,0.17744064331054688,-0.019702672958374023
1710889417482715600,21.187715576171875,0.14489364624023438,0.039801597595214844,-0.09884762763977051
1710889417501675300,21.20667529296875,-0.056235313415527344,-0.16122722625732422,0.034800052642822266
1710889417520635100,21.22563525390625,-0.010581016540527344,0.02450275421142578,0.09662556648254395
1710889417539595000,21.244594970703126,0.2475118637084961,0.24207401275634766,0.21957159042358398
1710889417558554600,21.2635546875,-0.01575946807861328,-0.03407859802246094,0.23489022254943848
1710889417577514500,21.282514404296876,-0.1854248046875,-0.13486480712890625,-0.10981416702270508
1710889417596474000,21.30147412109375,-0.2052006721496582,0.03717231750488281,-0.2618982791900635
1710889417615434000,21.32043408203125,-0.3229179382324219,-0.014903068542480469,-0.25169897079467773
1710889417634393900,21.339393798828127,-0.09327840805053711,-0.06704139709472656,-0.0803840160369873
1710889417653353500,21.358353515625,0.11096000671386719,-0.030020713806152344,-0.013180017471313477
1710889417672313300,21.377313232421876,-0.04257822036743164,-0.0027742385864257812,-0.013036966323852539
1710889417691273000,21.39627294921875,-0.09217214584350586,-0.02714061737060547,-0.06197333335876465
1710889417710232800,21.41523291015625,-0.02903461456298828,0.07312393188476562,0.14777135848999023
1710889417729192700,21.434192626953124,0.03566122055053711,-0.041672706604003906,0.051911354064941406
1710889417748152300,21.45315234375,0.14095306396484375,-0.1504983901977539,-0.17505168914794922
1710889417767112200,21.4721123046875,0.07004499435424805,0.007672309875488281,0.30650997161865234
1710889417786072000,21.491072021484374,0.07020235061645508,-0.2721433639526367,0.6929543018341064
1710889417805031700,21.51003173828125,0.2573215961456299,-0.5849123001098633,0.2668159008026123
1710889417823991600,21.528991455078124,0.19668340682983398,-1.1848077774047852,0.015372514724731445
1710889417842951200,21.547951171875,-0.382293701171875,-1.5395803451538086,-0.3883366584777832
1710889417861911000,21.5669111328125,-1.0786361694335938,-1.2711830139160156,-0.6008968353271484
1710889417880871000,21.585870849609375,-0.8410272598266602,-0.7870597839355469,-0.8413829803466797
1710889417899830500,21.60483056640625,-0.7808084487915039,-0.12571430206298828,-0.6261725425720215
1710889417918790400,21.623790283203125,-0.6452898979187012,0.6476974487304688,-0.7073180675506592
1710889417937750300,21.642750244140625,0.5678689479827881,1.5861248970031738,-0.5874900817871094
1710889417956710000,21.6617099609375,1.6149590015411377,2.5766563415527344,0.0818779468536377
1710889417975669800,21.680669677734375,2.0056703090667725,4.6816911697387695,-0.5166831016540527
1710889417994629600,21.699629638671876,2.8971619606018066,5.367774963378906,1.536445140838623
1710889418013589500,21.718589599609373,3.5538330078125,2.2053866386413574,3.6717898845672607
1710889418032549000,21.737549072265626,1.0656046867370605,0.1553182601928711,-0.9216468334197998
1710889418051509000,21.756509033203123,0.6843929290771484,2.5350751876831055,-3.9098634719848633
1710889418070468900,21.77546875,1.7788920402526855,1.2766242027282715,-3.218587636947632
1710889418089428500,21.794428466796877,0.3005843162536621,-0.8964848518371582,-1.8440464735031128
1710889418108388400,21.813388427734374,-2.6322035789489746,-1.2253084182739258,0.8571929931640625
1710889418127348200,21.83234814453125,0.3896799087524414,-0.5146842002868652,3.2449395656585693
1710889418146307800,21.851307861328124,2.3022289276123047,1.1582417488098145,0.9957046508789062
1710889418165267700,21.870267822265625,-1.9259023666381836,0.6151175498962402,1.5493476390838623
1710889418184227600,21.8892275390625,-0.639411449432373,-0.8455500602722168,-1.5772731304168701
1710889418203187200,21.908187255859374,-0.8042140007019043,0.4851694107055664,-2.268425941467285
1710889418222147000,21.92714697265625,-2.2158613204956055,-0.10526704788208008,-0.39768028259277344
1710889418241107000,21.94610693359375,0.5448684692382812,-1.68800687789917,0.9610333442687988
1710889418260066600,21.965066650390625,2.2139501571655273,1.6841130256652832,-1.5438913106918335
1710889418279026400,21.9840263671875,-2.969736099243164,1.5254542827606201,0.02036738395690918
1710889418297986300,22.002986328125,1.344536304473877,-1.836900234222412,1.1596317291259766
1710889418316946000,22.02194580078125,1.7430009841918945,-0.6264948844909668,0.1353459358215332
1710889418335905800,22.04090576171875,-1.9493818283081055,-0.1900167465209961,0.422698974609375
1710889418354865700,22.05986572265625,2.3201041221618652,-2.465744972229004,-0.19344449043273926
1710889418373825500,22.078825439453126,-0.3461275100708008,-0.752662181854248,2.035855531692505
1710889418392785200,22.09778515625,-3.333745002746582,1.7078883647918701,2.4810478687286377
1710889418411745000,22.1167451171875,4.117009162902832,2.346496343612671,-1.8042148351669312
1710889418430705000,22.135704833984374,-0.04124259948730469,0.19902706146240234,-0.9453518390655518
1710889418449664500,22.15466455078125,-4.383055686950684,-0.6655001640319824,2.570401668548584
1710889418468624400,22.173624267578123,-0.8997726440429688,-1.8336069583892822,1.6597867012023926
1710889418487584300,22.192584228515624,5.819489479064941,0.23711109161376953,-3.8349642753601074
1710889418506543900,22.2115439453125,-3.134701728820801,0.3800637722015381,-1.4094839096069336
1710889418525503700,22.230503662109374,-3.911020278930664,-1.412468671798706,0.4792153835296631
1710889418544463600,22.249463623046875,2.2197861671447754,-0.28758931159973145,-0.8226542472839355
1710889418563423500,22.268423583984376,0.9778594970703125,0.6975171566009521,-1.3836292028427124
1710889418582383000,22.287383056640625,-3.0398311614990234,-0.6362155675888062,2.2609288692474365
1710889418601343000,22.306343017578126,2.9928884506225586,-1.4752787351608276,0.6226778030395508
1710889418620302800,22.325302734375,0.3450946807861328,1.7159967422485352,-1.3509747982025146
1710889418639262700,22.3442626953125,-3.855426788330078,2.1029555797576904,-0.8095719814300537
1710889418658222300,22.363222412109376,2.4926681518554688,-2.176497459411621,-0.1668715476989746
1710889418677182200,22.38218212890625,1.2512626647949219,-2.7094616889953613,1.8119664192199707
1710889418696142000,22.40114208984375,-1.2803258895874023,-0.1245262622833252,1.5620992183685303
1710889418715102000,22.42010205078125,0.4606904983520508,0.6459854245185852,1.1896378993988037
1710889418734061600,22.4390615234375,3.628303050994873,0.038509681820869446,1.3963050842285156
1710889418753021400,22.458021484375,-1.3539113998413086,0.2402472198009491,0.7403967380523682
1710889418771981300,22.476981201171874,-1.6512222290039062,0.5238316059112549,1.1225957870483398
1710889418790941200,22.495941162109375,3.1862545013427734,-0.4301568269729614,1.022461175918579
1710889418809901000,22.514901123046876,0.6252603530883789,0.23250675201416016,0.7976806163787842
1710889418828860700,22.533860595703125,-1.010910987854004,0.17974388599395752,0.55021071434021
1710889418847820500,22.552820556640626,-0.8112030029296875,0.5617601871490479,0.44033217430114746
1710889418866780400,22.571780517578127,2.3347949981689453,1.3340129852294922,-2.0571978092193604
1710889418885740300,22.590740234375,0.7363357543945312,0.01767885684967041,-1.4337754249572754
1710889418904700000,22.609699951171876,-2.131509780883789,-1.5399678945541382,-0.03168153762817383
1710889418923659800,22.62865966796875,-0.8721866607666016,0.06196439266204834,0.693549394607544
1710889418942619600,22.64761962890625,1.8627452850341797,-1.705178141593933,-1.057081699371338
1710889418961579500,22.66657958984375,0.11247825622558594,-1.7997477054595947,-2.3660285472869873
1710889418980539400,22.685539306640624,-2.3990068435668945,2.119295120239258,1.104996919631958
1710889418999499000,22.7044990234375,1.0854625701904297,1.5853922367095947,2.382669687271118
1710889419018459000,22.723458984375,1.823615550994873,-2.7533321380615234,-2.112795114517212
1710889419037418800,22.742418701171875,-3.6139678955078125,-1.0992717742919922,-1.4121086597442627
1710889419056378600,22.761378662109376,-1.2197074890136719,-0.5011625289916992,0.8304200172424316
1710889419075338200,22.780338134765625,1.78202486038208,-2.815607786178589,0.9714007377624512
1710889419094298000,22.799298095703126,-2.3412113189697266,-0.7078754901885986,0.5817899703979492
1710889419113258000,22.818258056640627,-2.209573745727539,2.3823130130767822,1.23390531539917
1710889419132217900,22.8372177734375,0.7653141021728516,-1.877212643623352,0.8000867366790771
1710889419151177700,22.856177734375,-1.9712953567504883,-1.9285600185394287,-0.6313356161117554
1710889419170137300,22.875137451171874,-2.416876792907715,-0.7036153078079224,-1.5155138969421387
1710889419189097200,22.89409716796875,0.6448831558227539,-0.37575840950012207,-1.5374757051467896
1710889419208057000,22.91305712890625,0.017717361450195312,-1.441138744354248,0.4557912349700928
1710889419227017000,22.932016845703124,-1.812387466430664,-0.6266508102416992,1.5099563598632812
1710889419245976800,22.950976806640625,-0.16284656524658203,0.14898133277893066,0.7278296947479248
1710889419264936400,22.9699365234375,1.6226439476013184,-0.7473125457763672,0.10073447227478027
1710889419283896300,22.988896240234375,0.44554805755615234,-0.8140428066253662,1.1315100193023682
1710889419302856200,23.007856201171876,-2.4649343490600586,1.6537660360336304,2.0170693397521973
1710889419321816000,23.026816162109377,2.1851682662963867,1.4131200313568115,0.792935848236084
1710889419340776000,23.04577587890625,1.532236099243164,-1.8787713050842285,1.0209808349609375
1710889419359735800,23.06473583984375,-2.1872406005859375,-1.3624200820922852,-0.3170650005340576
1710889419378695400,23.0836953125,-0.8289899826049805,2.8625190258026123,-1.839186429977417
1710889419397655300,23.1026552734375,0.526860237121582,1.0375652313232422,0.8306126594543457
1710889419416615200,23.121615234375,-0.2495441436767578,-2.1057066917419434,1.6285462379455566
1710889419435575000,23.140574951171875,-0.08759784698486328,0.16846412420272827,1.4351630210876465
1710889419454535000,23.159534912109375,-0.7143678665161133,2.72471022605896,-0.24201583862304688
1710889419473494800,23.178494873046876,-0.1555471420288086,0.3073998689651489,-1.470428466796875
1710889419492454700,23.19745458984375,-1.3759880065917969,-0.5339746475219727,-0.83124840259552
1710889419511414300,23.216414306640626,-1.3747892379760742,1.3400542736053467,-0.8043539524078369
1710889419530374100,23.2353740234375,0.3843393325805664,1.6068482398986816,-0.5544037818908691
1710889419549334000,23.254333984375,-0.1901073455810547,-0.5360302925109863,0.42461228370666504
1710889419568294000,23.2732939453125,-1.3149642944335938,-0.7799975872039795,1.3802812099456787
1710889419587253800,23.292253662109374,-0.18390369415283203,1.4800894260406494,-0.14069080352783203
1710889419606213600,23.311213623046875,-0.11409854888916016,1.324760913848877,-1.8022842407226562
1710889419625173200,23.33017333984375,-0.8017148971557617,-0.08842134475708008,-0.43677425384521484
1710889419644133000,23.349133056640625,-1.0876998901367188,1.0317859649658203,1.0224509239196777
1710889419663093000,23.368093017578126,-2.06575870513916,0.9375448226928711,-0.2901015281677246
1710889419682052900,23.387052978515626,0.3269805908203125,0.7368440628051758,-1.4906625747680664
1710889419701012700,23.4060126953125,-1.7058849334716797,1.1364750862121582,-0.36431074142456055
1710889419719972600,23.42497265625,-0.6793875694274902,1.0896821022033691,0.7811121940612793
1710889419738932500,23.443932373046874,-1.196016788482666,-1.206061840057373,1.5615615844726562
1710889419757892000,23.46289208984375,0.6546745300292969,-0.510167121887207,0.13844037055969238
1710889419776852000,23.48185205078125,-0.6704530715942383,1.4083881378173828,0.43997931480407715
1710889419795811800,23.500811767578124,-1.2577447891235352,0.735872745513916,0.24087238311767578
1710889419814771700,23.519771728515625,0.7053923606872559,0.03193187713623047,0.2887723445892334
