time,seconds_elapsed,z,y,x
1711553562467821600,0.032821533203125,0,0,0
1711553562486781700,0.05178173828125,0.00507354736328125,-0.033736228942871094,0.02466130256652832
1711553562505741800,0.070741943359375,-0.052767276763916016,0.14475297927856445,0.0015175342559814453
1711553562524701700,0.08970166015625,-0.19592809677124023,0.027794837951660156,-0.14663124084472656
1711553562543661800,0.108661865234375,-0.43006467819213867,-0.09440040588378906,-0.458355188369751
1711553562562622000,0.1276220703125,-0.338106632232666,-0.4684023857116699,-0.47356247901916504
1711553562581581800,0.146581787109375,-0.2306056022644043,-0.13357925415039062,-0.5606138706207275
1711553562600542000,0.1655419921875,0.011846542358398438,0.20454788208007812,-0.23744440078735352
1711553562619501800,0.184501708984375,0.5416707992553711,0.24093294143676758,0.003657817840576172
1711553562638462000,0.2034619140625,0.7257423400878906,0.3023815155029297,-0.19394826889038086
1711553562657422000,0.222422119140625,0.33477210998535156,0.2950620651245117,0.14317798614501953
1711553562676382000,0.2413818359375,-0.062406063079833984,1.0949335098266602,0.3108983039855957
1711553562695342000,0.260342041015625,-0.26741886138916016,0.8036751747131348,-1.007272481918335
1711553562714302000,0.279302001953125,-0.05946803092956543,-0.07335376739501953,-1.2653746604919434
1711553562733262000,0.298261962890625,-0.13256263732910156,0.35669660568237305,-0.5943355560302734
1711553562752222200,0.31722216796875,0.00973200798034668,0.7432332038879395,0.28703927993774414
1711553562771182000,0.33618212890625,0.4187352657318115,0.17252492904663086,1.1375045776367188
1711553562790142200,0.35514208984375,0.5271220207214355,0.5583510398864746,0.9890098571777344
1711553562809102000,0.37410205078125,0.14525914192199707,0.6379075050354004,0.8663558959960938
1711553562828062200,0.393062255859375,-0.6679785251617432,0.6737790107727051,0.22934627532958984
1711553562847022000,0.41202197265625,-0.7690939903259277,0.5370683670043945,0.15540575981140137
1711553562865982200,0.430982177734375,-0.988778829574585,0.5805568695068359,-0.0008203983306884766
1711553562884942000,0.449942138671875,-1.2051317691802979,0.8065080642700195,0.20064616203308105
1711553562903902200,0.468902099609375,-1.035808801651001,1.1205291748046875,0.8228695392608643
1711553562922862300,0.4878623046875,-0.7981655597686768,1.3131866455078125,1.5782856941223145
1711553562941822200,0.506822265625,-0.43731188774108887,1.3011703491210938,2.1330816745758057
1711553562960782300,0.5257822265625,-0.3293440341949463,1.3487815856933594,2.578000545501709
1711553562979742200,0.5447421875,-0.4202289581298828,1.3880329132080078,3.0271401405334473
1711553562998702300,0.563702392578125,-0.6027371883392334,0.842646598815918,3.025106191635132
1711553563017662500,0.582662353515625,-0.6793032884597778,0.0649862289428711,2.6273183822631836
1711553563036622300,0.601622314453125,-0.9132301807403564,-0.3156566619873047,1.9625256061553955
1711553563055582500,0.62058251953125,-1.24512779712677,-0.5867757797241211,1.0749070644378662
1711553563074542600,0.63954248046875,-1.1231725215911865,-0.8012208938598633,0.7042298316955566
1711553563093502500,0.65850244140625,-0.6069412231445312,-0.792694091796875,0.4565920829772949
1711553563112462600,0.677462646484375,-0.3673204183578491,-0.24486351013183594,0.4726814031600952
1711553563131422500,0.69642236328125,-0.2526196241378784,0.305145263671875,0.48603594303131104
1711553563150382600,0.715382568359375,-0.1399170160293579,0.6616220474243164,0.4186863899230957
1711553563169342700,0.7343427734375,-0.2975015640258789,0.8254013061523438,-0.08463990688323975
1711553563188302600,0.753302490234375,-0.6112581491470337,0.7953624725341797,-0.6704534888267517
1711553563207262700,0.7722626953125,-0.440598726272583,0.4519062042236328,-0.8858672976493835
1711553563226222600,0.79122265625,-0.515923261642456,0.37291526794433594,-0.8115130066871643
1711553563245182700,0.8101826171875,-0.6336678266525269,0.13557720184326172,-0.8279526233673096
1711553563264142600,0.829142578125,-0.6912071704864502,-0.1963205337524414,-0.9577128291130066
1711553563283102700,0.848102783203125,-0.7576268911361694,-0.26565074920654297,-0.9898549914360046
1711553563302062800,0.867062744140625,-0.986201286315918,0.019476890563964844,-0.8532940745353699
1711553563321022700,0.886022705078125,-0.939521312713623,0.34073829650878906,-0.554512083530426
1711553563339982800,0.90498291015625,-0.8247277736663818,0.33483219146728516,-0.3663221001625061
1711553563358943000,0.92394287109375,-0.8606643676757812,0.26927852630615234,-0.24112075567245483
1711553563377902800,0.94290283203125,-1.0608563423156738,0.21318912506103516,-0.09259271621704102
1711553563396863000,0.961863037109375,-0.9493088722229004,-0.018459320068359375,0.21455007791519165
1711553563415823000,0.980822998046875,-0.6864008903503418,-0.09777545928955078,0.5723293423652649
1711553563434783000,0.999782958984375,-0.4741942882537842,-0.19281482696533203,0.8537288308143616
1711553563453743000,1.0187431640625,-0.3726470470428467,-0.29074764251708984,1.1173076629638672
1711553563472703200,1.037703125,-0.32617902755737305,-0.37954235076904297,1.1794395446777344
1711553563491663000,1.0566630859375,-0.37537527084350586,-0.38305187225341797,1.0442531108856201
1711553563510623200,1.075623291015625,-0.19001269340515137,-0.4160890579223633,0.9611069560050964
1711553563529583400,1.094583251953125,0.05849719047546387,-0.43689632415771484,0.8698270320892334
1711553563548543200,1.113543212890625,0.20528435707092285,-0.29085636138916016,0.7668318152427673
1711553563567503400,1.13250341796875,0.1961500644683838,0.024465560913085938,0.7997173070907593
1711553563586463500,1.15146337890625,0.39804744720458984,0.2892332077026367,1.0600230693817139
1711553563605423400,1.17042333984375,0.6819629669189453,0.2999420166015625,1.1208581924438477
1711553563624383500,1.189383544921875,0.6036252975463867,0.2638835906982422,0.999772310256958
1711553563643343600,1.208343505859375,0.48920297622680664,0.2728309631347656,0.7998820543289185
1711553563662303700,1.2273037109375,0.3899838924407959,0.22943115234375,0.4741496443748474
1711553563681263600,1.246263671875,0.27246975898742676,0.08306312561035156,0.13053816556930542
1711553563700223700,1.2652236328125,0.19905304908752441,0.004505157470703125,-0.039250582456588745
1711553563719184000,1.284183837890625,0.19836187362670898,0.010539054870605469,-0.1218629851937294
1711553563738143700,1.303143798828125,0.18295073509216309,0.0729513168334961,-0.12886548042297363
1711553563757103900,1.322103759765625,0.14732670783996582,0.06785297393798828,-0.15919063985347748
1711553563776064000,1.34106396484375,0.16446900367736816,-0.08214664459228516,-0.19680255651474
1711553563795024000,1.36002392578125,0.38642287254333496,-0.3539266586303711,-0.16937431693077087
1711553563813984000,1.37898388671875,0.4712245464324951,-0.6186742782592773,-0.25263214111328125
1711553563832944000,1.397944091796875,0.42217326164245605,-0.714512825012207,-0.3849298357963562
1711553563851904300,1.416904296875,0.46065282821655273,-0.6720819473266602,-0.28255748748779297
1711553563870864400,1.435864501953125,0.5470943450927734,-0.4971170425415039,0.14388689398765564
1711553563889824500,1.454824462890625,0.7457225322723389,-0.3002452850341797,0.5450368523597717
1711553563908784400,1.473784423828125,0.9391937255859375,-0.20458126068115234,0.7771189212799072
1711553563927744500,1.49274462890625,0.9197087287902832,-0.28835582733154297,0.671630859375
1711553563946704600,1.51170458984375,0.7071919441223145,-0.4555215835571289,0.3348175585269928
1711553563965664500,1.53066455078125,0.6045763492584229,-0.5947732925415039,0.15252667665481567
1711553563984624600,1.549624755859375,0.584143877029419,-0.7683906555175781,0.06500738859176636
1711553564003584800,1.568584716796875,0.48573803901672363,-0.8559675216674805,-0.0921882838010788
1711553564022545000,1.587544921875,0.38252711296081543,-0.7699575424194336,-0.3205932676792145
1711553564041505000,1.606505126953125,0.3153960704803467,-0.8304929733276367,-0.2558380663394928
1711553564060465000,1.62546484375,0.35712218284606934,-0.7539167404174805,0.05430689826607704
1711553564079425000,1.644425048828125,0.4296116828918457,-0.7906494140625,0.23640474677085876
1711553564098385200,1.66338525390625,0.2751288414001465,-0.5780706405639648,0.2609312832355499
1711553564117345300,1.68234521484375,0.10939383506774902,0.010390281677246094,0.3381361663341522
1711553564136305400,1.701305419921875,0.0077593326568603516,0.2763862609863281,0.2903304100036621
1711553564155265500,1.720265625,-0.18595623970031738,0.37352466583251953,0.06374073028564453
1711553564174225400,1.739225341796875,-0.32196784019470215,0.1353464126586914,-0.12465237081050873
1711553564193185500,1.758185546875,-0.3616042137145996,-0.2347879409790039,-0.2712751626968384
1711553564212145700,1.777145751953125,-0.2663733959197998,-0.3277750015258789,-0.17680975794792175
1711553564231105800,1.796105712890625,-0.08634471893310547,-0.2773571014404297,0.04687589406967163
1711553564250066000,1.81506591796875,0.044886112213134766,-0.12582015991210938,0.30664747953414917
1711553564269026000,1.834026123046875,0.17415094375610352,0.12981319427490234,0.6224292516708374
1711553564287986200,1.852986083984375,0.24105191230773926,0.41695499420166016,0.8158104419708252
1711553564306946300,1.8719462890625,0.13275814056396484,0.4991292953491211,0.7932304739952087
1711553564325906400,1.890906494140625,-0.018076658248901367,0.4249076843261719,0.6870823502540588
1711553564344866600,1.909866455078125,-0.051351308822631836,0.25182533264160156,0.485302209854126
1711553564363826700,1.92882666015625,-0.09470081329345703,0.05662250518798828,0.26151514053344727
1711553564382786600,1.94778662109375,-0.15089678764343262,-0.07668781280517578,0.013397574424743652
1711553564401746700,1.96674658203125,-0.20947837829589844,-0.07598686218261719,-0.21205294132232666
1711553564420706800,1.985706787109375,-0.1887648105621338,-0.09579658508300781,-0.38427281379699707
1711553564439667000,2.0046669921875,-0.15494203567504883,-0.029645919799804688,-0.4206794500350952
1711553564458627000,2.023626953125,-0.15655517578125,0.0810089111328125,-0.3952464461326599
1711553564477587200,2.042587158203125,-0.1793074607849121,0.15799999237060547,-0.35165512561798096
1711553564496547300,2.06154736328125,-0.11279797554016113,0.19652843475341797,-0.28935718536376953
1711553564515507500,2.080507568359375,0.030269861221313477,0.19832324981689453,-0.1990365982055664
1711553564534467600,2.099467529296875,-0.038935184478759766,0.1950540542602539,-0.18570184707641602
1711553564553427700,2.118427734375,-0.053597450256347656,0.1199483871459961,-0.16138577461242676
1711553564572387800,2.137387939453125,-0.02703547477722168,0.07968616485595703,-0.11064040660858154
1711553564591348000,2.156347900390625,0.026545047760009766,0.058754920959472656,0.05088245868682861
1711553564610308000,2.17530810546875,-0.017040014266967773,0.027425765991210938,0.1606370210647583
1711553564629268200,2.194268310546875,0.0410919189453125,0.11494827270507812,0.3413928747177124
1711553564648228400,2.213228271484375,0.08476758003234863,0.24415302276611328,0.4797089099884033
1711553564667188200,2.232188232421875,0.04296875,0.29713916778564453,0.35239267349243164
1711553564686148600,2.251148681640625,0.03304791450500488,0.27495574951171875,0.14305198192596436
1711553564705108700,2.270108642578125,0.03650164604187012,0.22817325592041016,0.009755730628967285
1711553564724068900,2.28906884765625,-0.07549452781677246,0.21744918823242188,-0.12276506423950195
1711553564743029000,2.308029052734375,-0.07905030250549316,0.14592838287353516,-0.18494540452957153
1711553564761989000,2.326989013671875,-0.05702567100524902,0.14188766479492188,-0.23272007703781128
1711553564780949200,2.34594921875,-0.0542752742767334,0.08794498443603516,-0.25211644172668457
1711553564799909400,2.364909423828125,-0.006723642349243164,0.056321144104003906,-0.25206875801086426
1711553564818869500,2.383869384765625,0.03624534606933594,0.05777740478515625,-0.24456048011779785
1711553564837829600,2.40282958984375,0.03289222717285156,0.058434486389160156,-0.2097415328025818
1711553564856789800,2.421789794921875,0.0577394962310791,0.05837059020996094,-0.10130918025970459
1711553564875750000,2.44075,0.03613591194152832,0.06555843353271484,0.055944979190826416
1711553564894710000,2.4597099609375,0.061029672622680664,-0.032828330993652344,0.24387454986572266
1711553564913670100,2.478670166015625,0.15514135360717773,-0.2802906036376953,0.3008519411087036
1711553564932630300,2.49763037109375,0.16245508193969727,-0.4119243621826172,0.23056620359420776
1711553564951590400,2.51659033203125,0.08427691459655762,-0.44582557678222656,0.101512610912323
1711553564970550500,2.535550537109375,-0.05197858810424805,-0.3935680389404297,0.05626118183135986
1711553564989510700,2.5545107421875,-0.1983931064605713,-0.40001392364501953,-0.007750988006591797
1711553565008470800,2.573470703125,-0.19907093048095703,-0.34776878356933594,-0.07709616422653198
1711553565027431200,2.59243115234375,-0.14339017868041992,-0.24656009674072266,-0.15512615442276
1711553565046391000,2.61139111328125,-0.08818411827087402,-0.19695663452148438,-0.21792584657669067
1711553565065351400,2.630351318359375,-0.08471798896789551,-0.08007526397705078,-0.1135287880897522
1711553565084311600,2.6493115234375,-0.15673017501831055,0.02953338623046875,-0.036704421043395996
1711553565103271700,2.668271728515625,-0.17473340034484863,0.1714162826538086,-0.0073493123054504395
1711553565122231800,2.687231689453125,-0.09473848342895508,0.16560745239257812,0.003905177116394043
1711553565141192000,2.70619189453125,-0.10364365577697754,0.056278228759765625,-0.12131375074386597
1711553565160152000,2.725152099609375,-0.14653444290161133,0.0841827392578125,-0.1217641830444336
1711553565179112200,2.7441123046875,-0.16028594970703125,0.09571170806884766,-0.09541338682174683
1711553565198072300,2.763072265625,-0.20936346054077148,0.1138763427734375,-0.02606862783432007
1711553565217032400,2.782032470703125,-0.17600464820861816,0.1778564453125,-0.018346846103668213
1711553565235992800,2.800992919921875,-0.04788017272949219,0.18494606018066406,-0.05594003200531006
1711553565254953000,2.819952880859375,0.1245887279510498,0.09810256958007812,-0.14100795984268188
1711553565273913000,2.8389130859375,0.10453534126281738,0.06870174407958984,-0.13006627559661865
1711553565292873200,2.857873291015625,0.19868850708007812,-0.011121749877929688,-0.03766429424285889
1711553565311833300,2.876833251953125,0.4152193069458008,-0.1881866455078125,0.07359635829925537
1711553565330793500,2.89579345703125,0.34760117530822754,-0.10205459594726562,0.17809748649597168
1711553565349753600,2.914753662109375,0.37570905685424805,-0.12110233306884766,0.13717472553253174
1711553565368714000,2.9337138671875,0.5829856395721436,-0.25641345977783203,-0.02351081371307373
1711553565387674000,2.952674072265625,0.5984575748443604,-0.34527587890625,-0.20815730094909668
1711553565406634200,2.97163427734375,0.46154022216796875,-0.4338188171386719,-0.30264681577682495
1711553565425594400,2.990594482421875,0.45534300804138184,-0.4952402114868164,-0.24658435583114624
1711553565444554500,3.009554443359375,0.5167317390441895,-0.5041055679321289,-0.19530266523361206
1711553565463514600,3.0285146484375,0.4402327537536621,-0.4221630096435547,-0.12222135066986084
1711553565482475000,3.04747509765625,0.27754807472229004,-0.3251619338989258,0.07274025678634644
1711553565501435100,3.06643505859375,0.21405768394470215,-0.20188617706298828,0.3498513698577881
1711553565520395300,3.085395263671875,0.249647855758667,-0.04303264617919922,0.739934504032135
1711553565539355400,3.10435546875,0.04600787162780762,0.041530609130859375,1.129191517829895
1711553565558315500,3.1233154296875,-0.14838075637817383,0.0032567977905273438,1.3285685777664185
1711553565577275600,3.142275634765625,-0.3272373676300049,0.22155189514160156,1.387359380722046
1711553565596236000,3.161236083984375,-0.5301905870437622,0.6293201446533203,1.397473931312561
1711553565615196200,3.180196044921875,-0.6354916095733643,0.7630281448364258,1.1767407655715942
1711553565634156300,3.19915625,-0.5683073997497559,0.4146537780761719,0.8697881698608398
1711553565653116400,3.218116455078125,-0.48043131828308105,0.09787273406982422,0.5734454393386841
1711553565672076800,3.237076904296875,-0.38803887367248535,-0.27991294860839844,0.2546982765197754
1711553565691036700,3.25603662109375,-0.4290199279785156,-0.39578723907470703,-0.07201939821243286
1711553565709997000,3.2749970703125,-0.6723837852478027,-0.17465496063232422,-0.26094377040863037
1711553565728957200,3.293957275390625,-0.6708743572235107,0.03260993957519531,-0.35232430696487427
1711553565747917300,3.312917236328125,-0.6434249877929688,0.20054244995117188,-0.30582523345947266
1711553565766877400,3.33187744140625,-0.5823606252670288,0.26088905334472656,-0.04207003116607666
1711553565785837800,3.350837890625,-0.5691664218902588,0.2746591567993164,0.39268743991851807
1711553565804798000,3.3697978515625,-0.48647379875183105,0.2962455749511719,0.6516008377075195
1711553565823758000,3.388758056640625,-0.4961726665496826,0.25104522705078125,0.653041422367096
1711553565842718500,3.407718505859375,-0.602550745010376,0.16852378845214844,0.6088944673538208
1711553565861678300,3.42667822265625,-0.6749823093414307,0.12083053588867188,0.659782886505127
1711553565880638700,3.445638671875,-0.6473619937896729,0.07584381103515625,0.7390739321708679
1711553565899598800,3.464598876953125,-0.6002402305603027,0.05062389373779297,0.7794854044914246
1711553565918559000,3.48355908203125,-0.6196949481964111,-0.017724990844726562,0.8325290679931641
1711553565937519400,3.502519287109375,-0.5202395915985107,-0.13009929656982422,0.8743176460266113
1711553565956479500,3.5214794921875,-0.4314134120941162,-0.15990924835205078,0.8853621482849121
1711553565975439600,3.540439697265625,-0.4188680648803711,-0.23296356201171875,0.860457718372345
1711553565994399700,3.559399658203125,-0.3486063480377197,-0.41164112091064453,0.7548468112945557
1711553566013360000,3.578360107421875,-0.23818325996398926,-0.5830230712890625,0.6922008991241455
1711553566032320300,3.5973203125,-0.09035086631774902,-0.9013528823852539,0.6574475765228271
1711553566051280400,3.6162802734375,-0.14564013481140137,-0.7235298156738281,0.4535634517669678
1711553566070240500,3.635240478515625,-0.0830531120300293,-0.02982330322265625,0.48875191807746887
1711553566089200600,3.65420068359375,-0.09401798248291016,0.6192550659179688,0.5821189880371094
1711553566108161000,3.6731611328125,-0.2954738140106201,0.9581489562988281,0.8981927633285522
1711553566127121200,3.69212109375,-0.5182781219482422,0.994236946105957,1.3038935661315918
1711553566146081300,3.711081298828125,-0.48128199577331543,0.6813783645629883,1.6477779150009155
1711553566165041700,3.730041748046875,-0.5137233734130859,0.11062908172607422,2.024799346923828
1711553566184001800,3.749001708984375,-0.454254150390625,-0.3698863983154297,2.2707319259643555
1711553566202962000,3.7679619140625,-0.3320910930633545,-0.8397731781005859,2.356921911239624
1711553566221922300,3.78692236328125,-0.3349332809448242,-1.1652402877807617,2.262368679046631
1711553566240882400,3.80588232421875,-0.29967474937438965,-1.4440069198608398,2.131728172302246
1711553566259842600,3.824842529296875,-0.37868404388427734,-1.6229667663574219,2.2834203243255615
1711553566278802700,3.843802734375,-0.5573210716247559,-1.6037158966064453,2.3858821392059326
1711553566297762800,3.8627626953125,-0.6101558208465576,-1.7995080947875977,2.160238742828369
1711553566316723200,3.88172314453125,-1.0024962425231934,-1.8595194816589355,1.8254287242889404
1711553566335683300,3.900683349609375,-0.9831299781799316,-1.7497177124023438,1.3675684928894043
1711553566354643500,3.9196435546875,-0.761772632598877,-1.2262554168701172,1.2819468975067139
1711553566373603800,3.938603759765625,-0.9905903339385986,-0.5244121551513672,1.5591516494750977
1711553566392564000,3.95756396484375,-1.2862331867218018,-0.07545089721679688,1.8545558452606201
1711553566411524000,3.976524169921875,-0.9805233478546143,0.6374149322509766,2.213581085205078
1711553566430484500,3.995484375,-0.8718075752258301,2.739757537841797,4.574673652648926
1711553566449444600,4.014444580078125,-0.17959904670715332,3.0852651596069336,6.397829532623291
1711553566468404700,4.03340478515625,-0.04987525939941406,1.577305793762207,6.221410751342773
1711553566487365000,4.052365234375,-1.8623502254486084,1.1823787689208984,5.606048583984375
1711553566506325200,4.0713251953125,-1.5919818878173828,1.3111639022827148,5.937301158905029
1711553566525285400,4.090285400390625,-0.7005114555358887,1.4652776718139648,6.553096294403076
1711553566544245800,4.109245849609375,-0.39006733894348145,2.733175277709961,6.428188323974609
1711553566563206000,4.128205810546875,0.33805298805236816,4.572539329528809,5.050124645233154
1711553566582166000,4.147166015625,2.669645071029663,4.434999465942383,4.716331481933594
1711553566601126100,4.166126220703125,2.8223929405212402,2.8357009887695312,3.3596959114074707
1711553566620086500,4.18508642578125,2.7186226844787598,0.729039192199707,-0.470654159784317
1711553566639046700,4.204046630859375,-0.7540895938873291,-0.7115774154663086,-3.7315309047698975
1711553566658006800,4.2230068359375,-1.307330846786499,-2.320326805114746,-4.778720855712891
1711553566676967200,4.24196728515625,-0.7842299938201904,-2.5970640182495117,-3.5084447860717773
1711553566695927300,4.26092724609375,-0.07681488990783691,-0.5977506637573242,-2.343339204788208
1711553566714887400,4.279887451171875,-0.30851078033447266,2.058091163635254,-1.60457181930542
1711553566733847800,4.298847900390625,-1.211188793182373,4.946645736694336,-0.38364142179489136
1711553566752808000,4.317807861328125,-0.8936700820922852,9.388969421386719,1.758754014968872
1711553566771768000,4.33676806640625,0.5373632907867432,10.741575241088867,3.357706308364868
1711553566790728400,4.355728515625,2.1602110862731934,9.744945526123047,2.7358484268188477
1711553566809688600,4.3746884765625,1.4076523780822754,10.311761856079102,3.4469473361968994
1711553566828649000,4.39364892578125,0.7930209636688232,11.167708396911621,4.085687637329102
1711553566847609000,4.412609130859375,0.19797420501708984,11.32093620300293,3.911353826522827
1711553566866569200,4.4315693359375,1.0667173862457275,8.42854118347168,2.3786749839782715
1711553566885529600,4.450529541015625,1.2836201190948486,3.4156579971313477,1.0497183799743652
1711553566904489700,4.46948974609375,0.3298163414001465,-2.1275548934936523,-1.8881686925888062
1711553566923449900,4.488449951171875,-1.7658615112304688,-6.039374351501465,-5.810514450073242
1711553566942410200,4.50741015625,-3.8131890296936035,-7.22788143157959,-9.615779876708984
1711553566961370400,4.526370361328125,-2.7542006969451904,-5.791651725769043,-11.129950523376465
1711553566980330500,4.54533056640625,-3.2845916748046875,-5.204357147216797,-7.907508373260498
1711553566999290600,4.56429052734375,-3.492155075073242,-7.3766326904296875,-6.599081039428711
1711553567018251000,4.5832509765625,-2.955366611480713,-9.376395225524902,-5.839089870452881
1711553567037211100,4.602211181640625,-2.8053112030029297,-9.644145011901855,-4.2535881996154785
1711553567056171500,4.621171630859375,-3.229233503341675,-9.645685195922852,-2.7003040313720703
1711553567075131600,4.640131591796875,-3.6730668544769287,-8.967939376831055,-1.5175431966781616
1711553567094091800,4.659091796875,-3.3609235286712646,-7.188486576080322,0.11205780506134033
1711553567113052200,4.67805224609375,-2.623356342315674,-2.7948150634765625,3.1549298763275146
1711553567132012300,4.69701220703125,1.5227274894714355,3.1291637420654297,4.050083637237549
1711553567150972400,4.715972412109375,2.8729286193847656,5.3487443923950195,-1.1168081760406494
1711553567169932800,4.734932861328125,5.391712665557861,8.098957061767578,-2.2357897758483887
1711553567188893000,4.753892822265625,6.24118709564209,13.59691047668457,-1.191136360168457
1711553567207853000,4.77285302734375,5.113241672515869,13.012389183044434,-3.776451349258423
1711553567226813400,4.7918134765625,6.146366119384766,11.43282413482666,0.22912174463272095
1711553567245773600,4.810773681640625,7.584414482116699,9.01041030883789,6.103839874267578
1711553567264734000,4.82973388671875,3.5102996826171875,4.736733913421631,5.0323309898376465
1711553567283694000,4.848694091796875,-2.477477550506592,0.38928651809692383,3.3607184886932373
1711553567302654200,4.867654296875,-6.004888534545898,-2.354856014251709,2.8153603076934814
1711553567321614600,4.886614501953125,-6.0605058670043945,-5.359267234802246,2.9121837615966797
1711553567340574700,4.90557470703125,-5.340616226196289,-7.8101911544799805,3.7191357612609863
1711553567359535000,4.92453515625,-6.3100361824035645,-9.097079277038574,4.578212261199951
1711553567378495200,4.9434951171875,-7.632247447967529,-10.549954414367676,4.638575553894043
1711553567397455400,4.962455322265625,-8.599808692932129,-11.872754096984863,4.940395355224609
1711553567416415700,4.981415771484375,-8.871635437011719,-11.970019340515137,7.153907775878906
1711553567435375900,5.0003759765625,-7.6323933601379395,-10.866962432861328,8.932076454162598
1711553567454336000,5.0193359375,-5.338167667388916,-10.013139724731445,9.127551078796387
1711553567473296400,5.03829638671875,-3.9137611389160156,-9.688417434692383,8.58267593383789
1711553567492256500,5.057256591796875,-4.115637302398682,-7.826725959777832,7.441166877746582
1711553567511217000,5.076216796875,-3.3372645378112793,1.7001867294311523,4.379815101623535
1711553567530177000,5.095177001953125,-4.513191223144531,20.720088958740234,1.2598462104797363
1711553567549137200,5.11413720703125,-4.542267799377441,22.773448944091797,-1.1307704448699951
1711553567568097300,5.13309716796875,2.866527557373047,21.04220199584961,-5.880079746246338
1711553567587057700,5.1520576171875,3.4958300590515137,23.67205047607422,-2.87300705909729
1711553567606018000,5.17101806640625,0.5788388252258301,21.88458824157715,2.3688440322875977
1711553567624978200,5.189978271484375,4.75989294052124,16.571163177490234,4.493098735809326
1711553567643938300,5.208938232421875,2.4394967555999756,11.068740844726562,0.44315552711486816
1711553567662898400,5.2278984375,1.0755164623260498,5.450309753417969,-2.357260227203369
1711553567681858800,5.24685888671875,0.31280672550201416,1.4606103897094727,-3.3327198028564453
1711553567700819200,5.265819091796875,-2.7475528717041016,-1.314192771911621,-5.942768573760986
1711553567719779300,5.284779296875,-3.3159713745117188,-4.116069793701172,-10.147008895874023
1711553567738739500,5.303739501953125,-3.1096789836883545,-7.741435527801514,-12.458308219909668
1711553567757699600,5.322699462890625,-4.319823741912842,-9.893921852111816,-11.631829261779785
1711553567776660000,5.341659912109375,-3.378251552581787,-9.248601913452148,-8.485945701599121
1711553567795620000,5.3606201171875,-1.9591940641403198,-7.71003532409668,-5.838779449462891
1711553567814580500,5.37958056640625,-1.0653212070465088,-8.025126457214355,-4.836032867431641
1711553567833540600,5.39854052734375,-1.6664247512817383,-9.207945823669434,-5.307402610778809
1711553567852500700,5.417500732421875,-3.744633436203003,-8.063226699829102,-5.764549255371094
1711553567871461000,5.436461181640625,-2.223818778991699,-0.3094797134399414,-2.000964641571045
1711553567890421200,5.455421142578125,1.8030025959014893,9.756766319274902,4.430861473083496
1711553567909381600,5.474381591796875,8.37536334991455,9.249885559082031,-0.334902286529541
1711553567928341800,5.493341796875,13.231653213500977,16.472110748291016,-2.3447694778442383
1711553567947302000,5.512302001953125,9.194271087646484,16.429458618164062,-5.637007236480713
1711553567966262300,5.53126220703125,2.411050796508789,12.349255561828613,-3.133324146270752
1711553567985222400,5.550222412109375,-2.0364744663238525,6.932604789733887,1.481909155845642
1711553568004182800,5.569182861328125,-4.652703285217285,2.4154129028320312,4.528019428253174
1711553568023143000,5.588142822265625,-5.467263698577881,-1.1356525421142578,7.26484489440918
1711553568042103000,5.60710302734375,-4.3133134841918945,-5.655531883239746,8.842461585998535
1711553568061063400,5.6260634765625,-3.6978445053100586,-7.788973808288574,8.052623748779297
1711553568080023600,5.6450234375,-5.717334270477295,-9.003131866455078,6.5318684577941895
1711553568098984000,5.66398388671875,-7.653017997741699,-10.839066505432129,6.912758827209473
1711553568117944000,5.682944091796875,-7.918867111206055,-12.376419067382812,7.263525009155273
1711553568136904200,5.701904296875,-6.6316680908203125,-12.184436798095703,6.956991672515869
1711553568155864600,5.720864501953125,-5.646110534667969,-11.212523460388184,6.0946173667907715
1711553568174824700,5.73982470703125,-5.62138557434082,-10.713716506958008,5.475869655609131
1711553568193785000,5.75878515625,-5.659161567687988,-9.613788604736328,4.596260070800781
1711553568212745200,5.7777451171875,-4.804134368896484,-6.872910976409912,3.3696811199188232
1711553568231705300,5.796705322265625,-3.1880953311920166,0.20992088317871094,1.2278705835342407
1711553568250665700,5.815665771484375,-2.694060802459717,20.433155059814453,-2.5697884559631348
1711553568269625900,5.8346259765625,-2.4211487770080566,21.788894653320312,-3.903656244277954
1711553568288586200,5.853586181640625,9.368252754211426,16.866422653198242,-1.4761462211608887
1711553568307546400,5.87254638671875,6.050938606262207,20.998401641845703,0.2851417064666748
1711553568326506800,5.8915068359375,1.560760498046875,18.102855682373047,3.0197484493255615
1711553568345467000,5.910466796875,2.934396266937256,15.031661033630371,2.411027669906616
1711553568364427000,5.929427001953125,3.0203192234039307,9.592303276062012,1.4896008968353271
1711553568383387400,5.948387451171875,2.2539496421813965,5.572600364685059,1.5517098903656006
1711553568402347500,5.967347412109375,1.975416898727417,2.3165760040283203,-0.6065950393676758
1711553568421308000,5.986307861328125,-0.5970413684844971,0.9739408493041992,-4.481387615203857
1711553568440268000,6.00526806640625,-2.4228451251983643,-1.0620555877685547,-7.816102981567383
1711553568459228400,6.024228515625,-1.9773398637771606,-6.663996696472168,-11.134780883789062
1711553568478188500,6.0431884765625,-4.088797569274902,-11.394142150878906,-11.939041137695312
1711553568497148700,6.062148681640625,-5.831557750701904,-11.652589797973633,-10.836027145385742
1711553568516109000,6.081109130859375,-2.586127758026123,-8.34107494354248,-8.809967041015625
1711553568535069200,6.100069091796875,-1.2525410652160645,-6.716480731964111,-4.394433975219727
1711553568554029600,6.119029541015625,-2.336704730987549,-7.12744140625,-2.1670193672180176
1711553568572989700,6.13798974609375,-2.620206832885742,-7.796475410461426,-3.251884937286377
1711553568591950000,6.1569501953125,-2.9754693508148193,-3.937913417816162,-3.1755690574645996
1711553568610910200,6.17591015625,0.6698579788208008,12.50344467163086,5.1582465171813965
1711553568629870300,6.194870361328125,9.978860855102539,11.841002464294434,3.278672695159912
1711553568648830700,6.213830810546875,12.564018249511719,12.771997451782227,-2.4594531059265137
1711553568667790800,6.232790771484375,10.24570083618164,12.182905197143555,-3.5650265216827393
1711553568686751200,6.251751220703125,4.944419860839844,13.148646354675293,-0.06831151247024536
1711553568705711400,6.27071142578125,1.6685523986816406,7.36506986618042,1.2207224369049072
1711553568724671700,6.289671630859375,-1.745497226715088,1.48124361038208,1.9398287534713745
1711553568743632000,6.3086318359375,-3.6015818119049072,-3.278367042541504,4.155056476593018
1711553568762592300,6.32759228515625,-4.350253582000732,-7.231137752532959,4.878335475921631
1711553568781552400,6.346552490234375,-6.591347694396973,-7.406604290008545,4.192596912384033
1711553568800512800,6.3655126953125,-9.339228630065918,-8.07761001586914,3.9175989627838135
1711553568819473200,6.38447314453125,-10.443031311035156,-10.360939025878906,4.969048023223877
1711553568838433300,6.403433349609375,-8.68211841583252,-11.916887283325195,6.379096031188965
1711553568857393700,6.4223935546875,-6.6782755851745605,-11.293174743652344,7.076105117797852
1711553568876353800,6.441353759765625,-6.138080596923828,-10.906434059143066,6.900562763214111
1711553568895314200,6.460314208984375,-6.100838661193848,-10.750858306884766,6.446986675262451
1711553568914274300,6.4792744140625,-6.6322503089904785,-9.525080680847168,6.131863594055176
1711553568933234700,6.498234619140625,-6.110104560852051,-7.072327613830566,5.4163079261779785
1711553568952194800,6.51719482421875,-3.7168467044830322,-0.490325927734375,3.04428768157959
1711553568971155200,6.5361552734375,-1.5176764726638794,21.34355354309082,-1.220592975616455
1711553568990115300,6.555115234375,-4.5888237953186035,25.39389991760254,-3.9429492950439453
1711553569009075700,6.57407568359375,11.4623441696167,23.043659210205078,2.200845956802368
1711553569028035800,6.593035888671875,6.4263410568237305,19.693862915039062,-1.9489864110946655
1711553569046996200,6.611996337890625,1.811901330947876,18.49274444580078,0.784184455871582
1711553569065956400,6.630956298828125,3.959773540496826,12.968358039855957,3.414825439453125
1711553569084916700,6.649916748046875,2.634728193283081,8.438658714294434,2.5368409156799316
1711553569103876900,6.668876953125,2.4816782474517822,3.265292167663574,-0.3913228511810303
1711553569122837200,6.687837158203125,-0.04847908020019531,-0.0848388671875,-4.300525665283203
1711553569141797600,6.706797607421875,-2.156614303588867,-1.3366847038269043,-8.251686096191406
1711553569160757800,6.7257578125,-2.922755241394043,-4.8583173751831055,-11.137537002563477
1711553569179718100,6.74471826171875,-5.311470031738281,-8.689151763916016,-11.13375186920166
1711553569198678300,6.76367822265625,-5.2358503341674805,-10.344709396362305,-9.803021430969238
1711553569217638700,6.782638671875,-3.3205578327178955,-10.07577896118164,-8.27383041381836
1711553569236598800,6.801598876953125,-1.4748351573944092,-9.040609359741211,-6.749948024749756
1711553569255559200,6.82055908203125,-1.712256669998169,-8.358634948730469,-6.0514373779296875
1711553569274519600,6.83951953125,-3.0468997955322266,-6.243700981140137,-4.584190845489502
1711553569293479700,6.858479736328125,-1.1820800304412842,1.2309026718139648,-1.2907562255859375
1711553569312440000,6.877440185546875,4.029468059539795,16.28150177001953,7.700549125671387
1711553569331400400,6.896400390625,12.755533218383789,10.861330032348633,2.0958659648895264
1711553569350360600,6.915360595703125,12.694880485534668,14.018245697021484,0.93364018201828
1711553569369321000,6.934321044921875,7.884598731994629,11.406377792358398,-3.352717161178589
1711553569388281000,6.953281005859375,3.6873207092285156,11.560648918151855,-1.5270731449127197
1711553569407241500,6.972241455078125,0.7068800926208496,5.926239490509033,0.3463757634162903
1711553569426201900,6.991201904296875,-1.6083617210388184,-0.5118823051452637,1.8407671451568604
1711553569445162000,7.010161865234375,-4.482757091522217,-5.1758317947387695,2.9301509857177734
1711553569464122400,7.029122314453125,-7.241053581237793,-6.684162616729736,3.445995807647705
1711553569483082500,7.04808251953125,-8.145694732666016,-8.523223876953125,3.0538296699523926
1711553569502043000,7.06704296875,-7.890004634857178,-10.201581954956055,3.6323258876800537
1711553569521003300,7.086003173828125,-8.480629920959473,-11.221779823303223,5.004656791687012
1711553569539963600,7.104963623046875,-7.907347679138184,-11.26654052734375,5.791348457336426
1711553569558923800,7.123923828125,-7.829882621765137,-10.259048461914062,6.69237756729126
1711553569577884200,7.14288427734375,-7.219980716705322,-10.470575332641602,7.204647064208984
1711553569596844300,7.16184423828125,-6.088071823120117,-11.339882850646973,5.515467166900635
1711553569615804700,7.1808046875,-6.7256927490234375,-10.495307922363281,4.730871200561523
1711553569634765000,7.19976513671875,-7.1216888427734375,-7.0969109535217285,5.493642807006836
1711553569653725400,7.218725341796875,-4.392597198486328,-0.3891944885253906,4.87425422668457
1711553569672685600,7.237685546875,-1.6871463060379028,22.790119171142578,1.3453055620193481
1711553569691646000,7.25664599609375,0.17635297775268555,25.599464416503906,-2.2186954021453857
1711553569710606300,7.2756064453125,7.517710208892822,21.169525146484375,4.264825820922852
1711553569729566500,7.29456640625,8.919218063354492,22.930553436279297,4.971568584442139
1711553569748526800,7.31352685546875,2.45261812210083,17.039438247680664,4.089977741241455
1711553569767487200,7.3324873046875,2.7512013912200928,12.918868064880371,3.369556427001953
1711553569786447600,7.351447509765625,1.062079906463623,6.980690002441406,-0.6302413940429688
1711553569805407700,7.37040771484375,0.49686765670776367,3.184459686279297,-4.168543815612793
1711553569824368000,7.3893681640625,-1.1434073448181152,0.09397125244140625,-8.817919731140137
1711553569843328500,7.40832861328125,-2.31186580657959,-1.1592206954956055,-15.456796646118164
1711553569862288600,7.42728857421875,-3.9434900283813477,-5.154619216918945,-16.886234283447266
1711553569881249000,7.4462490234375,-4.6501946449279785,-7.581261157989502,-10.982644081115723
1711553569900209400,7.46520947265625,-3.3294777870178223,-5.9024977684021,-6.273461818695068
1711553569919169800,7.484169677734375,-1.3222261667251587,-6.8021955490112305,-4.331743240356445
1711553569938130000,7.5031298828125,-1.2494807243347168,-9.419010162353516,-4.153899192810059
1711553569957090300,7.52209033203125,-3.169708251953125,-9.601125717163086,-4.858503818511963
1711553569976050700,7.54105078125,-5.251754283905029,-5.545897006988525,-4.801485061645508
1711553569995011000,7.560010986328125,-1.598059892654419,6.449758529663086,0.8677783012390137
1711553570013971500,7.578971435546875,4.101250171661377,11.78888988494873,5.763733863830566
1711553570032931600,7.597931640625,12.740386962890625,8.911413192749023,2.1672635078430176
1711553570051892000,7.61689208984375,13.525306701660156,12.631749153137207,1.3687715530395508
1711553570070852400,7.635852294921875,7.9851202964782715,13.230628967285156,-2.669358015060425
1711553570089812700,7.654812744140625,2.294778823852539,10.799907684326172,0.595226526260376
1711553570108773000,7.673773193359375,-2.3329246044158936,5.447592258453369,2.8131282329559326
1711553570127733200,7.692733154296875,-5.115818977355957,-0.5292177200317383,4.397029876708984
1711553570146693600,7.711693603515625,-4.261262893676758,-5.975794792175293,5.436366081237793
1711553570165654000,7.730654052734375,-5.391190528869629,-10.113645553588867,4.535017490386963
1711553570184614400,7.749614501953125,-8.690038681030273,-10.740843772888184,3.460721254348755
1711553570203574800,7.76857470703125,-10.610553741455078,-9.840551376342773,3.1070194244384766
1711553570222535000,7.787534912109375,-9.793588638305664,-9.87510871887207,3.8094472885131836
1711553570241495300,7.806495361328125,-8.871068954467773,-10.005555152893066,7.452988624572754
1711553570260455700,7.82545556640625,-8.26403522491455,-11.506616592407227,11.212889671325684
1711553570279416000,7.844416015625,-7.303261756896973,-13.547463417053223,11.211475372314453
1711553570298376400,7.86337646484375,-7.374969482421875,-12.750995635986328,9.544563293457031
1711553570317336800,7.8823369140625,-6.001773834228516,-5.6592302322387695,6.652169227600098
1711553570336297200,7.901297119140625,-0.2616391181945801,25.685657501220703,2.3411574363708496
1711553570355257300,7.92025732421875,-6.074742317199707,36.50709533691406,-8.061617851257324
1711553570374217700,7.9392177734375,18.028804779052734,16.952226638793945,-4.334414482116699
1711553570393178000,7.95817822265625,5.532325744628906,21.449440002441406,-6.364914894104004
1711553570412138500,7.977138427734375,0.48345065116882324,18.901840209960938,0.0984659194946289
1711553570431099000,7.996098876953125,4.993139266967773,13.72162914276123,4.488104820251465
1711553570450059300,8.015059326171874,2.4209578037261963,7.722053527832031,4.778984069824219
1711553570469019600,8.03401953125,2.1248345375061035,2.591860771179199,0.34508681297302246
1711553570487980000,8.05297998046875,-0.7979285717010498,-0.5970678329467773,-3.735598087310791
1711553570506940200,8.071940185546875,-3.079015016555786,-2.350886344909668,-8.29394245147705
1711553570525900500,8.090900634765624,-3.0103347301483154,-5.923393249511719,-13.012398719787598
1711553570544861000,8.10986083984375,-4.550445556640625,-10.166642189025879,-14.192779541015625
1711553570563821300,8.1288212890625,-5.880141735076904,-9.813508987426758,-11.822203636169434
1711553570582781700,8.14778173828125,-3.4397497177124023,-6.464425086975098,-9.783204078674316
1711553570601742000,8.1667421875,-1.5917843580245972,-6.410886764526367,-8.753410339355469
1711553570620702500,8.185702392578126,-1.8107731342315674,-9.206963539123535,-9.162233352661133
1711553570639662800,8.204662841796875,-2.423215866088867,-9.168251991271973,-8.318634033203125
1711553570658623200,8.223623291015626,-3.7391104698181152,-6.514883518218994,-5.964486122131348
1711553570677583600,8.24258349609375,-1.225318431854248,2.415304183959961,-0.6145608425140381
1711553570696543700,8.261543701171876,4.6502227783203125,24.139739990234375,16.66828727722168
1711553570715504400,8.28050439453125,10.696279525756836,11.666991233825684,6.089639663696289
1711553570734464500,8.299464599609376,6.395122051239014,9.000439643859863,1.2952138185501099
1711553570753425000,8.3184248046875,6.250300407409668,9.628602027893066,-2.94588565826416
1711553570772385300,8.33738525390625,4.673978805541992,10.888178825378418,-1.3457826375961304
1711553570791345700,8.356345703125,2.705029010772705,9.65943431854248,2.7882580757141113
1711553570810306000,8.37530615234375,-2.6210994720458984,3.571737289428711,4.694412708282471
1711553570829266400,8.394266357421875,-4.929631233215332,-1.4098877906799316,3.5008091926574707
1711553570848226800,8.413226806640624,-4.816255569458008,-6.225972652435303,3.2851696014404297
1711553570867187200,8.432187255859375,-4.873405456542969,-10.692023277282715,3.852186679840088
1711553570886147600,8.451147705078125,-6.37047815322876,-13.109538078308105,3.3140509128570557
1711553570905108000,8.47010791015625,-8.918468475341797,-10.943161010742188,4.956344127655029
1711553570924068400,8.489068359375,-9.973106384277344,-8.510344505310059,8.865745544433594
1711553570943028700,8.50802880859375,-7.978020191192627,-9.711071968078613,9.727371215820312
1711553570961989000,8.526989013671875,-6.6429443359375,-11.72714614868164,8.475868225097656
1711553570980949500,8.545949462890626,-6.544048309326172,-12.794979095458984,5.815250873565674
1711553570999910000,8.564909912109375,-6.8795270919799805,-11.13708782196045,3.306122303009033
1711553571018870300,8.583870361328126,-7.02311897277832,-4.413793563842773,2.2082176208496094
1711553571037830700,8.60283056640625,-1.8681836128234863,18.581727981567383,-0.016230225563049316
1711553571056791000,8.621791015625,-3.0847015380859375,37.42221450805664,-10.197999954223633
1711553571075751400,8.64075146484375,17.647937774658203,13.792686462402344,-3.1763734817504883
1711553571094711600,8.659711669921874,10.275212287902832,21.817392349243164,1.0595064163208008
1711553571113672200,8.678672119140625,5.061290264129639,16.296125411987305,2.2091941833496094
1711553571132632600,8.697632568359374,6.132783889770508,10.335058212280273,1.1020903587341309
1711553571151592700,8.7165927734375,3.7307400703430176,7.827336311340332,5.377589225769043
1711553571170553300,8.73555322265625,2.756011724472046,2.756967544555664,3.9138429164886475
1711553571189513700,8.754513671875,0.6991682052612305,-0.8928213119506836,-0.6092526912689209
1711553571208473900,8.773473876953124,-1.763228178024292,-1.3565244674682617,-4.782700538635254
1711553571227434500,8.7924345703125,-2.139766216278076,-5.617907524108887,-8.830902099609375
1711553571246395000,8.811394775390625,-3.1347415447235107,-10.229183197021484,-10.892972946166992
1711553571265355000,8.83035498046875,-5.6016740798950195,-9.641073226928711,-10.024907112121582
1711553571284315600,8.849315673828125,-3.4940154552459717,-7.672857284545898,-10.251605987548828
1711553571303276000,8.868276123046876,-1.4110698699951172,-6.914127349853516,-9.564445495605469
1711553571322236200,8.887236083984375,-1.3375959396362305,-7.86414098739624,-8.449800491333008
1711553571341196800,8.90619677734375,-2.1298422813415527,-8.191049575805664,-9.226203918457031
1711553571360157200,8.9251572265625,-2.9624879360198975,-6.404625415802002,-9.347116470336914
1711553571379117300,8.944117431640626,-2.665623664855957,-3.9322471618652344,-7.1316022872924805
1711553571398077700,8.96307763671875,2.454692840576172,13.405320167541504,3.818866729736328
1711553571417038300,8.982038330078124,11.370267868041992,21.098602294921875,10.094887733459473
1711553571435998500,9.00099853515625,13.205708503723145,15.833704948425293,0.8581095337867737
1711553571454958800,9.019958740234374,7.047558307647705,11.998653411865234,-2.777672290802002
1711553571473919500,9.03891943359375,0.43299007415771484,10.559224128723145,-1.948140263557434
1711553571492879600,9.057879638671874,-1.7183036804199219,8.378153800964355,1.5221569538116455
1711553571511840000,9.076840087890625,-1.937511920928955,5.542284965515137,4.543954849243164
1711553571530800600,9.095800537109374,-4.194089412689209,1.6362314224243164,6.759653091430664
1711553571549760800,9.1147607421875,-4.347971439361572,-3.5109100341796875,6.376575946807861
1711553571568721200,9.13372119140625,-4.507135391235352,-8.48423957824707,6.083506107330322
1711553571587681800,9.152681884765625,-5.841251373291016,-11.6046724319458,5.806305408477783
1711553571606642200,9.17164208984375,-9.226144790649414,-12.392404556274414,5.774487495422363
1711553571625602300,9.190602294921876,-9.647039413452148,-11.049690246582031,5.787719249725342
1711553571644563000,9.20956298828125,-7.178959846496582,-10.129764556884766,7.367163181304932
1711553571663523300,9.2285234375,-6.4930548667907715,-11.270060539245605,8.374383926391602
1711553571682483500,9.2474833984375,-6.490358352661133,-12.518399238586426,7.439111709594727
1711553571701444000,9.266444091796876,-7.577296257019043,-11.820557594299316,6.42707633972168
1711553571720404500,9.285404541015625,-8.209890365600586,-8.109996795654297,6.102240085601807
1711553571739364600,9.304364501953126,-3.053360939025879,3.7824554443359375,3.899385929107666
1711553571758325000,9.323324951171875,-4.840876579284668,40.74636459350586,-0.8131840229034424
1711553571777285600,9.34228564453125,3.734513282775879,24.134645462036133,-7.153663158416748
1711553571796246000,9.36124609375,19.15241241455078,18.270214080810547,-1.66808021068573
1711553571815206100,9.3802060546875,4.492072582244873,23.298110961914062,-3.975958824157715
1711553571834166800,9.399166748046875,0.33052539825439453,16.500747680664062,0.5633392333984375
1711553571853127200,9.418127197265624,2.8116366863250732,8.273197174072266,1.7691831588745117
1711553571872087300,9.43708740234375,2.8258421421051025,2.5698394775390625,3.0199296474456787
1711553571891048000,9.4560478515625,2.8964638710021973,-1.8048791885375977,1.2005107402801514
1711553571910008300,9.47500830078125,-2.093471050262451,-4.261716842651367,-3.3205268383026123
1711553571928968400,9.493968505859375,-4.00832462310791,-5.796425819396973,-10.110283851623535
1711553571947929000,9.51292919921875,-4.489251613616943,-9.345796585083008,-15.455705642700195
1711553571966889500,9.531889404296875,-5.587549686431885,-10.690739631652832,-13.549041748046875
1711553571985849600,9.550849609375,-4.413482189178467,-7.348534107208252,-10.627558708190918
1711553572004810200,9.569810302734375,-1.9915966987609863,-5.590217590332031,-8.801027297973633
1711553572023770600,9.5887705078125,-0.22927522659301758,-6.790129661560059,-6.226268768310547
1711553572042731000,9.60773095703125,-1.2101974487304688,-6.637681007385254,-4.744939804077148
1711553572061691100,9.626691162109376,-1.9365328550338745,-5.516669273376465,-4.848066329956055
1711553572080651800,9.64565185546875,-2.367302894592285,-3.6723833084106445,-6.551830768585205
1711553572099612200,9.664612060546874,2.303762912750244,10.507972717285156,-3.302297830581665
1711553572118572300,9.683572265625,9.810388565063477,19.187496185302734,7.493936538696289
1711553572137533000,9.702532958984374,12.683229446411133,14.3912353515625,2.5696768760681152
1711553572156493300,9.721493408203125,6.800381660461426,10.003473281860352,-2.9762420654296875
1711553572175453400,9.740453369140624,1.9621758460998535,9.514437675476074,-3.192868947982788
1711553572194414000,9.7594140625,-0.5920619964599609,7.278988838195801,-0.4815870523452759
1711553572213374500,9.77837451171875,-2.0194039344787598,7.622666358947754,3.5605483055114746
1711553572232334800,9.7973349609375,-4.13692569732666,5.075991630554199,6.623810291290283
1711553572251295200,9.816295166015625,-5.166943550109863,-0.31989622116088867,7.148567199707031
1711553572270255600,9.835255615234376,-4.000405311584473,-5.903170585632324,7.075196266174316
1711553572289216000,9.854216064453125,-3.616340160369873,-10.514659881591797,6.82283353805542
1711553572308176400,9.87317626953125,-5.783056735992432,-13.67569351196289,4.831420421600342
1711553572327136800,9.89213671875,-9.448060989379883,-13.34528636932373,3.7992401123046875
1711553572346097200,9.91109716796875,-10.76993179321289,-10.556015014648438,4.083118438720703
1711553572365057300,9.930057373046875,-8.827499389648438,-10.060138702392578,5.299800872802734
1711553572384018000,9.949017822265626,-7.12462043762207,-11.752262115478516,6.753303050994873
1711553572402978300,9.967978271484375,-6.8929009437561035,-12.065908432006836,7.040892601013184
1711553572421938400,9.9869384765625,-7.255396842956543,-9.901193618774414,7.038372039794922
1711553572440899000,10.005899169921875,-6.438847064971924,-4.905486106872559,6.5445051193237305
1711553572459859500,10.024859375,-0.1899428367614746,17.5338134765625,4.038608551025391
1711553572478819600,10.043819580078125,-8.71047592163086,37.874053955078125,-3.4577736854553223
1711553572497780200,10.0627802734375,11.38630485534668,15.618431091308594,-6.746888637542725
1711553572516740600,10.08174072265625,8.880412101745605,20.5781307220459,-5.641700744628906
1711553572535700700,10.10070068359375,-2.5830671787261963,24.01266098022461,-2.8917415142059326
1711553572554661400,10.119661376953125,1.4290575981140137,14.635251998901367,4.655595302581787
1711553572573621800,10.138621826171875,4.140357971191406,7.488587379455566,4.374729156494141
1711553572592582000,10.157581787109375,4.227113723754883,1.2429113388061523,3.229032039642334
1711553572611542500,10.17654248046875,2.8042356967926025,-2.3578310012817383,0.6305136680603027
1711553572630503000,10.1955029296875,-2.0342609882354736,-4.080821990966797,-3.3983511924743652
1711553572649463000,10.214463134765625,-4.59971809387207,-5.362330913543701,-8.648195266723633
1711553572668423700,10.233423583984376,-4.123929500579834,-7.012882232666016,-13.905609130859375
1711553572687384000,10.252384033203125,-5.045866012573242,-9.198506355285645,-14.819062232971191
1711553572706344200,10.27134423828125,-3.599928379058838,-7.226908206939697,-13.24174976348877
1711553572725304600,10.2903046875,-1.056450605392456,-4.198667049407959,-9.899869918823242
1711553572744265200,10.30926513671875,0.5430529117584229,-4.317885875701904,-5.288998126983643
1711553572763225300,10.328225341796875,0.7055137157440186,-5.751866817474365,-2.99965763092041
1711553572782185700,10.347185791015624,-0.20618271827697754,-6.147989273071289,-3.3902041912078857
1711553572801146400,10.366146484375,-1.5801630020141602,-4.598660945892334,-5.708967208862305
1711553572820106500,10.3851064453125,-0.02556467056274414,5.926752090454102,-4.8073625564575195
1711553572839067000,10.40406689453125,2.0212457180023193,20.429916381835938,5.223609924316406
1711553572858027300,10.42302734375,6.4969892501831055,12.809326171875,2.3848447799682617
1711553572876987600,10.441987548828125,8.32898235321045,7.567943572998047,-0.6884801983833313
1711553572895948000,10.460947998046874,4.629295825958252,9.669776916503906,-3.484947681427002
1711553572914908400,10.479908447265625,2.5199389457702637,12.416464805603027,-3.2656538486480713
1711553572933868800,10.498868896484375,2.1012330055236816,13.754916191101074,0.8731412887573242
1711553572952829200,10.5178291015625,-1.1883115768432617,8.572325706481934,5.1840314865112305
1711553572971789600,10.53678955078125,-3.281643867492676,2.6564512252807617,6.457037448883057
1711553572990750000,10.55575,-4.481075763702393,-1.5167694091796875,5.753852844238281
1711553573009710300,10.57471044921875,-5.184770584106445,-6.218857765197754,5.0552897453308105
1711553573028670700,10.593670654296876,-5.776498794555664,-11.454561233520508,4.41183614730835
1711553573047631000,10.612631103515625,-7.463199615478516,-14.865796089172363,4.172252178192139
1711553573066591500,10.631591552734376,-9.645295143127441,-12.94824504852295,4.883174419403076
1711553573085551900,10.6505517578125,-9.757232666015625,-10.314115524291992,6.279905319213867
1711553573104512300,10.66951220703125,-7.8297119140625,-10.96310043334961,7.373822212219238
1711553573123472600,10.68847265625,-5.292490482330322,-12.686346054077148,6.360175132751465
1711553573142433000,10.70743310546875,-5.779255390167236,-12.580641746520996,5.5572686195373535
1711553573161393400,10.726393310546875,-7.494711399078369,-9.846617698669434,6.262118816375732
1711553573180353800,10.745353759765624,-6.270149230957031,-3.688823699951172,6.940229415893555
1711553573199314200,10.764314208984375,-1.9731569290161133,20.24652099609375,4.809562683105469
1711553573218274600,10.783274658203124,-5.072831153869629,27.242637634277344,-2.766495943069458
1711553573237235000,10.80223486328125,4.268108367919922,16.50300407409668,1.1835603713989258
1711553573256195300,10.8211953125,15.673377990722656,17.463743209838867,2.0727076530456543
1711553573275155700,10.84015576171875,2.3810312747955322,21.17632293701172,-3.805584192276001
1711553573294116000,10.8591162109375,-0.057456254959106445,19.923450469970703,4.917548656463623
1711553573313076500,10.878076416015626,2.79256272315979,11.031623840332031,1.565882682800293
1711553573332036900,10.897036865234375,2.6857540607452393,5.888190269470215,-1.8753464221954346
1711553573350997200,10.915997314453126,2.871060609817505,1.0756235122680664,-2.568734884262085
1711553573369957600,10.93495751953125,1.204871654510498,-2.831186294555664,-4.417023658752441
1711553573388918000,10.95391796875,-2.2918405532836914,-4.888607025146484,-7.753983020782471
1711553573407878400,10.97287841796875,-4.165485858917236,-6.451414585113525,-11.859041213989258
1711553573426838800,10.9918388671875,-5.025328636169434,-8.39010238647461,-12.901668548583984
1711553573445799200,11.010799072265625,-3.791602849960327,-8.434557914733887,-10.584335327148438
1711553573464759600,11.029759521484374,-2.9032063484191895,-6.998527526855469,-7.775949001312256
1711553573483720000,11.048719970703125,-1.799122929573059,-5.864279747009277,-5.966464996337891
1711553573502680300,11.067680419921874,-1.5951435565948486,-5.902615070343018,-4.754947185516357
1711553573521640700,11.086640625,-2.242713451385498,-6.139847755432129,-3.996314764022827
1711553573540601000,11.10560107421875,-2.693164348602295,-5.339807510375977,-4.173109531402588
1711553573559561500,11.1245615234375,-2.7404961585998535,-0.46691036224365234,-4.977093696594238
1711553573578521900,11.14352197265625,1.5114068984985352,15.004956245422363,1.6246576309204102
1711553573597482200,11.162482177734375,7.750431060791016,13.313517570495605,5.348769187927246
1711553573616442600,11.181442626953125,11.637292861938477,13.197295188903809,1.9999945163726807
1711553573635403000,11.200403076171876,8.829696655273438,13.60527229309082,-0.2098698616027832
1711553573654363400,11.21936328125,3.72390079498291,11.383118629455566,-2.0445010662078857
1711553573673323800,11.23832373046875,1.394357681274414,7.887831687927246,0.48122236132621765
1711553573692284200,11.2572841796875,-0.4907841682434082,4.302225112915039,3.9406723976135254
1711553573711244500,11.27624462890625,-3.716254234313965,1.3003692626953125,6.209301948547363
1711553573730205000,11.295204833984375,-5.111969470977783,-1.380453109741211,5.751677989959717
1711553573749165300,11.314165283203126,-4.450359344482422,-5.253095626831055,4.4124369621276855
1711553573768125700,11.333125732421875,-4.727940559387207,-9.286112785339355,3.2603862285614014
1711553573787086000,11.352086181640624,-7.515016555786133,-12.573545455932617,1.5451607704162598
1711553573806046500,11.37104638671875,-10.71550178527832,-11.83322525024414,1.385701060295105
1711553573825006800,11.3900068359375,-8.829784393310547,-10.804268836975098,3.39742374420166
1711553573843967200,11.40896728515625,-6.572814464569092,-11.080558776855469,5.856553077697754
1711553573862927600,11.427927734375,-6.318938255310059,-10.943049430847168,6.976806640625
1711553573881888000,11.446887939453125,-7.432710647583008,-9.991512298583984,6.496069431304932
1711553573900848400,11.465848388671875,-7.205190658569336,-7.986555576324463,5.84300422668457
1711553573919808800,11.484808837890625,-2.5426173210144043,-1.3472576141357422,4.340661525726318
1711553573938769400,11.503769287109375,3.9544596672058105,17.16196632385254,-3.525852680206299
1711553573957729800,11.522729736328126,6.070128917694092,30.651573181152344,-5.655259132385254
1711553573976690200,11.541690185546875,15.954021453857422,15.197935104370117,5.948660850524902
1711553573995650600,11.560650634765626,8.135610580444336,14.455031394958496,-5.93504524230957
1711553574014611000,11.57961083984375,1.7851347923278809,14.057960510253906,-11.694543838500977
1711553574033571300,11.5985712890625,-0.6187074184417725,11.300077438354492,-4.546090126037598
1711553574052531700,11.61753173828125,1.6950936317443848,7.083847999572754,1.9396870136260986
1711553574071492000,11.6364921875,3.670755386352539,2.2678604125976562,2.533217430114746
1711553574090452500,11.655452392578125,2.639533281326294,-0.8175840377807617,2.5505547523498535
1711553574109412900,11.674412841796874,-0.8984143733978271,-2.851506233215332,-0.22561633586883545
1711553574128373200,11.693373291015625,-2.4938106536865234,-5.823201656341553,-4.233138561248779
1711553574147334000,11.712333984375,-4.277668476104736,-8.235068321228027,-6.781697750091553
1711553574166294300,11.731294189453125,-6.4226765632629395,-10.183736801147461,-8.951000213623047
1711553574185254700,11.750254638671874,-7.463354110717773,-10.655997276306152,-10.663430213928223
1711553574204215000,11.769215087890625,-5.5110344886779785,-9.244329452514648,-10.811651229858398
1711553574223175400,11.788175537109375,-3.4004712104797363,-7.534073829650879,-9.372926712036133
1711553574242135800,11.8071357421875,-2.4009668827056885,-6.3604326248168945,-7.527061462402344
1711553574261096200,11.82609619140625,-2.681443214416504,-5.200869560241699,-5.283212661743164
1711553574280056600,11.845056640625,-2.922187328338623,-5.167825698852539,-5.306215286254883
1711553574299017200,11.864017333984375,2.0701937675476074,-1.3749761581420898,-5.364981651306152
1711553574317977600,11.8829775390625,8.67326831817627,15.26158618927002,-0.09251093864440918
1711553574336938000,11.90193798828125,10.544919967651367,17.309560775756836,8.916193008422852
1711553574355898400,11.9208984375,12.144608497619629,8.040627479553223,-1.6375350952148438
1711553574374858800,11.939858642578125,0.3431825637817383,8.14037036895752,-2.9187111854553223
1711553574393819100,11.958819091796874,2.4000024795532227,10.75059700012207,-1.0994585752487183
1711553574412779500,11.977779541015625,3.9167702198028564,11.601462364196777,0.22185879945755005
1711553574431740000,11.996739990234374,1.9758780002593994,6.892867088317871,0.499178409576416
1711553574450700500,12.015700439453125,0.8402459621429443,3.9379568099975586,2.10422945022583
1711553574469661000,12.034660888671874,-0.5190036296844482,1.0759201049804688,3.923037528991699
1711553574488621300,12.053621337890625,-1.894684076309204,-1.0447273254394531,4.283652305603027
1711553574507581700,12.072581787109375,-2.5830421447753906,-3.673550605773926,4.054344654083252
1711553574526542000,12.0915419921875,-3.0725064277648926,-6.489819049835205,3.779327154159546
1711553574545502700,12.110502685546875,-3.510836601257324,-8.644567489624023,2.674128532409668
1711553574564463000,12.129463134765626,-5.048553943634033,-10.0823392868042,1.2423195838928223
1711553574583423500,12.148423583984375,-7.3488311767578125,-10.803695678710938,0.24555397033691406
1711553574602384000,12.1673837890625,-9.266754150390625,-10.596096992492676,0.6271636486053467
1711553574621344500,12.186344482421875,-9.5479097366333,-10.084465980529785,3.14808988571167
1711553574640305000,12.205304931640624,-7.312845706939697,-10.208301544189453,5.632105827331543
1711553574659265300,12.224265380859375,-4.412325382232666,-10.20585823059082,4.21810245513916
1711553574678225700,12.2432255859375,-3.32295560836792,-7.957460403442383,1.152626633644104
1711553574697186000,12.26218603515625,-1.735635757446289,0.25582456588745117,-1.6912411451339722
1711553574716146700,12.281146728515624,2.9726767539978027,14.26379108428955,-9.124897003173828
1711553574735107000,12.300107177734375,4.570556163787842,18.056190490722656,-6.196699142456055
1711553574754067500,12.3190673828125,6.08798885345459,12.809788703918457,2.1079092025756836
1711553574773027800,12.33802783203125,6.654787540435791,11.58463191986084,-0.1573636531829834
1711553574791988200,12.35698828125,8.305606842041016,9.626996994018555,-4.800634860992432
1711553574810948900,12.375948974609376,5.050034523010254,7.678815841674805,-4.581798553466797
1711553574829909200,12.3949091796875,3.2721362113952637,7.919192314147949,-0.9825773239135742
1711553574848869600,12.41386962890625,1.5909392833709717,6.868020057678223,1.8332977294921875
1711553574867830000,12.432830078125,0.7480729818344116,4.459938049316406,2.3861031532287598
1711553574886790700,12.451790771484376,2.942755699157715,1.6586036682128906,2.2018821239471436
1711553574905751000,12.4707509765625,2.6253576278686523,-0.6885766983032227,1.8585116863250732
1711553574924711400,12.48971142578125,0.9315991401672363,-2.5817737579345703,0.23155999183654785
1711553574943671800,12.508671875,-1.5789406299591064,-3.4033541679382324,-1.5809029340744019
1711553574962632200,12.527632080078124,-4.175337791442871,-3.404679775238037,-2.8003745079040527
1711553574981592800,12.5465927734375,-4.526534080505371,-4.529835224151611,-4.275635242462158
1711553575000553200,12.56555322265625,-3.2012064456939697,-6.314845561981201,-5.213703155517578
1711553575019513900,12.584513916015625,-2.68522310256958,-6.685749053955078,-5.247282981872559
1711553575038474200,12.60347412109375,-2.795929431915283,-6.296310901641846,-4.821205139160156
1711553575057434600,12.6224345703125,-3.4563913345336914,-5.928633213043213,-4.661702632904053
1711553575076395000,12.64139501953125,-4.106485366821289,-5.216307163238525,-4.478453636169434
1711553575095355600,12.660355712890626,-4.140711307525635,-3.7803611755371094,-4.811903953552246
1711553575114316000,12.67931591796875,-3.7618391513824463,-1.6737251281738281,-5.342859745025635
1711553575133276400,12.6982763671875,-3.2082772254943848,0.24895000457763672,-4.811985015869141
1711553575152236800,12.71723681640625,-1.8337806463241577,2.233165740966797,-3.500704526901245
1711553575171197400,12.736197509765624,1.2398457527160645,4.555710792541504,-2.3434133529663086
1711553575190157800,12.75515771484375,4.942558288574219,9.734679222106934,0.2958235740661621
1711553575209118500,12.774118408203124,6.393826007843018,14.073406219482422,4.739333152770996
1711553575228078800,12.793078857421875,8.090675354003906,7.852901458740234,3.6982829570770264
1711553575247039200,12.812039306640624,5.813620567321777,4.593535423278809,-0.22074341773986816
1711553575265999600,12.83099951171875,1.365216612815857,6.524599075317383,-2.9185075759887695
1711553575284960300,12.849960205078125,0.5622663497924805,5.589977264404297,-3.081080913543701
1711553575303920600,12.868920654296875,0.9963757991790771,5.066191673278809,0.44809985160827637
1711553575322881300,12.88788134765625,2.241396903991699,4.543622970581055,3.7797322273254395
1711553575341841700,12.906841552734376,3.8458251953125,2.6576404571533203,4.431346893310547
1711553575360802000,12.925802001953125,2.996096611022949,0.6702499389648438,3.5514371395111084
1711553575379762400,12.944762451171876,1.1488215923309326,-0.6862697601318359,2.429292678833008
1711553575398723000,12.96372314453125,0.46768856048583984,-1.6450347900390625,1.8244472742080688
1711553575417683500,12.982683349609376,-0.48758769035339355,-2.561769485473633,1.1850008964538574
1711553575436644000,13.00164404296875,-0.8586618900299072,-3.06503963470459,1.3995940685272217
1711553575455604500,13.0206044921875,-1.4597793817520142,-3.8356542587280273,1.782155990600586
1711553575474564900,13.03956494140625,-1.8670811653137207,-4.642505645751953,2.165130376815796
1711553575493525500,13.058525390625,-2.140845537185669,-5.367719650268555,2.2743639945983887
1711553575512486000,13.07748583984375,-2.452458620071411,-5.810932636260986,2.1914665699005127
1711553575531446300,13.0964462890625,-2.8542139530181885,-6.151604175567627,2.078244686126709
1711553575550407000,13.115406982421876,-3.24092435836792,-6.018118858337402,2.170151472091675
1711553575569367300,13.1343671875,-3.9332523345947266,-5.472952842712402,2.0602986812591553
1711553575588328000,13.153327880859376,-4.486283779144287,-4.255213737487793,1.6669516563415527
1711553575607288300,13.172288330078125,-4.920581340789795,-2.2221121788024902,0.05003979802131653
1711553575626248700,13.191248779296876,-5.555794715881348,3.487736701965332,-1.4279260635375977
1711553575645209300,13.210209228515625,-0.7712287902832031,7.902434349060059,-3.416529893875122
1711553575664169700,13.229169677734374,2.1457772254943848,8.943567276000977,0.005237646400928497
1711553575683130000,13.248130126953125,1.0317821502685547,8.177992820739746,1.2839733362197876
1711553575702090800,13.2670908203125,0.7546510696411133,4.2581787109375,-0.7300159931182861
1711553575721051100,13.286051025390625,-1.041684627532959,3.682830810546875,-2.3769233226776123
1711553575740011800,13.30501171875,-1.0581996440887451,2.1508665084838867,-2.273409843444824
1711553575758972200,13.32397216796875,-0.31263303756713867,0.2490215301513672,1.1226164102554321
1711553575777932500,13.3429326171875,-0.9767687320709229,0.18070316314697266,3.136687755584717
1711553575796893200,13.36189306640625,-1.9184374809265137,-0.5176219940185547,1.9977798461914062
1711553575815853600,13.380853515625,-3.459115982055664,-0.6938343048095703,0.33551567792892456
1711553575834814200,13.399814208984376,-5.299356460571289,0.12428760528564453,-1.2594380378723145
1711553575853774600,13.418774658203125,-6.86269474029541,0.46123504638671875,-2.6822638511657715
1711553575872735200,13.4377353515625,-7.352774620056152,0.5226478576660156,-3.6381959915161133
1711553575891695600,13.456695556640625,-7.2525410652160645,1.057326316833496,-3.761500358581543
1711553575910656000,13.475656005859374,-6.3972883224487305,1.4693927764892578,-2.6627964973449707
1711553575929616600,13.49461669921875,-5.199437141418457,1.4257583618164062,-1.6980838775634766
1711553575948577000,13.513576904296874,-3.7422072887420654,1.693202018737793,-1.5888036489486694
1711553575967537400,13.532537353515625,-2.4754366874694824,2.0348100662231445,-1.171879529953003
1711553575986498000,13.551498046875,-1.9075106382369995,1.5890674591064453,-0.22426915168762207
1711553576005458400,13.57045849609375,-1.8389668464660645,1.4602279663085938,0.4494006633758545
1711553576024419000,13.589419189453125,-2.243856191635132,1.842576026916504,0.6660914421081543
1711553576043379500,13.60837939453125,-2.7375941276550293,1.3829755783081055,0.1273822784423828
1711553576062340000,13.627340087890625,-3.0798261165618896,1.6394567489624023,-0.23374581336975098
1711553576081300500,13.646300537109376,-3.1306591033935547,3.1065635681152344,0.3367726802825928
1711553576100260900,13.6652607421875,-2.1424901485443115,2.9072351455688477,1.3664653301239014
1711553576119221500,13.684221435546876,-1.1450939178466797,1.8550605773925781,1.3165194988250732
1711553576138182000,13.703181884765625,-1.676650047302246,2.2478513717651367,0.4748239517211914
1711553576157142500,13.722142578125,-2.151545763015747,2.525364875793457,-0.18097281455993652
1711553576176103000,13.74110302734375,-1.172106385231018,1.5875272750854492,-0.9616694450378418
1711553576195063600,13.7600634765625,-0.4520307779312134,0.20638370513916016,-1.3205795288085938
1711553576214024000,13.77902392578125,-0.7934504747390747,-0.8575887680053711,-1.8463473320007324
1711553576232984600,13.797984619140625,-1.3578518629074097,-1.2702598571777344,-2.6228299140930176
1711553576251945000,13.816945068359376,-1.6352208852767944,-0.8678483963012695,-2.8494484424591064
1711553576270905300,13.8359052734375,-1.98629891872406,0.37622928619384766,-2.064253330230713
1711553576289866000,13.854865966796876,-2.3013148307800293,1.4004907608032227,-1.1596782207489014
1711553576308826400,13.873826416015625,-2.336184501647949,1.553574562072754,-0.8536670207977295
1711553576327787000,13.892787109375,-2.056648015975952,1.6431818008422852,-0.7311129570007324
1711553576346747400,13.911747314453125,-1.5706666707992554,1.7616758346557617,-0.47969889640808105
1711553576365708000,13.9307080078125,-0.892553448677063,1.518819808959961,-0.3127431869506836
1711553576384668400,13.94966845703125,-0.621943473815918,0.9444742202758789,-0.44785070419311523
1711553576403628800,13.96862890625,-0.8730349540710449,0.6412773132324219,-0.6123034954071045
1711553576422589400,13.98758935546875,-1.0364426374435425,0.6977014541625977,-0.7967925071716309
1711553576441549800,14.0065498046875,-1.0848106145858765,0.5040245056152344,-0.9562554359436035
1711553576460510200,14.02551025390625,-1.2597781419754028,0.1484975814819336,-2.070301055908203
1711553576479470800,14.044470947265625,-1.3098297119140625,0.21685314178466797,-2.5922040939331055
1711553576498431200,14.06343115234375,-1.6499422788619995,0.2518501281738281,-2.4421653747558594
1711553576517392000,14.082391845703125,-1.814997673034668,0.5408840179443359,-1.9651422500610352
1711553576536352300,14.101352294921876,-2.294694185256958,0.6357002258300781,-2.2493391036987305
1711553576555313000,14.12031298828125,-2.4443745613098145,0.683837890625,-2.854536294937134
1711553576574273300,14.139273193359376,-1.550822138786316,0.6343154907226562,-2.5315918922424316
1711553576593233700,14.158233642578125,-0.6880354881286621,0.5962362289428711,-1.842423677444458
1711553576612194300,14.1771943359375,-0.4484837055206299,0.5912704467773438,-1.211200475692749
1711553576631154700,14.19615478515625,-0.24381113052368164,0.6022233963012695,-0.9308006763458252
1711553576650115300,14.215115234375,-0.1290292739868164,0.4284248352050781,-1.276667594909668
1711553576669075700,14.23407568359375,-0.27155113220214844,0.345123291015625,-1.763171911239624
1711553576688036000,14.2530361328125,-0.2073366641998291,0.4418363571166992,-1.8120338916778564
1711553576706996700,14.271996826171875,0.08847594261169434,0.44736671447753906,-1.6274664402008057
1711553576725957000,14.29095703125,0.6208982467651367,0.3790569305419922,-1.306443452835083
1711553576744917800,14.309917724609376,0.8744008541107178,0.3629608154296875,-0.894209623336792
1711553576763878100,14.328878173828125,0.7643651962280273,0.2586498260498047,-0.3032395839691162
1711553576782838800,14.3478388671875,0.5159156322479248,-0.1775836944580078,-0.24163317680358887
1711553576801799200,14.366799072265625,0.5673542022705078,-0.3441038131713867,-0.3829021453857422
1711553576820759600,14.385759521484376,0.440352201461792,-0.37491321563720703,-0.477123498916626
1711553576839720200,14.40472021484375,0.28473496437072754,-0.6553144454956055,-0.7899811267852783
1711553576858680600,14.4236806640625,-0.06502223014831543,-0.6280879974365234,-1.0128345489501953
1711553576877641000,14.442640869140625,-1.0778082609176636,0.8613290786743164,-0.968146800994873
1711553576896601600,14.4616015625,-1.899499773979187,2.535841941833496,-0.3298168182373047
1711553576915562000,14.48056201171875,-1.3049037456512451,2.3831558227539062,-0.697188138961792
1711553576934522600,14.499522705078125,-0.40492701530456543,1.0671024322509766,-1.4404425621032715
1711553576953483000,14.51848291015625,-0.45396506786346436,0.2985572814941406,-1.5533742904663086
1711553576972443400,14.537443359375,-0.6007019281387329,0.2224569320678711,-1.3449187278747559
1711553576991404000,14.556404052734376,-0.9119775295257568,0.4862031936645508,-1.0192475318908691
1711553577010364400,14.575364501953125,-0.8919570446014404,0.7561101913452148,-0.2203989028930664
1711553577029324800,14.59432470703125,-0.3894186019897461,0.49191761016845703,0.6586589813232422
1711553577048285400,14.613285400390625,0.10089111328125,-0.27837562561035156,1.0183086395263672
1711553577067245800,14.632245849609374,-0.21259427070617676,-0.9337902069091797,0.3942136764526367
1711553577086206500,14.65120654296875,-1.0179736614227295,-0.615997314453125,-0.5407633781433105
1711553577105166800,14.670166748046874,-1.6956768035888672,0.2917671203613281,-1.2687954902648926
1711553577124127200,14.689127197265625,-1.8591806888580322,1.219818115234375,-1.8709464073181152
1711553577143087900,14.708087890625,-1.543532371520996,2.077312469482422,-2.0768704414367676
1711553577162048300,14.72704833984375,-1.3487313985824585,2.4830875396728516,-2.327815532684326
1711553577181008600,14.746008544921875,-1.0809205770492554,2.376925468444824,-2.4300851821899414
1711553577199969300,14.76496923828125,-1.0031019449234009,1.9635334014892578,-1.9283928871154785
1711553577218929700,14.7839296875,-0.787461519241333,1.2593507766723633,-1.223484992980957
1711553577237890300,14.802890380859376,-0.5145285725593567,0.5686912536621094,-0.5524473190307617
1711553577256850700,14.8218505859375,-0.6070161461830139,-0.17444705963134766,0.2771778106689453
1711553577275811000,14.84081103515625,-0.773817241191864,-0.4970111846923828,0.7949368953704834
1711553577294771700,14.859771728515625,-0.754770040512085,-0.7771148681640625,0.7160630226135254
1711553577313732000,14.878732177734374,-1.4246195554733276,-0.7582406997680664,-0.20503735542297363
1711553577332692700,14.897692626953125,-1.4832261800765991,-0.5188312530517578,-0.6963157653808594
1711553577351653000,14.916653076171874,-1.2987419366836548,-0.1532115936279297,-0.7316567897796631
1711553577370613500,14.935613525390625,-1.295422077178955,0.03795337677001953,-0.5058631896972656
1711553577389574100,14.95457421875,-1.0527254343032837,0.15228557586669922,-0.21908926963806152
1711553577408534500,14.973534423828125,-0.7360097169876099,0.07571887969970703,-0.22340846061706543
1711553577427495000,14.992494873046875,-0.6674109101295471,0.12124919891357422,-0.24752020835876465
1711553577446455600,15.01145556640625,-1.0032933950424194,0.19812297821044922,-0.37244725227355957
1711553577465416000,15.030416015625,-1.0955828428268433,0.1155538558959961,-0.37474560737609863
1711553577484376300,15.049376220703126,-0.9581113457679749,-0.19057464599609375,-0.3107903003692627
1711553577503337000,15.0683369140625,-0.7519497871398926,-0.5035219192504883,0.10042810440063477
1711553577522297300,15.08729736328125,-0.7349399924278259,-0.5843658447265625,0.5953495502471924
1711553577541257700,15.1062578125,-0.7091221809387207,-0.37970542907714844,1.0395970344543457
1711553577560218400,15.12521826171875,-0.691726565361023,-0.19980239868164062,1.266491174697876
1711553577579178800,15.1441787109375,-0.7171987295150757,-0.10458087921142578,1.2320497035980225
1711553577598139400,15.163139404296874,-0.7972391247749329,0.17431163787841797,1.1860277652740479
1711553577617099800,15.182099853515625,-0.7659986019134521,0.5386266708374023,1.4127118587493896
1711553577636060200,15.20106005859375,-0.546484112739563,0.8625879287719727,1.0033347606658936
1711553577655020500,15.2200205078125,-0.4467211961746216,0.6844148635864258,1.0755178928375244
1711553577673981200,15.238981201171875,-0.2669062614440918,0.29265689849853516,0.9533736705780029
1711553577692941600,15.257941650390626,-0.29921936988830566,-0.1578817367553711,0.4585127830505371
1711553577711902200,15.276902099609375,-0.4378011226654053,-0.4355440139770508,0.016794681549072266
1711553577730862600,15.295862548828126,-0.5183099508285522,-0.6444339752197266,-0.4631228446960449
1711553577749823000,15.314822998046875,-0.630605161190033,-0.6586570739746094,-1.2124862670898438
1711553577768783400,15.333783447265626,-0.48512667417526245,-0.31418418884277344,-1.6578569412231445
1711553577787744000,15.352743896484375,-0.8876054286956787,0.28012943267822266,-1.9700576066970825
1711553577806704400,15.371704345703124,-0.9893866777420044,0.9834403991699219,-1.847485065460205
1711553577825665000,15.3906650390625,-0.7773093581199646,1.5878171920776367,-1.595154047012329
1711553577844625400,15.40962548828125,-0.33921194076538086,1.838881492614746,-1.5680335760116577
1711553577863585800,15.428585693359375,0.2747833728790283,1.2717504501342773,-1.524784803390503
1711553577882546200,15.447546142578124,0.5877500772476196,0.3401031494140625,-1.5126111507415771
1711553577901506600,15.466506591796875,0.5896130800247192,-0.4687042236328125,-1.6261236667633057
1711553577920467200,15.48546728515625,0.5736616849899292,-0.8669872283935547,-1.674149513244629
1711553577939427600,15.504427490234375,0.5900954008102417,-0.7139492034912109,-1.418736219406128
1711553577958388200,15.52338818359375,0.5361819267272949,-0.19620132446289062,-1.0683586597442627
1711553577977348600,15.5423486328125,0.5416175127029419,0.29465293884277344,-0.8346965312957764
1711553577996309000,15.56130908203125,0.6242735385894775,0.6714324951171875,-0.6317284107208252
1711553578015269400,15.580269287109376,0.610838770866394,0.7410888671875,-0.3399078845977783
1711553578034230000,15.59922998046875,0.44634997844696045,0.4543342590332031,-0.24125242233276367
1711553578053190400,15.6181904296875,0.4384104013442993,-0.009957313537597656,-0.07653951644897461
1711553578072150800,15.63715087890625,0.40517741441726685,-0.6423168182373047,0.31670069694519043
1711553578091111400,15.656111328125,0.45484769344329834,-1.0778636932373047,0.5979318618774414
1711553578110071800,15.67507177734375,0.6052917838096619,-1.28326416015625,1.0201573371887207
1711553578129032200,15.6940322265625,0.8376669883728027,-1.234145164489746,1.179377555847168
1711553578147992800,15.712992919921875,0.9446868896484375,-0.9662570953369141,1.0971617698669434
1711553578166953200,15.731953125,0.7649925351142883,-0.8132419586181641,0.9104218482971191
1711553578185913600,15.75091357421875,0.5912461280822754,-0.7566003799438477,0.3889622688293457
1711553578204874000,15.7698740234375,0.28431981801986694,-0.7146854400634766,-0.07563424110412598
1711553578223834600,15.788834716796876,0.12112313508987427,-0.7754135131835938,-0.41492271423339844
1711553578242795000,15.807794921875,0.21987879276275635,-0.8099508285522461,-0.414628267288208
1711553578261755400,15.82675537109375,0.23782604932785034,-0.7678070068359375,-0.1705477237701416
1711553578280716000,15.845716064453125,0.2459236979484558,-0.7008161544799805,0.12312650680541992
1711553578299676400,15.864676513671874,0.22729754447937012,-0.6179208755493164,0.38805484771728516
1711553578318636800,15.88363671875,0.28892624378204346,-0.5733823776245117,0.46823954582214355
1711553578337597200,15.90259716796875,0.2679177522659302,-0.5340185165405273,0.16079068183898926
1711553578356557800,15.921557861328125,-0.021737277507781982,-0.2744579315185547,-0.1995232105255127
1711553578375518200,15.940518310546874,-0.19616633653640747,0.18332672119140625,-0.487046480178833
1711553578394478600,15.959478515625,-0.28238236904144287,0.6565742492675781,-0.17485356330871582
1711553578413439200,15.978439208984375,-0.38426780700683594,1.4797649383544922,0.07679486274719238
1711553578432399600,15.997399658203125,-0.521284818649292,2.5686845779418945,0.21772456169128418
1711553578451360000,16.016360107421875,-0.3498181998729706,3.301511764526367,0.17320036888122559
1711553578470320600,16.035320556640624,0.27193766832351685,3.225255012512207,-0.0332491397857666
1711553578489281000,16.054281005859377,0.9993051886558533,2.5005617141723633,-0.011107683181762695
1711553578508241400,16.073241455078126,1.0988924503326416,1.863682746887207,0.10770344734191895
1711553578527201800,16.092201904296875,0.8201330304145813,1.4533863067626953,-0.07146763801574707
1711553578546162400,16.111162353515624,0.4993774890899658,0.9776782989501953,-0.2956404685974121
1711553578565122800,16.130122802734373,0.0034044384956359863,0.16066265106201172,-0.18885469436645508
1711553578584083500,16.14908349609375,-0.40396443009376526,-0.8929309844970703,-0.10052371025085449
1711553578603043800,16.1680439453125,-0.3736984133720398,-1.4435062408447266,-0.28934502601623535
1711553578622004200,16.187004150390624,-0.41628170013427734,-1.2551746368408203,-0.1733112335205078
1711553578640964600,16.205964599609374,-0.6776438355445862,-0.6049232482910156,-0.02592945098876953
1711553578659925000,16.224925048828126,-0.7879721522331238,-0.015707969665527344,-0.2830331325531006
1711553578678885600,16.2438857421875,-1.0170598030090332,0.5824556350708008,-0.7110058069229126
1711553578697846300,16.26284619140625,-1.1929124593734741,0.8991641998291016,-0.9683849811553955
1711553578716806700,16.281806640625,-1.1415590047836304,0.7826299667358398,-0.9029679298400879
1711553578735767000,16.30076708984375,-0.9607661962509155,0.48154640197753906,-0.4530792236328125
1711553578754727400,16.3197275390625,-0.7839304804801941,0.03010082244873047,-0.21359682083129883
1711553578773687800,16.338687744140625,-0.5523535013198853,-0.6248607635498047,-0.17853856086730957
1711553578792648400,16.3576484375,-0.6049416661262512,-1.1681747436523438,-0.08926844596862793
1711553578811608800,16.37660888671875,-0.8055636882781982,-1.415452003479004,-0.20053815841674805
1711553578830569500,16.395569580078124,-0.9141402840614319,-1.427865982055664,-0.441753625869751
1711553578849529900,16.41452978515625,-0.8717162013053894,-1.4334325790405273,-0.7286355495452881
1711553578868490200,16.433490234375,-0.8801112771034241,-1.3667373657226562,-0.9921499490737915
1711553578887451000,16.452450927734375,-1.1169555187225342,-1.1465034484863281,-1.2714312076568604
1711553578906411300,16.471411376953125,-1.3346049785614014,-0.8691835403442383,-1.2198939323425293
1711553578925372000,16.490371826171874,-1.4402177333831787,-0.5684118270874023,-1.121118426322937
1711553578944332300,16.509332275390626,-1.4416890144348145,-0.40891170501708984,-0.7749388217926025
1711553578963292700,16.528292724609376,-1.2905943393707275,-0.5125513076782227,-0.3538081645965576
1711553578982253000,16.547253173828125,-1.1291899681091309,-0.5144929885864258,0.03460121154785156
1711553579001213700,16.566213623046874,-0.9562532305717468,-0.005389213562011719,0.6184720993041992
1711553579020174000,16.585174072265627,-0.67499840259552,0.44840240478515625,0.8832542896270752
1711553579039134700,16.604134765625,-0.4448545575141907,0.6795654296875,0.8780379295349121
1711553579058095000,16.62309521484375,-0.4769827723503113,0.750727653503418,0.9127087593078613
1711553579077055500,16.642055419921874,-0.7716288566589355,0.5525970458984375,0.8089988231658936
1711553579096016100,16.66101611328125,-0.8413040637969971,0.31658077239990234,0.10332798957824707
1711553579114976500,16.6799765625,-1.1077308654785156,1.005354881286621,-0.3859560489654541
1711553579133937000,16.69893701171875,-1.2699432373046875,1.820622444152832,-0.3480665683746338
1711553579152897500,16.7178974609375,-0.7218611836433411,2.3073863983154297,-0.3578314781188965
1711553579171858000,16.73685791015625,-0.07504379749298096,3.131389617919922,-0.06059718132019043
1711553579190818600,16.755818603515625,-0.1431828737258911,3.3570871353149414,-0.09032726287841797
1711553579209779000,16.774779052734374,0.33181869983673096,2.6591272354125977,0.05594658851623535
1711553579228739300,16.7937392578125,1.8703721761703491,1.6732006072998047,-0.6914703845977783
1711553579247700000,16.812699951171876,1.6783394813537598,0.15889835357666016,-1.9037375450134277
1711553579266660400,16.831660400390625,2.9290695190429688,-1.0727548599243164,1.0329194068908691
1711553579285620700,16.850620849609374,0.8494582176208496,-1.4258537292480469,3.3531904220581055
1711553579304581400,16.869581298828123,1.9299936294555664,0.5925235748291016,-0.7950106859207153
1711553579323541800,16.888541748046876,-1.9346598386764526,0.15299415588378906,-0.3557126522064209
1711553579342502400,16.90750244140625,-3.3563051223754883,-0.0821523666381836,-3.5841450691223145
1711553579361462800,16.926462890625,-3.0758657455444336,-0.6610012054443359,-7.85670280456543
1711553579380423400,16.94542333984375,-2.8838863372802734,-0.582890510559082,-7.291184425354004
1711553579399383800,16.9643837890625,-1.2897231578826904,-1.019968032836914,-3.938781976699829
1711553579418344200,16.98334423828125,-0.43831515312194824,-1.1586542129516602,-2.3668885231018066
1711553579437304800,17.002304931640627,0.03552746772766113,-0.9462995529174805,-0.08193135261535645
1711553579456265200,17.02126513671875,0.5318098068237305,-1.033437728881836,2.301669120788574
1711553579475225900,17.040225830078125,1.717024803161621,-1.3422060012817383,3.450618028640747
1711553579494186200,17.059186279296874,1.7453315258026123,-1.4858388900756836,3.3293609619140625
1711553579513147000,17.07814697265625,1.1840033531188965,-1.395115852355957,2.052666664123535
1711553579532107300,17.097107177734376,0.4292621612548828,-1.2208242416381836,1.1506023406982422
1711553579551067600,17.116067626953125,-0.10477185249328613,-1.095808982849121,0.2065131664276123
1711553579570028300,17.1350283203125,-0.6535770893096924,-1.0009641647338867,-0.27460575103759766
1711553579588988700,17.15398876953125,-0.15928077697753906,-0.931513786315918,-1.799727201461792
1711553579607949300,17.17294921875,-0.1815195083618164,-0.5705327987670898,-1.730396032333374
1711553579626909700,17.19190966796875,-0.18831229209899902,-1.095829963684082,-1.07546067237854
1711553579645870300,17.210870361328126,0.5266940593719482,-0.7901439666748047,-0.28430843353271484
1711553579664830700,17.229830810546876,0.27980780601501465,-0.3774547576904297,0.503807783126831
1711553579683791400,17.248791259765625,0.2966594696044922,-0.4911365509033203,-0.5426836013793945
1711553579702751700,17.267751708984374,0.11187946796417236,-0.2763090133666992,-0.46445512771606445
1711553579721712400,17.28671240234375,-0.4152911901473999,0.35026073455810547,-0.16963744163513184
1711553579740672800,17.3056728515625,-0.15329062938690186,0.7539329528808594,0.12726211547851562
1711553579759633200,17.324633056640625,-0.07654750347137451,0.9130544662475586,-0.42136549949645996
1711553579778593800,17.34359375,0.5107429027557373,0.571197509765625,-1.409677267074585
1711553579797554200,17.36255419921875,0.31759727001190186,0.22722816467285156,-0.9918622970581055
1711553579816514800,17.381514892578124,-0.08059394359588623,0.48482608795166016,-1.42695951461792
1711553579835475200,17.40047509765625,-1.1141011714935303,0.9471826553344727,-0.3476731777191162
1711553579854435800,17.419435791015626,-0.9492136836051941,1.2884712219238281,0.054651498794555664
1711553579873396500,17.438396484375,-1.116084098815918,2.1016616821289062,2.0936834812164307
1711553579892356900,17.45735693359375,0.45640087127685547,2.3271656036376953,4.83619499206543
1711553579911317500,17.4763173828125,2.3747386932373047,1.8720741271972656,3.872796058654785
1711553579930278000,17.49527783203125,2.3086836338043213,1.8010969161987305,2.3455076217651367
1711553579949238300,17.51423828125,1.1318069696426392,1.077301025390625,1.3007512092590332
1711553579968199000,17.533198974609373,-0.024286985397338867,-0.15753746032714844,0.3927338123321533
1711553579987159300,17.5521591796875,-0.978772759437561,-0.631932258605957,-0.5691683292388916
1711553580006120000,17.571119873046875,-1.4958598613739014,0.1514120101928711,-1.2837274074554443
1711553580025080300,17.590080322265624,-1.8261911869049072,1.098257064819336,-1.574321985244751
1711553580044041000,17.609041015625,-1.497532844543457,1.111720085144043,-1.562343955039978
1711553580063001300,17.62800146484375,-1.0178037881851196,1.1684370040893555,-0.9322340488433838
1711553580081962000,17.6469619140625,-0.7193514108657837,1.0453863143920898,-0.6566267013549805
1711553580100922600,17.665922607421876,-0.46341800689697266,0.6999835968017578,-0.9525766372680664
1711553580119883000,17.684883056640626,-1.1131350994110107,0.31176185607910156,-0.44910502433776855
1711553580138843600,17.70384375,-1.0042871236801147,-0.039071083068847656,-0.7232351303100586
1711553580157804000,17.722803955078124,0.18936705589294434,-0.29169273376464844,-2.1500258445739746
1711553580176764700,17.7417646484375,-0.2972147464752197,-0.202728271484375,-0.2602384090423584
1711553580195725000,17.76072509765625,-0.045217275619506836,-1.1844758987426758,-0.8168351650238037
1711553580214685700,17.779685791015623,-0.2917366027832031,-1.178675651550293,-0.906947135925293
1711553580233646000,17.79864599609375,-1.235793113708496,-1.3333849906921387,-0.3106527328491211
1711553580252606700,17.817606689453125,-0.4020172357559204,-1.1451129913330078,-0.468733549118042
1711553580271567400,17.8365673828125,-1.3240079879760742,-1.377847671508789,0.3112330436706543
1711553580290527700,17.85552783203125,-2.114969491958618,-1.522242546081543,0.07085323333740234
1711553580309488400,17.87448828125,-1.9086880683898926,-1.4505348205566406,-1.034937858581543
1711553580328448800,17.89344873046875,-1.2318449020385742,-1.7355055809020996,-1.4578027725219727
1711553580347409400,17.912409423828127,-0.9409207105636597,-1.6948070526123047,-0.14567160606384277
1711553580366369800,17.931369873046876,-0.13270115852355957,-0.6291742324829102,0.34511661529541016
1711553580385330400,17.950330322265625,-0.4429943561553955,0.5165510177612305,1.3265984058380127
1711553580404291000,17.969291015625,-0.657292366027832,0.18024253845214844,1.6808462142944336
1711553580423251500,17.98825146484375,0.3701653480529785,-0.31757640838623047,0.7735192775726318
1711553580442212000,18.007212158203124,0.3425781726837158,1.0103492736816406,0.9961206912994385
1711553580461172700,18.0261728515625,-0.2793271541595459,1.1856794357299805,2.5957655906677246
1711553580480133000,18.045133056640626,0.5884344577789307,0.5872316360473633,-0.643441915512085
1711553580499093800,18.06409375,-0.23935091495513916,0.8581991195678711,-0.6588101387023926
1711553580518054100,18.08305419921875,-0.37874650955200195,1.775059700012207,0.3328061103820801
1711553580537014800,18.102014892578126,-0.7508547306060791,2.693222999572754,0.3279142379760742
1711553580555975200,18.12097509765625,-0.5187786817550659,1.8031539916992188,0.008153676986694336
1711553580574935800,18.139935791015624,1.1855590343475342,0.8533563613891602,-0.5400195121765137
1711553580593896400,18.158896484375,1.0378930568695068,1.851797103881836,0.11621379852294922
1711553580612856800,18.17785693359375,0.27160048484802246,3.1864166259765625,1.2180527448654175
1711553580631817500,18.1968173828125,0.36888623237609863,1.9783010482788086,-0.4373686909675598
1711553580650777900,18.21577783203125,0.4363274574279785,-0.8069906234741211,-3.9253721237182617
1711553580669738500,18.234738525390625,-0.1062614917755127,-1.647517204284668,-7.106463432312012
1711553580688699100,18.25369921875,-0.77996826171875,-0.9521474838256836,-4.275731086730957
1711553580707659500,18.272659423828124,-0.2930622100830078,-0.19455623626708984,-1.2859783172607422
1711553580726620200,18.2916201171875,0.15051960945129395,0.5352439880371094,-0.6754900217056274
1711553580745580500,18.31058056640625,0.8274204730987549,0.20679855346679688,0.3008190393447876
1711553580764541200,18.329541259765627,1.1316499710083008,-0.20026779174804688,0.028160691261291504
1711553580783501800,18.348501708984376,0.897341251373291,-0.21026992797851562,-0.20676255226135254
1711553580802462200,18.367462158203125,0.17771267890930176,-0.36635684967041016,0.49926114082336426
1711553580821422800,18.3864228515625,0.8542153835296631,-1.1509456634521484,1.5923309326171875
1711553580840383200,18.40538330078125,0.9927363395690918,-2.545499801635742,1.4905669689178467
1711553580859344000,18.42434375,0.5664753913879395,-2.8963451385498047,0.29508304595947266
1711553580878304500,18.443304443359374,-0.50830078125,-2.35595703125,-0.5252114534378052
1711553580897265000,18.462264892578126,-1.3881195783615112,-2.314249038696289,0.1594240665435791
1711553580916225500,18.4812255859375,-0.19149446487426758,-2.7833290100097656,0.2705953121185303
1711553580935186200,18.500186279296877,0.3059871196746826,-2.505462646484375,0.9308764934539795
1711553580954146600,18.519146484375,-0.08733201026916504,-1.4645586013793945,0.2764561176300049
1711553580973107200,18.538107177734375,-0.3918473720550537,-0.9778633117675781,0.7209336757659912
1711553580992067800,18.55706787109375,1.7523114681243896,-1.927086353302002,-1.862200379371643
1711553581011028200,18.5760283203125,1.014892816543579,-2.7780303955078125,-0.9027323722839355
1711553581029988900,18.59498876953125,1.302682876586914,-2.4066333770751953,0.34261882305145264
1711553581048949500,18.613949462890623,0.9824466705322266,0.08811759948730469,0.7255674600601196
1711553581067910000,18.632909912109376,-0.43970924615859985,1.4944429397583008,1.105726718902588
1711553581086870500,18.65187060546875,-0.04087376594543457,-0.6512813568115234,0.9428145885467529
1711553581105831200,18.6708310546875,1.566011905670166,-1.560964584350586,-1.0173289775848389
1711553581124791600,18.68979150390625,0.45760577917099,-0.18376541137695312,-2.390134572982788
1711553581143752200,18.708752197265625,-0.5957432389259338,1.7049245834350586,-1.4964503049850464
1711553581162712800,18.727712890625,-0.34344619512557983,2.0901050567626953,0.5262668132781982
1711553581181673200,18.746673095703127,0.28951236605644226,2.7513608932495117,1.2586274147033691
1711553581200633900,18.7656337890625,-0.12285077571868896,3.5483779907226562,2.437379837036133
1711553581219594200,18.78459423828125,0.11176478862762451,4.898772239685059,3.9372434616088867
1711553581238555000,18.803554931640626,0.6620596647262573,6.212227821350098,3.037055253982544
1711553581257515500,18.822515625,-1.205918312072754,4.106197357177734,5.476818084716797
1711553581276476000,18.841475830078124,1.492072343826294,2.603396415710449,-1.6355564594268799
1711553581295436500,18.8604365234375,-0.4537719488143921,3.581249237060547,-1.8066306114196777
1711553581314397200,18.879397216796875,-0.8968225717544556,1.6442928314208984,2.227057456970215
1711553581333357600,18.898357666015624,-1.4414618015289307,-0.1328878402709961,3.008981466293335
1711553581352318200,18.917318115234377,-3.227560520172119,-0.09427165985107422,-0.039642274379730225
1711553581371278600,18.936278564453126,-3.5307507514953613,0.5549783706665039,-1.870962142944336
1711553581390239200,18.9552392578125,-3.1918892860412598,-0.10918331146240234,-0.5264966487884521
1711553581409199900,18.974199951171876,-2.6102163791656494,-0.889923095703125,-0.09018868207931519
1711553581428160300,18.99316015625,-2.5822505950927734,-1.1318483352661133,0.04582887887954712
1711553581447121000,19.012120849609374,-2.3520569801330566,-1.7723112106323242,1.596246361732483
1711553581466081300,19.031081298828123,-2.1998131275177,-1.9146223068237305,2.4326725006103516
1711553581485042000,19.0500419921875,-2.434685707092285,-1.1498003005981445,1.8281030654907227
1711553581504002600,19.06900244140625,-2.303102731704712,0.381927490234375,-0.17754030227661133
1711553581522963000,19.087962890625,-2.5760598182678223,0.2884197235107422,0.5224214792251587
1711553581541923600,19.106923583984376,-2.7380425930023193,-1.2159647941589355,-1.0500675439834595
1711553581560884200,19.12588427734375,-2.561829090118408,-1.843369960784912,0.41862189769744873
1711553581579844600,19.1448447265625,-1.910191535949707,-3.7088279724121094,0.3216360807418823
1711553581598805200,19.16380517578125,-1.4714994430541992,-2.994473934173584,-2.6632208824157715
1711553581617766000,19.182765869140624,-1.4827156066894531,-0.3812541961669922,-3.192747116088867
1711553581636726300,19.201726318359373,-0.527458667755127,0.6548223495483398,-2.1137595176696777
1711553581655687000,19.22068701171875,0.14737701416015625,1.2577743530273438,-0.38434672355651855
1711553581674647300,19.239647216796875,0.4273686408996582,1.1554632186889648,1.099388599395752
1711553581693608000,19.25860791015625,0.7079315185546875,0.5046696662902832,-1.0781364440917969
1711553581712568600,19.277568603515626,1.3513355255126953,-0.7275738716125488,-1.5353419780731201
1711553581731529000,19.296529052734375,1.901688575744629,-1.4855132102966309,-2.4805333614349365
1711553581750489600,19.315489501953124,2.1698598861694336,-0.33584117889404297,-3.504664897918701
1711553581769450000,19.334449951171877,1.8619599342346191,0.17470645904541016,-3.6791210174560547
1711553581788410600,19.35341064453125,0.2430562973022461,-0.5889997482299805,-3.4983479976654053
1711553581807371000,19.37237109375,-1.9431180953979492,-1.3405752182006836,-2.8607442378997803
1711553581826331600,19.39133154296875,-2.65189266204834,-1.5589733123779297,-3.7872719764709473
1711553581845292300,19.410292236328125,-4.965358257293701,-1.2546968460083008,-4.028038501739502
1711553581864252700,19.429252685546874,-6.8798370361328125,-1.2142925262451172,-3.2810583114624023
1711553581883213300,19.44821337890625,-5.723885536193848,-1.4101314544677734,-2.227917194366455
1711553581902173700,19.467173583984376,-4.123457908630371,-0.5976619720458984,0.4062190055847168
1711553581921134300,19.48613427734375,-1.3318753242492676,1.0841169357299805,3.4028172492980957
1711553581940095000,19.505094970703126,0.4198802709579468,2.937366485595703,5.895294189453125
1711553581959055400,19.524055419921876,-1.1893224716186523,3.2321043014526367,5.085169792175293
1711553581978016000,19.54301611328125,-0.008031785488128662,-1.2265605926513672,2.3915791511535645
1711553581996976400,19.561976318359374,1.1996787786483765,-1.0015487670898438,3.7571187019348145
1711553582015937000,19.58093701171875,1.709644079208374,1.253779411315918,5.30695915222168
1711553582034897700,19.599897705078124,1.8538752794265747,0.5211629867553711,5.258868217468262
1711553582053858000,19.618858154296873,4.671722412109375,-1.0472221374511719,1.004775047302246
1711553582072818700,19.637818603515626,-3.159548044204712,-0.2503023147583008,-1.633479356765747
1711553582091779300,19.656779296875,-2.5851593017578125,0.41521549224853516,-0.7865761518478394
1711553582110739700,19.67573974609375,0.6404139399528503,-0.7281885147094727,2.859591245651245
1711553582129700400,19.694700439453126,1.9495294094085693,-1.305582046508789,-1.8461503982543945
1711553582148660700,19.71366064453125,1.254235863685608,-0.6527910232543945,-5.424662113189697
1711553582167621400,19.732621337890624,-0.9988864660263062,-3.222890853881836,-5.168646812438965
1711553582186581800,19.751581787109377,-1.9204046726226807,2.09224796295166,1.4253696203231812
1711553582205542400,19.77054248046875,1.6725716590881348,1.6114997863769531,2.104999303817749
1711553582224502800,19.789502685546875,-0.35106849670410156,0.21435165405273438,1.9718017578125
1711553582243463400,19.80846337890625,-1.020634651184082,1.349203109741211,5.3651018142700195
1711553582262423800,19.827423828125,-2.5707926750183105,0.4357719421386719,2.127664089202881
1711553582281384400,19.846384521484374,0.2665138244628906,-2.663817882537842,-4.53654670715332
1711553582300345000,19.865344970703124,1.1518092155456543,-2.4524989128112793,-5.174457550048828
1711553582319305500,19.884305419921876,1.2090964317321777,-1.7292041778564453,-5.830611705780029
1711553582338266000,19.90326611328125,1.1645588874816895,-1.5310401916503906,-3.081559658050537
1711553582357226500,19.9222265625,2.1223056316375732,-1.440544605255127,-2.724562168121338
1711553582376187100,19.941187255859376,1.2184088230133057,0.6360683441162109,-4.08004093170166
1711553582395147500,19.9601474609375,-0.2337648868560791,3.024179458618164,-1.9718201160430908
1711553582414108200,19.979108154296874,1.0421061515808105,1.2526779174804688,-1.2125561237335205
1711553582433068800,19.99806884765625,0.8139193058013916,1.4504032135009766,-1.9663000106811523
1711553582452029200,20.017029296875,0.720304012298584,2.4035730361938477,-0.302765429019928
1711553582470989800,20.03598974609375,-0.9318366050720215,2.1559534072875977,-0.28953805565834045
1711553582489950200,20.0549501953125,-1.3747930526733398,0.7116842269897461,-0.5683785676956177
1711553582508910800,20.073910888671875,0.13913774490356445,-0.627955436706543,-0.40864962339401245
1711553582527871200,20.092871337890625,-1.5205316543579102,-0.1360006332397461,-2.662104845046997
1711553582546832000,20.111831787109374,1.2070212364196777,-0.6577005386352539,-1.2778009176254272
1711553582565792300,20.130792236328126,2.0541515350341797,-1.5129032135009766,-3.0538201332092285
1711553582584753000,20.1497529296875,-1.5397841930389404,-0.049892425537109375,-0.31397056579589844
1711553582603713300,20.16871337890625,-3.2110605239868164,1.1620111465454102,2.6714813709259033
1711553582622674000,20.187673828125,-1.980041742324829,1.3898558616638184,3.560657024383545
1711553582641634300,20.20663427734375,0.2502274513244629,-2.6022491455078125,5.630859851837158
1711553582660595000,20.225594970703124,2.4663147926330566,-6.298948287963867,2.457695960998535
1711553582679555600,20.2445556640625,1.6311817169189453,-7.033274173736572,3.223253011703491
1711553582698516000,20.263515869140626,1.4870574474334717,-6.694048881530762,4.403864860534668
1711553582717476600,20.2824765625,-4.995560169219971,-4.812347412109375,2.077951669692993
1711553582736437000,20.30143701171875,-9.67896556854248,2.9842348098754883,0.7668333053588867
1711553582755397600,20.320397705078125,3.2217295169830322,2.8436269760131836,0.8637435436248779
1711553582774358000,20.33935791015625,-0.22979259490966797,6.584683418273926,-2.3517279624938965
1711553582793318700,20.358318603515624,-2.955947160720825,3.6032705307006836,-9.239278793334961
1711553582812279000,20.377279052734377,1.830622673034668,-0.6819219589233398,-2.0914649963378906
1711553582831239400,20.396239501953126,-0.167557954788208,-2.277736186981201,1.7046407461166382
1711553582850200000,20.415199951171875,-3.244990110397339,1.1901473999023438,-0.26132071018218994
1711553582869160400,20.434160400390624,-2.2244362831115723,1.3395051956176758,-1.076823353767395
1711553582888121000,20.45312109375,-2.7656667232513428,-5.849514961242676,-1.3689041137695312
1711553582907081700,20.472081787109374,-0.6371023654937744,-7.651972770690918,-1.315808653831482
1711553582926042000,20.4910419921875,-2.4862680435180664,-9.702597618103027,-0.02197512984275818
1711553582945002800,20.510002685546876,-3.3192238807678223,-9.06039810180664,-2.9735805988311768
1711553582963963100,20.528963134765625,1.5163569450378418,-14.072141647338867,-0.43305015563964844
1711553582982923800,20.547923828125,3.1382858753204346,-7.92439079284668,5.229607582092285
1711553583001884200,20.56688427734375,2.621333360671997,-1.4301204681396484,4.7383623123168945
1711553583020844500,20.585844482421876,-11.503198623657227,8.555272102355957,3.536004066467285
1711553583039805200,20.60480517578125,6.111332893371582,6.166611671447754,5.824799060821533
1711553583058765600,20.623765625,1.7428441047668457,10.205730438232422,8.668397903442383
1711553583077726200,20.642726318359376,9.467291831970215,11.542722702026367,14.427919387817383
1711553583096686600,20.6616865234375,0.7453248500823975,6.214585781097412,8.528155326843262
1711553583115647200,20.680647216796874,1.149355411529541,5.468395233154297,4.302182674407959
1711553583134608000,20.69960791015625,2.679112434387207,5.756565093994141,7.675426959991455
1711553583153568300,20.718568359375,-3.997267961502075,4.799762725830078,3.4611878395080566
1711553583172528600,20.737528564453125,2.204117774963379,5.117129325866699,-0.937403678894043
1711553583191489300,20.7564892578125,2.559469699859619,4.357265949249268,-2.7373428344726562
1711553583210449700,20.77544970703125,3.8911919593811035,5.656248092651367,-2.56080961227417
1711553583229410300,20.794410400390625,-5.340806007385254,-0.09536600112915039,-4.10593843460083
1711553583248370700,20.81337060546875,9.015661239624023,-2.303173542022705,1.6646745204925537
1711553583267331300,20.832331298828127,-1.831573486328125,1.4369449615478516,1.024754524230957
1711553583286291700,20.851291748046876,-0.5777735710144043,2.3221592903137207,1.223374605178833
1711553583305252400,20.87025244140625,-1.9904241561889648,-0.3666224479675293,-0.47907400131225586
1711553583324212700,20.889212646484374,-0.8003454208374023,-3.4869439601898193,0.3774130344390869
1711553583343173400,20.90817333984375,0.3396329879760742,-2.2684288024902344,4.228171348571777
1711553583362133800,20.9271337890625,-1.4114556312561035,-2.4037952423095703,1.4475103616714478
1711553583381094400,20.946094482421874,-2.1138510704040527,-3.0675463676452637,-0.5844008922576904
1711553583400054800,20.9650546875,-3.866551399230957,-3.4582679271698,-3.269594430923462
1711553583419015400,20.984015380859375,-1.3778438568115234,-2.569803237915039,-1.8013874292373657
1711553583437975800,21.002975830078125,0.5730886459350586,-2.0062003135681152,1.3910211324691772
1711553583456936200,21.021936279296874,1.5136327743530273,-2.269549608230591,3.6090126037597656
1711553583475896800,21.040896728515627,0.13522624969482422,-3.2806808948516846,2.7643165588378906
1711553583494857200,21.059857177734376,0.16042137145996094,-4.379550933837891,-0.4385249614715576
1711553583513817900,21.07881787109375,0.05443382263183594,-5.433588027954102,-2.9185025691986084
1711553583532778500,21.097778564453126,-1.775130271911621,-6.344952583312988,-2.9166598320007324
1711553583551739000,21.11673876953125,-5.38670015335083,-6.390517711639404,-1.7066550254821777
1711553583570699300,21.13569921875,-7.265767574310303,-5.1445207595825195,-0.6092331409454346
1711553583589660000,21.154659912109373,-5.882322311401367,-3.09053897857666,0.18023720383644104
1711553583608620300,21.173620361328126,-4.578449726104736,-1.8492138385772705,1.6098387241363525
1711553583627581000,21.192580810546875,-2.567856788635254,-1.414496660232544,2.656622886657715
1711553583646541300,21.211541259765625,5.308513641357422,-1.7065638303756714,3.7297616004943848
1711553583665502000,21.230501953125,-0.8815698623657227,-2.0081944465637207,1.8821533918380737
1711553583684462300,21.24946240234375,-3.4199047088623047,-0.5764641761779785,1.9085346460342407
1711553583703423000,21.268423095703124,-2.3574981689453125,-0.17326998710632324,0.6768434047698975
1711553583722383400,21.28738330078125,-0.5932817459106445,-0.10490560531616211,-0.5752211809158325
1711553583741344000,21.306343994140626,-0.9035205841064453,-0.10676789283752441,-1.7588924169540405
1711553583760304400,21.325304443359375,-1.491236686706543,-0.38092494010925293,-2.440056324005127
1711553583779265000,21.34426513671875,-4.5450358390808105,8.367621421813965,-4.114752292633057
1711553583798225400,21.363225341796873,2.881913185119629,3.6452059745788574,-0.31028085947036743
1711553583817186000,21.38218603515625,0.32538890838623047,0.7104365825653076,-0.7837799787521362
1711553583836146400,21.401146484375,2.027581214904785,-0.9471175670623779,0.33964860439300537
1711553583855106800,21.42010693359375,3.0156631469726562,-2.137918472290039,0.7050950527191162
1711553583874067500,21.4390673828125,3.084104537963867,-2.6568603515625,-0.11815190315246582
1711553583893027800,21.45802783203125,2.0226383209228516,-1.9270155429840088,-0.973750114440918
1711553583911988500,21.476988525390624,1.7668514251708984,-0.19478988647460938,-0.7845073342323303
1711553583930949000,21.49594921875,1.7329692840576172,0.40796685218811035,-1.2449631690979004
1711553583949909500,21.514909423828126,1.8759994506835938,0.34877800941467285,-1.8236608505249023
1711553583968870100,21.5338701171875,1.3635673522949219,-0.34810829162597656,-2.074739933013916
1711553583987830500,21.55283056640625,-0.10620975494384766,-0.6785178184509277,-1.82551908493042
1711553584006791200,21.571791259765625,-0.21974468231201172,-1.0617542266845703,-1.4916410446166992
1711553584025751600,21.59075146484375,-0.4878101348876953,-1.542133092880249,-1.5601751804351807
1711553584044712200,21.609712158203124,-1.3645620346069336,-1.3678414821624756,-1.6325194835662842
1711553584063672600,21.628672607421876,-3.8501415252685547,2.019700765609741,-1.7881394624710083
1711553584082633200,21.64763330078125,-0.12881851196289062,0.7600994110107422,-1.3414243459701538
1711553584101593600,21.666593505859375,0.9506759643554688,-0.36121702194213867,-1.3528860807418823
1711553584120554000,21.685553955078124,-0.20500850677490234,-0.2773551940917969,-0.8451387882232666
