time,seconds_elapsed,z,y,x
1707003615271636500,0.122636474609375,-0.09926552325487137,-0.0873536616563797,0.09712749719619751
1707003615290593000,0.141593017578125,-0.10201441496610641,-0.19792018830776215,0.0818558782339096
1707003615309549600,0.160549560546875,-0.07910698652267456,-0.3039052188396454,0.05803215503692627
1707003615328506000,0.179506103515625,-0.11606431007385254,-0.46395179629325867,0.04673115536570549
1707003615347462700,0.198462646484375,-0.13194678723812103,-0.6374374032020569,0.010995565913617611
1707003615366419500,0.21741943359375,-0.12675444781780243,-0.7370083332061768,-0.050090912729501724
1707003615385376000,0.2363759765625,-0.10873392969369888,-0.6078104376792908,-0.07055488228797913
1707003615404332500,0.25533251953125,-0.05803215503692627,-0.4120282828807831,-0.06994401663541794
1707003615423289000,0.2742890625,-0.07971785217523575,-0.4581485986709595,-0.13255766034126282
1707003615442245600,0.29324560546875,-0.1493564397096634,-0.5079340934753418,-0.11209368705749512
1707003615461202200,0.3122021484375,-0.14996729791164398,-0.49113526940345764,-0.10690133273601532
1707003615480158700,0.33115869140625,-0.08093958348035812,-0.4422661066055298,-0.1230892539024353
1707003615499115500,0.350115478515625,-0.010995565913617611,-0.36621344089508057,-0.1334739476442337
1707003615518072000,0.369072021484375,-0.003359756199643016,-0.31184646487236023,-0.11636973917484283
1707003615537028600,0.388028564453125,-0.054672397673130035,-0.3139844834804535,-0.09712749719619751
1707003615555985200,0.406985107421875,-0.11698060482740402,-0.41783151030540466,-0.08063415437936783
1707003615574942000,0.42594189453125,-0.09407317638397217,-0.526870846748352,-0.10170898586511612
1707003615593898500,0.4448984375,-0.03909534588456154,-0.647516667842865,-0.12583814561367035
1707003615612855000,0.46385498046875,-0.013133592903614044,-0.7269290685653687,-0.1588248461484909
1707003615631811600,0.4828115234375,0.005803215317428112,-0.6969966888427734,-0.18356487154960632
1707003615650768100,0.50176806640625,0,-0.6001746654510498,-0.18264856934547424
1707003615669724700,0.520724609375,-0.04459312930703163,-0.4728093445301056,-0.1496618688106537
1707003615688681200,0.53968115234375,-0.09285144507884979,-0.37323838472366333,-0.10598503798246384
1707003615707638000,0.558637939453125,-0.10965022444725037,-0.2831358313560486,-0.07360920310020447
1707003615726594600,0.577594482421875,-0.13469567894935608,-0.360410213470459,-0.06230820715427399
1707003615745551000,0.596551025390625,-0.1380554437637329,-0.33505934476852417,-0.07788526266813278
1707003615764508000,0.6155078125,-0.11667517572641373,-0.29596397280693054,-0.06994401663541794
1707003615783464400,0.63446435546875,-0.08399390429258347,-0.277332603931427,-0.05222893878817558
1707003615802421000,0.6534208984375,-0.07910698652267456,-0.24740023910999298,-0.033597562462091446
1707003615821377500,0.67237744140625,-0.0870482325553894,-0.23487751185894012,-0.010384701192378998
1707003615840334000,0.691333984375,-0.0873536616563797,-0.231212317943573,0.010079269297420979
1707003615859291000,0.710290771484375,-0.08857539296150208,-0.20738859474658966,0.029626941308379173
1707003615878247400,0.729247314453125,-0.08918625861406326,-0.16065743565559387,0.041844237595796585
1707003615897204000,0.748203857421875,-0.07941242307424545,-0.1182023361325264,0.03481929376721382
1707003615916160500,0.767160400390625,-0.05558869615197182,-0.07513637095689774,0.018631376326084137
1707003615935117300,0.786117431640625,-0.04153880476951599,-0.019853105768561363,0.012522728182375431
1707003615954073900,0.805073974609375,-0.03298669680953026,0.013439024798572063,0.018631376326084137
1707003615973030400,0.824030517578125,-0.021991131827235222,0.021380268037319183,0.025350889191031456
1707003615991987200,0.8429873046875,-0.011300998739898205,-0.006108647678047419,0.02718348242342472
1707003616010943700,0.86194384765625,-0.006108647678047419,-0.07757982611656189,0.026572618633508682
1707003616029900300,0.880900390625,-0.021380268037319183,-0.1649334877729416,0.02626718580722809
1707003616048856800,0.89985693359375,-0.027488915249705315,-0.2525925934314728,0.014660755172371864
1707003616067813600,0.918813720703125,-0.009773836471140385,-0.3087921440601349,-0.014049889519810677
1707003616086770200,0.937770263671875,0.003970621153712273,-0.3283398151397705,-0.03298669680953026
1707003616105726700,0.956726806640625,0.006719512399286032,-0.3176496922969818,-0.021685699000954628
1707003616124683500,0.97568359375,0.021685699000954628,-0.2657261788845062,-0.003970621153712273
1707003616143640000,0.99464013671875,0.024740023538470268,-0.18173226714134216,0.012522728182375431
1707003616162596900,1.013596923828125,0.006108647678047419,-0.09804379940032959,0.05345066636800766
1707003616181553400,1.032553466796875,0.01649334840476513,-0.03787361457943916,0.09682206809520721
1707003616200510000,1.051510009765625,0.06414080411195755,-0.001832594396546483,0.13469567894935608
1707003616219466800,1.070466796875,0.11759147047996521,0.013439024798572063,0.14813470840454102
1707003616238423300,1.08942333984375,0.14294235408306122,-0.008857538923621178,0.15638138353824615
1707003616257380000,1.108380126953125,0.17684535682201385,-0.0766635313630104,0.17348559200763702
1707003616276336600,1.127336669921875,0.22388194501399994,-0.1328630894422531,0.15638138353824615
1707003616295293200,1.146293212890625,0.19883649051189423,-0.11575887352228165,0.08857539296150208
1707003616314250000,1.16525,0.1081230640411377,-0.03023780696094036,-0.003970621153712273
1707003616333206500,1.18420654296875,0.06414080411195755,0.0717766135931015,-0.09132428467273712
1707003616352163300,1.203163330078125,0.07330377399921417,0.18295399844646454,-0.13164135813713074
1707003616371119900,1.222119873046875,0.0766635313630104,0.2926042377948761,-0.12095122784376144
1707003616390076700,1.24107666015625,0.057726722210645676,0.34666576981544495,-0.08399390429258347
1707003616409033200,1.260033203125,0.028405211865901947,0.3271180987358093,-0.049480047076940536
1707003616427990000,1.278989990234375,-0.012217295356094837,0.2809978127479553,-0.021991131827235222
1707003616446946800,1.29794677734375,-0.05436696484684944,0.22999058663845062,0.0027488914784044027
1707003616465903400,1.3169033203125,-0.07605266571044922,0.13958260416984558,0.0204639695584774
1707003616484860200,1.335860107421875,-0.07147117704153061,0.003970621153712273,0.02932151034474373
1707003616503816700,1.354816650390625,-0.04459312930703163,-0.15027274191379547,0.02626718580722809
1707003616522773500,1.3737734375,0.001832594396546483,-0.27427828311920166,0.009773836471140385
1707003616541730300,1.392730224609375,0.01893680728971958,-0.3277289569377899,0.0027488914784044027
1707003616560686800,1.411686767578125,0.009162971749901772,-0.3588830530643463,0.022296564653515816
1707003616579643400,1.430643310546875,0.011300998739898205,-0.3634645342826843,0.056199558079242706
1707003616598600200,1.44960009765625,0.006108647678047419,-0.32100942730903625,0.08032871782779694
1707003616617557000,1.468556884765625,-0.021380268037319183,-0.25411975383758545,0.09468404203653336
1707003616636513500,1.487513427734375,-0.05283980444073677,-0.18600831925868988,0.1178968995809555
1707003616655470300,1.50647021484375,-0.035735588520765305,-0.1432477980852127,0.15057817101478577
1707003616674427100,1.52542724609375,0.004886918235570192,-0.1386663019657135,0.1496618688106537
1707003616693383700,1.5443837890625,-0.0030543238390237093,-0.14202606678009033,0.11514800786972046
1707003616712340500,1.563340576171875,-0.03817904740571976,-0.14019346237182617,0.11056652665138245
1707003616731297300,1.58229736328125,-0.030543239787220955,-0.1334739476442337,0.129197895526886
1707003616750253800,1.60125390625,0.014049889519810677,-0.12767073512077332,0.12614357471466064
1707003616769210600,1.620210693359375,0.010690134018659592,-0.11942406743764877,0.09407317638397217
1707003616788167400,1.63916748046875,-0.04978547990322113,-0.11514800786972046,0.08155044913291931
1707003616807124200,1.658124267578125,-0.07391463965177536,-0.09590577334165573,0.08796452730894089
1707003616826080800,1.677080810546875,-0.056199558079242706,-0.07849612087011337,0.08888082206249237
1707003616845037600,1.69603759765625,-0.0412333719432354,-0.09834922850131989,0.07360920310020447
1707003616863994400,1.714994384765625,-0.05742128938436508,-0.11698060482740402,0.047036588191986084
1707003616882951000,1.733950927734375,-0.07971785217523575,-0.08949168771505356,0.038789913058280945
1707003616901907700,1.75290771484375,-0.06627883017063141,-0.0513126403093338,0.03695731982588768
1707003616920864500,1.771864501953125,-0.03940077871084213,-0.05589412897825241,0.013744457624852657
1707003616939821300,1.7908212890625,-0.035124726593494415,-0.10048725455999374,-0.009773836471140385
1707003616958778000,1.809778076171875,-0.036651886999607086,-0.1328630894422531,-0.015577051788568497
1707003616977734700,1.828734619140625,-0.040317077189683914,-0.13530655205249786,-0.014049889519810677
1707003616996691500,1.84769140625,-0.03329212963581085,-0.11484257876873016,-0.001221729558892548
1707003617015648300,1.866648193359375,-0.006108647678047419,-0.08521563559770584,0.012522728182375431
1707003617034605000,1.88560498046875,0.022296564653515816,-0.06291907280683517,0.006719512399286032
1707003617053561900,1.904561767578125,0.022296564653515816,-0.04520399495959282,-0.010384701192378998
1707003617072518400,1.923518310546875,-0.011300998739898205,-0.035124726593494415,-0.018631376326084137
1707003617091475200,1.94247509765625,-0.0204639695584774,0.0009162971982732415,0.006719512399286032
1707003617110432000,1.961431884765625,0.01282816007733345,0.05589412897825241,0.04825831577181816
1707003617129388800,1.980388916015625,0.04734202101826668,0.046425722539424896,0.06597339361906052
1707003617148345600,1.999345703125,0.0461202897131443,-0.022907428443431854,0.038789913058280945
1707003617167302400,2.018302490234375,0.014966187067329884,-0.0665842592716217,-0.016798781231045723
1707003617186259200,2.03725927734375,0.0009162971982732415,-0.06994401663541794,-0.05192350596189499
1707003617205216000,2.056216064453125,0.027488915249705315,-0.0668896958231926,-0.05436696484684944
1707003617224172800,2.0751728515625,0.04734202101826668,-0.05192350596189499,-0.0616973415017128
1707003617243129300,2.09412939453125,0.020158538594841957,0.000610864779446274,-0.07513637095689774
1707003617262086400,2.11308642578125,-0.007024944759905338,0.06994401663541794,-0.0668896958231926
1707003617281043200,2.132043212890625,0.012522728182375431,0.11209368705749512,-0.056199558079242706
1707003617299999700,2.150999755859375,0.03940077871084213,0.11423171311616898,-0.06780599057674408
1707003617318956500,2.16995654296875,0.035124726593494415,0.0922405794262886,-0.10506874322891235
1707003617337913300,2.188913330078125,0.010384701192378998,0.06475166976451874,-0.143553227186203
1707003617356870100,2.2078701171875,0.008552107028663158,0.03023780696094036,-0.17165300250053406
1707003617375827000,2.226826904296875,0.019242240116000175,0.007635809946805239,-0.19333870708942413
1707003617394783700,2.24578369140625,0.023518294095993042,0.003665188793092966,-0.21746785938739777
1707003617413740500,2.264740478515625,0.007635809946805239,-0.006719512399286032,-0.23915356397628784
1707003617432697300,2.283697265625,-0.015271619893610477,-0.014049889519810677,-0.24831652641296387
1707003617451654100,2.302654052734375,-0.029016077518463135,-0.014660755172371864,-0.2617555558681488
1707003617470611000,2.32161083984375,-0.032070402055978775,-0.03176496922969818,-0.25534147024154663
1707003617489567700,2.340567626953125,-0.02871064469218254,-0.05222893878817558,-0.205861434340477
1707003617508524500,2.359524658203125,-0.021685699000954628,-0.06261363625526428,-0.12736530601978302
1707003617527481300,2.3784814453125,-0.010079269297420979,-0.08032871782779694,-0.05070177838206291
1707003617546438100,2.397438232421875,0.007635809946805239,-0.11209368705749512,0.013133592903614044
1707003617565395000,2.41639501953125,0.01649334840476513,-0.164322629570961,0.020769402384757996
1707003617584351700,2.435351806640625,0.014966187067329884,-0.2657261788845062,-0.004886918235570192
1707003617603308500,2.45430859375,0.04581485688686371,-0.3488037884235382,-0.02932151034474373
1707003617622265300,2.473265380859375,0.10873392969369888,-0.3897317349910736,-0.04276053607463837
1707003617641222100,2.49222216796875,0.1695149689912796,-0.3906480371952057,-0.037262752652168274
1707003617660179000,2.511178955078125,0.19425499439239502,-0.3039052188396454,-0.003970621153712273
1707003617679135700,2.5301357421875,0.18356487154960632,-0.1386663019657135,0.02871064469218254
1707003617698092500,2.549092529296875,0.16340632736682892,0.01435532234609127,0.04276053607463837
1707003617717049300,2.56804931640625,0.14782927930355072,0.12034036219120026,0.04734202101826668
1707003617736006100,2.587006103515625,0.13591741025447845,0.18203771114349365,0.053145237267017365
1707003617754963200,2.605963134765625,0.12522727251052856,0.20677772164344788,0.04520399495959282
1707003617773919700,2.624919677734375,0.1130099818110466,0.1649334877729416,0.019242240116000175
1707003617792876500,2.64387646484375,0.12186752259731293,0.07880155742168427,-0.023823726922273636
1707003617811833600,2.66283349609375,0.14538581669330597,0.011911863461136818,-0.07116574794054031
1707003617830790400,2.681790283203125,0.15760311484336853,-0.025350889191031456,-0.10048725455999374
1707003617849747200,2.700747314453125,0.14202606678009033,-0.050090912729501724,-0.10629047453403473
1707003617868704000,2.7197041015625,0.12522727251052856,-0.08888082206249237,-0.12614357471466064
1707003617887660800,2.738660888671875,0.12003492563962936,-0.1637117564678192,-0.1637117564678192
1707003617906617600,2.75761767578125,0.10690133273601532,-0.21930044889450073,-0.18387030065059662
1707003617925574400,2.776574462890625,0.09926552325487137,-0.21441353857517242,-0.19333870708942413
1707003617944531200,2.79553125,0.0974329337477684,-0.14599667489528656,-0.2003636509180069
1707003617963488000,2.814488037109375,0.0873536616563797,-0.08521563559770584,-0.2055560052394867
1707003617982444800,2.83344482421875,0.05436696484684944,-0.038789913058280945,-0.19639302790164948
1707003618001401900,2.85240185546875,0.013133592903614044,0.038789913058280945,-0.17287473380565643
1707003618020358400,2.8713583984375,-0.010690134018659592,0.1340848207473755,-0.14996729791164398
1707003618039315500,2.8903154296875,-0.020769402384757996,0.19120067358016968,-0.14263692498207092
1707003618058272300,2.909272216796875,-0.029626941308379173,0.21166464686393738,-0.13683371245861053
1707003618077229000,2.92822900390625,-0.032070402055978775,0.23793183267116547,-0.12247838824987411
1707003618096185900,2.947185791015625,-0.03329212963581085,0.24465134739875793,-0.11026109009981155
1707003618115142700,2.966142578125,-0.022296564653515816,0.21502439677715302,-0.09712749719619751
1707003618134099500,2.985099365234375,-0.008246674202382565,0.1905898153781891,-0.07849612087011337
1707003618153056300,3.00405615234375,-0.002443459117785096,0.15302163362503052,-0.06597339361906052
1707003618172013300,3.023013427734375,-0.003359756199643016,0.10506874322891235,-0.06017018109560013
1707003618190969900,3.041969970703125,-0.009773836471140385,0.046425722539424896,-0.0668896958231926
1707003618209927000,3.060927001953125,-0.020158538594841957,0.01282816007733345,-0.05864302068948746
1707003618228883700,3.0798837890625,-0.035735588520765305,0.035124726593494415,-0.028099779039621353
1707003618247840500,3.098840576171875,-0.04825831577181816,0.0925460159778595,0.011911863461136818
1707003618266797300,3.11779736328125,-0.05192350596189499,0.1591302752494812,0.06444623321294785
1707003618285754000,3.136754150390625,-0.03787361457943916,0.24220788478851318,0.12156209349632263
1707003618304711000,3.1557109375,-0.02932151034474373,0.33200499415397644,0.17776164412498474
1707003618323668000,3.17466796875,-0.029016077518463135,0.3814850449562073,0.21258094906806946
1707003618342624800,3.193624755859375,-0.02260199747979641,0.3689623177051544,0.2156352698802948
1707003618361581600,3.21258154296875,-0.0054977829568088055,0.32162031531333923,0.1945604383945465
1707003618380538400,3.231538330078125,0.008246674202382565,0.2626718580722809,0.16737695038318634
1707003618399495200,3.2504951171875,0.025961752980947495,0.22204934060573578,0.15302163362503052
1707003618418452000,3.269451904296875,0.049480047076940536,0.2098320573568344,0.15241076052188873
1707003618437408800,3.28840869140625,0.0665842592716217,0.21655155718326569,0.15088360011577606
1707003618456365800,3.30736572265625,0.07147117704153061,0.2415970265865326,0.1484401375055313
1707003618475322600,3.326322509765625,0.06994401663541794,0.281914085149765,0.1383608728647232
1707003618494279400,3.345279541015625,0.06475166976451874,0.3197877109050751,0.10140355676412582
1707003618513236200,3.364236328125,0.05955931544303894,0.2861901521682739,0.04673115536570549
1707003618532193000,3.383193115234375,0.06719512492418289,0.2098320573568344,-0.010690134018659592
1707003618551149800,3.40214990234375,0.0925460159778595,0.1331685185432434,-0.060781046748161316
1707003618570106600,3.421106689453125,0.1130099818110466,0.10048725455999374,-0.0922405794262886
1707003618589063700,3.440063720703125,0.12705987691879272,0.09804379940032959,-0.11484257876873016
1707003618608020500,3.4590205078125,0.12583814561367035,0.11362084746360779,-0.1233946830034256
1707003618626977300,3.477977294921875,0.09926552325487137,0.16584978997707367,-0.10598503798246384
1707003618645934000,3.49693408203125,0.05925388261675835,0.2370155304670334,-0.08460476994514465
1707003618664891000,3.515890869140625,0.02932151034474373,0.27580544352531433,-0.07391463965177536
1707003618683847700,3.53484765625,0.0015271619195118546,0.2788597643375397,-0.06108647957444191
1707003618702804700,3.5538046875,-0.010079269297420979,0.23915356397628784,-0.04428769648075104
1707003618721761500,3.572761474609375,0.006414080038666725,0.16340632736682892,-0.032070402055978775
1707003618740718300,3.59171826171875,0.008857538923621178,0.07513637095689774,-0.026572618633508682
1707003618759675100,3.610675048828125,-0.025350889191031456,-0.02107483521103859,-0.044898562133312225
1707003618778632000,3.6296318359375,-0.06291907280683517,-0.14721840620040894,-0.06780599057674408
1707003618797588700,3.648588623046875,-0.07452550530433655,-0.2208276242017746,-0.07269290834665298
1707003618816545800,3.6675458984375,-0.06291907280683517,-0.20922118425369263,-0.056810423731803894
1707003618835502600,3.686502685546875,-0.07024945318698883,-0.17195843160152435,-0.032070402055978775
1707003618854459400,3.70545947265625,-0.11117739230394363,-0.14660754799842834,-0.005192350596189499
1707003618873416200,3.724416259765625,-0.14630211889743805,-0.1233946830034256,0.009162971749901772
1707003618892373000,3.743373046875,-0.15302163362503052,-0.08063415437936783,0.011300998739898205
1707003618911329800,3.762329833984375,-0.14508038759231567,-0.02626718580722809,0.01649334840476513
1707003618930286800,3.781286865234375,-0.1340848207473755,0.01954767294228077,0.02718348242342472
1707003618949243600,3.80024365234375,-0.1182023361325264,0.05711585655808449,0.0412333719432354
1707003618968200400,3.819200439453125,-0.10506874322891235,0.09132428467273712,0.040317077189683914
1707003618987157200,3.8381572265625,-0.10079269111156464,0.09987638890743256,0.021380268037319183
1707003619006114000,3.857114013671875,-0.08979712426662445,0.07330377399921417,0.003970621153712273
1707003619025071000,3.876071044921875,-0.053145237267017365,0.04306596517562866,-0.0009162971982732415
1707003619044028000,3.89502783203125,-0.02107483521103859,0.031154103577136993,-0.001221729558892548
1707003619062984700,3.913984619140625,-0.013744457624852657,0.02626718580722809,0.006108647678047419
1707003619081941500,3.93294140625,-0.009162971749901772,0.030543239787220955,0.004886918235570192
1707003619100898300,3.951898193359375,-0.006719512399286032,0.03451386094093323,-0.008552107028663158
1707003619119855000,3.970855224609375,-0.0015271619195118546,0.024740023538470268,-0.029626941308379173
1707003619138812200,3.989812255859375,-0.004276053514331579,0.029932374134659767,-0.03787361457943916
1707003619157769000,4.00876904296875,-0.014049889519810677,0.04764745384454727,-0.03176496922969818
1707003619176725800,4.027725830078125,-0.01588248461484909,0.06933315098285675,-0.030543239787220955
1707003619195682600,4.0466826171875,-0.01740964688360691,0.09132428467273712,-0.0308486707508564
1707003619214639400,4.065639404296875,-0.03634645417332649,0.11606431007385254,-0.02260199747979641
1707003619233596400,4.084596435546875,-0.053145237267017365,0.1331685185432434,-0.011911863461136818
1707003619252553200,4.10355322265625,-0.05192350596189499,0.12400554865598679,-0.006719512399286032
1707003619271510000,4.122510009765625,-0.04673115536570549,0.09865466505289078,-0.0015271619195118546
1707003619290466800,4.141466796875,-0.04520399495959282,0.06505709886550903,-0.0021380267571657896
1707003619309423600,4.160423583984375,-0.05192350596189499,0.039706211537122726,-0.002443459117785096
1707003619328380400,4.17938037109375,-0.07116574794054031,0.021380268037319183,0.003970621153712273
1707003619347337500,4.19833740234375,-0.09040798991918564,-0.005192350596189499,0.009773836471140385
1707003619366294300,4.217294189453125,-0.10384701192378998,-0.022907428443431854,0.022296564653515816
1707003619385251000,4.2362509765625,-0.11117739230394363,-0.023518294095993042,0.03848448023200035
1707003619404207900,4.255207763671875,-0.10537417232990265,-0.025350889191031456,0.04978547990322113
1707003619423164700,4.27416455078125,-0.09010255336761475,-0.032681263983249664,0.05345066636800766
1707003619442121700,4.293121826171875,-0.07574722915887833,-0.04673115536570549,0.06047561392188072
1707003619461078500,4.31207861328125,-0.06872228533029556,-0.07024945318698883,0.05711585655808449
1707003619480035300,4.331035400390625,-0.061391908675432205,-0.09040798991918564,0.041844237595796585
1707003619498992000,4.3499921875,-0.036651886999607086,-0.09315688163042068,0.021685699000954628
1707003619517949000,4.368948974609375,0.0009162971982732415,-0.0665842592716217,0.008552107028663158
1707003619536906000,4.387906005859375,0.020769402384757996,-0.019242240116000175,0.002443459117785096
1707003619555862800,4.40686279296875,0.01588248461484909,0.03023780696094036,-0.0030543238390237093
1707003619574819600,4.425819580078125,0.008246674202382565,0.06108647957444191,-0.009162971749901772
1707003619593776400,4.4447763671875,0.005192350596189499,0.08643736690282822,0
1707003619612733200,4.463733154296875,0.000305432389723137,0.09804379940032959,0.009162971749901772
1707003619631690200,4.482690185546875,-0.017715077847242355,0.09071341902017593,0.009162971749901772
1707003619650647000,4.50164697265625,-0.0360410213470459,0.06322450190782547,0.001832594396546483
1707003619669603800,4.520603759765625,-0.038789913058280945,0.024434590712189674,-0.007024944759905338
1707003619688560600,4.539560546875,-0.03023780696094036,-0.011300998739898205,-0.00946840364485979
1707003619707517700,4.558517578125,-0.02412915788590908,-0.048563748598098755,-0.011300998739898205
1707003619726474500,4.577474609375,-0.023823726922273636,-0.08613193035125732,-0.01740964688360691
1707003619745431300,4.596431396484375,-0.02626718580722809,-0.09804379940032959,-0.023212861269712448
1707003619764388000,4.61538818359375,-0.023518294095993042,-0.09285144507884979,-0.029932374134659767
1707003619783345000,4.634344970703125,-0.02107483521103859,-0.07574722915887833,-0.035124726593494415
1707003619802302000,4.653302001953125,-0.025350889191031456,-0.0565049909055233,-0.03451386094093323
1707003619821258500,4.672258544921875,-0.031154103577136993,-0.03298669680953026,-0.0308486707508564
1707003619840215600,4.691215576171875,-0.03176496922969818,-0.0021380267571657896,-0.023823726922273636
1707003619859172400,4.71017236328125,-0.02626718580722809,0.020158538594841957,-0.01802051067352295
1707003619878129200,4.729129150390625,-0.015271619893610477,0.01893680728971958,-0.01282816007733345
1707003619897086200,4.748086181640625,-0.001221729558892548,0.008246674202382565,-0.010384701192378998
1707003619916043000,4.76704296875,0.006108647678047419,-0.004581485874950886,-0.011606430634856224
1707003619934999800,4.785999755859375,0.00946840364485979,-0.019242240116000175,-0.01740964688360691
1707003619953956600,4.80495654296875,0.00946840364485979,-0.03787361457943916,-0.023212861269712448
1707003619972913400,4.823913330078125,0.0030543238390237093,-0.04428769648075104,-0.022296564653515816
1707003619991870500,4.842870361328125,0.0027488914784044027,-0.025045456364750862,-0.010384701192378998
1707003620010827300,4.8618271484375,0.004886918235570192,0.005192350596189499,-0.003970621153712273
1707003620029784000,4.8807841796875,-0.0009162971982732415,0.03145953640341759,-0.009162971749901772
1707003620048740900,4.899740966796875,-0.001832594396546483,0.02412915788590908,-0.008857538923621178
1707003620067697700,4.91869775390625,0.004581485874950886,0.003359756199643016,-0.010690134018659592
1707003620086654500,4.937654541015625,0.005803215317428112,-0.005192350596189499,-0.014660755172371864
1707003620105611500,4.956611572265625,0.001832594396546483,-0.010690134018659592,-0.02107483521103859
1707003620124568300,4.975568359375,0.005192350596189499,-0.01893680728971958,-0.02412915788590908
1707003620143525000,4.994525146484375,0.016798781231045723,-0.019242240116000175,-0.021380268037319183
1707003620162482000,5.01348193359375,0.029932374134659767,-0.009162971749901772,-0.016187917441129684
1707003620181438700,5.032438720703125,0.029932374134659767,0.0030543238390237093,-0.014049889519810677
1707003620200395800,5.051395751953125,0.023212861269712448,0.01282816007733345,-0.008857538923621178
1707003620219352600,5.0703525390625,0.022907428443431854,0.011300998739898205,0.0030543238390237093
1707003620238309400,5.089309326171875,0.029626941308379173,0.001832594396546483,0.01435532234609127
1707003620257266200,5.10826611328125,0.03237583488225937,-0.003970621153712273,0.017104214057326317
1707003620276223000,5.127222900390625,0.02779434807598591,-0.006719512399286032,0.011300998739898205
1707003620295180000,5.146179931640625,0.015577051788568497,-0.007635809946805239,0.007330377586185932
1707003620314136800,5.16513671875,0.0054977829568088055,-0.006108647678047419,0.006108647678047419
1707003620333093600,5.18409375,0.001221729558892548,-0.007635809946805239,0.001832594396546483
1707003620352050400,5.203050537109375,-0.005192350596189499,-0.013439024798572063,-0.0021380267571657896
1707003620371007500,5.222007568359375,-0.01435532234609127,-0.01435532234609127,-0.004581485874950886
1707003620389964300,5.24096435546875,-0.020158538594841957,-0.013439024798572063,-0.008552107028663158
1707003620408921000,5.259921142578125,-0.022296564653515816,-0.020158538594841957,-0.01282816007733345
1707003620427878000,5.2788779296875,-0.01893680728971958,-0.031154103577136993,-0.014049889519810677
1707003620446834700,5.297834716796875,-0.019242240116000175,-0.033597562462091446,-0.01588248461484909
1707003620465791700,5.316791748046875,-0.01954767294228077,-0.03695731982588768,-0.024434590712189674
1707003620484748500,5.33574853515625,-0.01649334840476513,-0.04673115536570549,-0.029016077518463135
1707003620503705300,5.354705322265625,-0.01588248461484909,-0.0461202897131443,-0.020158538594841957
1707003620522662100,5.373662109375,-0.014049889519810677,-0.0412333719432354,-0.008857538923621178
1707003620541619000,5.392618896484375,-0.010995565913617611,-0.03848448023200035,-0.008857538923621178
1707003620560576000,5.411575927734375,-0.010995565913617611,-0.03634645417332649,-0.01282816007733345
1707003620579532800,5.43053271484375,-0.014049889519810677,-0.03909534588456154,-0.01588248461484909
1707003620598489600,5.449489501953125,-0.026878049597144127,-0.05192350596189499,-0.0204639695584774
1707003620617446400,5.4684462890625,-0.04214967042207718,-0.04917461425065994,-0.02412915788590908
1707003620636403200,5.4874033203125,-0.04459312930703163,-0.032681263983249664,-0.021380268037319183
1707003620655360300,5.5063603515625,-0.02779434807598591,-0.020158538594841957,-0.020158538594841957
1707003620674317000,5.525317138671875,-0.01893680728971958,-0.008246674202382565,-0.00946840364485979
1707003620693273900,5.54427392578125,-0.017715077847242355,-0.005803215317428112,0.0027488914784044027
1707003620712230700,5.563230712890625,-0.003665188793092966,-0.012522728182375431,-0.003970621153712273
1707003620731187500,5.5821875,0.012217295356094837,-0.01740964688360691,-0.014660755172371864
1707003620750144300,5.601144287109375,0.010384701192378998,-0.000305432389723137,-0.013439024798572063
1707003620769101300,5.620101318359375,0.008246674202382565,0.029626941308379173,0.000610864779446274
1707003620788058000,5.63905810546875,0.017104214057326317,0.05497783049941063,0.014049889519810677
1707003620807015000,5.658014892578125,0.028405211865901947,0.06719512492418289,0.01740964688360691
1707003620825971700,5.6769716796875,0.02718348242342472,0.06230820715427399,0.014966187067329884
1707003620844928500,5.695928466796875,0.02107483521103859,0.038789913058280945,0.005803215317428112
1707003620863885600,5.714885498046875,0.01893680728971958,0.01802051067352295,0.000610864779446274
1707003620882842400,5.73384228515625,0.004581485874950886,0.006108647678047419,0.002443459117785096
1707003620901799200,5.752799072265625,-0.007941242307424545,-0.013744457624852657,0.001832594396546483
1707003620920756000,5.771755859375,-0.00946840364485979,-0.03451386094093323,0.004581485874950886
1707003620939712800,5.790712646484375,-0.014049889519810677,-0.038789913058280945,0.0027488914784044027
1707003620958669800,5.809669921875,-0.033597562462091446,-0.03329212963581085,-0.006108647678047419
1707003620977626600,5.828626708984375,-0.04734202101826668,-0.03756818547844887,-0.011606430634856224
1707003620996583400,5.84758349609375,-0.04245510324835777,-0.0513126403093338,-0.012522728182375431
1707003621015540200,5.866540283203125,-0.027488915249705315,-0.056199558079242706,-0.01893680728971958
1707003621034497300,5.885497314453125,-0.013744457624852657,-0.04917461425065994,-0.02626718580722809
1707003621053454000,5.9044541015625,-0.01282816007733345,-0.03481929376721382,-0.031154103577136993
1707003621072411000,5.923410888671875,-0.009773836471140385,-0.021685699000954628,-0.032070402055978775
1707003621091367700,5.94236767578125,0.006414080038666725,-0.0015271619195118546,-0.025045456364750862
1707003621110324500,5.961324462890625,0.011911863461136818,0.019853105768561363,-0.01954767294228077
1707003621129281500,5.980281494140625,0.007635809946805239,0.039706211537122726,-0.015577051788568497
1707003621148238300,5.99923828125,0.01740964688360691,0.04428769648075104,-0.008552107028663158
1707003621167195100,6.018195068359375,0.03176496922969818,0.05192350596189499,-0.0009162971982732415
1707003621186152000,6.03715185546875,0.025045456364750862,0.04459312930703163,-0.007941242307424545
1707003621205108700,6.056108642578125,0.0030543238390237093,0.019853105768561363,-0.0204639695584774
1707003621224065800,6.075065673828125,-0.014049889519810677,-0.01649334840476513,-0.029626941308379173
1707003621243022600,6.094022705078125,-0.015577051788568497,-0.050090912729501724,-0.02779434807598591
1707003621261979400,6.1129794921875,-0.0204639695584774,-0.06597339361906052,-0.0204639695584774
1707003621280936200,6.131936279296875,-0.021380268037319183,-0.07880155742168427,-0.0204639695584774
1707003621299893000,6.15089306640625,-0.014049889519810677,-0.09010255336761475,-0.03237583488225937
1707003621318850000,6.16985009765625,-0.01740964688360691,-0.09682206809520721,-0.047036588191986084
1707003621337806800,6.188806884765625,-0.008246674202382565,-0.15241076052188873,-0.07941242307424545
1707003621356763600,6.207763671875,0.0015271619195118546,-0.21502439677715302,-0.10506874322891235
1707003621375720700,6.226720703125,0.004886918235570192,-0.21227550506591797,-0.10720676928758621
1707003621394677500,6.245677490234375,0.007330377586185932,-0.14782927930355072,-0.08949168771505356
1707003621413634300,6.26463427734375,0.006414080038666725,-0.08307760953903198,-0.07360920310020447
1707003621432591000,6.283591064453125,0.003359756199643016,-0.043371398001909256,-0.0668896958231926
1707003621451548000,6.3025478515625,0.007330377586185932,-0.023212861269712448,-0.05833758786320686
1707003621470505000,6.3215048828125,0.01954767294228077,-0.013133592903614044,-0.056810423731803894
1707003621489461800,6.340461669921875,0.025961752980947495,-0.011606430634856224,-0.05497783049941063
1707003621508418600,6.35941845703125,0.031154103577136993,-0.016798781231045723,-0.05253437161445618
1707003621527375600,6.378375732421875,0.02718348242342472,-0.01802051067352295,-0.044898562133312225
1707003621546332400,6.39733251953125,0.013133592903614044,-0.021991131827235222,-0.036651886999607086
1707003621565289200,6.416289306640625,0.006108647678047419,-0.03756818547844887,-0.034208428114652634
1707003621584246000,6.43524609375,0.009773836471140385,-0.049480047076940536,-0.0360410213470459
1707003621603203000,6.454203125,0.01435532234609127,-0.06017018109560013,-0.04550942778587341
1707003621622160000,6.473159912109375,0.013744457624852657,-0.06566796451807022,-0.0461202897131443
1707003621641116700,6.49211669921875,0.010384701192378998,-0.06566796451807022,-0.044898562133312225
1707003621660073700,6.51107373046875,0.016187917441129684,-0.05864302068948746,-0.040317077189683914
1707003621679030500,6.530030517578125,0.013744457624852657,-0.016187917441129684,-0.023212861269712448
1707003621697987300,6.5489873046875,0.006414080038666725,0.0204639695584774,-0.018631376326084137
1707003621716944100,6.567944091796875,-0.004276053514331579,0.03848448023200035,-0.025350889191031456
1707003621735901200,6.586901123046875,-0.006719512399286032,0.04214967042207718,-0.033597562462091446
1707003621754858000,6.60585791015625,-0.008246674202382565,0.04673115536570549,-0.03787361457943916
1707003621773814800,6.624814697265625,0.0009162971982732415,0.04978547990322113,-0.047952886670827866
1707003621792771800,6.643771728515625,0.004581485874950886,0.0565049909055233,-0.05100720748305321
1707003621811728600,6.662728759765625,0.004276053514331579,0.05406153202056885,-0.039706211537122726
1707003621830685700,6.681685791015625,-0.004581485874950886,0.04367683082818985,-0.013133592903614044
1707003621849642500,6.700642578125,0,0.012522728182375431,-0.016187917441129684
1707003621868599300,6.719599365234375,-0.001832594396546483,-0.000610864779446274,-0.01282816007733345
1707003621887556000,6.73855615234375,-0.01649334840476513,-0.008552107028663158,-0.00946840364485979
1707003621906513200,6.75751318359375,-0.034208428114652634,-0.008246674202382565,-0.003665188793092966
1707003621925470000,6.776469970703125,-0.039706211537122726,-0.003665188793092966,-0.004581485874950886
1707003621944426800,6.7954267578125,-0.010690134018659592,-0.007330377586185932,-0.025045456364750862
1707003621963383800,6.8143837890625,0.001221729558892548,0.020769402384757996,-0.021685699000954628
1707003621982340600,6.833340576171875,-0.009773836471140385,0.043371398001909256,-0.01282816007733345
1707003622001297700,6.852297607421875,-0.014049889519810677,0.019853105768561363,-0.017104214057326317
1707003622020254500,6.87125439453125,-0.0021380267571657896,-0.0015271619195118546,-0.0308486707508564
1707003622039211300,6.890211181640625,0.011911863461136818,0.000610864779446274,-0.054672397673130035
1707003622058168300,6.909168212890625,0.02260199747979641,0.022907428443431854,-0.05803215503692627
1707003622077125000,6.928125,0.041844237595796585,0.036651886999607086,-0.06933315098285675
1707003622096082200,6.947082275390625,0.05406153202056885,0.05283980444073677,-0.06475166976451874
1707003622115039000,6.9660390625,0.0513126403093338,0.0766635313630104,-0.05345066636800766
1707003622133996000,6.98499609375,0.04001164436340332,0.09804379940032959,-0.03237583488225937
1707003622152952800,7.003952880859375,0.03848448023200035,0.09315688163042068,-0.011300998739898205
1707003622171909600,7.02290966796875,0.04428769648075104,0.06994401663541794,0.007330377586185932
1707003622190866700,7.04186669921875,0.04550942778587341,0.035735588520765305,0.021685699000954628
1707003622209823500,7.060823486328125,0.04214967042207718,-0.01435532234609127,0.020769402384757996
1707003622228780300,7.0797802734375,0.03756818547844887,-0.06902772188186646,0.01282816007733345
1707003622247737300,7.0987373046875,0.04153880476951599,-0.11026109009981155,0.003665188793092966
1707003622266694100,7.117694091796875,0.0409279391169548,-0.12950333952903748,0.008552107028663158
1707003622285651200,7.136651123046875,0.025045456364750862,-0.1285870373249054,0.006414080038666725
1707003622304608000,7.15560791015625,0.000610864779446274,-0.09834922850131989,0.006719512399286032
1707003622323565000,7.17456494140625,-0.02260199747979641,-0.05589412897825241,0.008552107028663158
1707003622342521900,7.19352197265625,-0.031154103577136993,-0.02871064469218254,-0.009773836471140385
1707003622361479000,7.21247900390625,-0.026572618633508682,0.0015271619195118546,-0.027488915249705315
1707003622380435700,7.231435791015625,-0.029016077518463135,0.031154103577136993,-0.0308486707508564
1707003622399392800,7.250392822265625,-0.023212861269712448,0.03634645417332649,-0.035124726593494415
1707003622418349600,7.269349609375,-0.005803215317428112,0.024434590712189674,-0.04153880476951599
1707003622437306400,7.288306396484375,0.012522728182375431,0.010079269297420979,-0.04214967042207718
1707003622456263400,7.307263427734375,0.01954767294228077,0.01649334840476513,-0.03390299528837204
1707003622475220200,7.32622021484375,0.015577051788568497,0.04581485688686371,-0.020769402384757996
1707003622494177300,7.34517724609375,-0.008246674202382565,0.06994401663541794,0.005192350596189499
1707003622513134000,7.364134033203125,-0.03145953640341759,0.06994401663541794,0.022907428443431854
1707003622532091100,7.383091064453125,-0.03451386094093323,0.04581485688686371,0.028405211865901947
1707003622551048000,7.4020478515625,-0.03481929376721382,0.021991131827235222,0.03787361457943916
1707003622570005000,7.4210048828125,-0.03817904740571976,-0.02260199747979641,0.026878049597144127
1707003622588961800,7.4399619140625,-0.05070177838206291,-0.07422006875276566,0.001832594396546483
1707003622607918800,7.4589189453125,-0.057726722210645676,-0.10170898586511612,-0.007024944759905338
1707003622626875600,7.477875732421875,-0.05528326332569122,-0.09651663154363632,-0.0021380267571657896
1707003622645832700,7.496832763671875,-0.047952886670827866,-0.0769689604640007,0.007024944759905338
1707003622664789500,7.51578955078125,-0.03909534588456154,-0.0665842592716217,0.01802051067352295
1707003622683746600,7.53474658203125,-0.034208428114652634,-0.0461202897131443,0.029016077518463135
1707003622702703400,7.553703369140625,-0.03817904740571976,-0.014660755172371864,0.035735588520765305
1707003622721660400,7.572660400390625,-0.022907428443431854,-0.000305432389723137,0.013133592903614044
1707003622740617200,7.5916171875,0.0027488914784044027,-0.0009162971982732415,-0.020158538594841957
1707003622759574300,7.61057421875,0.02412915788590908,0.001221729558892548,-0.0461202897131443
1707003622778531000,7.629531005859375,0.03756818547844887,0.01282816007733345,-0.056810423731803894
1707003622797488000,7.648488037109375,0.03451386094093323,0.04520399495959282,-0.04978547990322113
1707003622816445000,7.66744482421875,0.014660755172371864,0.07910698652267456,-0.02932151034474373
1707003622835402000,7.686402099609375,0.0009162971982732415,0.09010255336761475,-0.017715077847242355
1707003622854358800,7.70535888671875,-0.007635809946805239,0.06963858753442764,-0.017715077847242355
1707003622873315800,7.72431591796875,-0.016187917441129684,0.017104214057326317,-0.023212861269712448
1707003622892273000,7.74327294921875,-0.024740023538470268,-0.03634645417332649,-0.028099779039621353
1707003622911229700,7.762229736328125,-0.018325943499803543,-0.09040798991918564,-0.04917461425065994
1707003622930186800,7.781186767578125,-0.01588248461484909,-0.1178968995809555,-0.0766635313630104
1707003622949143600,7.8001435546875,-0.032070402055978775,-0.12370011955499649,-0.09804379940032959
1707003622968100600,7.8191005859375,-0.05589412897825241,-0.13500112295150757,-0.10354158282279968
1707003622987057400,7.838057373046875,-0.06230820715427399,-0.15179990231990814,-0.10842850059270859
1707003623006014500,7.857014404296875,-0.039706211537122726,-0.16279546916484833,-0.12583814561367035
1707003623024971300,7.87597119140625,-0.01435532234609127,-0.15485422313213348,-0.14049890637397766
1707003623043928300,7.89492822265625,0.001832594396546483,-0.1591302752494812,-0.1545487940311432
1707003623062885000,7.913885009765625,0.007941242307424545,-0.17287473380565643,-0.19394956529140472
1707003623081842200,7.93284228515625,0.01649334840476513,-0.1585194170475006,-0.23243404924869537
1707003623100799200,7.95179931640625,0.010384701192378998,-0.11484257876873016,-0.21991132199764252
1707003623119756000,7.970756103515625,0.027488915249705315,-0.0922405794262886,-0.1945604383945465
1707003623138713000,7.989713134765625,0.0409279391169548,-0.05833758786320686,-0.15515965223312378
1707003623157670000,8.008669921875,0.03237583488225937,-0.03023780696094036,-0.14691297709941864
1707003623176627000,8.027626953125,0.029626941308379173,-0.02871064469218254,-0.1646280586719513
1707003623195583700,8.046583740234375,0.03634645417332649,-0.053145237267017365,-0.19120067358016968
1707003623214540800,8.065540771484375,0.041844237595796585,-0.07513637095689774,-0.19608759880065918
1707003623233497600,8.08449755859375,0.04062250629067421,-0.10842850059270859,-0.19303326308727264
1707003623252454700,8.10345458984375,0.06963858753442764,-0.1487455666065216,-0.22968515753746033
1707003623271411700,8.12241162109375,0.07452550530433655,-0.09560033679008484,-0.18173226714134216
1707003623290368500,8.141368408203125,0.032681263983249664,-0.008552107028663158,-0.12156209349632263
1707003623309325600,8.16032568359375,0.023518294095993042,0.03145953640341759,-0.11331541836261749
1707003623328282400,8.179282470703125,0.031154103577136993,0.07086031138896942,-0.11667517572641373
1707003623347239400,8.198239501953125,-0.003970621153712273,0.1331685185432434,-0.07055488228797913
1707003623366196200,8.2171962890625,-0.049480047076940536,0.15638138353824615,-0.005192350596189499
1707003623385153300,8.2361533203125,-0.06261363625526428,0.12370011955499649,0.03451386094093323
1707003623404110300,8.2551103515625,-0.03176496922969818,0.04825831577181816,0.0409279391169548
1707003623423067100,8.274067138671874,0.017715077847242355,-0.02932151034474373,0.029932374134659767
1707003623442024200,8.293024169921875,0.053145237267017365,-0.09346231073141098,-0.000305432389723137
1707003623460981000,8.31198095703125,0.05955931544303894,-0.13775001466274261,-0.0308486707508564
1707003623479938000,8.33093798828125,0.04978547990322113,-0.14996729791164398,-0.07299833744764328
1707003623498895000,8.34989501953125,0.017104214057326317,-0.12034036219120026,-0.08368847519159317
1707003623517852200,8.36885205078125,-0.02107483521103859,-0.09071341902017593,-0.0769689604640007
1707003623536809000,8.38780908203125,-0.04734202101826668,-0.0665842592716217,-0.06841685622930527
1707003623555766000,8.40676611328125,-0.05253437161445618,-0.03298669680953026,-0.061391908675432205
1707003623574722800,8.425722900390625,-0.0513126403093338,-0.001221729558892548,-0.04367683082818985
1707003623593680000,8.444679931640625,-0.04276053607463837,0.018631376326084137,-0.047952886670827866
1707003623612637000,8.463636962890625,-0.03787361457943916,0.016187917441129684,-0.06200277432799339
1707003623631593700,8.48259375,-0.02932151034474373,-0.004581485874950886,-0.0821613147854805
1707003623650550800,8.50155078125,-0.009773836471140385,-0.04245510324835777,-0.10995566099882126
1707003623669507600,8.520507568359376,0.01649334840476513,-0.06505709886550903,-0.13041962683200836
1707003623688464600,8.539464599609374,0.024434590712189674,-0.0766635313630104,-0.1533270627260208
1707003623707421700,8.558421630859375,0.011606430634856224,-0.08796452730894089,-0.1847866028547287
1707003623726378500,8.57737841796875,-0.0256563201546669,-0.06047561392188072,-0.18600831925868988
1707003623745335600,8.59633544921875,-0.05558869615197182,0.000610864779446274,-0.16676609218120575
1707003623764292400,8.615292236328125,-0.07513637095689774,0.05528326332569122,-0.1337793916463852
1707003623783249400,8.63424951171875,-0.09651663154363632,0.08155044913291931,-0.09346231073141098
1707003623802206500,8.65320654296875,-0.1081230640411377,0.0769689604640007,-0.05283980444073677
1707003623821163500,8.67216357421875,-0.10598503798246384,0.0409279391169548,-0.0256563201546669
1707003623840120300,8.691120361328124,-0.09437860548496246,-0.0360410213470459,-0.026878049597144127
1707003623859077400,8.710077392578125,-0.08613193035125732,-0.12553271651268005,-0.035124726593494415
1707003623878034200,8.7290341796875,-0.08368847519159317,-0.23243404924869537,-0.05070177838206291
1707003623896991200,8.7479912109375,-0.09315688163042068,-0.3179551064968109,-0.05894844979047775
1707003623915948300,8.7669482421875,-0.10537417232990265,-0.37232208251953125,-0.07880155742168427
1707003623934905000,8.785905029296876,-0.09987638890743256,-0.35766133666038513,-0.07819069176912308
1707003623953862100,8.804862060546874,-0.0922405794262886,-0.2770271897315979,-0.04734202101826668
1707003623972819200,8.823819091796874,-0.10109812021255493,-0.18417572975158691,-0.03145953640341759
1707003623991776000,8.84277587890625,-0.13164135813713074,-0.10445787757635117,-0.035735588520765305
1707003624010733000,8.861733154296875,-0.15118902921676636,-0.06291907280683517,-0.04428769648075104
1707003624029689900,8.88068994140625,-0.1386663019657135,-0.07635809481143951,-0.06475166976451874
1707003624048647000,8.89964697265625,-0.12675444781780243,-0.10567960888147354,-0.08155044913291931
1707003624067604000,8.91860400390625,-0.11148282140493393,-0.13041962683200836,-0.09926552325487137
1707003624086561000,8.93756103515625,-0.08368847519159317,-0.14569124579429626,-0.11728604137897491
1707003624105517800,8.956517822265624,-0.05528326332569122,-0.14660754799842834,-0.12095122784376144
1707003624124475000,8.975474853515625,-0.02718348242342472,-0.15149445831775665,-0.12400554865598679
1707003624143431700,8.994431640625,-0.02107483521103859,-0.15485422313213348,-0.12980876863002777
1707003624162388700,9.013388671875,-0.0204639695584774,-0.1496618688106537,-0.13713914155960083
1707003624181345800,9.032345703125,-0.008246674202382565,-0.14538581669330597,-0.14202606678009033
1707003624200302600,9.051302490234375,0.011300998739898205,-0.13041962683200836,-0.14110976457595825
1707003624219259600,9.070259765625,0.01954767294228077,-0.10354158282279968,-0.14294235408306122
1707003624238216700,9.089216796875,0.01954767294228077,-0.06719512492418289,-0.14660754799842834
1707003624257173500,9.108173583984374,0.012217295356094837,-0.03237583488225937,-0.14996729791164398
1707003624276130600,9.127130615234375,0.011300998739898205,-0.026572618633508682,-0.1490510106086731
1707003624295087400,9.14608740234375,0.021991131827235222,-0.06566796451807022,-0.15821397304534912
1707003624314044400,9.16504443359375,0.029932374134659767,-0.0977383628487587,-0.16249002516269684
1707003624333001500,9.18400146484375,0.04734202101826668,-0.09010255336761475,-0.17073670029640198
1707003624351958500,9.20295849609375,0.061391908675432205,-0.10567960888147354,-0.19669845700263977
1707003624370915300,9.221915283203124,0.07086031138896942,-0.20708316564559937,-0.22204934060573578
1707003624389872400,9.240872314453124,0.08674279600381851,-0.3017672002315521,-0.22876885533332825
1707003624408829400,9.259829345703125,0.11942406743764877,-0.30573782324790955,-0.22266021370887756
1707003624427786200,9.2787861328125,0.14202606678009033,-0.26450446248054504,-0.21349723637104034
1707003624446743300,9.297743408203125,0.1493564397096634,-0.2513708472251892,-0.21502439677715302
1707003624465700000,9.3167001953125,0.16126830875873566,-0.23823726177215576,-0.21685700118541718
1707003624484657200,9.3356572265625,0.17562362551689148,-0.17531819641590118,-0.19700388610363007
1707003624503614200,9.3546142578125,0.1692095398902893,-0.08002328872680664,-0.1539379209280014
1707003624522571000,9.373571044921874,0.14569124579429626,-0.000610864779446274,-0.11239911615848541
1707003624541528000,9.392528076171875,0.11575887352228165,0.029932374134659767,-0.0821613147854805
1707003624560485000,9.411485107421875,0.08918625861406326,0.025961752980947495,-0.06352993845939636
1707003624579442000,9.43044189453125,0.08277218043804169,0.007941242307424545,-0.04673115536570549
1707003624598399000,9.44939892578125,0.0925460159778595,-0.018325943499803543,-0.039706211537122726
1707003624617356000,9.46835595703125,0.09040798991918564,-0.056199558079242706,-0.048563748598098755
1707003624636312800,9.487312744140626,0.0720820426940918,-0.10354158282279968,-0.056810423731803894
1707003624655270000,9.506269775390624,0.05864302068948746,-0.16249002516269684,-0.06475166976451874
1707003624674227000,9.52522705078125,0.047952886670827866,-0.22266021370887756,-0.07452550530433655
1707003624693183700,9.544183837890625,0.03390299528837204,-0.2910770773887634,-0.09865466505289078
1707003624712140800,9.563140869140625,0.023518294095993042,-0.3481929302215576,-0.11392628401517868
1707003624731097900,9.582097900390625,0.02260199747979641,-0.3637699782848358,-0.10659590363502502
1707003624750054700,9.6010546875,0.035735588520765305,-0.34177884459495544,-0.08857539296150208
1707003624769011700,9.62001171875,0.05558869615197182,-0.3066541254520416,-0.0668896958231926
1707003624787968500,9.638968505859374,0.0720820426940918,-0.2929096519947052,-0.046425722539424896
1707003624806925600,9.657925537109374,0.08674279600381851,-0.29077163338661194,-0.030543239787220955
1707003624825882600,9.676882568359375,0.09834922850131989,-0.26450446248054504,-0.013133592903614044
1707003624844839400,9.69583935546875,0.11484257876873016,-0.24770566821098328,0.001221729558892548
1707003624863796500,9.71479638671875,0.13530655205249786,-0.25961753726005554,-0.0054977829568088055
1707003624882753300,9.733753173828125,0.14569124579429626,-0.32131487131118774,-0.015577051788568497
1707003624901710300,9.75271044921875,0.14477495849132538,-0.3283398151397705,0.0030543238390237093
1707003624920667400,9.77166748046875,0.15790854394435883,-0.31031930446624756,0.01588248461484909
1707003624939624400,9.79062451171875,0.19150610268115997,-0.3274235129356384,0.013439024798572063
1707003624958581200,9.809581298828125,0.22174391150474548,-0.33017241954803467,0.019853105768561363
1707003624977538300,9.828538330078125,0.22418737411499023,-0.33108872175216675,0.02932151034474373
1707003624996495400,9.847495361328125,0.22174391150474548,-0.328645259141922,0.036651886999607086
1707003625015452200,9.8664521484375,0.24434591829776764,-0.3292561173439026,0.03543015569448471
1707003625034409200,9.8854091796875,0.2831358313560486,-0.3298669755458832,0.018631376326084137
1707003625053366000,9.904365966796876,0.31551164388656616,-0.3481929302215576,0.006719512399286032
1707003625072323000,9.923322998046874,0.3402516841888428,-0.3585776388645172,0.002443459117785096
1707003625091280100,9.942280029296874,0.35705047845840454,-0.3555232882499695,0.0015271619195118546
1707003625110237000,9.96123681640625,0.36804601550102234,-0.3329212963581085,0.002443459117785096
1707003625129194000,9.980194091796875,0.3851502537727356,-0.3072649836540222,0.011911863461136818
1707003625148150800,9.99915087890625,0.40225446224212646,-0.2809978127479553,0.02412915788590908
1707003625167107800,10.01810791015625,0.4059196412563324,-0.2605338394641876,0.03634645417332649
1707003625186065000,10.03706494140625,0.39370235800743103,-0.23945899307727814,0.04825831577181816
1707003625205022000,10.05602197265625,0.3756818473339081,-0.20158538222312927,0.06444623321294785
1707003625223978800,10.074978759765624,0.37843072414398193,-0.1588248461484909,0.07574722915887833
1707003625242935800,10.093935791015625,0.39767298102378845,-0.12736530601978302,0.07238747924566269
1707003625261892600,10.112892578125,0.40805765986442566,-0.1078176349401474,0.060781046748161316
1707003625280849700,10.131849609375,0.40286532044410706,-0.1026252806186676,0.05406153202056885
1707003625299806700,10.150806640625,0.3897317349910736,-0.11362084746360779,0.046425722539424896
1707003625318763500,10.169763427734376,0.40255987644195557,-0.1545487940311432,0.038789913058280945
1707003625337720600,10.188720458984376,0.42088583111763,-0.1899789422750473,0.033597562462091446
1707003625356677400,10.207677490234374,0.43890634179115295,-0.20922118425369263,0.0308486707508564
1707003625375634400,10.226634521484375,0.462424635887146,-0.20922118425369263,0.030543239787220955
1707003625394591500,10.245591552734375,0.49418962001800537,-0.21441353857517242,0.03481929376721382
1707003625413548300,10.26454833984375,0.5271763205528259,-0.24220788478851318,0.041844237595796585
1707003625432505300,10.28350537109375,0.5473348498344421,-0.2611446976661682,0.048563748598098755
1707003625451462400,10.30246240234375,0.554665207862854,-0.27000224590301514,0.06322450190782547
1707003625470419200,10.321419189453126,0.5653553605079651,-0.2868010103702545,0.09162971377372742
1707003625489376300,10.340376220703124,0.5971203446388245,-0.3133736252784729,0.12492185086011887
1707003625508333300,10.359333251953124,0.6404917240142822,-0.34238970279693604,0.1536324918270111
1707003625527290000,10.3782900390625,0.6597339510917664,-0.35735589265823364,0.17287473380565643
1707003625546247200,10.3972470703125,0.6633991599082947,-0.3601047992706299,0.1954767256975174
1707003625565204000,10.416203857421875,0.6673697829246521,-0.36774060130119324,0.21807873249053955
1707003625584161000,10.4351611328125,0.6698132157325745,-0.3591884970664978,0.23548837006092072
1707003625603118000,10.4541181640625,0.6688969135284424,-0.3381136655807495,0.24342961609363556
1707003625622075000,10.473074951171874,0.6743947267532349,-0.31062474846839905,0.2516762912273407
1707003625641032000,10.492031982421874,0.6719512343406677,-0.2657261788845062,0.26969680190086365
1707003625659988700,10.51098876953125,0.6633991599082947,-0.20677772164344788,0.28588470816612244
1707003625678945800,10.52994580078125,0.6466003656387329,-0.15302163362503052,0.28954991698265076
1707003625697902800,10.54890283203125,0.629496157169342,-0.10873392969369888,0.2883281707763672
1707003625716859600,10.567859619140625,0.6218603253364563,-0.0766635313630104,0.28557929396629333
1707003625735816700,10.586816650390626,0.6163625717163086,-0.04581485688686371,0.27488914132118225
1707003625754773500,10.6057734375,0.5928442478179932,-0.03695731982588768,0.24831652641296387
1707003625773730600,10.62473046875,0.554665207862854,-0.04520399495959282,0.2205221801996231
1707003625792687600,10.6436875,0.5213730931282043,-0.053145237267017365,0.19669845700263977
1707003625811644400,10.66264453125,0.4969384968280792,-0.05192350596189499,0.17806708812713623
1707003625830601500,10.6816015625,0.4789179861545563,-0.05803215503692627,0.16554436087608337
1707003625849558500,10.70055859375,0.4740310609340668,-0.08002328872680664,0.16096286475658417
1707003625868515300,10.719515380859375,0.47067132592201233,-0.09498947113752365,0.1637117564678192
1707003625887472400,10.738472412109376,0.46028661727905273,-0.10934479534626007,0.1536324918270111
1707003625906429200,10.75742919921875,0.4410443603992462,-0.11423171311616898,0.13041962683200836
1707003625925386200,10.77638623046875,0.4159989058971405,-0.11026109009981155,0.11239911615848541
1707003625944343300,10.79534326171875,0.39858928322792053,-0.09651663154363632,0.10384701192378998
1707003625963300000,10.814300048828125,0.3964512348175049,-0.07330377399921417,0.09071341902017593
1707003625982257200,10.833257080078125,0.39767298102378845,-0.048563748598098755,0.08124501258134842
1707003626001214000,10.8522138671875,0.3848448097705841,-0.022907428443431854,0.08857539296150208
1707003626020171000,10.8711708984375,0.360410213470459,-0.007024944759905338,0.09498947113752365
1707003626039128000,10.890128173828124,0.3543015718460083,-0.0027488914784044027,0.09040798991918564
1707003626058084900,10.9090849609375,0.36712974309921265,-0.00946840364485979,0.07941242307424545
1707003626077042000,10.9280419921875,0.3808741867542267,-0.02260199747979641,0.0717766135931015
1707003626095998700,10.946998779296875,0.38331764936447144,-0.05528326332569122,0.0717766135931015
1707003626114955800,10.965955810546875,0.38240134716033936,-0.10445787757635117,0.06811141967773438
1707003626133912800,10.984912841796875,0.3851502537727356,-0.14691297709941864,0.06780599057674408
1707003626152869600,11.00386962890625,0.39828383922576904,-0.18203771114349365,0.05864302068948746
1707003626171826700,11.02282666015625,0.4150826036930084,-0.2000582218170166,0.036651886999607086
1707003626190783500,11.041783447265624,0.4199695289134979,-0.17837251722812653,0.010690134018659592
1707003626209740500,11.060740478515624,0.40836310386657715,-0.13530655205249786,-0.001832594396546483
1707003626228697600,11.079697509765625,0.39675667881965637,-0.08338304609060287,0.003359756199643016
1707003626247654400,11.098654296875,0.3845393657684326,-0.023212861269712448,0.01954767294228077
1707003626266611500,11.117611572265625,0.3787361681461334,0.035124726593494415,0.035735588520765305
1707003626285568500,11.136568603515625,0.37629270553588867,0.08063415437936783,0.049480047076940536
1707003626304525300,11.155525390625,0.3759872615337372,0.10995566099882126,0.060781046748161316
1707003626323482400,11.174482421875,0.3796524703502655,0.11148282140493393,0.05222893878817558
1707003626342439200,11.193439208984374,0.3637699782848358,0.10140355676412582,0.03329212963581085
1707003626361396200,11.212396240234375,0.33078327775001526,0.09193515032529831,0.017104214057326317
1707003626380353300,11.231353271484375,0.30085089802742004,0.08032871782779694,-0.000610864779446274
1707003626399310000,11.25031005859375,0.28527384996414185,0.0668896958231926,-0.013439024798572063
1707003626418267100,11.26926708984375,0.27366742491722107,0.05039634555578232,-0.009162971749901772
1707003626437224200,11.28822412109375,0.2608392536640167,0.030543239787220955,0.008857538923621178
1707003626456181000,11.307180908203126,0.2370155304670334,0.033597562462091446,0.02718348242342472
1707003626475138000,11.326137939453124,0.19914191961288452,0.0360410213470459,0.04581485688686371
1707003626494094800,11.3450947265625,0.1798996776342392,0.007635809946805239,0.05039634555578232
1707003626513052000,11.364052001953125,0.18387030065059662,-0.025045456364750862,0.049480047076940536
1707003626532009000,11.383009033203125,0.19150610268115997,-0.048563748598098755,0.05253437161445618
1707003626550966000,11.401966064453125,0.1905898153781891,-0.06750056147575378,0.0565049909055233
1707003626569922800,11.4209228515625,0.17867794632911682,-0.07971785217523575,0.05406153202056885
1707003626588880000,11.4398798828125,0.17165300250053406,-0.09071341902017593,0.04673115536570549
1707003626607837000,11.4588369140625,0.17776164412498474,-0.0925460159778595,0.03848448023200035
1707003626626793700,11.477793701171874,0.19792018830776215,-0.0974329337477684,0.032070402055978775
1707003626645750800,11.496750732421875,0.21868959069252014,-0.09896009415388107,0.02932151034474373
1707003626664707800,11.515707763671875,0.21288637816905975,-0.07971785217523575,0.040317077189683914
1707003626683664600,11.53466455078125,0.1905898153781891,-0.059864748269319534,0.05589412897825241
1707003626702621700,11.55362158203125,0.17318016290664673,-0.05222893878817558,0.05192350596189499
1707003626721578800,11.572578857421876,0.17531819641590118,-0.04428769648075104,0.03695731982588768
1707003626740535800,11.591535888671874,0.19242240488529205,-0.033597562462091446,0.03329212963581085
1707003626759492600,11.61049267578125,0.21410810947418213,-0.019242240116000175,0.0461202897131443
1707003626778449700,11.62944970703125,0.23487751185894012,-0.010690134018659592,0.056810423731803894
1707003626797406500,11.648406494140625,0.2513708472251892,-0.004886918235570192,0.060781046748161316
1707003626816363500,11.667363525390625,0.25809037685394287,0.008246674202382565,0.06536252796649933
1707003626835320600,11.686320556640625,0.2565632164478302,0.021380268037319183,0.08063415437936783
1707003626854277600,11.705277587890626,0.26542073488235474,0.024740023538470268,0.08888082206249237
1707003626873234400,11.724234375,0.2706131041049957,0.04276053607463837,0.0922405794262886
1707003626892191500,11.74319140625,0.2623664140701294,0.07574722915887833,0.10934479534626007
1707003626911148500,11.7621484375,0.2629773020744324,0.10109812021255493,0.13439024984836578
1707003626930105600,11.781105712890625,0.2822195291519165,0.1127045527100563,0.14141519367694855
1707003626949062400,11.8000625,0.2971857190132141,0.11759147047996521,0.12461641430854797
1707003626968019500,11.81901953125,0.29565855860710144,0.1178968995809555,0.1127045527100563
1707003626986976500,11.8379765625,0.2730565667152405,0.11056652665138245,0.11575887352228165
1707003627005933300,11.856933349609376,0.24831652641296387,0.08093958348035812,0.11392628401517868
1707003627024890400,11.875890380859374,0.23396120965480804,0.047036588191986084,0.10354158282279968
1707003627043847400,11.894847412109375,0.22418737411499023,0.025961752980947495,0.10690133273601532
1707003627062804200,11.91380419921875,0.21899501979351044,0.007024944759905338,0.11636973917484283
1707003627081761300,11.93276123046875,0.20861032605171204,-0.034208428114652634,0.09468404203653336
1707003627100718300,11.95171826171875,0.210442915558815,-0.09071341902017593,0.04825831577181816
1707003627119675400,11.97067529296875,0.20433427393436432,-0.0870482325553894,0.021685699000954628
1707003627138632400,11.989632568359376,0.17867794632911682,-0.03940077871084213,0.02260199747979641
1707003627157589200,12.00858935546875,0.13500112295150757,0.03390299528837204,0.034208428114652634
1707003627176546300,12.02754638671875,0.09071341902017593,0.11423171311616898,0.03329212963581085
1707003627195503400,12.04650341796875,0.07086031138896942,0.1740964651107788,0.022296564653515816
1707003627214460400,12.06546044921875,0.08063415437936783,0.1997527778148651,0.029016077518463135
1707003627233417500,12.08441748046875,0.11117739230394363,0.1798996776342392,0.04550942778587341
1707003627252374300,12.103374267578126,0.13683371245861053,0.1130099818110466,0.04214967042207718
1707003627271331300,12.122331298828126,0.13744457066059113,0.029016077518463135,0.014660755172371864
1707003627290288400,12.141288330078124,0.10476330667734146,-0.037262752652168274,0.0015271619195118546
1707003627309245400,12.160245361328125,0.07116574794054031,-0.06719512492418289,0.007024944759905338
1707003627328202200,12.1792021484375,0.03817904740571976,-0.04917461425065994,0.006108647678047419
1707003627347159300,12.1981591796875,-0.006719512399286032,0.007024944759905338,0.007635809946805239
1707003627366116400,12.217116455078125,-0.05039634555578232,0.06872228533029556,0.027488915249705315
1707003627385073400,12.236073486328126,-0.07452550530433655,0.10751219838857651,0.0461202897131443
1707003627404030500,12.255030517578126,-0.0766635313630104,0.11972949653863907,0.04245510324835777
1707003627422987300,12.2739873046875,-0.07024945318698883,0.09865466505289078,0.023212861269712448
1707003627441944300,12.2929443359375,-0.06780599057674408,0.04917461425065994,0.01649334840476513
1707003627460901400,12.3119013671875,-0.06994401663541794,-0.010079269297420979,0.007024944759905338
1707003627479858400,12.3308583984375,-0.08674279600381851,-0.032070402055978775,-0.006108647678047419
1707003627498815500,12.3498154296875,-0.11728604137897491,-0.019242240116000175,-0.004886918235570192
1707003627517772300,12.368772216796875,-0.13133592903614044,0.008246674202382565,-0.003359756199643016
1707003627536729300,12.387729248046876,-0.12186752259731293,0.0360410213470459,-0.005803215317428112
1707003627555686400,12.406686279296874,-0.10445787757635117,0.03634645417332649,-0.03329212963581085
1707003627574643500,12.4256435546875,-0.08857539296150208,0.023518294095993042,-0.0565049909055233
1707003627593600500,12.4446005859375,-0.06352993845939636,0.024740023538470268,-0.04673115536570549
1707003627612557600,12.4635576171875,-0.041844237595796585,0.025961752980947495,-0.0412333719432354
1707003627631514400,12.482514404296875,-0.034208428114652634,-0.005803215317428112,-0.05589412897825241
1707003627650471400,12.501471435546875,-0.023212861269712448,-0.05925388261675835,-0.06230820715427399
1707003627669428500,12.520428466796876,0.0054977829568088055,-0.10720676928758621,-0.0513126403093338
1707003627688385500,12.539385498046874,0.028099779039621353,-0.12431098520755768,-0.032681263983249664
1707003627707342600,12.558342529296874,0.03390299528837204,-0.12675444781780243,-0.02932151034474373
1707003627726299600,12.577299560546875,0.03023780696094036,-0.10690133273601532,-0.0256563201546669
1707003627745256400,12.59625634765625,0.03451386094093323,-0.06383536756038666,-0.01649334840476513
1707003627764213500,12.615213623046875,0.040317077189683914,-0.010079269297420979,-0.005803215317428112
1707003627783170600,12.634170654296875,0.02412915788590908,0.04581485688686371,0.010690134018659592
1707003627802127600,12.653127685546876,-0.0015271619195118546,0.08796452730894089,0.029016077518463135
1707003627821084700,12.672084716796874,-0.007024944759905338,0.09590577334165573,0.02932151034474373
1707003627840041700,12.691041748046874,-0.000305432389723137,0.07391463965177536,0.021991131827235222
1707003627858998500,12.70999853515625,0.006719512399286032,0.02779434807598591,0.028099779039621353
1707003627877955600,12.72895556640625,0.015271619893610477,-0.02932151034474373,0.0409279391169548
1707003627896912600,12.74791259765625,0.03298669680953026,-0.08460476994514465,0.04428769648075104
1707003627915869700,12.76686962890625,0.03940077871084213,-0.12644900381565094,0.04276053607463837
1707003627934826800,12.78582666015625,0.033597562462091446,-0.15485422313213348,0.05742128938436508
1707003627953783800,12.80478369140625,0.026572618633508682,-0.16157373785972595,0.0772743970155716
1707003627972740600,12.82374072265625,0.031154103577136993,-0.14752385020256042,0.09560033679008484
1707003627991697700,12.84269775390625,0.03329212963581085,-0.10873392969369888,0.11331541836261749
1707003628010654700,12.86165478515625,-0.008857538923621178,-0.04825831577181816,0.13561198115348816
1707003628029611800,12.88061181640625,-0.07788526266813278,0.012217295356094837,0.164322629570961
1707003628048568800,12.89956884765625,-0.09987638890743256,0.03787361457943916,0.1948658674955368
1707003628067526000,12.91852587890625,-0.0772743970155716,0.024434590712189674,0.210442915558815
1707003628086482700,12.937482666015624,-0.07391463965177536,-0.02626718580722809,0.21166464686393738
1707003628105439700,12.956439697265624,-0.10751219838857651,-0.08888082206249237,0.20677772164344788
1707003628124396800,12.975396728515625,-0.14782927930355072,-0.1340848207473755,0.21319180727005005
1707003628143353900,12.994353759765625,-0.15790854394435883,-0.1893680840730667,0.23884813487529755
1707003628162311000,13.013310791015625,-0.1588248461484909,-0.2412915825843811,0.2522871494293213
1707003628181268000,13.03226806640625,-0.18600831925868988,-0.2965748608112335,0.23976442217826843
1707003628200224800,13.051224853515626,-0.21410810947418213,-0.35185810923576355,0.1951712965965271
1707003628219181800,13.070181884765624,-0.1957821547985077,-0.4001164436340332,0.1438586562871933
1707003628238139000,13.089138916015624,-0.12522727251052856,-0.4153880476951599,0.12492185086011887
1707003628257096000,13.108095947265625,-0.05192350596189499,-0.3796524703502655,0.14294235408306122
1707003628276053000,13.127052978515625,-0.01802051067352295,-0.31031930446624756,0.1536324918270111
1707003628295010000,13.146010009765625,-0.001832594396546483,-0.2360992431640625,0.10048725455999374
1707003628313966800,13.164966796875,0.029932374134659767,-0.15821397304534912,0.013439024798572063
1707003628332924000,13.183923828125,0.05833758786320686,-0.056199558079242706,-0.029016077518463135
1707003628351881000,13.202880859375,0.06261363625526428,0.03237583488225937,-0.04367683082818985
1707003628370838000,13.221838134765624,0.06261363625526428,0.10323614627122879,-0.07147117704153061
1707003628389795000,13.240795166015625,0.09621120244264603,0.1536324918270111,-0.13744457066059113
1707003628408752000,13.259752197265625,0.14721840620040894,0.20189081132411957,-0.18234314024448395
1707003628427709000,13.278708984375,0.1649334877729416,0.24404047429561615,-0.17287473380565643
1707003628446666200,13.297666259765625,0.15638138353824615,0.23396120965480804,-0.15546508133411407
1707003628465623000,13.316623046875,0.1588248461484909,0.19700388610363007,-0.16859868168830872
1707003628484580000,13.335580078125,0.18723005056381226,0.1747073233127594,-0.20708316564559937
1707003628503537200,13.354537109375,0.18081597983837128,0.1905898153781891,-0.19089524447917938
1707003628522494200,13.373494140625,0.16249002516269684,0.1905898153781891,-0.1637117564678192
1707003628541451000,13.392450927734375,0.1737910360097885,0.1847866028547287,-0.18387030065059662
1707003628560408300,13.411408203125,0.20127993822097778,0.22174391150474548,-0.23762640357017517
1707003628579365000,13.430365234375,0.21258094906806946,0.2926042377948761,-0.2605338394641876
1707003628598322200,13.449322265625,0.2205221801996231,0.35277441143989563,-0.24251331388950348
1707003628617279200,13.468279296875,0.2672533392906189,0.3802633285522461,-0.22937972843647003
1707003628636236300,13.487236328125,0.3173442482948303,0.44990190863609314,-0.22937972843647003
1707003628655193000,13.506193115234375,0.32131487131118774,0.5406153202056885,-0.22693626582622528
1707003628674150400,13.525150390625,0.324063777923584,0.5855138897895813,-0.23304490745067596
1707003628693107200,13.544107177734375,0.3857611119747162,0.6169734001159668,-0.2721402645111084
1707003628712064300,13.563064208984375,0.4718930423259735,0.6496546864509583,-0.3439168632030487
1707003628731021300,13.582021240234376,0.5222893953323364,0.5659661889076233,-0.4056142270565033
1707003628749978400,13.600978271484376,0.5222893953323364,0.3552178740501404,-0.40286532044410706
1707003628768935200,13.61993505859375,0.48655378818511963,0.07024945318698883,-0.33536475896835327
1707003628787892500,13.638892578125,0.43340855836868286,-0.2370155304670334,-0.2657261788845062
1707003628806849300,13.657849365234375,0.3530798554420471,-0.472198486328125,-0.19822561740875244
1707003628825806300,13.676806396484375,0.250149130821228,-0.5674933791160583,-0.11972949653863907
1707003628844763400,13.695763427734375,0.16768237948417664,-0.481361448764801,-0.032070402055978775
1707003628863720400,13.714720458984376,0.10995566099882126,-0.23304490745067596,0.025045456364750862
1707003628882677200,13.73367724609375,0.07452550530433655,0.053756099194288254,0.06017018109560013
1707003628901634600,13.752634521484374,0.05742128938436508,0.29504770040512085,0.08552107214927673
1707003628920591400,13.77159130859375,0.051618073135614395,0.41294458508491516,0.06750056147575378
1707003628939548400,13.79054833984375,0.049480047076940536,0.3488037884235382,0.003970621153712273
1707003628958505500,13.80950537109375,0.07880155742168427,0.15699224174022675,-0.0204639695584774
1707003628977462500,13.828462646484375,0.15118902921676636,-0.034208428114652634,0.007330377586185932
1707003628996419300,13.84741943359375,0.18661919236183167,-0.1285870373249054,0.013439024798572063
1707003629015376400,13.86637646484375,0.1695149689912796,-0.14508038759231567,-0.023823726922273636
1707003629034333400,13.88533349609375,0.1490510106086731,-0.10995566099882126,-0.04520399495959282
1707003629053290500,13.90429052734375,0.15638138353824615,-0.03451386094093323,-0.01893680728971958
1707003629072247600,13.92324755859375,0.16676609218120575,0.037262752652168274,0.001221729558892548
1707003629091204600,13.94220458984375,0.12675444781780243,0.08155044913291931,-0.008552107028663158
1707003629110161400,13.961161376953125,0.043982263654470444,0.09926552325487137,-0.011606430634856224
1707003629129118500,13.980118408203126,-0.035735588520765305,0.11881320178508759,0.008552107028663158
1707003629148075500,13.999075439453126,-0.10445787757635117,0.16065743565559387,0.05528326332569122
1707003629167032600,14.018032470703124,-0.17348559200763702,0.23548837006092072,0.10995566099882126
1707003629185989600,14.03698974609375,-0.2156352698802948,0.3246746361255646,0.15088360011577606
1707003629204946400,14.055946533203125,-0.21227550506591797,0.43310311436653137,0.1438586562871933
1707003629223903500,14.074903564453125,-0.1692095398902893,0.5320632457733154,0.08979712426662445
1707003629242860500,14.093860595703125,-0.09987638890743256,0.5732966065406799,0.008246674202382565
1707003629261817600,14.112817626953126,-0.01435532234609127,0.5155698657035828,-0.06291907280683517
1707003629280774700,14.131774658203126,0.06597339361906052,0.3530798554420471,-0.09071341902017593
1707003629299731700,14.150731689453124,0.11698060482740402,0.1182023361325264,-0.07086031138896942
1707003629318688500,14.1696884765625,0.1282816082239151,-0.09346231073141098,-0.044898562133312225
1707003629337645600,14.1886455078125,0.11759147047996521,-0.22235478460788727,-0.04153880476951599
1707003629356602600,14.2076025390625,0.10231985151767731,-0.29565855860710144,-0.060781046748161316
1707003629375559700,14.2265595703125,0.07055488228797913,-0.31673339009284973,-0.053145237267017365
1707003629394516700,14.245516845703126,0.029932374134659767,-0.31123560667037964,-0.004886918235570192
1707003629413473500,14.2644736328125,-0.01282816007733345,-0.2938259541988373,0.05253437161445618
1707003629432430600,14.2834306640625,-0.06933315098285675,-0.27488914132118225,0.09010255336761475
1707003629451387600,14.3023876953125,-0.12705987691879272,-0.28405213356018066,0.11514800786972046
1707003629470344700,14.3213447265625,-0.1594357043504715,-0.31184646487236023,0.1389717310667038
1707003629489301800,14.3403017578125,-0.15668681263923645,-0.3582721948623657,0.15577052533626556
1707003629508258600,14.359258544921875,-0.14996729791164398,-0.4068359434604645,0.1539379209280014
1707003629527215600,14.378215576171876,-0.17226386070251465,-0.40255987644195557,0.16554436087608337
1707003629546172700,14.397172607421876,-0.1951712965965271,-0.3488037884235382,0.18692462146282196
1707003629565129700,14.416129638671874,-0.1798996776342392,-0.29046618938446045,0.19150610268115997
1707003629584086500,14.43508642578125,-0.14110976457595825,-0.24831652641296387,0.18081597983837128
1707003629603043600,14.454043701171875,-0.12644900381565094,-0.21807873249053955,0.17043127119541168
1707003629622000600,14.473000732421875,-0.13744457066059113,-0.18264856934547424,0.1588248461484909
1707003629640957700,14.491957763671875,-0.1441640853881836,-0.15179990231990814,0.1389717310667038
1707003629659914800,14.510914794921876,-0.11942406743764877,-0.12431098520755768,0.11698060482740402
1707003629678871600,14.52987158203125,-0.07788526266813278,-0.09071341902017593,0.08979712426662445
1707003629697828600,14.54882861328125,-0.05406153202056885,-0.03848448023200035,0.047036588191986084
1707003629716785700,14.56778564453125,-0.05039634555578232,-0.007330377586185932,-0.004276053514331579
1707003629735742700,14.58674267578125,-0.04917461425065994,-0.002443459117785096,-0.04520399495959282
1707003629754699800,14.60569970703125,-0.04245510324835777,-0.007024944759905338,-0.056199558079242706
1707003629773656600,14.624656494140625,-0.031154103577136993,-0.010079269297420979,-0.04978547990322113
1707003629792613600,14.643613525390625,-0.0256563201546669,0.01649334840476513,-0.053145237267017365
1707003629811570700,14.66257080078125,-0.035735588520765305,0.061391908675432205,-0.06841685622930527
1707003629830527700,14.68152783203125,-0.04367683082818985,0.129197895526886,-0.06383536756038666
1707003629849484500,14.700484619140624,-0.020769402384757996,0.20433427393436432,-0.04978547990322113
1707003629868441600,14.719441650390625,0.024434590712189674,0.2629773020744324,-0.057726722210645676
1707003629887398700,14.738398681640625,0.06261363625526428,0.29993459582328796,-0.08460476994514465
1707003629906355700,14.757355712890625,0.07880155742168427,0.29138249158859253,-0.10873392969369888
1707003629925312800,14.776312744140625,0.08979712426662445,0.24465134739875793,-0.10995566099882126
1707003629944269600,14.79526953125,0.09957095980644226,0.16646064817905426,-0.08338304609060287
1707003629963226600,14.8142265625,0.10445787757635117,0.0720820426940918,-0.05283980444073677
1707003629982183700,14.83318359375,0.08521563559770584,-0.0204639695584774,-0.0412333719432354
1707003630001140500,14.852140380859375,0.0513126403093338,-0.09682206809520721,-0.039706211537122726
1707003630020097500,14.87109765625,0.021991131827235222,-0.17867794632911682,-0.019853105768561363
1707003630039054600,14.8900546875,-0.0027488914784044027,-0.28985533118247986,0.017104214057326317
1707003630058011600,14.90901171875,-0.044898562133312225,-0.39248061180114746,0.044898562133312225
1707003630076968700,14.92796875,-0.10690133273601532,-0.43982264399528503,0.047952886670827866
1707003630095925500,14.946925537109376,-0.1533270627260208,-0.38270679116249084,0.038789913058280945
1707003630114882600,14.965882568359374,-0.17592905461788177,-0.2364046722650528,0.03023780696094036
1707003630133839600,14.984839599609375,-0.16157373785972595,-0.08368847519159317,0.03909534588456154
1707003630152796400,15.00379638671875,-0.11453714966773987,0.025961752980947495,0.0461202897131443
1707003630171753500,15.02275341796875,-0.07422006875276566,0.09285144507884979,0.041844237595796585
1707003630190710500,15.04171044921875,-0.07391463965177536,0.14782927930355072,0.035735588520765305
1707003630209667600,15.06066748046875,-0.08643736690282822,0.19394956529140472,0.016187917441129684
1707003630228624600,15.079624755859374,-0.07971785217523575,0.21960589289665222,-0.023518294095993042
1707003630247581400,15.09858154296875,-0.04550942778587341,0.2309068888425827,-0.0717766135931015
1707003630266538500,15.11753857421875,-0.0009162971982732415,0.2315177470445633,-0.10048725455999374
1707003630285495600,15.13649560546875,0.0513126403093338,0.21777328848838806,-0.10720676928758621
1707003630304452400,15.155452392578125,0.08857539296150208,0.1905898153781891,-0.09162971377372742
1707003630323409400,15.174409423828125,0.09621120244264603,0.11087195575237274,-0.08307760953903198
1707003630342366500,15.193366455078126,0.06505709886550903,-0.018325943499803543,-0.08674279600381851
1707003630361323500,15.212323486328126,0.011300998739898205,-0.14019346237182617,-0.06994401663541794
1707003630380280300,15.2312802734375,-0.026572618633508682,-0.19853104650974274,-0.036651886999607086
1707003630399237400,15.2502373046875,-0.03909534588456154,-0.18631376326084137,-0.008857538923621178
1707003630418194400,15.2691943359375,-0.04886918142437935,-0.13744457066059113,0.01740964688360691
1707003630437151500,15.2881513671875,-0.060781046748161316,-0.06933315098285675,0.036651886999607086
1707003630456108300,15.3071083984375,-0.06536252796649933,-0.023212861269712448,0.043371398001909256
1707003630475065300,15.3260654296875,-0.05894844979047775,-0.02932151034474373,0.04153880476951599
1707003630494022400,15.3450224609375,-0.06475166976451874,-0.043982263654470444,0.008552107028663158
1707003630512979500,15.3639794921875,-0.0974329337477684,-0.010079269297420979,-0.016187917441129684
1707003630531936300,15.382936279296874,-0.10720676928758621,-0.013744457624852657,-0.011300998739898205
1707003630550893300,15.401893310546875,-0.07299833744764328,-0.0818558782339096,0.03451386094093323
1707003630569850400,15.420850341796875,-0.02260199747979641,-0.20127993822097778,0.08613193035125732
1707003630588807200,15.43980712890625,0.005803215317428112,-0.31642794609069824,0.09529490768909454
1707003630607764200,15.45876416015625,-0.009773836471140385,-0.35796675086021423,0.07269290834665298
1707003630626721300,15.47772119140625,-0.08429934084415436,-0.28496840596199036,0.0565049909055233
1707003630645678000,15.496677978515624,-0.15790854394435883,-0.1441640853881836,0.07299833744764328
1707003630664635100,15.51563525390625,-0.17256930470466614,-0.022907428443431854,0.10140355676412582
1707003630683592200,15.53459228515625,-0.129197895526886,0.07299833744764328,0.12217295914888382
1707003630702549200,15.55354931640625,-0.08368847519159317,0.14691297709941864,0.13103049993515015
1707003630721506300,15.57250634765625,-0.05436696484684944,0.1646280586719513,0.1078176349401474
1707003630740463000,15.591463134765625,-0.021380268037319183,0.11575887352228165,0.05406153202056885
1707003630759420200,15.610420166015626,0.007635809946805239,0.021685699000954628,-0.0030543238390237093
1707003630778377200,15.629377197265624,0.046425722539424896,-0.04428769648075104,-0.03176496922969818
1707003630797334000,15.648333984375,0.0922405794262886,-0.04764745384454727,-0.020769402384757996
1707003630816291000,15.667291015625,0.12461641430854797,-0.006719512399286032,0.024434590712189674
1707003630835248000,15.686248046875,0.13500112295150757,0.04276053607463837,0.08521563559770584
1707003630854205200,15.705205078125,0.11942406743764877,0.08093958348035812,0.1282816082239151
1707003630873162000,15.724161865234375,0.08460476994514465,0.12186752259731293,0.14233149588108063
1707003630892119000,15.743119140625,0.05436696484684944,0.16676609218120575,0.1487455666065216
1707003630911076000,15.762076171875,0.05803215503692627,0.20952661335468292,0.18295399844646454
1707003630930033000,15.781032958984374,0.08826996386051178,0.25350889563560486,0.2409861534833908
1707003630948990000,15.799989990234375,0.11178825795650482,0.27977606654167175,0.27488914132118225
1707003630967947000,15.818947021484375,0.13622283935546875,0.25870123505592346,0.2556469142436981
1707003630986903800,15.83790380859375,0.15668681263923645,0.2009745091199875,0.19089524447917938
1707003631005860900,15.85686083984375,0.1444695144891739,0.1496618688106537,0.11972949653863907
1707003631024818000,15.87581787109375,0.06902772188186646,0.08521563559770584,0.1029307171702385
1707003631043775000,15.89477490234375,0.03329212963581085,-0.07574722915887833,0.11484257876873016
1707003631062731800,15.913731689453124,0.08093958348035812,-0.2880227565765381,0.12431098520755768
1707003631081688800,15.932688720703124,0.11453714966773987,-0.4272999167442322,0.1649334877729416
1707003631100646000,15.95164599609375,0.09132428467273712,-0.47433650493621826,0.2458730787038803
1707003631119602700,15.970602783203125,0.06261363625526428,-0.4575377106666565,0.3121519088745117
1707003631138559700,15.989559814453125,0.038789913058280945,-0.38331764936447144,0.3121519088745117
1707003631157516800,16.008516845703124,-0.013744457624852657,-0.2611446976661682,0.26542073488235474
1707003631176473600,16.0274736328125,-0.07849612087011337,-0.13775001466274261,0.2156352698802948
1707003631195430700,16.0464306640625,-0.12370011955499649,-0.04245510324835777,0.18234314024448395
1707003631214387700,16.0653876953125,-0.1490510106086731,0.011300998739898205,0.1795942485332489
1707003631233344800,16.0843447265625,-0.1285870373249054,-0.013439024798572063,0.1737910360097885
1707003631252301600,16.103301513671877,-0.05192350596189499,-0.11331541836261749,0.13225223124027252
1707003631271258600,16.122258544921873,0.01588248461484909,-0.23457208275794983,0.0616973415017128
1707003631290215700,16.141215576171874,0.05100720748305321,-0.2993237376213074,-0.008857538923621178
1707003631309172500,16.16017236328125,0.08002328872680664,-0.2782489061355591,-0.05283980444073677
1707003631328129500,16.179129638671874,0.10109812021255493,-0.20677772164344788,-0.05528326332569122
1707003631347086600,16.198086669921874,0.09621120244264603,-0.09315688163042068,-0.04245510324835777
1707003631366043400,16.21704345703125,0.0668896958231926,0.035735588520765305,-0.016798781231045723
1707003631385000400,16.23600048828125,0.025045456364750862,0.13439024984836578,-0.007941242307424545
1707003631403957500,16.25495751953125,-0.01649334840476513,0.19639302790164948,-0.011300998739898205
1707003631422914600,16.27391455078125,-0.0412333719432354,0.2006690800189972,-0.021991131827235222
1707003631441871600,16.29287158203125,-0.031154103577136993,0.12522727251052856,-0.038789913058280945
1707003631460828400,16.311828369140624,-0.008857538923621178,0.04520399495959282,-0.03176496922969818
1707003631479785500,16.330785400390624,0.006414080038666725,0.000305432389723137,-0.0009162971982732415
1707003631498742500,16.349742431640625,0.011911863461136818,-0.018325943499803543,0.01435532234609127
1707003631517699300,16.36869921875,0.008246674202382565,-0.01893680728971958,-0.005803215317428112
1707003631536656400,16.387656494140625,-0.0054977829568088055,0.001832594396546483,-0.011606430634856224
1707003631555613400,16.406613525390625,-0.014660755172371864,0.025045456364750862,0.007635809946805239
1707003631574570500,16.425570556640626,-0.012522728182375431,0.009773836471140385,0.029626941308379173
1707003631593527600,16.444527587890626,-0.010079269297420979,-0.024740023538470268,0.026572618633508682
1707003631612484400,16.463484375,-0.00946840364485979,-0.04520399495959282,0.006108647678047419
1707003631631441400,16.48244140625,-0.01282816007733345,-0.050090912729501724,-0.004581485874950886
1707003631650398500,16.5013984375,-0.022296564653515816,-0.048563748598098755,-0.0021380267571657896
1707003631669355300,16.520355224609375,-0.022296564653515816,-0.046425722539424896,0.0015271619195118546
1707003631688312300,16.539312255859375,-0.010079269297420979,-0.043371398001909256,-0.006719512399286032
1707003631707269400,16.558269287109376,0.000305432389723137,-0.032681263983249664,-0.017104214057326317
1707003631726226400,16.577226318359376,0.014049889519810677,-0.01954767294228077,-0.017104214057326317
1707003631745183500,16.59618359375,0.02260199747979641,-0.001832594396546483,-0.010384701192378998
1707003631764140300,16.615140380859376,0.016798781231045723,0.004886918235570192,-0.011911863461136818
1707003631783097300,16.634097412109377,-0.0021380267571657896,0.0204639695584774,-0.018631376326084137
1707003631802054400,16.653054443359373,-0.016187917441129684,0.05406153202056885,-0.018631376326084137
1707003631821011500,16.672011474609373,-0.007024944759905338,0.07941242307424545,-0.0030543238390237093
1707003631839968500,16.690968505859374,0.006719512399286032,0.0772743970155716,0.006108647678047419
1707003631858925300,16.70992529296875,-0.0027488914784044027,0.046425722539424896,-0.004886918235570192
1707003631877882400,16.72888232421875,-0.019853105768561363,0.014966187067329884,-0.014049889519810677
1707003631896839400,16.74783935546875,-0.02260199747979641,-0.013133592903614044,-0.01740964688360691
1707003631915796500,16.76679638671875,-0.011606430634856224,-0.03817904740571976,-0.01740964688360691
1707003631934753300,16.785753173828127,0.0030543238390237093,-0.06475166976451874,-0.015577051788568497
1707003631953710300,16.80471044921875,0.012217295356094837,-0.09071341902017593,-0.01588248461484909
1707003631972667400,16.82366748046875,0.00946840364485979,-0.10720676928758621,-0.028405211865901947
1707003631991624400,16.84262451171875,0.006108647678047419,-0.12644900381565094,-0.03817904740571976
1707003632010581500,16.86158154296875,0.016798781231045723,-0.14477495849132538,-0.0360410213470459
1707003632029538600,16.88053857421875,0.014660755172371864,-0.12003492563962936,-0.021685699000954628
1707003632048495600,16.89949560546875,0.005803215317428112,-0.06780599057674408,-0.010995565913617611
1707003632067452400,16.918452392578125,-0.012217295356094837,0.005192350596189499,-0.0027488914784044027
1707003632086409500,16.937409423828125,-0.033597562462091446,0.08002328872680664,0.010079269297420979
1707003632105366500,16.956366455078125,-0.043982263654470444,0.12217295914888382,0.016187917441129684
1707003632124323600,16.975323486328126,-0.057726722210645676,0.1233946830034256,0.025961752980947495
1707003632143280600,16.99428076171875,-0.07483093440532684,0.10079269111156464,0.05192350596189499
1707003632162237700,17.01323779296875,-0.06811141967773438,0.07024945318698883,0.0717766135931015
1707003632181194500,17.032194580078126,-0.04428769648075104,0.020158538594841957,0.05742128938436508
1707003632200151600,17.051151611328127,-0.015271619893610477,-0.04581485688686371,0.01893680728971958
1707003632219108600,17.070108642578123,-0.011300998739898205,-0.08155044913291931,0.00946840364485979
1707003632238065700,17.089065673828124,0.0009162971982732415,-0.10476330667734146,0.023212861269712448
1707003632257022700,17.108022705078124,0.014049889519810677,-0.11972949653863907,0.0308486707508564
1707003632275979800,17.126979736328124,0.007941242307424545,-0.09896009415388107,0.0256563201546669
1707003632294936800,17.145936767578124,0.002443459117785096,-0.056199558079242706,-0.005192350596189499
1707003632313893600,17.1648935546875,0.010995565913617611,-0.011300998739898205,-0.024434590712189674
1707003632332850700,17.1838505859375,0.013744457624852657,0.04001164436340332,-0.021991131827235222
1707003632351807700,17.202807861328125,-0.000305432389723137,0.08643736690282822,-0.011606430634856224
1707003632370764800,17.221764892578125,-0.01282816007733345,0.10965022444725037,-0.009162971749901772
1707003632389721900,17.240721923828126,-0.01282816007733345,0.10048725455999374,-0.008552107028663158
1707003632408679000,17.259678955078126,-0.005192350596189499,0.06230820715427399,-0.012522728182375431
1707003632427636000,17.278635986328126,0.0027488914784044027,0.017715077847242355,-0.023212861269712448
1707003632446592800,17.2975927734375,0.004886918235570192,-0.029626941308379173,-0.03695731982588768
1707003632465550000,17.316550048828127,0.000610864779446274,-0.06627883017063141,-0.03451386094093323
1707003632484507000,17.3355068359375,0.003359756199643016,-0.08307760953903198,-0.02626718580722809
1707003632503464000,17.3544638671875,0.015577051788568497,-0.07788526266813278,-0.015577051788568497
1707003632522421000,17.3734208984375,0.010079269297420979,-0.04825831577181816,-0.007941242307424545
1707003632541378000,17.3923779296875,-0.017104214057326317,-0.008552107028663158,0.006108647678047419
1707003632560335000,17.411335205078124,-0.023212861269712448,0.014660755172371864,0.014660755172371864
1707003632579292200,17.430292236328125,-0.011300998739898205,0.020769402384757996,-0.002443459117785096
1707003632598249200,17.449249267578125,-0.017104214057326317,0.030543239787220955,-0.010079269297420979
1707003632617206300,17.468206298828125,-0.028099779039621353,0.025350889191031456,-0.008552107028663158
1707003632636163000,17.4871630859375,-0.014966187067329884,0.006108647678047419,-0.0009162971982732415
1707003632655120400,17.506120361328126,0.003665188793092966,-0.001832594396546483,0.013744457624852657
1707003632674077200,17.5250771484375,0.015577051788568497,-0.00946840364485979,0.011300998739898205
1707003632693034200,17.5440341796875,0.010995565913617611,-0.03909534588456154,-0.000305432389723137
1707003632711991600,17.562991455078127,-0.007024944759905338,-0.07513637095689774,-0.004886918235570192
1707003632730948400,17.5819482421875,-0.01893680728971958,-0.08338304609060287,0.000305432389723137
1707003632749905400,17.600905517578123,-0.021685699000954628,-0.05436696484684944,-0.005192350596189499
1707003632768862500,17.619862548828124,-0.029626941308379173,-0.0027488914784044027,-0.011911863461136818
1707003632787819500,17.638819580078124,-0.03848448023200035,0.04764745384454727,-0.003665188793092966
1707003632806776600,17.657776611328124,-0.03481929376721382,0.07605266571044922,0.0054977829568088055
1707003632825733600,17.676733642578125,-0.03145953640341759,0.09101885557174683,0.0256563201546669
1707003632844690700,17.695690673828125,-0.011911863461136818,0.056199558079242706,0.02718348242342472
1707003632863647700,17.714647705078125,0.023212861269712448,-0.01282816007733345,-0.001832594396546483
1707003632882604500,17.7336044921875,0.033597562462091446,-0.06475166976451874,-0.026878049597144127
1707003632901561900,17.752561767578126,0.03145953640341759,-0.08399390429258347,-0.0412333719432354
1707003632920519000,17.771518798828126,0.03023780696094036,-0.06780599057674408,-0.04367683082818985
1707003632939475700,17.790475830078126,0.01740964688360691,-0.02718348242342472,-0.047952886670827866
1707003632958432800,17.809432861328126,0.0054977829568088055,0.04825831577181816,-0.040317077189683914
1707003632977389800,17.828389892578127,0.011300998739898205,0.12186752259731293,-0.044898562133312225
1707003632996347000,17.847346923828123,0.010690134018659592,0.19608759880065918,-0.047952886670827866
1707003633015304000,17.866303955078124,-0.013744457624852657,0.24740023910999298,-0.040317077189683914
1707003633034261000,17.885260986328124,-0.029626941308379173,0.24984370172023773,-0.02626718580722809
1707003633053218000,17.904218017578124,-0.021685699000954628,0.1957821547985077,-0.008552107028663158
1707003633072175000,17.923175048828124,-0.000610864779446274,0.10415244847536087,-0.000305432389723137
1707003633091132200,17.942132080078125,0.014049889519810677,0.005192350596189499,-0.007330377586185932
1707003633110089200,17.961089111328125,0.005192350596189499,-0.06933315098285675,-0.01649334840476513
1707003633129046300,17.98004638671875,-0.006719512399286032,-0.12217295914888382,-0.014049889519810677
1707003633148003300,17.99900341796875,-0.000305432389723137,-0.15821397304534912,0
1707003633166960400,18.01796044921875,0.009162971749901772,-0.17318016290664673,0.01435532234609127
1707003633185917400,18.03691748046875,0.005803215317428112,-0.1695149689912796,0.016798781231045723
1707003633204874200,18.055874267578126,-0.009773836471140385,-0.14538581669330597,0.00946840364485979
1707003633223831600,18.07483154296875,-0.010079269297420979,-0.1078176349401474,0.003970621153712273
1707003633242788400,18.093788330078127,-0.0015271619195118546,-0.05345066636800766,-0.004276053514331579
1707003633261745400,18.112745361328123,0.004581485874950886,0.006108647678047419,-0.006719512399286032
1707003633280702500,18.131702392578124,-0.003359756199643016,0.0409279391169548,-0.004886918235570192
1707003633299659500,18.150659423828124,-0.0030543238390237093,0.05192350596189499,-0.002443459117785096
1707003633318616600,18.169616455078124,0.004581485874950886,0.04459312930703163,-0.0027488914784044027
1707003633337573600,18.18857373046875,0.008552107028663158,0.0256563201546669,-0.014966187067329884
1707003633356530700,18.20753076171875,0.002443459117785096,0.023212861269712448,-0.03023780696094036
1707003633375487700,18.22648779296875,-0.001221729558892548,0.0308486707508564,-0.037262752652168274
1707003633394444800,18.24544482421875,0.009773836471140385,0.03390299528837204,-0.021685699000954628
1707003633413401900,18.26440185546875,0.022296564653515816,0.03145953640341759,-0.005803215317428112
1707003633432359000,18.28335888671875,0.009773836471140385,0.024740023538470268,-0.0030543238390237093
1707003633451316000,18.30231591796875,-0.006414080038666725,0.013133592903614044,-0.011300998739898205
1707003633470272800,18.321272705078126,-0.013133592903614044,0.004886918235570192,-0.018631376326084137
1707003633489230000,18.34022998046875,-0.008857538923621178,-0.000610864779446274,-0.02107483521103859
1707003633508187100,18.359187255859375,0.002443459117785096,-0.012217295356094837,-0.014049889519810677
1707003633527144000,18.37814404296875,0.010690134018659592,-0.01954767294228077,-0.00946840364485979
1707003633546101000,18.39710107421875,0.007330377586185932,-0.021380268037319183,-0.006414080038666725
1707003633565058000,18.41605810546875,0.0009162971982732415,-0.025350889191031456,-0.013133592903614044
1707003633584015000,18.43501513671875,-0.003970621153712273,-0.011911863461136818,-0.010995565913617611
1707003633602972200,18.45397216796875,-0.0009162971982732415,-0.000305432389723137,-0.015577051788568497
1707003633621929200,18.47292919921875,0.002443459117785096,0.001832594396546483,-0.013744457624852657
1707003633640886300,18.49188623046875,0.000305432389723137,0.0027488914784044027,-0.001221729558892548
1707003633659843300,18.51084326171875,-0.003359756199643016,0,0.004581485874950886
1707003633678800400,18.52980029296875,-0.002443459117785096,-0.0027488914784044027,0.004886918235570192
1707003633697757400,18.54875732421875,0.0009162971982732415,-0.017715077847242355,-0.004886918235570192
1707003633716714500,18.567714599609374,0.0021380267571657896,-0.028099779039621353,-0.011911863461136818
1707003633735671600,18.586671630859374,-0.005192350596189499,-0.020769402384757996,-0.006414080038666725
1707003633754628600,18.605628662109375,-0.008246674202382565,-0.008857538923621178,0
1707003633773585400,18.62458544921875,-0.0015271619195118546,-0.007635809946805239,-0.001832594396546483
1707003633792542500,18.64354248046875,-0.004276053514331579,-0.0027488914784044027,-0.006719512399286032
1707003633811499800,18.662499755859375,-0.004886918235570192,0.004276053514331579,-0.004581485874950886
1707003633830456600,18.68145654296875,0.004276053514331579,0.004886918235570192,-0.005192350596189499
1707003633849413600,18.70041357421875,0.004581485874950886,0.0015271619195118546,-0.010995565913617611
1707003633868370700,18.71937060546875,-0.000610864779446274,-0.01893680728971958,-0.014966187067329884
1707003633887327700,18.73832763671875,-0.0030543238390237093,-0.02932151034474373,-0.013133592903614044
1707003633906284800,18.757284912109377,-0.002443459117785096,-0.015271619893610477,-0.01802051067352295
1707003633925241900,18.776241943359373,-0.0009162971982732415,0.0054977829568088055,-0.015271619893610477
1707003633944199000,18.795198974609374,0.001832594396546483,0.013744457624852657,-0.00946840364485979
1707003633963156000,18.814156005859374,0.003359756199643016,0.01649334840476513,-0.007330377586185932
1707003633982113000,18.833113037109374,0.003970621153712273,0.016798781231045723,-0.00946840364485979
1707003634001070000,18.852070068359374,-0.000610864779446274,0.011911863461136818,-0.011300998739898205
1707003634020027100,18.871027099609375,-0.007635809946805239,0.0054977829568088055,-0.007941242307424545
1707003634038984000,18.88998388671875,-0.005803215317428112,-0.009162971749901772,-0.005803215317428112
1707003634057941000,18.90894091796875,0.004276053514331579,-0.023823726922273636,-0.006719512399286032
1707003634076898000,18.92789794921875,0.008246674202382565,-0.03695731982588768,-0.005803215317428112
1707003634095855000,18.946855224609376,0.004276053514331579,-0.04581485688686371,-0.008552107028663158
1707003634114812200,18.965812255859376,-0.0021380267571657896,-0.040317077189683914,-0.007330377586185932
1707003634133769200,18.984769287109376,-0.005192350596189499,-0.018325943499803543,-0.003359756199643016
1707003634152726300,19.003726318359377,-0.000305432389723137,0.008246674202382565,-0.0009162971982732415
1707003634171683300,19.022683349609373,0.004581485874950886,0.02718348242342472,-0.001221729558892548
1707003634190640400,19.041640380859373,0.0015271619195118546,0.029932374134659767,-0.007941242307424545
1707003634209597400,19.060597412109374,-0.004886918235570192,0.023212861269712448,-0.01435532234609127
1707003634228554200,19.07955419921875,-0.008552107028663158,0.023212861269712448,-0.015577051788568497
1707003634247511600,19.098511474609374,-0.002443459117785096,0.021685699000954628,-0.010995565913617611
1707003634266468400,19.11746826171875,0.007635809946805239,0.019242240116000175,-0.011606430634856224
1707003634285425400,19.13642529296875,0.011911863461136818,0.014966187067329884,-0.012522728182375431
1707003634304382500,19.155382568359375,0.0054977829568088055,0.011911863461136818,-0.007330377586185932
1707003634323339500,19.174339599609375,-0.0015271619195118546,0.010995565913617611,-0.005803215317428112
1707003634342296600,19.193296630859376,0.005803215317428112,-0.001221729558892548,-0.003665188793092966
1707003634361253600,19.212253662109376,0.008857538923621178,-0.022907428443431854,-0.004886918235570192
1707003634380210700,19.231210693359376,-0.001221729558892548,-0.031154103577136993,-0.003665188793092966
1707003634399167700,19.250167724609376,0.0015271619195118546,-0.025961752980947495,-0.0009162971982732415
1707003634418124500,19.26912451171875,0.011300998739898205,-0.013439024798572063,-0.00946840364485979
1707003634437081900,19.288081787109373,0.005192350596189499,-0.003665188793092966,-0.008552107028663158
1707003634456038700,19.30703857421875,-0.005192350596189499,-0.022296564653515816,-0.002443459117785096
1707003634474995700,19.32599560546875,0.000305432389723137,-0.032070402055978775,0.001832594396546483
1707003634493952800,19.344952880859374,0.009162971749901772,-0.023823726922273636,-0.007024944759905338
1707003634512909800,19.363909912109374,0.007330377586185932,-0.006414080038666725,-0.018631376326084137
1707003634531867000,19.382866943359375,0.003970621153712273,0.015577051788568497,-0.02626718580722809
1707003634550824000,19.401823974609375,0.009162971749901772,0.047952886670827866,-0.022907428443431854
1707003634569781000,19.420781005859375,0.013439024798572063,0.0717766135931015,-0.019853105768561363
1707003634588738000,19.439738037109375,0.01802051067352295,0.08643736690282822,-0.014660755172371864
1707003634607694800,19.45869482421875,0.023518294095993042,0.09407317638397217,-0.015271619893610477
1707003634626652200,19.477652099609376,0.03695731982588768,0.09865466505289078,-0.029626941308379173
1707003634645609000,19.49660888671875,0.05100720748305321,0.09804379940032959,-0.04153880476951599
1707003634664566000,19.51556591796875,0.06352993845939636,0.08521563559770584,-0.0360410213470459
1707003634683523000,19.534523193359377,0.07147117704153061,0.051618073135614395,-0.02260199747979641
1707003634702480100,19.553480224609373,0.08002328872680664,0.029016077518463135,-0.006414080038666725
1707003634721437200,19.572437255859374,0.08674279600381851,0.0204639695584774,-0.005192350596189499
1707003634740394200,19.591394287109374,0.08368847519159317,0.0030543238390237093,-0.0204639695584774
1707003634759351300,19.610351318359374,0.06444623321294785,-0.043371398001909256,-0.036651886999607086
1707003634778308000,19.62930810546875,0.05192350596189499,-0.09040798991918564,-0.01435532234609127
1707003634797265400,19.648265380859375,0.053756099194288254,-0.0922405794262886,0.010995565913617611
1707003634816222200,19.66722216796875,0.04978547990322113,-0.053756099194288254,0.011300998739898205
1707003634835179300,19.68617919921875,0.05253437161445618,0,0.008552107028663158
1707003634854136300,19.70513623046875,0.07635809481143951,0.0565049909055233,-0.001832594396546483
1707003634873093400,19.72409326171875,0.09865466505289078,0.1029307171702385,-0.026572618633508682
1707003634892050400,19.743050537109376,0.10354158282279968,0.10506874322891235,-0.05406153202056885
1707003634911007500,19.762007568359376,0.10323614627122879,0.05222893878817558,-0.07147117704153061
1707003634929964500,19.780964599609376,0.08949168771505356,-0.020158538594841957,-0.07635809481143951
1707003634948921300,19.79992138671875,0.06719512492418289,-0.0824667438864708,-0.07086031138896942
1707003634967878400,19.81887841796875,0.03817904740571976,-0.11056652665138245,-0.0409279391169548
1707003634986835500,19.83783544921875,0.022907428443431854,-0.07757982611656189,-0.014966187067329884
1707003635005792500,19.85679248046875,0.021380268037319183,0.008246674202382565,-0.004886918235570192
1707003635024749600,19.87574951171875,0.014966187067329884,0.09315688163042068,-0.014660755172371864
1707003635043706600,19.89470654296875,0.014966187067329884,0.12431098520755768,-0.018631376326084137
1707003635062663700,19.91366357421875,0.03145953640341759,0.12003492563962936,-0.01740964688360691
1707003635081620500,19.932620361328127,0.034208428114652634,0.09926552325487137,-0.03390299528837204
1707003635100577500,19.95157763671875,0.01893680728971958,0.06017018109560013,-0.05864302068948746
1707003635119534600,19.97053466796875,0.018325943499803543,0.024740023538470268,-0.05742128938436508
1707003635138491600,19.98949169921875,0.03695731982588768,-0.0054977829568088055,-0.03145953640341759
1707003635157448700,20.00844873046875,0.05192350596189499,-0.02932151034474373,-0.017715077847242355
1707003635176405800,20.02740576171875,0.0461202897131443,-0.04734202101826668,-0.015577051788568497
1707003635195362600,20.046362548828125,0.03237583488225937,-0.05803215503692627,-0.014966187067329884
1707003635214319900,20.06531982421875,0.023823726922273636,-0.061391908675432205,-0.019853105768561363
1707003635233276700,20.084276611328125,0.01802051067352295,-0.04978547990322113,-0.020769402384757996
1707003635252233700,20.103233642578125,0.01740964688360691,-0.0308486707508564,-0.017715077847242355
1707003635271190800,20.122190673828126,0.019242240116000175,-0.013133592903614044,-0.010690134018659592
1707003635290147800,20.14114794921875,0.014049889519810677,0.009773836471140385,-0.01802051067352295
1707003635309104600,20.160104736328126,0.015271619893610477,0.023823726922273636,-0.026878049597144127
1707003635328062000,20.17906201171875,0.021685699000954628,0.035735588520765305,-0.035735588520765305
1707003635347018800,20.198018798828127,0.03176496922969818,0.026878049597144127,-0.03695731982588768
1707003635365975800,20.216975830078123,0.04214967042207718,0.007941242307424545,-0.03145953640341759
1707003635384932900,20.235932861328124,0.04153880476951599,0.008857538923621178,-0.0308486707508564
1707003635403890000,20.254889892578124,0.035124726593494415,0.03176496922969818,-0.046425722539424896
1707003635422847000,20.273846923828124,0.03634645417332649,0.05589412897825241,-0.04917461425065994
1707003635441804000,20.292803955078124,0.0308486707508564,0.08155044913291931,-0.026572618633508682
1707003635460760800,20.3117607421875,0.03756818547844887,0.06017018109560013,0.010079269297420979
1707003635479718000,20.3307177734375,0.03848448023200035,0.020769402384757996,0.0027488914784044027
1707003635498675000,20.349675048828125,0.013133592903614044,-0.053145237267017365,-0.003359756199643016
1707003635517632000,20.368632080078125,0.008552107028663158,-0.12034036219120026,0
1707003635536589000,20.387589111328126,-0.019853105768561363,-0.17776164412498474,0.007024944759905338
1707003635555546000,20.406546142578126,-0.01282816007733345,-0.21685700118541718,0.04214967042207718
1707003635574503000,20.4255029296875,0.0030543238390237093,-0.24740023910999298,0.05528326332569122
1707003635593460000,20.4444599609375,-0.01435532234609127,-0.24434591829776764,0.07238747924566269
1707003635612417000,20.4634169921875,0.007635809946805239,-0.22266021370887756,0.11942406743764877
1707003635631374000,20.4823740234375,0.001221729558892548,-0.19853104650974274,0.08307760953903198
1707003635650331100,20.5013310546875,-0.018631376326084137,-0.23182319104671478,0.06017018109560013
1707003635669288200,20.5202880859375,0.025961752980947495,-0.235793799161911,0.0720820426940918
1707003635688245000,20.539244873046876,-0.01282816007733345,-0.15577052533626556,0.01649334840476513
1707003635707202000,20.5582021484375,-0.007635809946805239,-0.05345066636800766,-0.006108647678047419
1707003635726159000,20.5771591796875,-0.05436696484684944,0.04520399495959282,-0.015271619893610477
1707003635745116200,20.5961162109375,0.018631376326084137,0.1954767256975174,0.048563748598098755
1707003635764073200,20.6150732421875,0.004276053514331579,0.2706131041049957,0.00946840364485979
1707003635783030300,20.6340302734375,0.05345066636800766,0.2626718580722809,0.026572618633508682
1707003635801987000,20.652987060546874,0.04459312930703163,0.2098320573568344,-0.0015271619195118546
1707003635820944100,20.671944091796874,0.012522728182375431,0.08582650125026703,-0.011911863461136818
1707003635839901200,20.690901123046874,-0.01740964688360691,-0.0565049909055233,0.01802051067352295
1707003635858858200,20.709858154296874,-0.01740964688360691,-0.16584978997707367,0.05864302068948746
1707003635877815300,20.728815185546875,-0.010384701192378998,-0.2101374864578247,0.07116574794054031
1707003635896772000,20.747772216796875,-0.003359756199643016,-0.23823726177215576,0.04978547990322113
1707003635915729200,20.766729248046875,-0.02107483521103859,-0.21899501979351044,0.04459312930703163
1707003635934686200,20.785686279296876,-0.046425722539424896,-0.18173226714134216,0.0308486707508564
1707003635953643300,20.804643310546876,-0.03634645417332649,-0.16065743565559387,0.03543015569448471
1707003635972600000,20.82360009765625,-0.023212861269712448,-0.11911863088607788,0.05345066636800766
1707003635991557400,20.842557373046876,-0.035124726593494415,-0.048563748598098755,0.06200277432799339
1707003636010514200,20.86151416015625,-0.03817904740571976,0.03023780696094036,0.053145237267017365
1707003636029471200,20.88047119140625,-0.013133592903614044,0.09865466505289078,0.010079269297420979
1707003636048428300,20.89942822265625,0.008857538923621178,0.1337793916463852,-0.027488915249705315
1707003636067385300,20.91838525390625,0.010384701192378998,0.11606431007385254,-0.020158538594841957
1707003636086342100,20.937342041015626,0.008246674202382565,0.06108647957444191,-0.001221729558892548
1707003636105299200,20.95629931640625,0.023823726922273636,-0.010690134018659592,0.008246674202382565
1707003636124256300,20.97525634765625,0.01802051067352295,-0.06352993845939636,0.006108647678047419
1707003636143213300,20.99421337890625,-0.014966187067329884,-0.08368847519159317,-0.011606430634856224
1707003636162170400,21.01317041015625,-0.04367683082818985,-0.057726722210645676,-0.03481929376721382
1707003636181127400,21.03212744140625,-0.043371398001909256,-0.000305432389723137,-0.029626941308379173
1707003636200084200,21.051084228515624,-0.01588248461484909,0.03817904740571976,0.011300998739898205
1707003636219041300,21.070041259765624,-0.007941242307424545,0.053756099194288254,0.039706211537122726
1707003636237998300,21.088998291015624,-0.034208428114652634,0.056199558079242706,0.023823726922273636
1707003636256955400,21.107955322265624,-0.05497783049941063,0.06536252796649933,-0.018631376326084137
1707003636275912400,21.126912353515625,-0.03940077871084213,0.05925388261675835,-0.035124726593494415
1707003636294869200,21.145869140625,-0.006414080038666725,0.01802051067352295,-0.0015271619195118546
1707003636313826300,21.164826416015625,0.014049889519810677,-0.05345066636800766,0.031154103577136993
1707003636332783400,21.183783447265625,-0.001221729558892548,-0.12095122784376144,0.03145953640341759
1707003636351740400,21.202740478515626,-0.025045456364750862,-0.16798780858516693,0.018631376326084137
1707003636370697500,21.221697509765626,-0.029932374134659767,-0.20341797173023224,0.02412915788590908
1707003636389654500,21.240654541015626,-0.028405211865901947,-0.22235478460788727,0.056199558079242706
1707003636408611300,21.259611328125,-0.03756818547844887,-0.21807873249053955,0.06780599057674408
1707003636427568400,21.278568359375,-0.05833758786320686,-0.18784092366695404,0.06261363625526428
1707003636446525400,21.297525390625,-0.061391908675432205,-0.16737695038318634,0.05406153202056885
1707003636465482500,21.316482421875,-0.04306596517562866,-0.1536324918270111,0.0461202897131443
1707003636484439600,21.335439453125,-0.037262752652168274,-0.15546508133411407,0.021380268037319183
1707003636503396600,21.354396728515624,-0.05039634555578232,-0.13958260416984558,0.004886918235570192
1707003636522353700,21.373353759765624,-0.056199558079242706,-0.07880155742168427,0.008857538923621178
1707003636541310700,21.392310791015625,-0.03390299528837204,-0.006108647678047419,0.022296564653515816
1707003636560267500,21.411267578125,-0.007941242307424545,0.02779434807598591,0.026572618633508682
1707003636579224600,21.430224609375,-0.008552107028663158,0.04550942778587341,0.01802051067352295
1707003636598181600,21.449181640625,-0.01802051067352295,0.057726722210645676,-0.003970621153712273
1707003636617138700,21.468138671875,-0.00946840364485979,0.054672397673130035,-0.021380268037319183
1707003636636095700,21.487095703125,0.001832594396546483,0.05742128938436508,-0.023823726922273636
1707003636655052800,21.506052734375,0.0015271619195118546,0.06505709886550903,-0.02412915788590908
1707003636674009900,21.525009765625,0.000610864779446274,0.056199558079242706,-0.017715077847242355
1707003636692966700,21.543966552734375,0.002443459117785096,0.03451386094093323,-0.026878049597144127
1707003636711923700,21.562923828125,-0.005803215317428112,0.03145953640341759,-0.04001164436340332
1707003636730880800,21.581880859375,-0.01740964688360691,0.029016077518463135,-0.03756818547844887
1707003636749837800,21.600837890625,-0.006108647678047419,-0.010079269297420979,-0.02626718580722809
1707003636768795000,21.619794921875,0.010384701192378998,-0.05039634555578232,-0.016187917441129684
1707003636787752000,21.638751953125,0.0009162971982732415,-0.06994401663541794,-0.015577051788568497
1707003636806709000,21.657708984375,-0.015271619893610477,-0.06536252796649933,-0.010690134018659592
1707003636825666000,21.676666015625,-0.01588248461484909,-0.036651886999607086,-0.012217295356094837
1707003636844623000,21.695623046875,-0.008857538923621178,0.010079269297420979,-0.017715077847242355
1707003636863580200,21.714580078125,-0.006414080038666725,0.04550942778587341,-0.01649334840476513
1707003636882537000,21.733536865234374,0.001221729558892548,0.060781046748161316,0.0027488914784044027
1707003636901494000,21.752493896484374,0.008552107028663158,0.04886918142437935,0.009162971749901772
1707003636920451000,21.771451171875,-0.002443459117785096,0.01649334840476513,-0.004886918235570192
1707003636939408100,21.790408203125,-0.01282816007733345,-0.024740023538470268,-0.012217295356094837
1707003636958365200,21.809365234375,-0.0054977829568088055,-0.05558869615197182,-0.010079269297420979
1707003636977322200,21.828322265625,0.006414080038666725,-0.05742128938436508,-0.007941242307424545
1707003636996279300,21.847279296875,0.013744457624852657,-0.057726722210645676,-0.008246674202382565
1707003637015236400,21.866236328125,0.011300998739898205,-0.05742128938436508,-0.003970621153712273
1707003637034193400,21.885193359375,0.0021380267571657896,-0.04306596517562866,-0.007941242307424545
1707003637053150500,21.904150390625,-0.00946840364485979,-0.008552107028663158,-0.008246674202382565
1707003637072107500,21.923107421875,-0.0021380267571657896,0.026572618633508682,-0.005192350596189499
1707003637091064600,21.942064697265625,0.004886918235570192,0.06352993845939636,-0.014660755172371864
1707003637110021600,21.961021728515625,-0.010995565913617611,0.10629047453403473,-0.025350889191031456
1707003637128978700,21.979978759765626,-0.020158538594841957,0.129197895526886,-0.015577051788568497
1707003637147935500,21.998935546875,0.007330377586185932,0.10659590363502502,-0.0027488914784044027
1707003637166892800,22.017892822265626,0.022907428443431854,0.0766635313630104,-0.009162971749901772
1707003637185849900,22.036849853515626,-0.0027488914784044027,0.07483093440532684,-0.021685699000954628
1707003637204806700,22.055806640625,-0.02626718580722809,0.09132428467273712,-0.025045456364750862
1707003637223763700,22.074763671875,0.000305432389723137,0.09101885557174683,-0.013744457624852657
1707003637242721000,22.093720947265624,0.03451386094093323,0.07574722915887833,-0.003359756199643016
1707003637261677800,22.112677734375,0.028405211865901947,0.048563748598098755,-0.004276053514331579
1707003637280635000,22.131634765625,-0.001221729558892548,0.01954767294228077,-0.009773836471140385
1707003637299592000,22.150592041015624,-0.015577051788568497,-0.01740964688360691,-0.009162971749901772
1707003637318549000,22.169549072265625,-0.006719512399286032,-0.02871064469218254,0.0030543238390237093
1707003637337506000,22.188506103515625,-0.0021380267571657896,-0.02871064469218254,0.016187917441129684
1707003637356463000,22.207463134765625,0.000305432389723137,-0.04734202101826668,0.01802051067352295
1707003637375420200,22.226420166015625,-0.003970621153712273,-0.06841685622930527,0.012217295356094837
1707003637394377200,22.245377197265626,0.001832594396546483,-0.10201441496610641,0.006108647678047419
1707003637413334300,22.264334228515626,0.015271619893610477,-0.1331685185432434,0.003665188793092966
1707003637432291300,22.283291259765626,0.003359756199643016,-0.12400554865598679,-0.01282816007733345
1707003637451248400,22.302248291015626,-0.018631376326084137,-0.06047561392188072,-0.033597562462091446
1707003637470205400,22.321205322265627,-0.02107483521103859,0.032681263983249664,-0.022296564653515816
1707003637489162500,22.34016259765625,0.0030543238390237093,0.09682206809520721,0.008552107028663158
1707003637508119600,22.35911962890625,0.021380268037319183,0.10018182545900345,0.014966187067329884
1707003637527076900,22.378076904296876,0.010384701192378998,0.07819069176912308,-0.016187917441129684
1707003637546033700,22.39703369140625,-0.017104214057326317,0.06017018109560013,-0.046425722539424896
1707003637564990700,22.41599072265625,-0.019853105768561363,0.033597562462091446,-0.04459312930703163
1707003637583947800,22.43494775390625,0.000610864779446274,0.013133592903614044,-0.02626718580722809
1707003637602905000,22.453905029296877,0.012522728182375431,0.018631376326084137,-0.012522728182375431
1707003637621862000,22.47286181640625,0.009162971749901772,0.0308486707508564,-0.0054977829568088055
1707003637640819000,22.49181884765625,0.0015271619195118546,0.022907428443431854,0.000305432389723137
1707003637659776000,22.51077587890625,-0.0054977829568088055,0.0027488914784044027,-0.002443459117785096
1707003637678733300,22.5297333984375,-0.003970621153712273,-0.014049889519810677,-0.009162971749901772
1707003637697690400,22.5486904296875,-0.0015271619195118546,-0.019853105768561363,-0.010384701192378998
1707003637716647200,22.567647216796875,-0.004581485874950886,-0.010384701192378998,0
1707003637735604200,22.586604248046875,0.005803215317428112,-0.013439024798572063,0.005803215317428112
1707003637754561500,22.6055615234375,0.015271619893610477,-0.032681263983249664,0.005803215317428112
1707003637773518600,22.6245185546875,0.0015271619195118546,-0.03817904740571976,-0.006414080038666725
1707003637792475600,22.6434755859375,-0.008552107028663158,-0.013439024798572063,-0.01588248461484909
1707003637811432400,22.662432373046876,0.006719512399286032,0.013439024798572063,-0.02260199747979641
1707003637830389800,22.6813896484375,0.01954767294228077,0.038789913058280945,-0.01282816007733345
1707003637849346800,22.700346923828125,0.003970621153712273,0.057726722210645676,-0.0021380267571657896
1707003637868304000,22.719303955078125,-0.014660755172371864,0.05894844979047775,-0.010384701192378998
1707003637887261000,22.738260986328125,-0.017715077847242355,0.054672397673130035,-0.014049889519810677
1707003637906218000,22.757218017578126,-0.010384701192378998,0.05345066636800766,-0.0021380267571657896
1707003637925175000,22.776175048828126,0.004581485874950886,0.037262752652168274,-0.000305432389723137
1707003637944132000,22.795132080078126,0.010690134018659592,0.002443459117785096,-0.003970621153712273
1707003637963089200,22.814089111328126,0.002443459117785096,-0.04825831577181816,-0.0030543238390237093
1707003637982046200,22.833046142578127,-0.012522728182375431,-0.08460476994514465,0.005803215317428112
1707003638001003300,22.852003173828123,-0.004276053514331579,-0.1182023361325264,0.0054977829568088055
