time,seconds_elapsed,z,y,x
1707164788458581800,0.034581787109375,0,0,0
1707164788477541000,0.053541015625,0.0006246566772460938,-0.09899616241455078,0.06900262832641602
1707164788496500500,0.07250048828125,-0.1247553825378418,-0.214874267578125,-0.046938419342041016
1707164788515459800,0.0914599609375,-0.22949552536010742,-0.05841541290283203,-0.08372974395751953
1707164788534419200,0.110419189453125,-0.15052461624145508,0.03691673278808594,-0.08937692642211914
1707164788553378600,0.129378662109375,-0.23431921005249023,-0.10167932510375977,-0.35300111770629883
1707164788572338000,0.148337890625,-0.5358734130859375,-0.14131927490234375,-0.7002620697021484
1707164788591297300,0.16729736328125,-0.7096991539001465,-0.4265151023864746,-0.9521331787109375
1707164788610256600,0.186256591796875,-0.9113731384277344,-0.3754615783691406,-0.8649654388427734
1707164788629216000,0.205216064453125,-0.7056636810302734,-0.15296173095703125,-0.6493351459503174
1707164788648175400,0.22417529296875,-0.25757789611816406,0.24411678314208984,0.27194809913635254
1707164788667134700,0.243134765625,-0.26322102546691895,0.07635879516601562,0.40143537521362305
1707164788686094300,0.26209423828125,-0.32280611991882324,-0.4633817672729492,-0.17072629928588867
1707164788705053700,0.2810537109375,-0.26569294929504395,-0.4537835121154785,-0.40961599349975586
1707164788724013000,0.300012939453125,-0.5345664024353027,0.18675613403320312,-0.3609037399291992
1707164788742972400,0.318972412109375,-0.40163373947143555,0.42753028869628906,0.12787294387817383
1707164788761931800,0.337931884765625,-0.2122354507446289,0.5451993942260742,0.6868705749511719
1707164788780891100,0.35689111328125,0.2388153076171875,0.2859530448913574,1.037215232849121
1707164788799850500,0.3758505859375,0.7242743968963623,0.32303571701049805,1.0765719413757324
1707164788818809900,0.394809814453125,0.5462205410003662,0.5126185417175293,1.0191097259521484
1707164788837769200,0.413769287109375,0.3263850212097168,0.7328066825866699,1.0146574974060059
1707164788856728600,0.432728515625,0.28916919231414795,0.8043036460876465,0.8351006507873535
1707164788875688000,0.45168798828125,0.6338703632354736,0.1252279281616211,0.9891700744628906
1707164788894647300,0.470647216796875,1.0080993175506592,0.6480159759521484,1.1047358512878418
1707164788913606700,0.489606689453125,0.7910350561141968,1.3768672943115234,1.208329200744629
1707164788932566000,0.50856591796875,0.5470125675201416,1.2894105911254883,1.2145843505859375
1707164788951525400,0.527525390625,0.4478471875190735,1.166001319885254,1.096135139465332
1707164788970485000,0.546485107421875,0.047194600105285645,0.8664083480834961,0.6508975028991699
1707164788989444400,0.5654443359375,-0.2294348031282425,0.28884220123291016,0.02116107940673828
1707164789008403700,0.58440380859375,-0.46764692664146423,0.8637676239013672,-0.4653308391571045
1707164789027363000,0.603363037109375,-0.6172224283218384,0.9926862716674805,-0.5281269550323486
1707164789046322400,0.622322509765625,-0.6704407334327698,0.6763591766357422,-0.5565915107727051
1707164789065281800,0.64128173828125,-0.885089635848999,0.6856222152709961,-0.2994112968444824
1707164789084241200,0.6602412109375,-1.0600172281265259,0.8625497817993164,0.158095121383667
1707164789103200500,0.679200439453125,-1.0332555770874023,0.7905521392822266,0.41576051712036133
1707164789122159900,0.698159912109375,-0.8112740516662598,0.4922199249267578,0.5242009162902832
1707164789141119200,0.717119140625,-0.6692496538162231,0.4257822036743164,0.7296068668365479
1707164789160078600,0.73607861328125,-0.7509404420852661,0.5286235809326172,0.9292113780975342
1707164789179038000,0.755037841796875,-0.7347588539123535,0.44650840759277344,1.0257728099822998
1707164789197997300,0.773997314453125,-0.5738909244537354,0.27171897888183594,1.1796793937683105
1707164789216956700,0.792956787109375,-0.4651489853858948,0.16059112548828125,1.1293892860412598
1707164789235916000,0.811916015625,-0.476202130317688,0.1488018035888672,0.991059422492981
1707164789254875400,0.83087548828125,-0.5729832649230957,0.03263378143310547,0.8007643222808838
1707164789273834800,0.849834716796875,-0.5419243574142456,-0.10062789916992188,0.6410142183303833
1707164789292794400,0.86879443359375,-0.5181056261062622,-0.20708084106445312,0.5779905319213867
1707164789311753700,0.887753662109375,-0.3698606491088867,-0.13387107849121094,0.4820427894592285
1707164789330713000,0.906713134765625,-0.34619367122650146,-0.010479927062988281,0.26472318172454834
1707164789349672400,0.92567236328125,-0.3566088378429413,0.14889907836914062,0.1028066873550415
1707164789368631800,0.9446318359375,-0.265519380569458,0.07185649871826172,-0.06658625602722168
1707164789387591200,0.963591064453125,-0.1276075839996338,-0.21358394622802734,0.07446956634521484
1707164789406550500,0.982550537109375,-0.06934434175491333,-0.2571077346801758,0.36952710151672363
1707164789425510000,1.001510009765625,-0.06336820125579834,-0.12043380737304688,0.43851304054260254
1707164789444469200,1.02046923828125,-0.05864977836608887,-0.05724334716796875,0.4861438274383545
1707164789463428600,1.0394287109375,-0.11785197257995605,-0.04441356658935547,0.4287072420120239
1707164789482388200,1.05838818359375,-0.25518274307250977,-0.1656808853149414,0.3739137649536133
1707164789501347600,1.07734765625,-0.3261364698410034,-0.4088411331176758,0.42015206813812256
1707164789520307000,1.096306884765625,-0.2528761625289917,-0.5250701904296875,0.37147510051727295
1707164789539266300,1.115266357421875,-0.4847089648246765,-0.5635690689086914,0.1263190507888794
1707164789558225700,1.1342255859375,-0.783642053604126,-0.41202831268310547,-0.033774733543395996
1707164789577185300,1.153185302734375,-0.8144828081130981,-0.2881040573120117,-0.2513134479522705
1707164789596144600,1.17214453125,-0.695738673210144,-0.33613014221191406,-0.32366764545440674
1707164789615104000,1.19110400390625,-0.5697270631790161,-0.40334606170654297,-0.24530911445617676
1707164789634063400,1.2100634765625,-0.33808910846710205,-0.3421611785888672,0.137597918510437
1707164789653022700,1.229022705078125,-0.12236690521240234,-0.267486572265625,0.4029688835144043
1707164789671982000,1.247982177734375,-0.008781075477600098,-0.2518463134765625,0.3888434171676636
1707164789690941400,1.26694140625,-0.05823850631713867,-0.3171119689941406,0.3147742748260498
1707164789709901000,1.285901123046875,-0.1718655824661255,-0.20168495178222656,0.19810199737548828
1707164789728860400,1.3048603515625,-0.17494070529937744,-0.05628776550292969,0.06456315517425537
1707164789747819800,1.32381982421875,-0.05495727062225342,0.005049705505371094,0.027278780937194824
1707164789766779100,1.342779052734375,0.028446674346923828,-0.050316810607910156,0.09598636627197266
1707164789785738500,1.361738525390625,0.11109840869903564,0.013347625732421875,0.15131723880767822
1707164789804698000,1.380697998046875,0.16230106353759766,0.10168647766113281,0.13614606857299805
1707164789823657200,1.3996572265625,0.11381292343139648,0.1259918212890625,0.04714703559875488
1707164789842616800,1.418616943359375,0.06470382213592529,0.14948177337646484,-0.00023412704467773438
1707164789861576200,1.437576171875,0.08718085289001465,0.14220714569091797,0.00594019889831543
1707164789880535800,1.456535888671875,0.1216040849685669,0.0926980972290039,0.06669378280639648
1707164789899495200,1.4754951171875,0.057797908782958984,0.07726287841796875,0.1022719144821167
1707164789918454500,1.49445458984375,-0.008388638496398926,0.09100055694580078,0.005637764930725098
1707164789937414000,1.513413818359375,-0.1544475555419922,0.06282997131347656,0.00043714046478271484
1707164789956373500,1.53237353515625,-0.20476984977722168,0.013865470886230469,-0.08733236789703369
1707164789975332900,1.551332763671875,-0.18936222791671753,-0.04378795623779297,-0.05074739456176758
1707164789994292200,1.570292236328125,-0.16292965412139893,-0.023473739624023438,0.0009779930114746094
1707164790013251600,1.58925146484375,-0.1751391887664795,0.02201080322265625,0.04484403133392334
1707164790032211200,1.608211181640625,-0.11277735233306885,0.0793142318725586,0.09396183490753174
1707164790051170600,1.627170654296875,-0.0399092435836792,0.11718177795410156,0.17459869384765625
1707164790070130000,1.6461298828125,-0.016155600547790527,0.11754035949707031,0.2311331033706665
1707164790089089300,1.66508935546875,-0.004327297210693359,0.13113880157470703,0.2793828248977661
1707164790108049000,1.684048828125,-0.040611863136291504,0.16374588012695312,0.28760409355163574
1707164790127008300,1.70300830078125,0.006738424301147461,0.061011314392089844,0.26949191093444824
1707164790145967600,1.721967529296875,0.03139054775238037,-0.08444976806640625,0.23379206657409668
1707164790164927000,1.740927001953125,0.0036106109619140625,-0.18359088897705078,0.1587010622024536
1707164790183886600,1.759886474609375,-0.08896124362945557,-0.22896385192871094,0.05092155933380127
1707164790202846000,1.778845947265625,-0.178216814994812,-0.19853782653808594,-0.04331159591674805
1707164790221805300,1.797805419921875,-0.1916975975036621,-0.22657299041748047,-0.1029963493347168
1707164790240765000,1.816764892578125,-0.24599707126617432,-0.22878265380859375,-0.22288405895233154
1707164790259724300,1.835724365234375,-0.26083624362945557,-0.029489517211914062,-0.16460847854614258
1707164790278683600,1.85468359375,-0.18519341945648193,0.01906871795654297,-0.014858365058898926
1707164790297643300,1.873643310546875,-0.12781953811645508,0.02416706085205078,0.12131333351135254
1707164790316602600,1.8926025390625,-0.07180380821228027,0.0020341873168945312,0.1361217498779297
1707164790335562000,1.91156201171875,0.007532238960266113,-0.08887577056884766,0.09209299087524414
1707164790354521600,1.930521484375,0.03124213218688965,-0.0699911117553711,0.04583728313446045
1707164790373481000,1.94948095703125,-0.00823831558227539,-0.04886341094970703,0.05881226062774658
1707164790392440600,1.968440673828125,-0.047701239585876465,0.005101203918457031,0.060799479484558105
1707164790411400000,1.98739990234375,-0.07921016216278076,-0.012889862060546875,0.04646778106689453
1707164790430359300,2.006359375,-0.047801971435546875,-0.016962051391601562,0.04909062385559082
1707164790449319000,2.02531884765625,-0.0806545615196228,-0.10406494140625,0.027240872383117676
1707164790468278300,2.0442783203125,-0.056362271308898926,-0.16144943237304688,-0.008539319038391113
1707164790487237600,2.063237548828125,-0.09868305921554565,-0.11758899688720703,-0.02765953540802002
1707164790506197200,2.082197265625,-0.14678263664245605,-0.13807010650634766,-0.028122425079345703
1707164790525156600,2.101156494140625,-0.1012183427810669,-0.15475177764892578,0.02448558807373047
1707164790544116200,2.1201162109375,0.04104948043823242,-0.2750968933105469,0.04971170425415039
1707164790563075600,2.13907568359375,0.07052576541900635,-0.32230186462402344,0.05559957027435303
1707164790582035000,2.158034912109375,0.0443345308303833,-0.22338390350341797,0.06332910060882568
1707164790600994600,2.17699462890625,0.021751046180725098,-0.12697315216064453,0.05433475971221924
1707164790619954000,2.195953857421875,0.04416489601135254,0.023382186889648438,0.08537149429321289
1707164790638913500,2.21491357421875,-0.03612101078033447,0.2801094055175781,0.12943267822265625
1707164790657873000,2.233872802734375,-0.024413585662841797,0.4562816619873047,0.22364473342895508
1707164790676832300,2.252832275390625,0.06663286685943604,0.36861228942871094,0.35422492027282715
1707164790695791900,2.2717919921875,0.09183001518249512,0.22357940673828125,0.591425895690918
1707164790714751200,2.290751220703125,-0.0318031907081604,0.1323862075805664,0.712030291557312
1707164790733710600,2.309710693359375,-0.3073127269744873,0.07446002960205078,0.7480918169021606
1707164790752670200,2.328670166015625,-0.4376053810119629,-0.09534263610839844,0.6312031745910645
1707164790771629600,2.347629638671875,-0.46505045890808105,-0.2636909484863281,0.6324522495269775
1707164790790589200,2.366589111328125,-0.4884355664253235,-0.3108062744140625,0.7315163612365723
1707164790809548500,2.385548583984375,-0.5789809226989746,-0.37467384338378906,0.7676794528961182
1707164790828508200,2.404508056640625,-0.5316134691238403,-0.3844127655029297,0.7266836166381836
1707164790847467500,2.423467529296875,-0.3790934085845947,-0.5337028503417969,0.7437528371810913
1707164790866427100,2.44242724609375,-0.3303564786911011,-0.47685813903808594,0.7797517776489258
1707164790885386500,2.461386474609375,-0.3485114574432373,-0.27611351013183594,0.7571202516555786
1707164790904346000,2.48034619140625,-0.334677517414093,-0.07141971588134766,0.6053297519683838
1707164790923305500,2.499305419921875,-0.3399922847747803,-0.3423442840576172,0.6583384275436401
1707164790942265000,2.51826513671875,-0.328527569770813,-0.3242177963256836,0.6734079122543335
1707164790961224400,2.537224365234375,-0.4526880979537964,-0.3713722229003906,0.6675001382827759
1707164790980183800,2.556183837890625,-0.4470716714859009,-0.5139169692993164,0.6315327882766724
1707164790999143400,2.575143310546875,-0.6485861539840698,-0.5859460830688477,0.6092694997787476
1707164791018103000,2.59410302734375,-0.7749060988426208,-0.633204460144043,0.8310097455978394
1707164791037062400,2.6130625,-0.7791181206703186,-0.6670970916748047,1.0892844200134277
1707164791056022000,2.63202197265625,-0.6766878962516785,-0.606257438659668,1.2940545082092285
1707164791074981400,2.6509814453125,-0.6266374588012695,-0.5871381759643555,1.3713675737380981
1707164791093941000,2.66994091796875,-0.689749538898468,-0.4627094268798828,1.3733763694763184
1707164791112900400,2.688900390625,-0.9067508578300476,-0.30185890197753906,1.2807822227478027
1707164791131860000,2.70785986328125,-1.0784025192260742,-0.2832937240600586,1.289394497871399
1707164791150819300,2.7268193359375,-1.1677908897399902,-0.16926860809326172,1.410399079322815
1707164791169779000,2.745779052734375,-1.2601323127746582,0.0778493881225586,1.6765170097351074
1707164791188738300,2.76473828125,-1.1571180820465088,0.33561134338378906,2.001695156097412
1707164791207698000,2.783697998046875,-0.9437076449394226,0.5276403427124023,2.045422077178955
1707164791226657300,2.8026572265625,-0.7256531715393066,0.7772064208984375,1.8396077156066895
1707164791245617000,2.821616943359375,-0.35956788063049316,1.0986862182617188,1.7883930206298828
1707164791264576300,2.840576171875,-0.25126731395721436,2.0244483947753906,1.1763319969177246
1707164791283536000,2.859535888671875,-0.3692193031311035,3.227029800415039,-0.10313573479652405
1707164791302495200,2.8784951171875,0.6441283226013184,4.057622909545898,0.00969839096069336
1707164791321454800,2.897454833984375,1.6770750284194946,3.3828306198120117,0.5059189796447754
1707164791340414500,2.91641455078125,1.8488144874572754,2.441324234008789,0.6095530986785889
1707164791359373800,2.935373779296875,1.2804733514785767,2.2028465270996094,-0.7548600435256958
1707164791378333200,2.954333251953125,0.5817859172821045,2.3278303146362305,-2.1825692653656006
1707164791397292800,2.973292724609375,0.29145026206970215,2.384580612182617,-2.5271668434143066
1707164791416252400,2.99225244140625,0.4946615695953369,1.8542509078979492,-1.8123478889465332
1707164791435211800,3.011211669921875,0.502708911895752,0.7662286758422852,-1.095264196395874
1707164791454171400,3.03017138671875,0.5530814528465271,0.12735748291015625,-0.7702062726020813
1707164791473130800,3.049130859375,0.5211623907089233,-0.0029506683349609375,-0.6412913799285889
1707164791492090400,3.06809033203125,0.4991942048072815,-0.2383289337158203,-0.7100851535797119
1707164791511050000,3.087050048828125,0.7013508081436157,-0.4436616897583008,-0.9513971209526062
1707164791530009300,3.10600927734375,0.8121827244758606,-0.5393438339233398,-1.2028043270111084
1707164791548968700,3.12496875,0.7428596019744873,-0.6085176467895508,-1.412206768989563
1707164791567928300,3.14392822265625,0.4350396692752838,-0.8617286682128906,-1.7039854526519775
1707164791586888000,3.162887939453125,0.05179053544998169,-1.193345069885254,-1.8291785717010498
1707164791605847300,3.181847412109375,-0.25074639916419983,-1.4847984313964844,-1.9443087577819824
1707164791624807000,3.200806884765625,-0.28460967540740967,-1.8738946914672852,-1.9347525835037231
1707164791643766500,3.2197666015625,-0.3226208984851837,-2.3628902435302734,-2.031017780303955
1707164791662726000,3.238725830078125,-0.41585755348205566,-2.593266487121582,-1.973576545715332
1707164791681685500,3.257685546875,-0.5300009250640869,-2.313241958618164,-1.6744352579116821
1707164791700644900,3.276644775390625,-0.5939903259277344,-2.0115437507629395,-1.4202525615692139
1707164791719604500,3.2956044921875,-0.5761889815330505,-1.863565444946289,-1.352980375289917
1707164791738563800,3.314563720703125,-0.4478297233581543,-1.816899299621582,-1.306809902191162
1707164791757523500,3.3335234375,-0.42994511127471924,-1.6615972518920898,-1.104715347290039
1707164791776483000,3.352483154296875,-0.5353119373321533,-1.1525402069091797,-0.8331761360168457
1707164791795442400,3.3714423828125,-0.697586178779602,-0.5298185348510742,-0.681037187576294
1707164791814402000,3.390402099609375,-0.7739567756652832,-0.07132720947265625,-0.7777056694030762
1707164791833361400,3.409361328125,-0.763464093208313,0.4108753204345703,-0.7904191017150879
1707164791852321000,3.428321044921875,-0.664350688457489,1.3474063873291016,-0.8306865692138672
1707164791871280600,3.44728076171875,-0.6619263887405396,2.549668312072754,-0.7475218772888184
1707164791890240000,3.466239990234375,-0.271694540977478,3.605091094970703,-0.06906604766845703
1707164791909199600,3.48519970703125,0.5129838585853577,4.19066047668457,0.27013492584228516
1707164791928159200,3.5041591796875,1.2075284719467163,4.151415824890137,0.15375900268554688
1707164791947118600,3.52311865234375,1.0455049276351929,4.287496566772461,-0.5150604248046875
1707164791966078200,3.542078125,0.2018679976463318,5.89223575592041,-0.6717348098754883
1707164791985037600,3.56103759765625,0.3973836898803711,6.810431480407715,-0.44722795486450195
1707164792003997200,3.5799970703125,1.8334530591964722,5.102198600769043,-0.9652996063232422
1707164792022956800,3.598956787109375,2.9020678997039795,3.158036231994629,-1.2888646125793457
1707164792041916200,3.617916259765625,3.971132278442383,1.4896430969238281,-1.3224356174468994
1707164792060875800,3.636875732421875,4.223836421966553,-0.3297615051269531,-1.929309368133545
1707164792079835400,3.65583544921875,3.540637731552124,-0.9076080322265625,-2.2647900581359863
1707164792098794800,3.674794677734375,2.378859281539917,-0.737004280090332,-2.4186902046203613
1707164792117754400,3.69375439453125,1.123903751373291,-0.7236509323120117,-2.7717530727386475
1707164792136714000,3.7127138671875,0.1407390832901001,-0.9394092559814453,-2.994413375854492
1707164792155673300,3.73167333984375,-0.4928669333457947,-1.1641559600830078,-2.9370241165161133
1707164792174633000,3.750633056640625,-0.7066047191619873,-1.4848957061767578,-2.403268337249756
1707164792193592600,3.769592529296875,-0.5837644934654236,-2.1397857666015625,-1.5095528364181519
1707164792212552000,3.788552001953125,-0.3595677614212036,-2.872468948364258,-0.6103734970092773
1707164792231511600,3.807511474609375,-0.31761908531188965,-3.4673566818237305,0.0476231575012207
1707164792250471000,3.826470947265625,-0.44363850355148315,-3.7539238929748535,0.48563551902770996
1707164792269430500,3.845430419921875,-0.519881546497345,-3.7677927017211914,0.8261256217956543
1707164792288390100,3.86439013671875,-0.571558952331543,-3.446946620941162,1.1641623973846436
1707164792307349800,3.883349853515625,-0.599336564540863,-2.8002777099609375,1.33856999874115
1707164792326309000,3.90230908203125,-0.5657105445861816,-1.9814949035644531,1.396730661392212
1707164792345268700,3.921268798828125,-0.5309180617332458,-1.3531389236450195,1.2938772439956665
1707164792364228000,3.94022802734375,-0.5090861320495605,-0.7944011688232422,1.1780604124069214
1707164792383187700,3.959187744140625,-0.5102494955062866,-0.5222177505493164,1.1948341131210327
1707164792402147300,3.978147216796875,-0.45000094175338745,0.08279991149902344,1.1382571458816528
1707164792421106700,3.997106689453125,-0.4158657193183899,0.8289060592651367,1.0147676467895508
1707164792440066300,4.01606640625,-0.08791571855545044,1.2341423034667969,0.6627243757247925
1707164792459026000,4.03502587890625,0.3393057584762573,2.1133928298950195,1.3406329154968262
1707164792477985300,4.0539853515625,0.7246910333633423,2.561038017272949,2.3212928771972656
1707164792496945000,4.07294482421875,0.7946125268936157,3.121027946472168,1.8672500848770142
1707164792515904500,4.091904541015625,0.07540249824523926,4.36625862121582,0.4198228120803833
1707164792534864000,4.11086376953125,1.2563955783843994,5.617016792297363,0.7062637805938721
1707164792553823500,4.129823486328125,2.508711338043213,6.070028305053711,1.1828739643096924
1707164792572783000,4.148783203125,2.0165815353393555,4.042807579040527,0.26065510511398315
1707164792591742500,4.167742431640625,1.417196273803711,1.710026741027832,-1.574110984802246
1707164792610702000,4.1867021484375,0.42978668212890625,0.6544294357299805,-2.640462875366211
1707164792629661700,4.20566162109375,-0.2711585462093353,0.11849594116210938,-2.581744432449341
1707164792648621000,4.22462109375,-0.029926955699920654,-0.40216636657714844,-2.162501096725464
1707164792667580700,4.24358056640625,0.16925305128097534,-0.25406646728515625,-1.4912221431732178
1707164792686540300,4.262540283203125,0.04005086421966553,0.25896453857421875,-1.0275583267211914
1707164792705499600,4.281499755859375,-0.2022237628698349,0.06278419494628906,-1.0730719566345215
1707164792724459300,4.300459228515625,-0.33232423663139343,-0.9577054977416992,-1.510221242904663
1707164792743419000,4.3194189453125,-0.25687500834465027,-2.214137077331543,-1.953303337097168
1707164792762378500,4.33837841796875,-0.025387782603502274,-3.248236656188965,-2.1410906314849854
1707164792781337900,4.357337890625,0.12631258368492126,-3.95261287689209,-2.157538890838623
1707164792800297500,4.37629736328125,0.15351128578186035,-4.140596866607666,-2.130924701690674
1707164792819256800,4.3952568359375,0.0012014657258987427,-3.7492494583129883,-1.992194652557373
1707164792838216400,4.414216552734375,-0.31231239438056946,-3.1219043731689453,-1.8943381309509277
1707164792857176000,4.433176025390625,-0.6114710569381714,-2.4429306983947754,-1.8428984880447388
1707164792876135700,4.4521357421875,-0.8100649118423462,-1.5378260612487793,-1.6331429481506348
1707164792895095000,4.471094970703125,-0.8261446952819824,-0.7838306427001953,-1.1961448192596436
1707164792914054700,4.4900546875,-0.45724621415138245,-0.4265022277832031,-0.6313138008117676
1707164792933014000,4.509013916015625,0.0683853030204773,0.11810588836669922,-0.10545969009399414
1707164792951973600,4.5279736328125,-0.01932704448699951,1.5496635437011719,0.007575511932373047
1707164792970933200,4.546933349609375,-0.43841639161109924,3.3763046264648438,0.01170969009399414
1707164792989892900,4.565892822265625,-0.4151964783668518,4.1823930740356445,-0.23548555374145508
1707164793008852500,4.5848525390625,0.387018084526062,3.6888017654418945,-0.7913780212402344
1707164793027811800,4.603811767578125,1.2732499837875366,3.168734550476074,-1.9419746398925781
1707164793046771500,4.622771484375,-0.24711646139621735,5.579131126403809,-3.0865252017974854
1707164793065730800,4.641730712890625,-1.5277111530303955,9.767810821533203,-2.0112438201904297
1707164793084690400,4.6606904296875,1.1655714511871338,8.336984634399414,-0.9399409294128418
1707164793103650000,4.679650146484375,4.493730068206787,2.818722724914551,-1.8377795219421387
1707164793122609700,4.698609619140625,5.844794750213623,-0.1903829574584961,-1.8357458114624023
1707164793141569000,4.717569091796875,4.458192348480225,-0.25768375396728516,-1.7659869194030762
1707164793160528600,4.736528564453125,2.9338979721069336,0.7807064056396484,-1.6061463356018066
1707164793179488300,4.75548828125,2.0315589904785156,0.9283943176269531,-1.7158293724060059
1707164793198447900,4.77444775390625,0.766025185585022,0.2503232955932617,-2.3450703620910645
1707164793217407200,4.7934072265625,0.01174936443567276,-0.4429903030395508,-2.551039218902588
1707164793236366800,4.812366943359375,-0.19693179428577423,-1.0409126281738281,-2.108799934387207
1707164793255326200,4.831326171875,-0.07017935812473297,-1.82444429397583,-1.3548767566680908
1707164793274285800,4.850285888671875,0.06746656447649002,-2.6028389930725098,-0.6743602752685547
1707164793293245400,4.869245361328125,-0.09029747545719147,-3.114582061767578,-0.25982165336608887
1707164793312205000,4.888205078125,-0.3129637539386749,-3.378607749938965,-0.06113886833190918
1707164793331164700,4.90716455078125,-0.40829530358314514,-3.4524240493774414,0.10746097564697266
1707164793350124000,4.9261240234375,-0.4584236443042755,-3.403524398803711,0.3490262031555176
1707164793369083600,4.945083740234375,-0.45265161991119385,-3.095646858215332,0.6419863700866699
1707164793388043000,4.96404296875,-0.5252676606178284,-2.584014892578125,0.8641033172607422
1707164793407002600,4.983002685546875,-0.6854590177536011,-1.606943130493164,1.1116200685501099
1707164793425962200,5.001962158203125,-0.6111875772476196,-0.42312145233154297,1.4129513502120972
1707164793444921900,5.020921875,-0.5679224133491516,0.18773937225341797,1.7974773645401
1707164793463881200,5.039881103515625,-0.5382872819900513,0.5541086196899414,1.7724260091781616
1707164793482840800,5.0588408203125,-0.663396418094635,1.043649673461914,1.6441444158554077
1707164793501800400,5.077800537109375,-0.4372396469116211,1.1453428268432617,1.1569700241088867
1707164793520760000,5.096760009765625,-0.3167436122894287,1.3437910079956055,0.9393899440765381
1707164793539719400,5.115719482421875,-0.20392096042633057,2.387627601623535,1.1542643308639526
1707164793558679000,5.134678955078125,-0.5247995853424072,4.58296012878418,0.010495662689208984
1707164793577638400,5.153638427734375,-0.7851635813713074,6.239236831665039,-0.471805214881897
1707164793596598000,5.172597900390625,1.779563546180725,6.976360321044922,0.851757287979126
1707164793615557600,5.1915576171875,2.529308319091797,4.845981597900391,1.0655884742736816
1707164793634517200,5.210517333984375,2.22273325920105,2.464967727661133,-0.38061344623565674
1707164793653476900,5.229476806640625,0.8860450983047485,1.0330543518066406,-1.9732182025909424
1707164793672436200,5.248436279296875,0.2261430025100708,0.30028820037841797,-2.455751419067383
1707164793691395800,5.267395751953125,-0.010836541652679443,0.3160514831542969,-2.0788183212280273
1707164793710355500,5.28635546875,-0.1536450982093811,0.6394205093383789,-1.2087243795394897
1707164793729314800,5.305314697265625,-0.1792764663696289,0.9136209487915039,-0.3330932855606079
1707164793748274400,5.3242744140625,-0.2074536681175232,0.3159675598144531,-0.09033942222595215
1707164793767234000,5.343234130859375,-0.2953116297721863,-1.1251440048217773,-0.31863927841186523
1707164793786193400,5.362193359375,-0.3692699372768402,-2.726163387298584,-0.7277953624725342
1707164793805153000,5.381153076171875,-0.4689505696296692,-3.989288330078125,-1.1858115196228027
1707164793824112600,5.400112548828125,-0.6801907420158386,-4.690593719482422,-1.5110111236572266
1707164793843072300,5.419072265625,-0.8875010013580322,-4.856666088104248,-1.7106690406799316
1707164793862031600,5.438031494140625,-1.0583312511444092,-4.64280891418457,-1.9166325330734253
1707164793880991200,5.4569912109375,-1.3559266328811646,-4.07056999206543,-2.097254514694214
1707164793899950800,5.475950927734375,-1.6837167739868164,-3.2596230506896973,-2.177091360092163
1707164793918910500,5.494910400390625,-2.0068724155426025,-2.2722392082214355,-1.947946310043335
1707164793937869800,5.513869873046875,-1.9770880937576294,-1.072105884552002,-1.476773738861084
1707164793956829400,5.532829345703125,-1.4407705068588257,0.0675344467163086,-0.6701273918151855
1707164793975789000,5.5517890625,-0.5780923366546631,0.8806362152099609,0.019060134887695312
1707164793994748400,5.57074853515625,0.48587360978126526,1.405552864074707,-0.07503271102905273
1707164794013708000,5.5897080078125,0.5194898247718811,2.1900110244750977,-0.7312097549438477
1707164794032667600,5.608667724609375,0.11720597743988037,3.517791748046875,-1.169543743133545
1707164794051627300,5.627627197265625,0.2265472114086151,4.6737518310546875,-1.3840827941894531
1707164794070586600,5.646586669921875,0.7135436534881592,4.967801094055176,-1.8504722118377686
1707164794089546200,5.665546142578125,0.138070210814476,6.807524681091309,-2.1156487464904785
1707164794108505900,5.684505859375,0.2483387589454651,9.535712242126465,-0.6059355735778809
1707164794127466000,5.703466064453125,2.5610499382019043,7.712584495544434,-0.4356575012207031
1707164794146425300,5.72242529296875,4.583766937255859,4.18836784362793,-2.2114768028259277
1707164794165385000,5.741385009765625,5.173587322235107,1.7893810272216797,-3.1832900047302246
1707164794184344600,5.760344482421875,3.6698193550109863,0.7643575668334961,-3.0088274478912354
1707164794203304200,5.77930419921875,2.361525297164917,1.273158073425293,-2.3495163917541504
1707164794222263800,5.798263916015625,1.5932588577270508,0.6653575897216797,-2.1361470222473145
1707164794241223200,5.81722314453125,0.8789232969284058,-1.0190863609313965,-2.0947203636169434
1707164794260182800,5.836182861328125,0.33165064454078674,-1.4042205810546875,-1.8870000839233398
1707164794279142400,5.855142333984375,0.057957619428634644,-0.9757986068725586,-1.0836446285247803
1707164794298102000,5.87410205078125,0.17802797257900238,-1.285353183746338,-0.09101223945617676
1707164794317061400,5.893061279296875,0.338184654712677,-2.263864517211914,0.4033524990081787
1707164794336021000,5.91202099609375,0.02383195236325264,-3.0593509674072266,0.4991762638092041
1707164794354980600,5.930980712890625,-0.29075443744659424,-3.5712642669677734,0.41780519485473633
1707164794373940000,5.94993994140625,-0.5069180727005005,-3.8383560180664062,0.30304551124572754
1707164794392899600,5.968899658203125,-0.6007997989654541,-3.6154465675354004,0.2887763977050781
1707164794411859200,5.987859130859375,-0.7184497117996216,-3.0536303520202637,0.31638050079345703
1707164794430818800,6.00681884765625,-0.6554221510887146,-2.3659238815307617,0.6191533803939819
1707164794449778200,6.025778076171875,-0.5997291803359985,-1.8493709564208984,0.7755258083343506
1707164794468737800,6.04473779296875,-0.5639710426330566,-1.1446475982666016,0.9548889398574829
1707164794487697400,6.063697509765625,-0.6611170768737793,-0.4306468963623047,1.249682903289795
1707164794506657000,6.082656982421875,-0.8041331768035889,0.10910606384277344,1.2692703008651733
1707164794525616600,6.10161669921875,-0.6904665231704712,0.7172060012817383,1.3168989419937134
1707164794544576000,6.120575927734375,-0.601515531539917,1.3801078796386719,1.6750550270080566
1707164794563535600,6.13953564453125,-0.44239336252212524,1.933924674987793,1.4021425247192383
1707164794582495200,6.1584951171875,-0.7392284870147705,2.525101661682129,1.440614938735962
1707164794601454800,6.177454833984375,-0.9845799803733826,3.822011947631836,1.8293287754058838
1707164794620414200,6.196414306640625,-0.8551899790763855,5.265783309936523,1.8291717767715454
1707164794639373800,6.215373779296875,0.48980724811553955,5.509369850158691,2.1029860973358154
1707164794658333400,6.23433349609375,1.6941887140274048,5.730917930603027,2.3003900051116943
1707164794677293000,6.25329296875,2.6445541381835938,3.476703643798828,1.1775548458099365
1707164794696252700,6.272252685546875,2.295767307281494,2.019515037536621,-0.17201822996139526
1707164794715212000,6.2912119140625,1.2636654376983643,1.618485450744629,-1.3727794885635376
1707164794734171600,6.310171630859375,0.4245874881744385,0.7055702209472656,-2.1205592155456543
1707164794753131300,6.32913134765625,-0.10795652866363525,0.06802177429199219,-1.9755573272705078
1707164794772091000,6.3480908203125,-0.35091960430145264,0.04603862762451172,-0.9910827279090881
1707164794791050200,6.36705029296875,-0.27131158113479614,0.07353019714355469,0.046477437019348145
1707164794810009900,6.386009765625,-0.19510102272033691,-0.5132608413696289,0.49163365364074707
1707164794828969500,6.404969482421875,-0.37686026096343994,-1.5786848068237305,0.3628861904144287
1707164794847929000,6.42392919921875,-0.5815528631210327,-2.752256393432617,-0.08245193958282471
1707164794866888700,6.442888671875,-0.6532248854637146,-3.7378768920898438,-0.7305604219436646
1707164794885848300,6.461848388671875,-0.678848385810852,-4.435014247894287,-1.2173068523406982
1707164794904808000,6.480807861328125,-0.795667827129364,-4.715473175048828,-1.560209035873413
1707164794923767600,6.499767578125,-0.9469538927078247,-4.61426305770874,-1.828470230102539
1707164794942727000,6.518726806640625,-1.1851904392242432,-4.089380264282227,-1.9981844425201416
1707164794961686500,6.5376865234375,-1.3532755374908447,-3.361957550048828,-2.1913204193115234
1707164794980646100,6.556646240234375,-1.3351272344589233,-2.5623741149902344,-2.282987356185913
1707164794999605800,6.575605712890625,-1.231907844543457,-1.4374361038208008,-2.2039167881011963
1707164795018565400,6.5945654296875,-1.045802116394043,0.00254058837890625,-1.8110809326171875
1707164795037524700,6.613524658203125,-0.5328820943832397,1.1349010467529297,-1.0468971729278564
1707164795056484600,6.632484619140625,0.35360920429229736,2.0341596603393555,-0.5336287021636963
1707164795075444000,6.65144384765625,0.8787170648574829,3.446213722229004,-0.5578784942626953
1707164795094403600,6.670403564453125,0.8967393636703491,5.106929779052734,-0.6420989036560059
1707164795113363200,6.68936328125,0.9574916958808899,5.745589256286621,-0.4162788391113281
1707164795132322800,6.70832275390625,1.4050546884536743,5.397797584533691,-0.7763547897338867
1707164795151282400,6.727282470703125,0.43786004185676575,6.650045394897461,-0.7608444690704346
1707164795170242000,6.746241943359375,1.1560778617858887,8.215239524841309,0.450014591217041
1707164795189201700,6.76520166015625,3.7599191665649414,5.479147911071777,0.5745687484741211
1707164795208161300,6.784161376953125,4.976541519165039,1.8250465393066406,-0.7736191749572754
1707164795227121000,6.803120849609375,4.138908863067627,-0.09356307983398438,-2.2644824981689453
1707164795246080300,6.822080322265625,2.564595937728882,0.3768596649169922,-2.930717945098877
1707164795265040000,6.841039794921875,1.1803710460662842,1.0232086181640625,-2.914285659790039
1707164795283999500,6.85999951171875,0.32991713285446167,0.038064002990722656,-2.946837902069092
1707164795302959000,6.878958984375,-0.0832451581954956,-0.796295166015625,-2.917790412902832
1707164795321918700,6.897918701171875,-0.1878432035446167,-0.781712532043457,-2.039590358734131
1707164795340878300,6.91687841796875,0.05523461103439331,-1.230924129486084,-0.8520610332489014
1707164795359838000,6.935837890625,0.4211050271987915,-2.1414451599121094,0.14975929260253906
1707164795378797600,6.954797607421875,0.3680456876754761,-3.025448799133301,0.7097537517547607
1707164795397757200,6.973757080078125,-0.07369822263717651,-3.6236419677734375,0.7670619487762451
1707164795416716800,6.992716796875,-0.5009400844573975,-3.9227542877197266,0.49013280868530273
1707164795435676400,7.011676513671875,-0.7686997652053833,-3.9241933822631836,0.3398287296295166
1707164795454636000,7.030635986328125,-0.9878546595573425,-3.7280359268188477,0.2917064428329468
1707164795473595600,7.049595703125,-0.8943153619766235,-3.1604766845703125,0.5185047388076782
1707164795492555300,7.06855517578125,-0.8116769790649414,-2.660923957824707,0.6032458543777466
1707164795511515000,7.087514892578125,-0.8881425261497498,-1.8784112930297852,0.5932705402374268
1707164795530474500,7.106474609375,-0.9185386896133423,-0.789271354675293,0.6724852323532104
1707164795549434000,7.12543408203125,-0.9879601001739502,-0.056578636169433594,1.212751865386963
1707164795568393700,7.144393798828125,-0.5835318565368652,0.7283811569213867,1.5145998001098633
1707164795587353300,7.163353271484375,-0.29062390327453613,1.4924516677856445,1.7097419500350952
1707164795606313000,7.18231298828125,0.049422621726989746,1.8251972198486328,1.665631890296936
1707164795625272600,7.2012724609375,0.24349749088287354,1.9255914688110352,1.4228805303573608
1707164795644232200,7.220232177734375,0.19376778602600098,2.217761993408203,1.7394052743911743
1707164795663191800,7.23919189453125,0.044199347496032715,3.425111770629883,1.0963335037231445
1707164795682151400,7.2581513671875,-0.5512601137161255,5.207052230834961,0.6176445484161377
1707164795701111000,7.277111083984375,1.1249732971191406,6.4148969650268555,2.030714988708496
1707164795720070700,7.296070556640625,1.8398692607879639,5.593144416809082,2.2553718090057373
1707164795739030300,7.3150302734375,1.5095728635787964,3.1427812576293945,1.0556449890136719
1707164795757990000,7.333989990234375,0.6125680208206177,1.329254150390625,-0.14010882377624512
1707164795776949500,7.352949462890625,-0.25506043434143066,0.08412361145019531,-0.39962315559387207
1707164795795909000,7.3719091796875,-0.3388877511024475,-0.5432643890380859,-0.19958162307739258
1707164795814868700,7.39086865234375,-0.1481994390487671,-0.44245338439941406,-0.008119702339172363
1707164795833828400,7.409828369140625,-0.28802961111068726,0.10742855072021484,-0.029451370239257812
1707164795852788000,7.4287880859375,-0.6385676860809326,0.4322042465209961,-0.31835854053497314
1707164795871747600,7.44774755859375,-0.7654861807823181,-0.31684112548828125,-0.7673430442810059
1707164795890707200,7.466707275390625,-0.7629554271697998,-1.730900764465332,-1.2110317945480347
1707164795909666800,7.485666748046875,-0.7234724164009094,-2.93609619140625,-1.4785505533218384
1707164795928626400,7.50462646484375,-0.6016961336135864,-3.7532291412353516,-1.5422170162200928
1707164795947586000,7.5235859375,-0.5539889931678772,-4.229975700378418,-1.63301420211792
1707164795966545700,7.542545654296875,-0.5164064764976501,-4.382998466491699,-1.8201558589935303
1707164795985505300,7.56150537109375,-0.6118509769439697,-4.188809394836426,-2.053415298461914
1707164796004465200,7.580465087890625,-0.8191310167312622,-3.5893869400024414,-2.281981945037842
1707164796023424500,7.599424560546875,-1.0518875122070312,-2.621501922607422,-2.40323543548584
1707164796042384100,7.618384033203125,-1.2564197778701782,-1.6365528106689453,-2.326167583465576
1707164796061344000,7.637343994140625,-1.2578760385513306,-0.5058212280273438,-2.0727012157440186
1707164796080303600,7.6563037109375,-1.1146692037582397,0.6337194442749023,-1.5535144805908203
1707164796099263200,7.67526318359375,-1.127408504486084,1.609419822692871,-1.019709587097168
1707164796118222800,7.694222900390625,-0.7151428461074829,2.497708320617676,-0.5815773010253906
1707164796137182500,7.713182373046875,-0.11474079638719559,3.4802398681640625,0.016524314880371094
1707164796156142000,7.73214208984375,0.6991413235664368,4.093133926391602,0.5543227195739746
1707164796175101700,7.751101806640625,1.5059937238693237,3.6615381240844727,0.3735694885253906
1707164796194061300,7.770061279296875,1.9272618293762207,3.5180845260620117,-0.3846473693847656
1707164796213021000,7.78902099609375,0.5839428901672363,6.391350746154785,-0.5186977386474609
1707164796231980500,7.80798046875,-0.27726972103118896,9.675795555114746,0.540806770324707
1707164796250940200,7.826940185546875,2.3247365951538086,7.340971946716309,0.3516678810119629
1707164796269899800,7.845899658203125,4.521838188171387,2.986973762512207,-0.6601181030273438
1707164796288859600,7.864859619140625,4.8619818687438965,0.580327033996582,-1.1733651161193848
1707164796307819000,7.883819091796875,3.67040753364563,-0.2614707946777344,-2.3451099395751953
1707164796326779000,7.90277880859375,2.183917760848999,-0.5955924987792969,-3.044907569885254
1707164796345738500,7.921738525390625,0.7390862107276917,-0.7635526657104492,-3.018601894378662
1707164796364698000,7.940697998046875,-0.524016797542572,-1.0493993759155273,-2.728973388671875
1707164796383657700,7.95965771484375,-0.956112802028656,-1.1981210708618164,-1.9392454624176025
1707164796402617300,7.978617431640625,-0.7911269664764404,-1.673166275024414,-0.8832957744598389
1707164796421577000,7.997576904296875,-0.4601864218711853,-2.2768564224243164,0.13598847389221191
1707164796440536600,8.01653662109375,-0.41415971517562866,-2.7298851013183594,0.7765622138977051
1707164796459496200,8.03549609375,-0.6588109731674194,-3.106724262237549,0.9731519222259521
1707164796478455800,8.054455810546875,-1.0228806734085083,-3.41485595703125,0.7301661968231201
1707164796497415700,8.073415771484376,-1.1562302112579346,-3.467482566833496,0.5697817802429199
1707164796516375000,8.092375,-1.1611945629119873,-3.4342522621154785,0.7943947315216064
1707164796535335000,8.1113349609375,-1.0578275918960571,-3.2323360443115234,1.1509777307510376
1707164796554294500,8.13029443359375,-0.835145115852356,-2.842151165008545,1.4909403324127197
1707164796573254100,8.149254150390625,-0.8066984415054321,-2.4434280395507812,1.5427746772766113
1707164796592213800,8.1682138671875,-0.8818195462226868,-1.888575553894043,1.4339076280593872
1707164796611173400,8.18717333984375,-0.5233800411224365,-0.8728532791137695,1.2010334730148315
1707164796630133000,8.206133056640626,-0.6670384407043457,0.19290637969970703,0.8644791841506958
1707164796649092600,8.225092529296875,-0.7874341011047363,1.003096580505371,0.49371451139450073
1707164796668052200,8.24405224609375,0.018467426300048828,1.4109392166137695,0.2807178497314453
1707164796687011800,8.26301171875,-0.010011553764343262,1.5385866165161133,0.3066502809524536
1707164796705971500,8.281971435546875,-0.10024893283843994,1.9946680068969727,1.045910358428955
1707164796724931000,8.30093115234375,-0.2407245635986328,3.2247085571289062,1.195483922958374
1707164796743890700,8.319890625,-0.43659818172454834,4.592251777648926,1.2154994010925293
1707164796762850600,8.3388505859375,1.3546379804611206,4.665225982666016,1.6360549926757812
1707164796781810200,8.35781005859375,1.9919856786727905,4.996770858764648,1.4425618648529053
1707164796800769800,8.376769775390626,1.2280665636062622,4.047341346740723,-0.09764242172241211
1707164796819729400,8.3957294921875,0.12446558475494385,2.69968318939209,-1.3480079174041748
1707164796838689000,8.41468896484375,-0.48185276985168457,1.7314720153808594,-1.278047800064087
1707164796857648600,8.433648681640625,-0.23985260725021362,0.7775793075561523,-0.2946370244026184
1707164796876608300,8.452608154296875,-0.06687426567077637,0.5433769226074219,0.6849197149276733
1707164796895568000,8.47156787109375,-0.3914966583251953,1.170827865600586,1.3247454166412354
1707164796914527500,8.490527587890625,-0.7073549628257751,1.197479248046875,1.1643308401107788
1707164796933487400,8.5094873046875,-0.7089178562164307,0.117095947265625,0.37067079544067383
1707164796952446700,8.52844677734375,-0.5901881456375122,-1.4043159484863281,-0.5003422498703003
1707164796971406600,8.547406494140626,-0.5576529502868652,-2.854651927947998,-1.2278556823730469
1707164796990366200,8.5663662109375,-0.5169274806976318,-3.9109277725219727,-1.6378530263900757
1707164797009325800,8.585325927734376,-0.5860742330551147,-4.608983039855957,-1.9335384368896484
1707164797028285400,8.604285400390625,-0.8467356562614441,-4.865503311157227,-2.155308246612549
1707164797047245000,8.6232451171875,-1.037627935409546,-4.802628517150879,-2.338500499725342
1707164797066204700,8.64220458984375,-1.15669846534729,-4.443506240844727,-2.485959529876709
1707164797085164300,8.661164306640625,-1.4048473834991455,-3.763888359069824,-2.6144895553588867
1707164797104124000,8.6801240234375,-1.6198570728302002,-2.641526222229004,-2.5533947944641113
1707164797123083500,8.69908349609375,-1.6041924953460693,-1.27370023727417,-2.369502544403076
1707164797142043400,8.71804345703125,-1.464402198791504,0.1646900177001953,-1.862318515777588
1707164797161002800,8.737002685546875,-1.1804251670837402,1.168950080871582,-1.3091320991516113
1707164797179962600,8.755962646484376,-0.7624493837356567,1.8927478790283203,-0.8466706275939941
1707164797198922200,8.774922119140625,0.22099748253822327,3.0215797424316406,-0.38659000396728516
1707164797217881900,8.7938818359375,0.9987266063690186,4.697162628173828,0.4631319046020508
1707164797236841500,8.812841552734374,0.5413390398025513,6.08273983001709,1.2008099555969238
1707164797255801000,8.831801025390625,1.0565167665481567,7.142253875732422,0.17416858673095703
1707164797274760700,8.8507607421875,0.9200807809829712,9.684760093688965,1.4604711532592773
1707164797293720300,8.86972021484375,3.3505618572235107,8.04798698425293,2.342491626739502
1707164797312680000,8.888679931640626,5.856236934661865,3.3131189346313477,0.5713052749633789
1707164797331639600,8.9076396484375,5.91610050201416,0.34147167205810547,-0.9092793464660645
1707164797350599400,8.926599365234376,3.823699951171875,-0.08747577667236328,-2.232530117034912
1707164797369558800,8.945558837890625,1.8030085563659668,0.583836555480957,-3.1623764038085938
1707164797388518700,8.9645185546875,0.3837066888809204,0.1183938980102539,-3.700242280960083
1707164797407478300,8.983478271484374,-0.6569384336471558,-0.9813013076782227,-3.9325709342956543
1707164797426438000,9.00243798828125,-0.8121166229248047,-1.3599114418029785,-3.182710647583008
1707164797445397500,9.0213974609375,-0.5732178688049316,-1.8330364227294922,-1.606772780418396
1707164797464357000,9.040357177734375,-0.07940953969955444,-2.5800561904907227,-0.22557592391967773
1707164797483316700,9.059316650390626,-0.011419951915740967,-3.3187437057495117,0.464627742767334
1707164797502276400,9.0782763671875,-0.3006461262702942,-3.7896833419799805,0.5777909755706787
1707164797521236000,9.097236083984376,-0.9365857243537903,-3.8755693435668945,0.30832934379577637
1707164797540195600,9.116195556640625,-1.3689460754394531,-3.601151943206787,0.31380271911621094
1707164797559155200,9.1351552734375,-1.4299957752227783,-3.1661691665649414,0.5886353254318237
1707164797578115000,9.154114990234374,-1.2366710901260376,-2.871676445007324,0.9177985191345215
1707164797597074700,9.17307470703125,-0.9502363801002502,-2.3389997482299805,1.3285752534866333
1707164797616034300,9.192034423828124,-0.7422841787338257,-1.7785940170288086,1.6917617321014404
1707164797634994000,9.210993896484375,-0.4866008758544922,-1.1170034408569336,2.0272202491760254
1707164797653953500,9.22995361328125,-0.2953564524650574,-0.41936779022216797,2.235740900039673
1707164797672913200,9.2489130859375,-0.4960266351699829,0.3723592758178711,2.324807643890381
1707164797691872800,9.267872802734376,-0.5586110949516296,1.4033451080322266,2.3714160919189453
1707164797710832400,9.286832275390625,-0.31675100326538086,1.9099235534667969,1.7864503860473633
1707164797729792000,9.3057919921875,-0.5161238312721252,2.1622962951660156,1.4100385904312134
1707164797748751600,9.324751708984374,-0.26375460624694824,2.9498167037963867,2.084054946899414
1707164797767711200,9.343711181640625,-0.13494813442230225,4.386386871337891,1.6119016408920288
1707164797786671000,9.362671142578124,0.3032633066177368,5.303971290588379,1.0672013759613037
1707164797805630500,9.38163037109375,1.8243775367736816,5.57645320892334,1.2273226976394653
1707164797824590300,9.40059033203125,1.8944475650787354,4.587691307067871,0.41794896125793457
1707164797843550000,9.419550048828125,1.0296471118927002,3.004953384399414,-1.0429770946502686
1707164797862509600,9.438509521484375,0.051349639892578125,1.8092269897460938,-2.2412021160125732
1707164797881469200,9.45746923828125,-0.017719268798828125,1.0780439376831055,-1.4382274150848389
1707164797900428800,9.4764287109375,0.1859579086303711,0.6959190368652344,-0.281669020652771
1707164797919388400,9.495388427734374,0.2035292387008667,0.5498132705688477,0.6190156936645508
1707164797938348000,9.51434814453125,0.01058274507522583,0.39150333404541016,1.0319234132766724
1707164797957307600,9.5333076171875,-0.26682502031326294,-0.27181053161621094,0.7553174495697021
1707164797976267300,9.552267333984375,-0.4368564486503601,-1.4566888809204102,0.19029021263122559
1707164797995227000,9.571226806640626,-0.6097386479377747,-2.6594061851501465,-0.4612619876861572
1707164798014186500,9.5901865234375,-0.7584825754165649,-3.690066337585449,-1.047029733657837
1707164798033146000,9.60914599609375,-0.8152039051055908,-4.354692459106445,-1.4238245487213135
1707164798052105700,9.628105712890624,-0.7291514873504639,-4.729820251464844,-1.54356050491333
1707164798071065300,9.6470654296875,-0.7349881529808044,-4.991824150085449,-1.6148484945297241
1707164798090025000,9.66602490234375,-0.7404616475105286,-4.848130702972412,-1.593057632446289
1707164798108984800,9.68498486328125,-0.8406887054443359,-4.180821418762207,-1.677940845489502
1707164798127944400,9.7039443359375,-1.0916917324066162,-2.9572348594665527,-1.6939553022384644
1707164798146904000,9.722904052734375,-1.2296615839004517,-1.6565027236938477,-1.4536066055297852
1707164798165863700,9.74186376953125,-1.2359589338302612,-0.2847576141357422,-1.0311317443847656
1707164798184823300,9.7608232421875,-1.1053258180618286,0.9144859313964844,-0.7375621795654297
1707164798203783000,9.779782958984375,-0.8932065963745117,1.8999261856079102,-0.49801206588745117
1707164798222742500,9.798742431640624,-0.5974888801574707,2.9195756912231445,-0.08099508285522461
1707164798241702100,9.8177021484375,-0.07870900630950928,4.181090354919434,0.4126777648925781
1707164798260661800,9.836661865234374,0.7918045520782471,4.816473007202148,0.880915641784668
1707164798279621400,9.855621337890625,1.5484824180603027,4.87734317779541,0.5318360328674316
1707164798298581000,9.8745810546875,0.6331710815429688,7.4920244216918945,0.36979103088378906
1707164798317540600,9.89354052734375,-0.45716211199760437,10.761983871459961,1.4654865264892578
1707164798336500200,9.912500244140626,2.3729400634765625,7.953973770141602,1.7572612762451172
1707164798355459800,9.9314599609375,5.462118625640869,2.6638431549072266,0.09764480590820312
1707164798374419500,9.95041943359375,5.643690586090088,-0.8346061706542969,-1.5547010898590088
1707164798393379300,9.96937939453125,3.427614688873291,-1.8331527709960938,-3.070664405822754
1707164798412338700,9.988338623046875,1.6342257261276245,-0.9960870742797852,-3.7413032054901123
1707164798431298600,10.007298583984374,0.22222232818603516,-0.40871524810791016,-3.818920373916626
1707164798450258200,10.026258056640625,-0.6367810964584351,-1.07598876953125,-3.6098804473876953
1707164798469217500,10.045217529296876,-0.7515052556991577,-1.5927553176879883,-2.955615758895874
1707164798488177400,10.064177490234375,-0.6338248252868652,-1.7887601852416992,-1.66099214553833
1707164798507137000,10.083136962890626,-0.3443637490272522,-2.126293182373047,-0.327467679977417
1707164798526096600,10.1020966796875,-0.1189349889755249,-2.705416679382324,0.34624266624450684
1707164798545056300,10.12105615234375,-0.2821619510650635,-3.139153480529785,0.5487706661224365
1707164798564015900,10.140015869140624,-0.7341868281364441,-3.2508459091186523,0.4244883060455322
1707164798582975500,10.1589755859375,-1.1042357683181763,-3.122494697570801,0.5303233861923218
1707164798601935000,10.17793505859375,-1.2185171842575073,-2.8336548805236816,0.7864279747009277
1707164798620894700,10.196894775390625,-1.1830490827560425,-2.4188766479492188,1.0571904182434082
1707164798639854300,10.215854248046876,-1.0944963693618774,-1.819523811340332,1.4973481893539429
1707164798658814000,10.23481396484375,-0.8931793570518494,-1.0984821319580078,1.9360380172729492
1707164798677773600,10.253773681640626,-0.7072444558143616,-0.5940523147583008,2.3003804683685303
1707164798696733200,10.272733154296875,-0.47865593433380127,-0.577906608581543,2.666762113571167
1707164798715692800,10.29169287109375,-0.1157371997833252,-0.5353736877441406,2.45296049118042
1707164798734652400,10.31065234375,-0.5045101642608643,0.29442405700683594,2.009448289871216
1707164798753612000,10.329612060546875,-1.1545279026031494,1.0569496154785156,1.4484823942184448
1707164798772571600,10.348571533203126,-1.0638713836669922,1.2290639877319336,0.9836302995681763
1707164798791531500,10.367531494140625,-0.7907800674438477,1.257002830505371,0.7787736654281616
1707164798810491000,10.386490966796876,-0.5781196355819702,3.0202245712280273,1.001382827758789
1707164798829450500,10.405450439453125,-0.6728197336196899,5.333233833312988,1.1448347568511963
1707164798848410400,10.424410400390625,1.3528472185134888,6.402425765991211,2.23801326751709
1707164798867369700,10.44336962890625,2.6574254035949707,5.358615875244141,2.0091967582702637
1707164798886329300,10.462329345703125,2.366659641265869,3.3240127563476562,0.6546944379806519
1707164798905289200,10.481289306640624,0.8434759378433228,2.0013160705566406,-1.1211247444152832
1707164798924248600,10.50024853515625,-0.46431899070739746,1.2635507583618164,-1.8171740770339966
1707164798943208400,10.51920849609375,-0.45168620347976685,0.6020193099975586,-1.217644453048706
1707164798962168000,10.53816796875,-0.01906484365463257,0.16776657104492188,-0.3132821321487427
1707164798981127700,10.557127685546876,0.10161459445953369,0.31432342529296875,0.3914148807525635
1707164799000087300,10.57608740234375,-0.1940762996673584,0.3608875274658203,0.7016823291778564
1707164799019047000,10.595046875,-0.42902132868766785,-0.43706512451171875,0.3931058645248413
1707164799038006500,10.614006591796874,-0.5140120983123779,-1.7982330322265625,-0.28356802463531494
1707164799056966100,10.632966064453125,-0.5902049541473389,-2.950408458709717,-0.8783046007156372
1707164799075925800,10.65192578125,-0.7218813300132751,-3.7443270683288574,-1.3871850967407227
1707164799094885400,10.670885498046875,-0.7560628056526184,-4.2699384689331055,-1.7587318420410156
1707164799113845000,10.689844970703126,-0.7438380122184753,-4.5407609939575195,-1.9427173137664795
1707164799132804600,10.7088046875,-0.728319525718689,-4.504091262817383,-2.0522854328155518
1707164799151764200,10.72776416015625,-0.9511949419975281,-4.110318183898926,-2.252896785736084
1707164799170723800,10.746723876953125,-1.3062164783477783,-3.2153892517089844,-2.507199287414551
1707164799189683500,10.765683349609375,-1.5571959018707275,-1.9574403762817383,-2.471675395965576
1707164799208643000,10.78464306640625,-1.5535229444503784,-0.6945295333862305,-2.139981508255005
1707164799227602700,10.803602783203125,-1.3521463871002197,0.1671438217163086,-1.6809473037719727
1707164799246562300,10.822562255859374,-0.796983003616333,0.620819091796875,-1.2925138473510742
1707164799265522000,10.84152197265625,-0.3961719870567322,1.4074382781982422,-1.002664566040039
1707164799284481500,10.8604814453125,-0.2083914875984192,2.7906131744384766,-0.6199226379394531
1707164799303441200,10.879441162109375,0.14451146125793457,4.28554630279541,0.15825176239013672
1707164799322400800,10.89840087890625,0.7359925508499146,4.791617393493652,0.8370876312255859
1707164799341360400,10.9173603515625,1.6801789999008179,4.163790702819824,0.6540718078613281
1707164799360320000,10.936320068359375,1.580613136291504,5.319515228271484,0.2628788948059082
1707164799379279600,10.955279541015624,0.42644035816192627,8.173576354980469,1.0305604934692383
1707164799398239200,10.9742392578125,1.1715667247772217,7.467370986938477,1.2609620094299316
1707164799417198800,10.99319873046875,3.1858086585998535,3.4197311401367188,0.29073333740234375
1707164799436158700,11.01215869140625,4.260358810424805,0.45744991302490234,-0.5209081172943115
1707164799455118000,11.0311181640625,4.084672927856445,-1.4868049621582031,-1.689457893371582
1707164799474078000,11.050077880859375,2.9465982913970947,-2.151686668395996,-2.588423728942871
1707164799493037600,11.06903759765625,1.2146003246307373,-1.1365938186645508,-2.7591652870178223
1707164799511997000,11.087996826171874,-0.15909910202026367,0.045569419860839844,-2.561607837677002
1707164799530956800,11.106956787109375,-1.0001270771026611,0.3358335494995117,-2.2039592266082764
1707164799549916400,11.12591650390625,-1.2661991119384766,0.18002986907958984,-1.6887853145599365
1707164799568876000,11.1448759765625,-0.9422174692153931,-0.6839981079101562,-0.744916558265686
1707164799587835600,11.163835693359376,-0.19007328152656555,-1.8884520530700684,0.328596830368042
1707164799606795300,11.182795166015625,0.4114091992378235,-2.742189407348633,1.4133358001708984
1707164799625755000,11.2017548828125,0.3794652223587036,-3.2108564376831055,1.955364465713501
1707164799644714500,11.220714599609375,0.04496210813522339,-3.5596609115600586,1.8468931913375854
1707164799663674000,11.239674072265625,-0.3571975827217102,-3.66642427444458,1.6004124879837036
1707164799682633700,11.2586337890625,-0.7199584245681763,-3.561347007751465,1.4638251066207886
1707164799701593300,11.27759326171875,-1.0279781818389893,-2.9871950149536133,1.4089112281799316
1707164799720553000,11.296552978515624,-1.458522915840149,-2.4032444953918457,1.3676728010177612
1707164799739512600,11.3155126953125,-1.5468419790267944,-1.7852859497070312,1.2837693691253662
1707164799758472400,11.334472412109376,-1.486488699913025,-1.194270133972168,1.3072514533996582
1707164799777431800,11.353431884765625,-1.1148873567581177,-0.8086891174316406,1.58189058303833
1707164799796391700,11.3723916015625,-0.7772119045257568,-0.3390369415283203,1.601062536239624
1707164799815351300,11.391351318359375,-0.5847325325012207,0.47537899017333984,1.220984935760498
1707164799834311000,11.410310791015625,-0.5989935398101807,0.9625301361083984,0.4727545976638794
1707164799853270500,11.4292705078125,-0.5911180973052979,1.286224365234375,0.1413809061050415
1707164799872230100,11.448230224609375,-0.33631229400634766,2.4381446838378906,0.16211378574371338
1707164799891189800,11.467189697265624,-1.1999622583389282,4.484732627868652,0.21173983812332153
1707164799910149400,11.4861494140625,0.021676182746887207,5.914079666137695,1.495037317276001
1707164799929109000,11.50510888671875,1.8878897428512573,5.684881210327148,2.9153223037719727
1707164799948068600,11.524068603515625,1.9891952276229858,4.676670074462891,2.76981520652771
1707164799967028500,11.543028564453126,0.48608243465423584,3.1215639114379883,1.106755018234253
1707164799985988000,11.561988037109375,-0.4331982135772705,1.9523286819458008,-0.07448869943618774
1707164800004947700,11.58094775390625,-0.34574562311172485,1.1745529174804688,-0.03773224353790283
1707164800023907300,11.5999072265625,-0.1920640468597412,0.7805423736572266,0.6295410990715027
1707164800042867000,11.618866943359375,-0.10948431491851807,0.7871332168579102,1.0815125703811646
1707164800061826600,11.63782666015625,-0.24285989999771118,0.7271690368652344,1.2657445669174194
1707164800080786200,11.6567861328125,-0.3919128179550171,0.07058525085449219,0.9835489988327026
1707164800099745800,11.675745849609376,-0.6049643754959106,-1.0824737548828125,0.3153425455093384
1707164800118705700,11.69470556640625,-0.7998643517494202,-2.3081727027893066,-0.44741886854171753
1707164800137665300,11.713665283203126,-0.9700380563735962,-3.4467592239379883,-1.2151494026184082
1707164800156625000,11.732625,-1.0262389183044434,-4.373234748840332,-1.83228600025177
1707164800175584500,11.75158447265625,-1.0592761039733887,-4.880418300628662,-2.2631545066833496
1707164800194544000,11.770544189453124,-1.1228752136230469,-4.955682754516602,-2.4546971321105957
1707164800213503700,11.789503662109375,-1.3426563739776611,-4.561026573181152,-2.5566956996917725
1707164800232463600,11.808463623046874,-1.542165756225586,-3.6521711349487305,-2.492521286010742
1707164800251423200,11.82742333984375,-1.7191689014434814,-2.4653377532958984,-2.3071980476379395
1707164800270382800,11.8463828125,-1.8002238273620605,-0.8878021240234375,-2.0580952167510986
1707164800289342500,11.865342529296875,-1.6169114112854004,0.9143133163452148,-1.3799066543579102
1707164800308302000,11.884302001953126,-1.2337161302566528,1.7914295196533203,-0.6571090221405029
1707164800327262000,11.903261962890625,-0.4902670085430145,1.3157501220703125,-0.2823162078857422
1707164800346221600,11.9222216796875,0.3892146348953247,1.3069334030151367,-0.20116567611694336
1707164800365181200,11.94118115234375,0.49386224150657654,2.7272472381591797,0.2119736671447754
1707164800384140800,11.960140869140625,0.5918947458267212,3.9994001388549805,0.7825722694396973
1707164800403100400,11.979100341796874,1.676354169845581,3.7897558212280273,0.47962188720703125
1707164800422060000,11.99806005859375,1.5371029376983643,4.587695121765137,-1.0346875190734863
1707164800441020000,12.01702001953125,0.5508700013160706,7.572105407714844,-0.7988333702087402
1707164800459979500,12.0359794921875,0.9754325151443481,7.796407699584961,0.0716085433959961
1707164800478939100,12.054939208984376,2.952078104019165,3.9776926040649414,-0.8891053199768066
1707164800497898800,12.073898681640625,4.48525857925415,0.3797111511230469,-1.513895034790039
1707164800516858400,12.0928583984375,3.4063897132873535,-1.1645307540893555,-2.154013156890869
1707164800535818200,12.111818359375,2.0859427452087402,-0.4999055862426758,-2.249840497970581
1707164800554777900,12.13077783203125,1.4710769653320312,0.3786764144897461,-1.6194522380828857
1707164800573737500,12.149737548828124,0.5072898864746094,0.26869773864746094,-1.2671682834625244
1707164800592697000,12.168697021484375,-0.11541382968425751,-0.01567554473876953,-1.190246820449829
1707164800611656700,12.18765673828125,-0.1961514800786972,-0.49759387969970703,-0.8709292411804199
1707164800630616600,12.206616455078125,-0.08313798904418945,-1.397064208984375,-0.3389413356781006
1707164800649576200,12.225576171875,0.019025325775146484,-2.374720573425293,0.23176169395446777
1707164800668535800,12.244535888671875,-0.0772642195224762,-3.1761465072631836,0.6328859329223633
1707164800687495700,12.26349560546875,-0.2582184970378876,-3.600619316101074,0.7185156345367432
1707164800706455300,12.282455322265625,-0.37994903326034546,-3.6815218925476074,0.794205904006958
1707164800725415000,12.301414794921875,-0.5433241724967957,-3.3786096572875977,0.8070833683013916
1707164800744374500,12.32037451171875,-0.6049867868423462,-2.8671321868896484,0.9266983270645142
1707164800763334400,12.33933447265625,-0.6641085147857666,-2.45753812789917,0.9335019588470459
1707164800782294000,12.3582939453125,-0.7235065698623657,-2.099423408508301,0.9181746244430542
1707164800801253600,12.377253662109375,-0.8022112846374512,-1.591526985168457,0.7883861064910889
1707164800820213200,12.396213134765626,-0.6980192065238953,-1.1026430130004883,0.9045472145080566
1707164800839172900,12.4151728515625,-0.4667733907699585,-0.6258878707885742,1.080256462097168
1707164800858132700,12.4341328125,-0.370397686958313,0.06157112121582031,1.3544704914093018
1707164800877092400,12.45309228515625,-0.5509263277053833,1.0565948486328125,1.4463754892349243
1707164800896052000,12.472052001953125,-0.6473109722137451,1.5421123504638672,1.175950050354004
1707164800915011800,12.49101171875,-0.3712964653968811,1.5191059112548828,1.1986048221588135
1707164800933971500,12.509971435546875,-0.2738683223724365,2.136672019958496,1.687711477279663
1707164800952931000,12.52893115234375,-1.0479261875152588,4.355038642883301,1.7582370042800903
1707164800971890700,12.547890625,-0.9469090700149536,5.45197868347168,2.106478214263916
1707164800990850600,12.5668505859375,0.8027355670928955,5.7205810546875,2.936912775039673
1707164801009810200,12.58581005859375,1.3917189836502075,4.212545394897461,2.834810972213745
1707164801028769800,12.604769775390626,1.0909602642059326,2.173299789428711,1.7260205745697021
1707164801047729400,12.6237294921875,0.6245627403259277,1.2615957260131836,0.5074313282966614
1707164801066689300,12.642689208984375,0.33608919382095337,0.6965322494506836,-0.2736736536026001
1707164801085649000,12.66164892578125,-0.39214879274368286,0.20505428314208984,-0.8957384824752808
1707164801104608500,12.6806083984375,-0.6813775300979614,0.09441661834716797,-1.1397216320037842
1707164801123568400,12.699568359375,-0.6406557559967041,0.14790916442871094,-1.0414986610412598
1707164801142528000,12.718528076171875,-0.7055498957633972,-0.14727497100830078,-0.8389335870742798
1707164801161487600,12.737487548828126,-0.7002730369567871,-1.0321998596191406,-0.6888177394866943
1707164801180447200,12.756447265625,-0.6010239124298096,-2.097018241882324,-0.772753119468689
1707164801199407000,12.775406982421876,-0.4345442056655884,-3.1194896697998047,-0.9339069128036499
1707164801218366700,12.79436669921875,-0.3723548948764801,-3.7743101119995117,-1.1379979848861694
1707164801237326300,12.813326416015625,-0.34788215160369873,-4.075649261474609,-1.2214624881744385
1707164801256286200,12.8322861328125,-0.3848337233066559,-4.116317272186279,-1.3561257123947144
1707164801275245800,12.851245849609375,-0.6106538772583008,-3.825474739074707,-1.587066888809204
1707164801294205400,12.870205322265624,-0.9594766497612,-2.9296770095825195,-1.712338924407959
1707164801313165000,12.8891650390625,-1.2268493175506592,-1.8159866333007812,-1.5530518293380737
1707164801332125000,12.908125,-1.2832797765731812,-1.014805793762207,-1.2539784908294678
1707164801351084500,12.92708447265625,-1.190139889717102,-0.6289243698120117,-0.9507427215576172
1707164801370044200,12.946044189453126,-0.8793742060661316,-0.05010223388671875,-0.561898946762085
1707164801389004000,12.965004150390625,-0.4507756531238556,0.6223545074462891,-0.27629876136779785
1707164801407963600,12.983963623046876,-0.0779234766960144,1.195098876953125,0.05144810676574707
1707164801426923300,13.00292333984375,0.20621153712272644,2.2818546295166016,0.14351892471313477
1707164801445883000,13.0218828125,0.5066244006156921,3.645296096801758,-0.13443470001220703
1707164801464842800,13.0408427734375,1.0643589496612549,4.064435005187988,-0.09520626068115234
1707164801483802400,13.05980224609375,1.6941074132919312,3.6459760665893555,-0.6927816867828369
1707164801502762200,13.07876220703125,1.0610970258712769,4.598874092102051,-1.619485855102539
1707164801521721900,13.097721923828125,-0.5202137231826782,7.287952423095703,-1.1732897758483887
1707164801540681500,13.116681396484376,0.8072638511657715,7.022494316101074,-0.32254791259765625
1707164801559641000,13.13564111328125,3.7778961658477783,2.7981739044189453,-0.7076797485351562
1707164801578601000,13.15460107421875,4.571665287017822,-0.1367511749267578,-0.8812353610992432
1707164801597560600,13.173560546875,3.4191458225250244,-0.5288934707641602,-1.048579454421997
1707164801616520200,13.192520263671875,2.2635514736175537,0.25048828125,-1.6678872108459473
1707164801635480000,13.21147998046875,1.0090757608413696,0.6800832748413086,-1.8488565683364868
1707164801654439700,13.230439697265625,0.00860336422920227,0.6464052200317383,-1.9535887241363525
1707164801673399300,13.2493994140625,-0.42063650488853455,0.4784269332885742,-1.6252667903900146
1707164801692359000,13.26835888671875,-0.3998485505580902,0.020105361938476562,-0.6164655685424805
1707164801711318800,13.28731884765625,-0.06334951519966125,-1.159398078918457,0.5553085803985596
1707164801730278400,13.3062783203125,0.3031153678894043,-2.3322601318359375,1.380972146987915
1707164801749238000,13.325238037109376,0.22472691535949707,-3.2316598892211914,1.7311638593673706
1707164801768198000,13.344197998046875,-0.11783105134963989,-3.741642475128174,1.5989831686019897
1707164801787157500,13.363157470703126,-0.3752932548522949,-3.9455976486206055,1.3459312915802002
1707164801806117000,13.3821171875,-0.7129203081130981,-3.812887191772461,1.3367575407028198
1707164801825076700,13.40107666015625,-0.9387844800949097,-3.5189208984375,1.2929089069366455
1707164801844036600,13.42003662109375,-1.0264326333999634,-3.1920905113220215,0.976574182510376
1707164801862996200,13.438996337890625,-1.292052149772644,-2.7025394439697266,0.5898357033729553
1707164801881955800,13.457955810546874,-1.3784009218215942,-1.953531265258789,0.4510917663574219
1707164801900915500,13.47691552734375,-1.4515074491500854,-1.178837776184082,0.6631137728691101
1707164801919875300,13.495875244140626,-1.296787142753601,-0.543513298034668,1.1352671384811401
1707164801938835000,13.5148349609375,-0.9435234069824219,0.3011150360107422,1.7089539766311646
1707164801957794600,13.533794677734376,-0.770638108253479,1.144547462463379,2.1332712173461914
1707164801976754400,13.55275439453125,-0.5077855587005615,1.5300016403198242,2.248997926712036
1707164801995714000,13.571714111328125,0.056952714920043945,1.4133529663085938,2.1792421340942383
1707164802014673700,13.590673583984374,-0.022176027297973633,1.9205894470214844,1.6819899082183838
1707164802033633300,13.60963330078125,-1.182428002357483,4.076706886291504,0.8996712565422058
1707164802052593200,13.62859326171875,-0.6006050109863281,5.243565559387207,1.3565359115600586
1707164802071552800,13.647552734375,1.8449101448059082,5.354418754577637,2.358476161956787
1707164802090512400,13.666512451171876,1.5249000787734985,4.673375129699707,1.7400678396224976
1707164802109472300,13.68547216796875,0.6652981042861938,3.181513786315918,0.28696930408477783
1707164802128431900,13.704431884765626,-0.19676220417022705,2.257840156555176,-0.6352861523628235
1707164802147391500,13.7233916015625,-0.30816227197647095,1.3566522598266602,-0.5834547281265259
1707164802166351000,13.74235107421875,-0.03874701261520386,0.5702037811279297,-0.0012880563735961914
1707164802185311000,13.76131103515625,-0.044522106647491455,0.4561138153076172,0.6623389720916748
1707164802204270600,13.7802705078125,-0.20653915405273438,0.7075920104980469,1.0275614261627197
1707164802223230200,13.799230224609374,-0.5748268365859985,0.5856056213378906,0.9262152910232544
1707164802242189800,13.81818994140625,-0.84153813123703,-0.1938495635986328,0.5082415342330933
1707164802261149700,13.837149658203124,-0.9087468385696411,-1.4079399108886719,-0.17045557498931885
1707164802280109300,13.856109375,-0.9271204471588135,-2.5709667205810547,-0.8148993253707886
1707164802299069200,13.875069091796876,-0.97974693775177,-3.38350772857666,-1.3377221822738647
1707164802318028800,13.89402880859375,-1.0522875785827637,-3.890672206878662,-1.776597261428833
1707164802336988400,13.912988525390626,-1.1276557445526123,-4.048737525939941,-2.141111135482788
1707164802355948300,13.9319482421875,-1.2643204927444458,-3.920011520385742,-2.4114491939544678
1707164802374908000,13.950907958984375,-1.3819239139556885,-3.510037422180176,-2.5519216060638428
1707164802393867500,13.969867431640624,-1.4740207195281982,-2.96176815032959,-2.612992286682129
1707164802412827100,13.9888271484375,-1.528823733329773,-2.286129951477051,-2.5949463844299316
1707164802431787000,14.007787109375,-1.5209827423095703,-1.3769330978393555,-2.5515494346618652
1707164802450746600,14.02674658203125,-1.5501247644424438,-0.2582988739013672,-2.0975146293640137
1707164802469706200,14.045706298828126,-1.1294078826904297,0.739227294921875,-1.4487619400024414
1707164802488666000,14.064666015625,-0.3153696060180664,1.2372570037841797,-0.7852439880371094
1707164802507625700,14.083625732421876,0.3671486973762512,1.7266817092895508,-0.3159012794494629
1707164802526585300,14.10258544921875,0.6657547354698181,2.717991828918457,-0.17163372039794922
1707164802545545000,14.121544921875,0.8009146451950073,3.89968204498291,-0.05949115753173828
1707164802564504800,14.1405048828125,1.2878475189208984,4.173858642578125,-0.22307300567626953
1707164802583464400,14.15946435546875,1.770606517791748,4.030851364135742,-0.7905118465423584
1707164802602424000,14.178424072265624,0.6594285368919373,5.483102798461914,-1.041369915008545
1707164802621383700,14.1973837890625,0.03135460615158081,7.73060417175293,0.14380121231079102
1707164802640343300,14.21634326171875,1.8093706369400024,6.0189971923828125,0.7376527786254883
1707164802659303200,14.23530322265625,3.8128151893615723,1.8469228744506836,-0.48171520233154297
1707164802678262800,14.2542626953125,4.477634429931641,-0.4937267303466797,-1.128938913345337
1707164802697222400,14.273222412109375,3.2233357429504395,-0.7221698760986328,-1.599255084991455
1707164802716182000,14.29218212890625,2.1097137928009033,-0.061004638671875,-1.6675649881362915
1707164802735142000,14.311141845703125,1.2196412086486816,0.24202632904052734,-1.5598125457763672
1707164802754101500,14.3301015625,0.330446720123291,0.04093742370605469,-1.6678985357284546
1707164802773061000,14.34906103515625,-0.35522401332855225,-0.14818477630615234,-1.2829179763793945
1707164802792021000,14.36802099609375,-0.47800344228744507,-0.6759815216064453,-0.5515832901000977
1707164802810980600,14.386980712890624,-0.29369962215423584,-1.4969673156738281,0.3187985420227051
1707164802829940200,14.405940185546875,-0.24042928218841553,-2.543363571166992,0.7406642436981201
1707164802848899800,14.42489990234375,-0.5227326154708862,-3.3362574577331543,0.9362983703613281
1707164802867859700,14.443859619140625,-0.9919401407241821,-3.79488468170166,0.792452335357666
1707164802886819300,14.4628193359375,-1.3192133903503418,-3.846233367919922,0.7731332778930664
1707164802905779000,14.481779052734375,-1.4460984468460083,-3.605348587036133,0.9709898233413696
1707164802924738800,14.50073876953125,-1.3785992860794067,-3.1661062240600586,1.2492198944091797
1707164802943698400,14.519698486328124,-1.2536035776138306,-2.72537899017334,1.4171552658081055
1707164802962658000,14.538657958984375,-1.0923192501068115,-2.1851930618286133,1.6241472959518433
1707164802981617700,14.55761767578125,-0.8201541900634766,-1.6043105125427246,1.7661089897155762
1707164803000577300,14.576577392578125,-0.6407886743545532,-0.9576749801635742,2.1154603958129883
1707164803019537200,14.595537109375,-0.48257720470428467,-0.44339847564697266,2.110574245452881
1707164803038496800,14.614496826171875,-0.5929533243179321,0.5243062973022461,1.7409391403198242
1707164803057456400,14.633456298828126,-0.8226275444030762,1.0651540756225586,1.0120176076889038
1707164803076416000,14.652416015625,-0.7762872576713562,1.4574670791625977,0.6421114206314087
1707164803095376000,14.6713759765625,-0.6497293710708618,1.8539314270019531,1.0074336528778076
1707164803114335500,14.69033544921875,-0.5129040479660034,2.9585580825805664,1.8638603687286377
1707164803133295000,14.709295166015625,-0.8660097122192383,4.436264991760254,1.735247254371643
1707164803152254700,14.728254638671874,0.25776898860931396,5.11931037902832,2.169492721557617
1707164803171214600,14.747214599609375,1.7422915697097778,5.694903373718262,2.8997416496276855
1707164803190174200,14.76617431640625,1.5065621137619019,4.646080017089844,2.3243651390075684
1707164803209133800,14.7851337890625,0.8013484477996826,2.634852409362793,0.42289459705352783
1707164803228093400,14.804093505859376,0.009248137474060059,1.5083189010620117,-0.9071123600006104
1707164803247053000,14.823052978515625,-0.3036723732948303,0.8071479797363281,-0.9546353816986084
1707164803266013000,14.842012939453125,-0.18860936164855957,0.16636943817138672,-0.48403364419937134
1707164803284972500,14.86097265625,-0.10492479801177979,-0.11936187744140625,-0.06273198127746582
1707164803303932200,14.87993212890625,-0.3302417993545532,-0.06035804748535156,0.08029258251190186
1707164803322892000,14.89889208984375,-0.6033933162689209,-0.19977569580078125,-0.23009222745895386
1707164803341851600,14.9178515625,-0.7087250351905823,-1.0573186874389648,-0.8370162844657898
1707164803360811300,14.936811279296874,-0.6591740846633911,-2.1850199699401855,-1.3166511058807373
1707164803379771000,14.95577099609375,-0.582179844379425,-3.1656041145324707,-1.5936588048934937
1707164803398730500,14.97473046875,-0.556533694267273,-3.8872408866882324,-1.6370906829833984
1707164803417690400,14.9936904296875,-0.47478726506233215,-4.280706405639648,-1.6555228233337402
1707164803436650000,15.01264990234375,-0.45908790826797485,-4.412207126617432,-1.7317203283309937
1707164803455609600,15.031609619140625,-0.5745535492897034,-4.055229663848877,-1.8128337860107422
1707164803474569200,15.0505693359375,-0.9575530886650085,-3.1504998207092285,-1.8814696073532104
1707164803493529000,15.069529052734374,-1.3060739040374756,-1.8579788208007812,-1.8680721521377563
1707164803512488700,15.08848876953125,-1.4827353954315186,-0.7560577392578125,-1.6550230979919434
1707164803531448300,15.1074482421875,-1.4146231412887573,-0.11299800872802734,-1.1830687522888184
1707164803550408000,15.126407958984375,-0.9325899481773376,0.1252908706665039,-0.6864485740661621
1707164803569367600,15.145367431640626,-0.4763747751712799,0.9741134643554688,-0.4717841148376465
1707164803588327400,15.164327392578125,-0.5952077507972717,2.4876365661621094,-0.20751428604125977
1707164803607287000,15.183287109375,-0.20043201744556427,3.8939132690429688,0.5616455078125
1707164803626246700,15.20224658203125,0.4134506583213806,4.459264755249023,0.666475772857666
1707164803645206500,15.22120654296875,1.0692607164382935,4.92595100402832,0.5975008010864258
1707164803664166000,15.240165771484374,0.4666750133037567,7.05703067779541,0.5768022537231445
1707164803683125800,15.259125732421875,-0.31154054403305054,9.384974479675293,1.5415565967559814
1707164803702085400,15.27808544921875,2.073742151260376,6.813251495361328,1.4414176940917969
1707164803721045000,15.297044921875,4.697070598602295,2.048664093017578,-0.016707181930541992
1707164803740004900,15.3160048828125,4.883083343505859,-1.145604133605957,-1.311506986618042
1707164803758964500,15.334964599609375,3.251924514770508,-2.1025848388671875,-2.204761266708374
1707164803777924000,15.353924072265626,1.7900359630584717,-1.2675046920776367,-2.3368868827819824
1707164803796883700,15.3728837890625,0.6281354427337646,-0.5158576965332031,-2.319925546646118
1707164803815843300,15.39184326171875,-0.19310986995697021,-0.9013175964355469,-2.186875820159912
1707164803834803200,15.41080322265625,-0.4882924556732178,-1.5277867317199707,-1.9908232688903809
1707164803853762800,15.4297626953125,-0.5334153771400452,-1.4472227096557617,-0.9582202434539795
1707164803872722400,15.448722412109374,-0.4222070574760437,-1.617483139038086,0.24025988578796387
1707164803891682000,15.46768212890625,-0.2498723268508911,-2.2435450553894043,1.0207722187042236
1707164803910641700,15.4866416015625,-0.48331475257873535,-2.8901753425598145,1.2794251441955566
1707164803929601500,15.5056015625,-0.7942725419998169,-3.407867431640625,1.0673537254333496
1707164803948561200,15.52456103515625,-1.059922695159912,-3.6130781173706055,0.9373376369476318
1707164803967520800,15.543520751953125,-1.2703841924667358,-3.4518656730651855,1.0714446306228638
1707164803986480400,15.56248046875,-1.1839475631713867,-3.0729103088378906,1.3188247680664062
1707164804005440000,15.58143994140625,-0.9686335325241089,-2.552109718322754,1.4694966077804565
1707164804024399600,15.600399658203125,-0.83741295337677,-1.9441561698913574,1.65742826461792
1707164804043359500,15.619359375,-0.6447724103927612,-1.2937507629394531,1.8171459436416626
1707164804062319000,15.638319091796875,-0.6107867956161499,-0.7787694931030273,1.905755639076233
1707164804081278700,15.65727880859375,-0.49243688583374023,-0.2252206802368164,1.8639193773269653
1707164804100238300,15.67623828125,-0.44956839084625244,0.5105934143066406,1.693255066871643
1707164804119198000,15.695197998046876,-0.6316932439804077,1.1928834915161133,1.0840625762939453
1707164804138157800,15.71415771484375,-0.7847763299942017,1.5920648574829102,0.6036570072174072
1707164804157117400,15.733117431640625,-0.47157442569732666,1.778700828552246,0.874955415725708
1707164804176077000,15.7520771484375,-0.25149810314178467,2.812140464782715,1.3922621011734009
1707164804195036700,15.77103662109375,-0.6218923330307007,4.523501396179199,1.0904510021209717
1707164804213996300,15.789996337890624,0.11213564872741699,5.868659019470215,1.6624823808670044
1707164804232956200,15.8089560546875,1.8523650169372559,6.25412654876709,2.9854915142059326
1707164804251915800,15.827915771484374,2.301177501678467,3.830272674560547,2.419337272644043
1707164804270875400,15.84687548828125,1.4715960025787354,1.7928476333618164,0.5419775247573853
1707164804289835000,15.8658349609375,0.18370413780212402,1.378861427307129,-0.6399999856948853
1707164804308794600,15.884794677734375,-0.14851140975952148,0.7927579879760742,-0.8459862470626831
1707164804327754200,15.903754150390625,-0.16621506214141846,0.10665035247802734,-0.5464283227920532
1707164804346714000,15.922714111328125,-0.18732339143753052,-0.061844825744628906,-0.12233012914657593
1707164804365673700,15.941673828125,-0.22905027866363525,0.021823883056640625,0.2716914415359497
1707164804384633300,15.96063330078125,-0.30418193340301514,-0.5045242309570312,0.21027469635009766
1707164804403593000,15.979593017578125,-0.3945035934448242,-1.6548538208007812,-0.19828033447265625
1707164804422552600,15.998552490234376,-0.4487324655056,-2.83347225189209,-0.7362186908721924
1707164804441512400,16.017512451171875,-0.6117218136787415,-3.7701587677001953,-1.2602288722991943
1707164804460472000,16.03647216796875,-0.8161255717277527,-4.355212211608887,-1.6720918416976929
1707164804479431700,16.055431640625,-0.9538631439208984,-4.591876029968262,-1.94534170627594
1707164804498391300,16.074391357421874,-0.9771289229393005,-4.5598626136779785,-2.2022454738616943
1707164804517351200,16.09335107421875,-1.1102489233016968,-4.126104354858398,-2.3373847007751465
1707164804536310800,16.112310791015624,-1.319410800933838,-3.3584890365600586,-2.3742783069610596
1707164804555270400,16.1312705078125,-1.5228710174560547,-2.1810569763183594,-2.353513717651367
1707164804574230000,16.15022998046875,-1.7058541774749756,-0.9269924163818359,-1.8843835592269897
1707164804593189600,16.169189697265626,-1.5292102098464966,0.21564865112304688,-1.2997965812683105
1707164804612149500,16.1881494140625,-1.1476435661315918,0.7954769134521484,-0.8426191806793213
1707164804631109000,16.207109130859376,-0.5084506273269653,1.3425607681274414,-0.42655277252197266
1707164804650068700,16.22606884765625,0.09615040570497513,2.4929323196411133,0.27056145668029785
1707164804669028400,16.2450283203125,0.47433802485466003,4.164023399353027,0.7944521903991699
1707164804687988000,16.263988037109375,1.389493703842163,4.8210344314575195,1.2460362911224365
1707164804706947800,16.28294775390625,2.5845606327056885,4.049040794372559,0.7609002590179443
1707164804725907500,16.301907470703124,1.523983120918274,5.179319381713867,0.2100067138671875
1707164804744867000,16.3208671875,0.45135775208473206,7.907236099243164,0.6237106323242188
1707164804763827000,16.339826904296874,2.339162588119507,6.0907487869262695,0.5261316299438477
1707164804782786300,16.358786376953127,4.191041469573975,1.9539299011230469,-0.7891855239868164
1707164804801746200,16.37774609375,4.4437255859375,0.4794130325317383,-0.9898524284362793
1707164804820705800,16.396705810546877,3.384082555770874,0.3363151550292969,-1.2752892971038818
1707164804839665400,16.41566552734375,2.237321138381958,0.40918922424316406,-1.5767101049423218
1707164804858625300,16.434625244140626,0.8684360384941101,0.5526638031005859,-1.7407171726226807
1707164804877585000,16.4535849609375,-0.36146172881126404,0.4616575241088867,-1.8189153671264648
1707164804896544500,16.47254443359375,-0.7700059413909912,-0.0012521743774414062,-1.4514708518981934
1707164804915504000,16.491504150390625,-0.5710628032684326,-1.071030616760254,-0.5344593524932861
1707164804934464000,16.510464111328126,-0.12626034021377563,-2.153830051422119,0.6278061866760254
1707164804953423600,16.529423583984375,0.1118120551109314,-3.1185998916625977,1.5020828247070312
1707164804972383200,16.54838330078125,-0.007600963115692139,-3.864583969116211,1.7312610149383545
1707164804991342800,16.5673427734375,-0.35123133659362793,-4.291305065155029,1.4775032997131348
1707164805010302700,16.586302734375,-0.7369899749755859,-4.460513114929199,1.1416620016098022
1707164805029262300,16.605262451171875,-1.0535070896148682,-4.203091144561768,0.9441938400268555
1707164805048222000,16.624221923828124,-1.2798370122909546,-3.734869956970215,0.7722581624984741
1707164805067181800,16.643181884765625,-1.286871314048767,-2.9663548469543457,0.6908941268920898
1707164805086141400,16.662141357421874,-1.2117784023284912,-2.2035555839538574,0.7611355185508728
1707164805105101000,16.68110107421875,-0.940109372138977,-1.4245481491088867,1.1028146743774414
1707164805124060700,16.700060791015623,-0.5252591371536255,-0.7572336196899414,1.4551215171813965
1707164805143020500,16.7190205078125,-0.23073089122772217,-0.1655426025390625,1.92025887966156
1707164805161980200,16.737980224609377,-0.09222126007080078,0.6797571182250977,1.858790636062622
1707164805180939800,16.756939697265626,-0.39138591289520264,1.86468505859375,1.5270357131958008
1707164805199899600,16.775899658203127,-0.4377598762512207,2.5600624084472656,1.554855227470398
1707164805218859300,16.794859375,-0.1173563003540039,2.575533866882324,1.7305614948272705
1707164805237819000,16.81381884765625,-0.10530567169189453,3.7212581634521484,1.634521722793579
1707164805256778500,16.832778564453125,-0.41637396812438965,5.178902626037598,1.4288592338562012
1707164805275738400,16.85173828125,0.9888885021209717,5.408411026000977,1.9448373317718506
1707164805294698000,16.870697998046875,1.8882133960723877,4.890466690063477,2.1635477542877197
1707164805313657600,16.88965771484375,1.452907681465149,3.315524101257324,1.367600440979004
1707164805332617500,16.908617431640625,0.5246999263763428,1.6788311004638672,-0.004044592380523682
1707164805351577000,16.9275771484375,-0.009608924388885498,0.6654443740844727,-0.9875450134277344
1707164805370536700,16.94653662109375,-0.28302234411239624,0.18617630004882812,-1.0690460205078125
1707164805389496600,16.96549658203125,-0.30134063959121704,0.013723373413085938,-0.5942774415016174
1707164805408456200,16.984456298828125,-0.2756751775741577,0.039101600646972656,-0.171190083026886
1707164805427415800,17.003415771484374,-0.48935335874557495,0.37955188751220703,0.21202588081359863
1707164805446375700,17.022375732421875,-0.7651705145835876,0.17752647399902344,0.37009549140930176
1707164805465335300,17.041335205078123,-0.7426749467849731,-0.9404449462890625,0.11999082565307617
1707164805484295200,17.060295166015624,-0.5360131859779358,-2.382918357849121,-0.3478395938873291
1707164805503254800,17.0792548828125,-0.4860011339187622,-3.610889434814453,-0.8293710947036743
1707164805522214400,17.09821435546875,-0.5158687829971313,-4.381908416748047,-1.2233026027679443
1707164805541174000,17.117174072265627,-0.6024340391159058,-4.705826759338379,-1.532271385192871
1707164805560134000,17.1361337890625,-0.7618242502212524,-4.688113212585449,-1.793591022491455
1707164805579093500,17.155093505859377,-1.0050902366638184,-4.276531219482422,-2.0191848278045654
1707164805598053400,17.174053466796874,-1.3170584440231323,-3.4606003761291504,-2.2528350353240967
1707164805617013000,17.193012939453126,-1.6290435791015625,-2.3078794479370117,-2.403017044067383
1707164805635972600,17.21197265625,-1.7660863399505615,-1.1533184051513672,-2.3321218490600586
1707164805654932500,17.230932373046876,-1.7567088603973389,-0.24745845794677734,-1.9728879928588867
1707164805673892000,17.24989208984375,-1.3337266445159912,0.3422727584838867,-1.6269607543945312
1707164805692851700,17.268851806640626,-0.7320504188537598,1.3383903503417969,-1.1333277225494385
1707164805711811600,17.2878115234375,-0.5341030955314636,3.0474138259887695,-0.2991783618927002
1707164805730771200,17.306771240234376,-0.18726855516433716,4.713438987731934,0.9383649826049805
1707164805749731000,17.32573095703125,0.6656625270843506,4.6504106521606445,1.3728556632995605
1707164805768690700,17.344690673828126,1.8653777837753296,3.9763097763061523,1.0385117530822754
1707164805787650600,17.363650634765627,1.7391959428787231,5.4292802810668945,0.9734745025634766
1707164805806610200,17.382610107421876,0.9426457285881042,8.151667594909668,2.397878646850586
1707164805825570000,17.401570068359376,1.836127758026123,6.657352447509766,2.397465944290161
1707164805844529700,17.42052978515625,4.119509696960449,2.418184280395508,0.8048901557922363
1707164805863489300,17.4394892578125,4.576239585876465,-0.4047517776489258,-0.6744515895843506
1707164805882449200,17.45844921875,3.440826177597046,-1.3050532341003418,-1.7301640510559082
1707164805901408800,17.47740869140625,1.9450050592422485,-0.4992208480834961,-1.8187354803085327
1707164805920368600,17.49636865234375,0.8027926683425903,0.15385818481445312,-1.8617459535598755
1707164805939328300,17.515328369140626,0.016161322593688965,-0.16010379791259766,-2.008218288421631
1707164805958288000,17.534287841796875,-0.42432793974876404,-0.8020305633544922,-1.961376667022705
1707164805977247700,17.553247802734376,-0.5382134914398193,-1.2731819152832031,-1.2481648921966553
1707164805996207400,17.572207275390625,-0.33070093393325806,-2.055591583251953,-0.3899650573730469
1707164806015167200,17.591167236328126,-0.05665111541748047,-3.0200815200805664,0.21664643287658691
1707164806034126800,17.610126953125,-0.16917383670806885,-3.7344799041748047,0.3991098403930664
1707164806053086700,17.629086669921875,-0.43551188707351685,-4.109892845153809,0.3480494022369385
1707164806072046300,17.64804638671875,-0.7508492469787598,-4.04080057144165,0.3577226400375366
1707164806091006200,17.667006103515625,-0.9552057385444641,-3.596590042114258,0.5834579467773438
1707164806109965800,17.6859658203125,-0.9735963940620422,-2.939640522003174,0.7647382020950317
1707164806128925700,17.70492578125,-0.7910646796226501,-2.2101101875305176,0.9172393083572388
1707164806147885300,17.72388525390625,-0.7257985472679138,-1.6365547180175781,1.0388063192367554
1707164806166845200,17.74284521484375,-0.5882247090339661,-1.1267004013061523,1.3205875158309937
1707164806185804800,17.7618046875,-0.32724666595458984,-0.8783769607543945,1.78097403049469
1707164806204764700,17.7807646484375,0.016184568405151367,-0.8119535446166992,2.289201259613037
1707164806223724300,17.799724365234376,0.15080320835113525,-0.264617919921875,2.2357382774353027
1707164806242684200,17.81868408203125,-0.2242593765258789,0.7015953063964844,1.7008557319641113
1707164806261644000,17.83764404296875,-0.31719398498535156,1.9208965301513672,1.5127081871032715
1707164806280603600,17.856603759765626,-0.13140976428985596,2.3581132888793945,1.764955759048462
1707164806299563300,17.875563232421875,0.18389058113098145,2.558788299560547,1.762577772140503
1707164806318523100,17.894523193359376,-0.5206222534179688,4.0422468185424805,0.9411994218826294
1707164806337482800,17.913482666015625,-0.3251170516014099,5.33723258972168,1.0039570331573486
1707164806356442600,17.932442626953126,1.2870240211486816,6.043033599853516,1.8236429691314697
1707164806375402200,17.95140234375,1.3357303142547607,4.826607704162598,1.538590908050537
1707164806394362000,17.970362060546876,0.7320964932441711,2.7138710021972656,0.0940815806388855
1707164806413322000,17.989322021484377,0.2803027033805847,1.1705255508422852,-1.018760323524475
1707164806432281600,18.008281494140626,0.04719024896621704,0.31757259368896484,-1.0787079334259033
1707164806451241500,18.027241455078126,0.1750330924987793,-0.2205371856689453,-0.6409479975700378
1707164806470201000,18.046201171875,0.28548485040664673,-0.3221321105957031,-0.32394230365753174
1707164806489161000,18.065160888671876,-0.051512718200683594,0.07542037963867188,-0.09604716300964355
1707164806508120800,18.084120849609373,-0.5422857999801636,0.17806529998779297,-0.11731040477752686
1707164806527080400,18.10308056640625,-0.7531647086143494,-0.6945934295654297,-0.44715118408203125
1707164806546040300,18.122040283203123,-0.6764036417007446,-2.07656192779541,-0.835270881652832
1707164806565000000,18.141,-0.5665674209594727,-3.3390464782714844,-1.1726977825164795
1707164806583959800,18.159959716796877,-0.4985627233982086,-4.226067543029785,-1.4256103038787842
1707164806602919700,18.178919677734374,-0.46188679337501526,-4.652761459350586,-1.5450763702392578
1707164806621879300,18.19787939453125,-0.5747441649436951,-4.565147399902344,-1.6682320833206177
1707164806640839200,18.216839111328124,-0.875201940536499,-3.9809064865112305,-1.7419168949127197
1707164806659798800,18.235798828125,-1.1446442604064941,-3.325261116027832,-1.800074815750122
1707164806678758700,18.254758544921874,-1.4131633043289185,-2.5620288848876953,-2.1094913482666016
1707164806697718500,18.273718505859375,-1.6909011602401733,-1.4279193878173828,-2.189455986022949
1707164806716678400,18.292678466796875,-1.730826497077942,-0.31697750091552734,-1.7910473346710205
1707164806735638000,18.311637939453124,-1.337372064590454,0.09991264343261719,-1.216317892074585
1707164806754598000,18.330597900390625,-0.6949218511581421,0.38136959075927734,-0.532658576965332
1707164806773557800,18.349557861328126,-0.3042573630809784,1.3776483535766602,-0.041384220123291016
1707164806792517400,18.368517333984375,-0.24538680911064148,3.155270576477051,0.41334033012390137
1707164806811477200,18.387477294921876,-0.06540077924728394,4.508784294128418,1.2830195426940918
1707164806830437000,18.40643701171875,0.6334840655326843,4.367243766784668,1.7984662055969238
1707164806849396700,18.425396728515626,1.478744387626648,3.690670967102051,1.3159403800964355
1707164806868356600,18.444356689453127,1.1882882118225098,4.941195487976074,0.662987232208252
1707164806887316500,18.46331640625,0.49390074610710144,6.897369384765625,1.2145702838897705
1707164806906276000,18.482276123046876,1.2642005681991577,5.340532302856445,1.4628560543060303
1707164806925236000,18.501236083984374,2.691884994506836,2.3827619552612305,0.588629961013794
1707164806944195800,18.52019580078125,3.368621587753296,0.7360286712646484,0.14790844917297363
1707164806963155500,18.539155517578124,3.2400879859924316,-0.2843656539916992,-0.20629549026489258
1707164806982115300,18.558115234375,2.6653385162353516,-0.8292760848999023,-0.5094890594482422
1707164807001075200,18.5770751953125,1.7925920486450195,-0.9409894943237305,-0.8277955055236816
1707164807020035000,18.59603515625,0.7979980707168579,-1.154942512512207,-1.4174636602401733
1707164807038994700,18.61499462890625,-0.06064635515213013,-1.3886065483093262,-2.0946555137634277
1707164807057954600,18.63395458984375,-0.8233193159103394,-1.6095447540283203,-2.31026029586792
1707164807076914400,18.65291455078125,-1.0548105239868164,-2.1086530685424805,-1.974828839302063
1707164807095874000,18.6718740234375,-0.8848196864128113,-2.7317399978637695,-1.2520136833190918
1707164807114834000,18.690833984375,-0.7232317328453064,-3.440937042236328,-0.38021087646484375
1707164807133793800,18.709793701171876,-0.7505068182945251,-3.832787036895752,0.15226030349731445
1707164807152753700,18.728753662109376,-0.8537726998329163,-3.7436485290527344,0.5452291965484619
1707164807171713300,18.74771337890625,-0.9735617637634277,-3.3227977752685547,0.9166946411132812
1707164807190673200,18.766673095703126,-1.0645745992660522,-2.899171829223633,1.268814206123352
1707164807209633000,18.785633056640624,-0.8805793523788452,-2.307283401489258,1.7345221042633057
1707164807228593000,18.804593017578124,-0.5527175664901733,-1.6363277435302734,2.1116931438446045
1707164807247552800,18.823552734375,-0.21162980794906616,-1.0849742889404297,2.201856851577759
1707164807266512400,18.842512451171874,-0.11517554521560669,-1.059208869934082,2.0756053924560547
1707164807285472300,18.86147216796875,-0.036740243434906006,-0.8935155868530273,1.8523008823394775
1707164807304432000,18.88043212890625,-0.2521016001701355,-0.00879669189453125,1.4237871170043945
1707164807323392000,18.89939208984375,-0.7853655815124512,1.0636577606201172,1.0153411626815796
1707164807342351600,18.9183515625,-0.7886272668838501,1.844285011291504,1.1227619647979736
1707164807361311500,18.9373115234375,0.05997425317764282,2.2746572494506836,1.7585320472717285
1707164807380271400,18.956271240234376,0.09512835741043091,3.1313629150390625,2.025465488433838
1707164807399231200,18.975231201171876,-0.9590003490447998,5.021778106689453,1.511074185371399
1707164807418191000,18.994191162109374,-0.20947152376174927,6.430747985839844,2.2213008403778076
1707164807437151000,19.01315087890625,1.1046082973480225,6.915447235107422,3.48445463180542
1707164807456110600,19.032110595703124,1.1879374980926514,4.637073516845703,2.585609197616577
1707164807475070500,19.051070556640624,1.217576265335083,2.252239227294922,1.041677713394165
1707164807494030300,19.0700302734375,0.5125674605369568,1.1661243438720703,-0.35762524604797363
1707164807512990200,19.088990234375,-0.025003433227539062,0.5418081283569336,-1.0892863273620605
1707164807531949800,19.10794970703125,-0.18019205331802368,0.014323234558105469,-1.4029139280319214
1707164807550910000,19.126909912109376,-0.14495861530303955,-0.42389774322509766,-1.5270099639892578
1707164807569869600,19.14586962890625,-0.23050850629806519,-0.4366121292114258,-1.358538269996643
1707164807588829400,19.164829345703126,-0.4270842373371124,-0.5742378234863281,-0.9834431409835815
1707164807607789300,19.183789306640627,-0.4333699643611908,-1.3544731140136719,-0.7008771896362305
1707164807626749200,19.202749267578124,-0.23713023960590363,-2.5572872161865234,-0.6488434076309204
1707164807645709000,19.221708984375,-0.034730106592178345,-3.6712646484375,-0.8140954971313477
1707164807664669000,19.2406689453125,0.026264548301696777,-4.361569881439209,-1.0200231075286865
1707164807683628800,19.25962890625,-0.13615833222866058,-4.546496391296387,-1.1830346584320068
1707164807702588400,19.27858837890625,-0.44181180000305176,-4.321727752685547,-1.303797721862793
1707164807721548300,19.29754833984375,-0.7900174856185913,-3.8033523559570312,-1.4440425634384155
1707164807740508200,19.316508056640625,-1.1184409856796265,-3.0637269020080566,-1.7098944187164307
1707164807759468000,19.335468017578126,-1.4327011108398438,-2.080605983734131,-1.9289188385009766
1707164807778428000,19.354427978515623,-1.5723451375961304,-1.2239999771118164,-1.8397140502929688
1707164807797387800,19.3733876953125,-1.5145092010498047,-0.5578184127807617,-1.4318056106567383
1707164807816347600,19.39234765625,-1.1643671989440918,0.06311321258544922,-0.8699202537536621
1707164807835307300,19.411307373046874,-0.5767278671264648,0.9651031494140625,-0.37662839889526367
1707164807854267100,19.43026708984375,-0.25695133209228516,2.1659860610961914,0.2017955780029297
1707164807873227000,19.44922705078125,0.10876188427209854,3.5952043533325195,1.0205659866333008
1707164807892187000,19.468186767578125,0.7394758462905884,4.385242462158203,1.5655217170715332
1707164807911146800,19.487146728515626,2.155700922012329,4.00620174407959,1.4576940536499023
1707164807930106600,19.506106689453127,1.8522785902023315,4.910606384277344,0.6921024322509766
1707164807949066500,19.52506640625,0.23553384840488434,8.605659484863281,1.1367249488830566
1707164807968026000,19.544026123046876,1.6298630237579346,7.602585792541504,1.903374195098877
1707164807986986000,19.562986083984374,4.599484920501709,1.874246597290039,-0.02370452880859375
1707164808005945900,19.58194580078125,5.001443386077881,-1.3537282943725586,-1.4640889167785645
1707164808024905700,19.60090576171875,2.7896945476531982,-1.364640235900879,-2.382179021835327
1707164808043865600,19.619865478515624,1.4450080394744873,0.3549079895019531,-2.484412431716919
1707164808062825500,19.638825439453125,0.34826916456222534,1.2045469284057617,-2.0303802490234375
1707164808081785300,19.657785400390626,-0.5440365672111511,0.5144729614257812,-1.8552794456481934
1707164808100745200,19.6767451171875,-0.5920514464378357,-0.4384746551513672,-1.5915396213531494
1707164808119704800,19.695704833984376,-0.40126895904541016,-1.4589567184448242,-0.7089443206787109
1707164808138665000,19.7146650390625,-0.11646482348442078,-2.454916000366211,0.3792428970336914
1707164808157624600,19.73362451171875,0.05278170108795166,-3.2526211738586426,1.2798562049865723
1707164808176584400,19.75258447265625,-0.1205175518989563,-3.861267566680908,1.6030874252319336
1707164808195544300,19.77154443359375,-0.45620784163475037,-4.035251617431641,1.492955207824707
1707164808214504200,19.790504150390625,-0.76581871509552,-4.134175777435303,1.1615779399871826
1707164808233464000,19.809464111328126,-0.911880373954773,-4.031253814697266,0.8761148452758789
1707164808252424000,19.828423828125,-1.029206395149231,-3.476952075958252,0.6821802854537964
1707164808271383800,19.8473837890625,-1.2309437990188599,-2.737478733062744,0.6363766193389893
1707164808290343700,19.86634375,-1.267064094543457,-2.1882410049438477,0.611335039138794
1707164808309303300,19.88530322265625,-1.09019935131073,-1.5078983306884766,1.0866625308990479
1707164808328263200,19.90426318359375,-0.7298276424407959,-0.6622409820556641,1.8502388000488281
1707164808347223000,19.92322314453125,-0.40945589542388916,-0.11765766143798828,2.6007583141326904
1707164808366183000,19.942182861328124,-0.11408793926239014,0.7453403472900391,2.6185169219970703
1707164808385142800,19.961142822265625,-0.4729580879211426,1.6704721450805664,2.102175235748291
1707164808404102700,19.9801025390625,-0.4915452003479004,2.319655418395996,1.8911774158477783
1707164808423062500,19.9990625,-0.15634727478027344,2.3921031951904297,1.9930534362792969
1707164808442022400,20.0180224609375,-0.39180266857147217,2.7424392700195312,1.6277965307235718
1707164808460982000,20.03698193359375,-0.9558656215667725,4.458253860473633,0.9217947125434875
1707164808479942100,20.055942138671874,-0.3219480514526367,5.24528694152832,1.1220797300338745
1707164808498901800,20.07490185546875,1.662034034729004,5.141999244689941,2.2116031646728516
1707164808517861600,20.093861572265624,1.4135799407958984,3.4812211990356445,2.1011996269226074
1707164808536821500,20.112821533203125,1.0442343950271606,1.5852699279785156,0.6419152617454529
1707164808555781400,20.131781494140625,0.35450589656829834,0.9174585342407227,-0.4669608473777771
1707164808574741200,20.1507412109375,-0.1770877242088318,0.8443164825439453,-0.7542190551757812
1707164808593700900,20.169700927734375,-0.2868688702583313,0.5436878204345703,-0.8745929598808289
1707164808612661000,20.188660888671876,-0.413396954536438,0.6623144149780273,-0.6977407336235046
1707164808631620600,20.20762060546875,-0.7452058792114258,0.8257923126220703,-0.46875661611557007
1707164808650580500,20.22658056640625,-0.8323938846588135,0.10470771789550781,-0.42421722412109375
1707164808669540400,20.245540283203123,-0.6191236972808838,-1.390213966369629,-0.5701117515563965
1707164808688500200,20.264500244140624,-0.37916991114616394,-2.9105052947998047,-0.6765048503875732
1707164808707460000,20.283460205078125,-0.18819110095500946,-3.89060115814209,-0.7228457927703857
1707164808726420000,20.302419921875,-0.10386283695697784,-4.34317684173584,-0.7095370292663574
1707164808745379800,20.3213798828125,-0.1321265548467636,-4.467876434326172,-0.7780835628509521
1707164808764339700,20.340339599609376,-0.26099464297294617,-4.282817840576172,-0.9624948501586914
1707164808783299300,20.35929931640625,-0.3989989757537842,-3.8670153617858887,-1.2497107982635498
1707164808802259200,20.37825927734375,-0.6339409351348877,-3.371135711669922,-1.681480884552002
1707164808821219000,20.397218994140626,-0.9404081702232361,-2.498826026916504,-1.9611178636550903
1707164808840179000,20.416178955078124,-1.2449188232421875,-0.9963750839233398,-1.7931547164916992
1707164808859138800,20.435138916015624,-1.3823994398117065,0.3390922546386719,-1.5795979499816895
1707164808878098700,20.4540986328125,-1.2254034280776978,0.8625631332397461,-1.329831600189209
1707164808897058600,20.47305859375,-0.9325660467147827,1.5873994827270508,-1.1435856819152832
1707164808916018200,20.49201806640625,-0.8081775903701782,3.1962804794311523,-0.5149135589599609
1707164808934978000,20.51097802734375,-0.2386951446533203,4.770689010620117,0.45067358016967773
1707164808953938000,20.52993798828125,0.9708494544029236,4.631535530090332,0.8377737998962402
1707164808972897800,20.548897705078126,2.4311773777008057,3.9264888763427734,0.38376283645629883
1707164808991857700,20.567857666015627,1.3497231006622314,6.020129203796387,-0.025715351104736328
1707164809010817500,20.586817626953124,0.394713819026947,8.414932250976562,0.9274039268493652
1707164809029777200,20.605777099609377,1.9999983310699463,5.629354476928711,0.567115306854248
1707164809048737000,20.624737060546874,4.147151947021484,1.795851707458496,-0.7456917762756348
1707164809067697000,20.64369677734375,4.380244255065918,0.2946453094482422,-1.1547596454620361
1707164809086656800,20.66265673828125,3.0174331665039062,0.5631265640258789,-1.1052980422973633
1707164809105616600,20.68161669921875,2.193699836730957,0.9381542205810547,-0.7534201145172119
1707164809124576500,20.700576416015625,1.100083827972412,0.562535285949707,-1.094907283782959
1707164809143536400,20.719536376953126,0.17904087901115417,-0.18926429748535156,-1.6074812412261963
1707164809162496000,20.73849609375,-0.45192283391952515,-0.9446029663085938,-1.5625417232513428
1707164809181456000,20.757455810546876,-0.45068830251693726,-1.8949365615844727,-1.0086156129837036
1707164809200415700,20.776415771484373,-0.27991756796836853,-2.740553855895996,-0.27947020530700684
1707164809219375600,20.795375732421874,-0.3014979362487793,-3.3822197914123535,0.2860910892486572
1707164809238335500,20.81433544921875,-0.602443516254425,-3.914828300476074,0.42116260528564453
1707164809257295400,20.83329541015625,-0.9810734987258911,-3.9827213287353516,0.39576494693756104
1707164809276255000,20.8522548828125,-1.361794352531433,-3.8695459365844727,0.4382425546646118
1707164809295214800,20.87121484375,-1.5735597610473633,-3.6512136459350586,0.5105299949645996
1707164809314174700,20.8901748046875,-1.5588960647583008,-3.186150550842285,0.6871355772018433
1707164809333134600,20.909134521484376,-1.3719117641448975,-2.5518674850463867,0.8854461908340454
1707164809352094500,20.928094482421876,-1.2477221488952637,-1.6610755920410156,1.135189414024353
1707164809371054300,20.947054443359374,-1.0665876865386963,-0.9431190490722656,1.6357942819595337
1707164809390014000,20.966013916015626,-0.6209146976470947,-0.6622734069824219,2.1691501140594482
1707164809408973800,20.984973876953124,-0.3203638792037964,-0.044638633728027344,2.349170684814453
1707164809427933700,21.00393359375,-0.4952397346496582,0.468353271484375,1.9691729545593262
1707164809446893600,21.0228935546875,-0.41255152225494385,0.6650075912475586,1.2377009391784668
1707164809465853200,21.041853271484374,-0.14220917224884033,1.3109664916992188,1.174331784248352
1707164809484813000,21.06081298828125,-0.4177802801132202,2.55856990814209,1.540802001953125
1707164809503773000,21.07977294921875,-1.0363764762878418,4.408702850341797,1.293306827545166
1707164809522732800,21.09873291015625,-0.813291072845459,5.0203857421875,1.066758394241333
1707164809541692700,21.117692626953126,1.447769284248352,4.810085296630859,1.9488564729690552
1707164809560652500,21.136652587890627,1.6508288383483887,3.702052116394043,1.710065245628357
1707164809579612200,21.155612060546876,0.708654522895813,2.469615936279297,0.40508055686950684
1707164809598572000,21.174572021484376,-0.2389695644378662,1.8457651138305664,-0.867485761642456
1707164809617532000,21.193531982421874,-0.38145148754119873,1.6393394470214844,-0.7829353213310242
1707164809636491800,21.21249169921875,-0.17471230030059814,1.7027883529663086,-0.03305906057357788
1707164809655451400,21.231451416015624,0.12070822715759277,1.7999114990234375,0.777156412601471
1707164809674411300,21.250411376953124,0.1315435767173767,1.5757427215576172,1.2066738605499268
1707164809693371100,21.26937109375,-0.07976287603378296,0.6880645751953125,0.8343952894210815
1707164809712331000,21.2883310546875,-0.21588200330734253,-0.7335968017578125,0.1683824062347412
1707164809731291000,21.307290771484375,-0.307063490152359,-2.2623748779296875,-0.46942782402038574
1707164809750250500,21.32625048828125,-0.3382682800292969,-3.4888696670532227,-0.9754738807678223
1707164809769210400,21.34521044921875,-0.30902108550071716,-4.337973594665527,-1.3836530447006226
1707164809788170200,21.364170166015626,-0.3363446593284607,-4.799132347106934,-1.5879929065704346
1707164809807130000,21.383130126953127,-0.49759602546691895,-4.868631362915039,-1.7218281030654907
1707164809826089700,21.40208984375,-0.6059213876724243,-4.638969421386719,-1.823872685432434
1707164809845049600,21.421049560546876,-0.7299400568008423,-4.132092475891113,-1.9268913269042969
1707164809864009500,21.440009521484374,-0.8951060771942139,-3.3678431510925293,-2.039015293121338
1707164809882969300,21.45896923828125,-1.0969176292419434,-2.2292613983154297,-1.9634692668914795
1707164809901929200,21.47792919921875,-1.3815522193908691,-0.7476787567138672,-1.856462001800537
1707164809920888800,21.496888916015624,-1.6111124753952026,0.24692535400390625,-1.6253156661987305
1707164809939848700,21.5158486328125,-1.427094578742981,1.373154640197754,-1.3375909328460693
1707164809958808600,21.53480859375,-1.3514090776443481,3.0971126556396484,-0.8345251083374023
1707164809977768400,21.5537685546875,-0.7712470293045044,4.791299819946289,0.3919522762298584
1707164809996728000,21.57272802734375,0.5714901685714722,4.83559513092041,1.4673500061035156
1707164810015688000,21.59168798828125,1.5091887712478638,3.894765853881836,0.5184841156005859
1707164810034647800,21.610647705078126,1.087883710861206,5.526284217834473,0.2800788879394531
1707164810053607700,21.629607666015627,0.5120924711227417,8.107341766357422,1.437671422958374
1707164810072567300,21.6485673828125,2.49703049659729,6.579520225524902,1.9242362976074219
1707164810091527200,21.667527099609377,4.947658061981201,2.1744070053100586,0.436718225479126
1707164810110487000,21.686487060546874,5.290355682373047,-0.5268487930297852,-1.1396534442901611
1707164810129447000,21.705447021484375,3.4570629596710205,-0.655731201171875,-2.338240623474121
1707164810148406500,21.724406494140624,2.131040096282959,0.2306509017944336,-2.7350144386291504
1707164810167366400,21.743366455078124,1.1137655973434448,0.7594623565673828,-2.5292153358459473
1707164810186326300,21.762326171875,-0.043343573808670044,0.35564231872558594,-2.1852850914001465
1707164810205286000,21.781285888671874,-0.7036561965942383,-0.28734683990478516,-1.7825939655303955
1707164810224245800,21.800245849609375,-0.7285706996917725,-0.9585123062133789,-0.9625447988510132
1707164810243205600,21.81920556640625,-0.3095927834510803,-1.8074727058410645,0.36945390701293945
1707164810262165200,21.838165283203125,-0.008942931890487671,-2.692591667175293,1.4219906330108643
1707164810281125000,21.857125,0.0288846492767334,-3.5056710243225098,1.861950159072876
1707164810300085000,21.8760849609375,-0.2423189878463745,-4.354512691497803,1.576499104499817
1707164810319044900,21.895044921875,-0.6787233352661133,-4.487853050231934,1.281748652458191
1707164810338004700,21.914004638671877,-1.2371869087219238,-3.994124412536621,1.24109947681427
1707164810356964400,21.93296435546875,-1.4363818168640137,-3.489199638366699,1.2757641077041626
1707164810375924200,21.95192431640625,-1.562008023262024,-2.9100680351257324,1.1110132932662964
1707164810394884000,21.970884033203124,-1.6116904020309448,-2.0873970985412598,0.9906390309333801
1707164810413843700,21.98984375,-1.6307560205459595,-1.47344970703125,1.1740355491638184
1707164810432803600,22.008803466796873,-1.3775056600570679,-1.1334123611450195,1.68538498878479
1707164810451763500,22.027763427734374,-0.9104744791984558,-0.4552440643310547,1.7496440410614014
1707164810470723000,22.04672314453125,-1.053375005722046,0.9852752685546875,1.748227834701538
1707164810489683000,22.065682861328124,-1.092092514038086,2.0937118530273438,2.0184755325317383
1707164810508642800,22.084642822265625,-0.05211770534515381,2.515530586242676,2.6640899181365967
1707164810527602400,22.1036025390625,0.3018302917480469,2.8434810638427734,2.3158764839172363
1707164810546562300,22.122562255859375,-0.39773815870285034,5.1659440994262695,1.9147636890411377
1707164810565522200,22.141522216796876,0.24275338649749756,6.815507888793945,2.4376308917999268
1707164810584482000,22.16048193359375,2.0367965698242188,6.589718818664551,2.8941328525543213
1707164810603441700,22.179441650390626,2.368100166320801,4.539384841918945,1.8531074523925781
1707164810622401500,22.198401611328126,1.5934115648269653,1.824441909790039,-0.19104743003845215
1707164810641361400,22.217361328125,0.1510552167892456,0.823084831237793,-1.6145750284194946
1707164810660321000,22.236321044921876,-0.5365414619445801,0.47816944122314453,-1.9458885192871094
1707164810679281000,22.255281005859374,-0.6235147714614868,-0.0037050247192382812,-1.6419520378112793
1707164810698240800,22.27424072265625,-0.604097843170166,-0.1832571029663086,-1.0161290168762207
1707164810717200400,22.293200439453123,-0.6681142449378967,-0.06615734100341797,-0.2912168502807617
1707164810736160300,22.31216015625,-0.6986813545227051,-0.43965816497802734,-0.033919334411621094
1707164810755120000,22.3311201171875,-0.42471253871917725,-1.5689592361450195,-0.06656932830810547
1707164810774079700,22.350079833984374,-0.12092941999435425,-2.8671345710754395,-0.1410353183746338
1707164810793039600,22.36903955078125,-0.04694405198097229,-3.9290847778320312,-0.4045717716217041
1707164810811999200,22.387999267578124,-0.07704411447048187,-4.623363018035889,-0.855705976486206
1707164810830959000,22.406958984375,-0.17138652503490448,-4.799208641052246,-1.1918237209320068
1707164810849919000,22.4259189453125,-0.4026775360107422,-4.617504596710205,-1.4670515060424805
1707164810868878600,22.444878662109375,-0.7376137375831604,-4.010285377502441,-1.7441611289978027
1707164810887838500,22.46383837890625,-1.0600935220718384,-2.964613914489746,-1.9646308422088623
1707164810906798300,22.48279833984375,-1.3218159675598145,-1.8234338760375977,-1.9083569049835205
1707164810925758000,22.501758056640625,-1.3542141914367676,-0.7824802398681641,-1.6764634847640991
1707164810944717800,22.5207177734375,-1.076075553894043,0.032494544982910156,-1.29740309715271
1707164810963677700,22.539677734375,-0.7173678278923035,0.8977479934692383,-0.7290859222412109
1707164810982637600,22.558637451171876,-0.37322890758514404,2.201967239379883,-0.03954267501831055
1707164811001597200,22.57759716796875,0.326638787984848,3.9668703079223633,0.5055999755859375
1707164811020557000,22.59655712890625,0.8590818047523499,4.7513427734375,0.5486049652099609
1707164811039516700,22.6155166015625,2.0061147212982178,3.95127010345459,0.14209842681884766
1707164811058476500,22.6344765625,1.994023084640503,3.9952468872070312,-0.909325122833252
1707164811077436400,22.6534365234375,0.22321033477783203,7.174016952514648,-0.505134105682373
1707164811096396000,22.67239599609375,-0.10577864944934845,8.98958683013916,1.2245521545410156
1707164811115356000,22.69135595703125,2.728989839553833,4.434345245361328,0.3822343349456787
1707164811134315500,22.7103154296875,4.566362380981445,-0.3326568603515625,-0.86934494972229
1707164811153275400,22.729275390625,3.643005847930908,-1.8309588432312012,-1.5221202373504639
1707164811172235300,22.7482353515625,1.9930659532546997,-1.1415519714355469,-2.1323070526123047
1707164811191195000,22.76719482421875,0.9907979369163513,0.03363609313964844,-1.618818759918213
1707164811210154800,22.78615478515625,-0.011831417679786682,0.8165531158447266,-0.8471012115478516
1707164811229114400,22.8051142578125,-0.6212930083274841,0.6224269866943359,-0.5188546180725098
1707164811248074200,22.82407421875,-0.4773210287094116,-0.1746234893798828,-0.28102922439575195
1707164811267034000,22.8430341796875,-0.12731632590293884,-1.165140151977539,0.5353209972381592
1707164811285993700,22.86199365234375,0.323341965675354,-1.9777517318725586,1.5717766284942627
1707164811304953600,22.88095361328125,0.4789259433746338,-2.8627500534057617,2.0471575260162354
1707164811323913200,22.899913330078125,0.168113112449646,-3.4647326469421387,1.8249337673187256
1707164811342873000,22.918873046875,-0.2830269932746887,-4.054588317871094,1.272228479385376
1707164811361833000,22.9378330078125,-0.6543060541152954,-4.234688758850098,1.0773966312408447
1707164811380792600,22.95679248046875,-0.9800839424133301,-3.8643598556518555,0.8756371736526489
1707164811399752400,22.97575244140625,-1.198830246925354,-3.04439115524292,0.6911654472351074
1707164811418712000,22.994712158203125,-1.3980193138122559,-2.339938163757324,0.3230797052383423
1707164811437672000,23.013671875,-1.543638825416565,-1.6645464897155762,0.2596995234489441
1707164811456631800,23.0326318359375,-1.4484144449234009,-1.1433773040771484,0.8982329964637756
1707164811475591400,23.05159130859375,-0.8298034071922302,-0.7275753021240234,1.6442760229110718
1707164811494551300,23.07055126953125,-0.2539733648300171,-0.07779121398925781,2.080155611038208
1707164811513511000,23.089510986328126,-0.25978362560272217,0.6384210586547852,1.9665868282318115
1707164811532470800,23.108470703125,-0.270316481590271,1.4055309295654297,1.8099626302719116
1707164811551430400,23.127430419921875,-0.300848126411438,1.8362207412719727,2.009749412536621
1707164811570390300,23.146390380859376,-0.44947993755340576,3.1732797622680664,1.9041848182678223
1707164811589350100,23.16535009765625,-0.5648478865623474,4.937341690063477,1.4086824655532837
1707164811608309800,23.184309814453126,1.3674993515014648,5.536836624145508,2.1533961296081543
1707164811627269600,23.20326953125,2.16511869430542,6.012330055236816,2.9064295291900635
1707164811646229200,23.222229248046876,0.8370760679244995,4.432843208312988,1.316103458404541
1707164811665189000,23.241189208984373,0.43681561946868896,2.0653133392333984,-0.8479781150817871
1707164811684148700,23.260148681640626,-0.5399212837219238,1.0802879333496094,-1.997535228729248
1707164811703108600,23.279108642578127,-0.8475205302238464,0.510838508605957,-2.092198371887207
1707164811722068500,23.298068359375,-0.5402498245239258,0.11861610412597656,-1.3806663751602173
1707164811741028000,23.317028076171876,-0.20772641897201538,0.32476234436035156,-0.3904411196708679
1707164811759988000,23.335988037109374,-0.20294475555419922,0.7801914215087891,0.3773714303970337
1707164811778947600,23.354947509765626,-0.3208264708518982,0.3590679168701172,0.5422170162200928
1707164811797907500,23.373907470703124,-0.2738836109638214,-0.9659614562988281,0.18517780303955078
1707164811816867000,23.3928671875,-0.16445758938789368,-2.492006301879883,-0.2594184875488281
1707164811835827000,23.411826904296873,-0.2016797810792923,-3.7356858253479004,-0.7907357215881348
1707164811854786600,23.43078662109375,-0.3302910029888153,-4.402115345001221,-1.3138939142227173
1707164811873746400,23.449746337890623,-0.5488945245742798,-4.526758670806885,-1.7310972213745117
1707164811892706300,23.468706298828124,-0.835673451423645,-4.297510147094727,-1.9099793434143066
1707164811911666000,23.487666015625,-0.9711946249008179,-3.937725067138672,-1.9164438247680664
1707164811930625800,23.506625732421874,-1.0450371503829956,-3.341629981994629,-1.8188896179199219
1707164811949585400,23.52558544921875,-1.23843514919281,-2.3226051330566406,-1.6914865970611572
1707164811968545300,23.544545166015624,-1.341296672821045,-1.1651802062988281,-1.5417640209197998
1707164811987505000,23.5635048828125,-1.1927549839019775,-0.28671932220458984,-1.3161909580230713
1707164812006464500,23.582464599609374,-0.9811976552009583,0.32088279724121094,-1.0000836849212646
1707164812025424400,23.60142431640625,-0.8754969835281372,1.438767433166504,-0.8044371604919434
1707164812044384300,23.62038427734375,-0.7219185829162598,3.436049461364746,-0.4944453239440918
1707164812063343900,23.63934375,-0.5110320448875427,5.0416717529296875,0.23259401321411133
1707164812082303700,23.6583037109375,0.7612452507019043,4.501529693603516,0.9730610847473145
1707164812101263400,23.677263427734374,2.302374839782715,3.506460189819336,0.46677637100219727
1707164812120223200,23.69622314453125,1.6629555225372314,5.157073020935059,0.2856559753417969
