time,seconds_elapsed,z,y,x
1707164788458581800,0.034581787109375,5.552370548248291,7.410334587097168,3.229318141937256
1707164788477541000,0.053541015625,5.551402568817139,7.357716083526611,3.3490796089172363
1707164788496500500,0.07250048828125,5.546195983886719,7.337490558624268,3.4016637802124023
1707164788515459800,0.0914599609375,5.468112945556641,7.3825249671936035,3.430516242980957
1707164788534419200,0.110419189453125,5.385822772979736,7.430943012237549,3.4560647010803223
1707164788553378600,0.129378662109375,5.314054489135742,7.480055809020996,3.4612112045288086
1707164788572338000,0.148337890625,5.21543550491333,7.553501129150391,3.4517018795013428
1707164788591297300,0.16729736328125,5.082945823669434,7.634799480438232,3.470431327819824
1707164788610256600,0.186256591796875,4.895205020904541,7.723329067230225,3.54366135597229
1707164788629216000,0.205216064453125,4.676937103271484,7.800285339355469,3.667724609375
1707164788648175400,0.22417529296875,4.452104091644287,7.844326972961426,3.8491156101226807
1707164788667134700,0.243134765625,4.203442096710205,7.870978355407715,4.068065166473389
1707164788686094300,0.26209423828125,3.932753086090088,7.902801990509033,4.27194881439209
1707164788705053700,0.2810537109375,3.6378567218780518,7.941703796386719,4.457098960876465
1707164788724013000,0.300012939453125,3.273423194885254,8.008310317993164,4.617581367492676
1707164788742972400,0.318972412109375,2.8687260150909424,8.077630996704102,4.763682842254639
1707164788761931800,0.337931884765625,2.4629054069519043,8.132291793823242,4.895949363708496
1707164788780891100,0.35689111328125,2.0878686904907227,8.169112205505371,5.007673740386963
1707164788799850500,0.3758505859375,1.7729979753494263,8.20313835144043,5.0730061531066895
1707164788818809900,0.394809814453125,1.4902470111846924,8.252838134765625,5.083327770233154
1707164788837769200,0.413769287109375,1.2105669975280762,8.314868927001953,5.0564680099487305
1707164788856728600,0.432728515625,0.9290934205055237,8.396016120910645,4.981372833251953
1707164788875688000,0.45168798828125,0.7015543580055237,8.456552505493164,4.915783405303955
1707164788894647300,0.470647216796875,0.5366602540016174,8.50998306274414,4.843817234039307
1707164788913606700,0.489606689453125,0.40597692131996155,8.577606201171875,4.736056327819824
1707164788932566000,0.50856591796875,0.2977505028247833,8.652562141418457,4.605962753295898
1707164788951525400,0.527525390625,0.22933468222618103,8.72796630859375,4.465466499328613
1707164788970485000,0.546485107421875,0.1816144436597824,8.810741424560547,4.302119731903076
1707164788989444400,0.5654443359375,0.14498116075992584,8.892260551452637,4.13244104385376
1707164789008403700,0.58440380859375,0.1180560514330864,8.97537899017334,3.9495606422424316
1707164789027363000,0.603363037109375,0.0959005281329155,9.058615684509277,3.7553505897521973
1707164789046322400,0.622322509765625,0.07327181845903397,9.140313148498535,3.5524206161499023
1707164789065281800,0.64128173828125,0.04578573629260063,9.21594524383545,3.3518142700195312
1707164789084241200,0.6602412109375,0.020544903352856636,9.28416919708252,3.1581902503967285
1707164789103200500,0.679200439453125,0.006784969009459019,9.346664428710938,2.9681990146636963
1707164789122159900,0.698159912109375,0.008528586477041245,9.401897430419922,2.7883050441741943
1707164789141119200,0.717119140625,0.02207428775727749,9.450311660766602,2.619447708129883
1707164789160078600,0.73607861328125,0.04393986612558365,9.49272346496582,2.4610283374786377
1707164789179038000,0.755037841796875,0.07552601397037506,9.529069900512695,2.3154895305633545
1707164789197997300,0.773997314453125,0.12026627361774445,9.558862686157227,2.187250852584839
1707164789216956700,0.792956787109375,0.1763601303100586,9.583452224731445,2.0728564262390137
1707164789235916000,0.811916015625,0.2408721148967743,9.604612350463867,1.9656505584716797
1707164789254875400,0.83087548828125,0.30974093079566956,9.62253475189209,1.865816354751587
1707164789273834800,0.849834716796875,0.3836318552494049,9.636258125305176,1.77925705909729
1707164789292794400,0.86879443359375,0.4625121057033539,9.644864082336426,1.712620735168457
1707164789311753700,0.887753662109375,0.5437859296798706,9.649075508117676,1.664341688156128
1707164789330713000,0.906713134765625,0.6227265000343323,9.651281356811523,1.6233799457550049
1707164789349672400,0.92567236328125,0.6949285864830017,9.653471946716309,1.5804821252822876
1707164789368631800,0.9446318359375,0.762585461139679,9.654841423034668,1.5404186248779297
1707164789387591200,0.963591064453125,0.8280550241470337,9.653692245483398,1.5135890245437622
1707164789406550500,0.982550537109375,0.8943912386894226,9.649083137512207,1.5052053928375244
1707164789425510000,1.001510009765625,0.9637331366539001,9.642114639282227,1.5070624351501465
1707164789444469200,1.02046923828125,1.0353591442108154,9.633905410766602,1.5120463371276855
1707164789463428600,1.0394287109375,1.1098147630691528,9.625251770019531,1.514340877532959
1707164789482388200,1.05838818359375,1.1873066425323486,9.616744041442871,1.5096116065979004
1707164789501347600,1.07734765625,1.2611665725708008,9.608257293701172,1.5037415027618408
1707164789520307000,1.096306884765625,1.326494812965393,9.600057601928711,1.4998944997787476
1707164789539266300,1.115266357421875,1.3825840950012207,9.5921049118042,1.5001170635223389
1707164789558225700,1.1342255859375,1.4232959747314453,9.586512565612793,1.4977964162826538
1707164789577185300,1.153185302734375,1.4480961561203003,9.584885597229004,1.4843766689300537
1707164789596144600,1.17214453125,1.457292079925537,9.586366653442383,1.4656972885131836
1707164789615104000,1.19110400390625,1.4593510627746582,9.587596893310547,1.4555602073669434
1707164789634063400,1.2100634765625,1.4560105800628662,9.587963104248047,1.456497073173523
1707164789653022700,1.229022705078125,1.4453967809677124,9.589995384216309,1.4536937475204468
1707164789671982000,1.247982177734375,1.4278879165649414,9.594037055969238,1.4442923069000244
1707164789690941400,1.26694140625,1.4048376083374023,9.598628997802734,1.436360478401184
1707164789709901000,1.285901123046875,1.375755786895752,9.60384750366211,1.4296106100082397
1707164789728860400,1.3048603515625,1.3408970832824707,9.61072063446045,1.416490912437439
1707164789747819800,1.32381982421875,1.3079994916915894,9.61717414855957,1.403385043144226
1707164789766779100,1.342779052734375,1.2772296667099,9.622406959533691,1.3958368301391602
1707164789785738500,1.361738525390625,1.246908187866211,9.627143859863281,1.3905768394470215
1707164789804698000,1.380697998046875,1.2178000211715698,9.632040977478027,1.3824373483657837
1707164789823657200,1.3996572265625,1.1913878917694092,9.636576652526855,1.3738126754760742
1707164789842616800,1.418616943359375,1.1679972410202026,9.640462875366211,1.366618275642395
1707164789861576200,1.437576171875,1.149593710899353,9.643656730651855,1.359667181968689
1707164789880535800,1.456535888671875,1.1361472606658936,9.645805358886719,1.3557220697402954
1707164789899495200,1.4754951171875,1.1253631114959717,9.647257804870605,1.354383111000061
1707164789918454500,1.49445458984375,1.1169829368591309,9.648332595825195,1.3536657094955444
1707164789937414000,1.513413818359375,1.1072578430175781,9.649435043334961,1.3538076877593994
1707164789956373500,1.53237353515625,1.0965782403945923,9.650920867919922,1.3518940210342407
1707164789975332900,1.551332763671875,1.0861579179763794,9.651988983154297,1.3526849746704102
1707164789994292200,1.570292236328125,1.0766419172286987,9.652555465698242,1.3562486171722412
1707164790013251600,1.58925146484375,1.0673229694366455,9.652851104736328,1.361495852470398
1707164790032211200,1.608211181640625,1.0597199201583862,9.65306568145752,1.3659039735794067
1707164790051170600,1.627170654296875,1.055783987045288,9.652969360351562,1.3696407079696655
1707164790070130000,1.6461298828125,1.0554189682006836,9.65246868133545,1.3734314441680908
1707164790089089300,1.66508935546875,1.0585782527923584,9.651601791381836,1.3770869970321655
1707164790108049000,1.684048828125,1.0642399787902832,9.650749206542969,1.3787026405334473
1707164790127008300,1.70300830078125,1.0738309621810913,9.64975357055664,1.378235936164856
1707164790145967600,1.721967529296875,1.0874881744384766,9.648246765136719,1.3780707120895386
1707164790164927000,1.740927001953125,1.102630376815796,9.646647453308105,1.3772401809692383
1707164790183886600,1.759886474609375,1.11589515209198,9.645471572875977,1.3747906684875488
1707164790202846000,1.778845947265625,1.1246531009674072,9.64503002166748,1.3707466125488281
1707164790221805300,1.797805419921875,1.1295098066329956,9.645171165466309,1.3657504320144653
1707164790240765000,1.816764892578125,1.1287001371383667,9.646225929260254,1.3589553833007812
1707164790259724300,1.835724365234375,1.1213358640670776,9.647953987121582,1.3527740240097046
1707164790278683600,1.85468359375,1.1114671230316162,9.649791717529297,1.3477864265441895
1707164790297643300,1.873643310546875,1.1018303632736206,9.651215553283691,1.3455102443695068
1707164790316602600,1.8926025390625,1.0947511196136475,9.652266502380371,1.343750238418579
1707164790335562000,1.91156201171875,1.090976357460022,9.652859687805176,1.34256112575531
1707164790354521600,1.930521484375,1.0890411138534546,9.652923583984375,1.343664288520813
1707164790373481000,1.94948095703125,1.0868432521820068,9.652774810791016,1.3465126752853394
1707164790392440600,1.968440673828125,1.0844204425811768,9.652654647827148,1.3493260145187378
1707164790411400000,1.98739990234375,1.0812156200408936,9.652681350708008,1.3517030477523804
1707164790430359300,2.006359375,1.0785852670669556,9.652657508850098,1.3539738655090332
1707164790449319000,2.02531884765625,1.0758105516433716,9.652534484863281,1.3570488691329956
1707164790468278300,2.0442783203125,1.072389841079712,9.652663230895996,1.3588404655456543
1707164790487237600,2.063237548828125,1.0673601627349854,9.653127670288086,1.3595038652420044
1707164790506197200,2.082197265625,1.0621435642242432,9.653536796569824,1.3606857061386108
1707164790525156600,2.101156494140625,1.058990716934204,9.653776168823242,1.3614431619644165
1707164790544116200,2.1201162109375,1.0599372386932373,9.653704643249512,1.3612151145935059
1707164790563075600,2.13907568359375,1.0638712644577026,9.65323257446289,1.3614912033081055
1707164790582035000,2.158034912109375,1.067000389099121,9.652813911437988,1.362013578414917
1707164790600994600,2.17699462890625,1.0673432350158691,9.652939796447754,1.3608505725860596
1707164790619954000,2.195953857421875,1.064069390296936,9.653626441955566,1.358544111251831
1707164790638913500,2.21491357421875,1.056107759475708,9.654962539672852,1.3552625179290771
1707164790657873000,2.233872802734375,1.0462901592254639,9.65661907196045,1.3510615825653076
1707164790676832300,2.252832275390625,1.0385581254959106,9.657934188842773,1.3476314544677734
1707164790695791900,2.2717919921875,1.0336945056915283,9.658041000366211,1.3505970239639282
1707164790714751200,2.290751220703125,1.031968593597412,9.656844139099121,1.3604354858398438
1707164790733710600,2.309710693359375,1.0293086767196655,9.65539264678955,1.3726969957351685
1707164790752670200,2.328670166015625,1.0255552530288696,9.654994010925293,1.3782974481582642
1707164790771629600,2.347629638671875,1.0225367546081543,9.654851913452148,1.3815358877182007
1707164790790589200,2.366589111328125,1.021655559539795,9.65388011932373,1.3889628648757935
1707164790809548500,2.385548583984375,1.0199596881866455,9.652665138244629,1.3986122608184814
1707164790828508200,2.404508056640625,1.0168348550796509,9.652183532714844,1.4042022228240967
1707164790847467500,2.423467529296875,1.0165220499038696,9.651437759399414,1.4095399379730225
1707164790866427100,2.44242724609375,1.0220047235488892,9.649677276611328,1.417608380317688
1707164790885386500,2.461386474609375,1.0279525518417358,9.648700714111328,1.4199587106704712
1707164790904346000,2.48034619140625,1.0335159301757812,9.650392532348633,1.4043304920196533
1707164790923305500,2.499305419921875,1.0384180545806885,9.652925491333008,1.383148193359375
1707164790942265000,2.51826513671875,1.0484589338302612,9.655190467834473,1.35956609249115
1707164790961224400,2.537224365234375,1.0577516555786133,9.658222198486328,1.3305251598358154
1707164790980183800,2.556183837890625,1.0670673847198486,9.662515640258789,1.2913395166397095
1707164790999143400,2.575143310546875,1.070877194404602,9.66806411743164,1.245854139328003
1707164791018103000,2.59410302734375,1.0702095031738281,9.673420906066895,1.2041518688201904
1707164791037062400,2.6130625,1.070704698562622,9.677531242370605,1.1701979637145996
1707164791056022000,2.63202197265625,1.075703501701355,9.680532455444336,1.1404083967208862
1707164791074981400,2.6509814453125,1.0852035284042358,9.683174133300781,1.1085363626480103
1707164791093941000,2.66994091796875,1.0939228534698486,9.686797142028809,1.0675702095031738
1707164791112900400,2.688900390625,1.094310998916626,9.69278621673584,1.0113202333450317
1707164791131860000,2.70785986328125,1.0847604274749756,9.700627326965332,0.9441908597946167
1707164791150819300,2.7268193359375,1.0679866075515747,9.709022521972656,0.8744642734527588
1707164791169779000,2.745779052734375,1.0496543645858765,9.716423988342285,0.8122308254241943
1707164791188738300,2.76473828125,1.0361223220825195,9.721817970275879,0.7636027336120605
1707164791207698000,2.783697998046875,1.0325167179107666,9.725367546081543,0.7221737504005432
1707164791226657300,2.8026572265625,1.0391944646835327,9.727540016174316,0.6822254061698914
1707164791245617000,2.821616943359375,1.056073546409607,9.728002548217773,0.6488876938819885
1707164791264576300,2.840576171875,1.0859543085098267,9.728229522705078,0.5938337445259094
1707164791283536000,2.859535888671875,1.120930552482605,9.727885246276855,0.5311864018440247
1707164791302495200,2.8784951171875,1.1433919668197632,9.728241920471191,0.4736509621143341
1707164791321454800,2.897454833984375,1.1484055519104004,9.730547904968262,0.40985825657844543
1707164791340414500,2.91641455078125,1.1407229900360107,9.73355484008789,0.356456995010376
1707164791359373800,2.935373779296875,1.1220901012420654,9.736491203308105,0.3347187936306
1707164791378333200,2.954333251953125,1.084291934967041,9.7403564453125,0.3466266393661499
1707164791397292800,2.973292724609375,1.0245996713638306,9.745251655578613,0.3881456255912781
1707164791416252400,2.99225244140625,0.9467113614082336,9.750931739807129,0.4398389458656311
1707164791435211800,3.011211669921875,0.8529403805732727,9.756855964660645,0.4966258108615875
1707164791454171400,3.03017138671875,0.7508476376533508,9.76130485534668,0.5687984228134155
1707164791473130800,3.049130859375,0.6522215604782104,9.762399673461914,0.6637434363365173
1707164791492090400,3.06809033203125,0.567659854888916,9.758455276489258,0.7878373265266418
1707164791511050000,3.087050048828125,0.5007380843162537,9.748767852783203,0.9387122988700867
1707164791530009300,3.10600927734375,0.4438135027885437,9.733298301696777,1.1118910312652588
1707164791548968700,3.12496875,0.3863678574562073,9.712318420410156,1.3007572889328003
1707164791567928300,3.14392822265625,0.3245362937450409,9.685527801513672,1.5018709897994995
1707164791586888000,3.162887939453125,0.2591458261013031,9.652190208435059,1.714194893836975
1707164791605847300,3.181847412109375,0.19312401115894318,9.611628532409668,1.936407208442688
1707164791624807000,3.200806884765625,0.12871654331684113,9.563185691833496,2.167788028717041
1707164791643766500,3.2197666015625,0.06713400781154633,9.504878997802734,2.4131250381469727
1707164791662726000,3.238725830078125,0.006751982495188713,9.434779167175293,2.674933433532715
1707164791681685500,3.257685546875,-0.050849687308073044,9.35400104522705,2.9445626735687256
1707164791700644900,3.276644775390625,-0.1061020940542221,9.266985893249512,3.2065720558166504
1707164791719604500,3.2956044921875,-0.15829569101333618,9.176656723022461,3.4546051025390625
1707164791738563800,3.314563720703125,-0.2038242369890213,9.080458641052246,3.697850465774536
1707164791757523500,3.3335234375,-0.24294869601726532,8.977203369140625,3.939695119857788
1707164791776483000,3.352483154296875,-0.278411328792572,8.871564865112305,4.169916152954102
1707164791795442400,3.3714423828125,-0.3094756007194519,8.77216911315918,4.373060703277588
1707164791814402000,3.390402099609375,-0.33536484837532043,8.682891845703125,4.545910358428955
1707164791833361400,3.409361328125,-0.3619275689125061,8.601728439331055,4.695706844329834
1707164791852321000,3.428321044921875,-0.38964638113975525,8.52845287322998,4.82535457611084
1707164791871280600,3.44728076171875,-0.41123974323272705,8.466005325317383,4.932345867156982
1707164791890240000,3.466239990234375,-0.4168696403503418,8.423186302185059,5.0046515464782715
1707164791909199600,3.48519970703125,-0.39400145411491394,8.407676696777344,5.03250789642334
1707164791928159200,3.5041591796875,-0.32964855432510376,8.416524887084961,5.022332668304443
1707164791947118600,3.52311865234375,-0.2366723120212555,8.441829681396484,4.9849653244018555
1707164791966078200,3.542078125,-0.1419130116701126,8.482717514038086,4.918715476989746
1707164791985037600,3.56103759765625,-0.059058625251054764,8.553160667419434,4.796910762786865
1707164792003997200,3.5799970703125,0.0066401539370417595,8.645343780517578,4.629079818725586
1707164792022956800,3.598956787109375,0.06147126108407974,8.737112998962402,4.453027248382568
1707164792041916200,3.617916259765625,0.13253268599510193,8.820486068725586,4.283904552459717
1707164792060875800,3.636875732421875,0.22923225164413452,8.89107894897461,4.131168365478516
1707164792079835400,3.65583544921875,0.34204232692718506,8.950019836425781,3.9938130378723145
1707164792098794800,3.674794677734375,0.45265457034111023,9.008255958557129,3.8492624759674072
1707164792117754400,3.69375439453125,0.5477218627929688,9.07205581665039,3.6835005283355713
1707164792136714000,3.7127138671875,0.6128143072128296,9.136625289916992,3.5095460414886475
1707164792155673300,3.73167333984375,0.6478543877601624,9.196992874145508,3.341554641723633
1707164792174633000,3.750633056640625,0.6614162921905518,9.25342082977295,3.179171323776245
1707164792193592600,3.769592529296875,0.6626521944999695,9.309050559997559,3.012120485305786
1707164792212552000,3.788552001953125,0.6643660068511963,9.365521430969238,2.83125638961792
1707164792231511600,3.807511474609375,0.6774958372116089,9.420223236083984,2.6402230262756348
1707164792250471000,3.826470947265625,0.7094005942344666,9.468221664428711,2.4535515308380127
1707164792269430500,3.845430419921875,0.7613188624382019,9.506863594055176,2.2826154232025146
1707164792288390100,3.86439013671875,0.8260344862937927,9.537314414978027,2.127835750579834
1707164792307349800,3.883349853515625,0.8931751251220703,9.562268257141113,1.9838476181030273
1707164792326309000,3.90230908203125,0.9524124264717102,9.584793090820312,1.8425610065460205
1707164792345268700,3.921268798828125,0.9956225156784058,9.605655670166016,1.7060219049453735
1707164792364228000,3.94022802734375,1.0237640142440796,9.624094009399414,1.5808542966842651
1707164792383187700,3.959187744140625,1.0386101007461548,9.640400886535645,1.4677661657333374
1707164792402147300,3.978147216796875,1.0442609786987305,9.655304908752441,1.3619837760925293
1707164792421106700,3.997106689453125,1.0480842590332031,9.667863845825195,1.266614556312561
1707164792440066300,4.01606640625,1.0546060800552368,9.676813125610352,1.1905808448791504
1707164792459026000,4.03502587890625,1.0582830905914307,9.685206413269043,1.1167820692062378
1707164792477985300,4.0539853515625,1.0529733896255493,9.69662857055664,1.0183404684066772
1707164792496945000,4.07294482421875,1.0397611856460571,9.708319664001465,0.9153232574462891
1707164792515904500,4.091904541015625,1.0183556079864502,9.715868949890137,0.8574509024620056
1707164792534864000,4.11086376953125,0.9755526781082153,9.722295761108398,0.8340474963188171
1707164792553823500,4.129823486328125,0.8980385661125183,9.732755661010742,0.7983559370040894
1707164792572783000,4.148783203125,0.8061656355857849,9.743853569030762,0.7601365447044373
1707164792591742500,4.167742431640625,0.7308657765388489,9.749149322509766,0.7683206796646118
1707164792610702000,4.1867021484375,0.6638506054878235,9.748516082763672,0.8343364596366882
1707164792629661700,4.20566162109375,0.6001635193824768,9.742473602294922,0.9457298517227173
1707164792648621000,4.22462109375,0.5348224639892578,9.730999946594238,1.0917829275131226
1707164792667580700,4.24358056640625,0.4528319239616394,9.713581085205078,1.2695138454437256
1707164792686540300,4.262540283203125,0.355668306350708,9.691079139709473,1.4583815336227417
1707164792705499600,4.281499755859375,0.2567134201526642,9.665824890136719,1.635945439338684
1707164792724459300,4.300459228515625,0.16532282531261444,9.6378812789917,1.803970456123352
1707164792743419000,4.3194189453125,0.08494361490011215,9.604670524597168,1.9782471656799316
1707164792762378500,4.33837841796875,0.01590997725725174,9.562854766845703,2.173001766204834
1707164792781337900,4.357337890625,-0.04170218110084534,9.508514404296875,2.399334192276001
1707164792800297500,4.37629736328125,-0.08741791546344757,9.437979698181152,2.6621949672698975
1707164792819256800,4.3952568359375,-0.12480305135250092,9.351057052612305,2.9517037868499756
1707164792838216400,4.414216552734375,-0.16140788793563843,9.249689102172852,3.253857135772705
1707164792857176000,4.433176025390625,-0.20538447797298431,9.135091781616211,3.560657024383545
1707164792876135700,4.4521357421875,-0.25920185446739197,9.010133743286133,3.862729072570801
1707164792895095000,4.471094970703125,-0.31610962748527527,8.882357597351074,4.144174575805664
1707164792914054700,4.4900546875,-0.36295580863952637,8.75705623626709,4.399161338806152
1707164792933014000,4.509013916015625,-0.3938668668270111,8.634347915649414,4.632850170135498
1707164792951973600,4.5279736328125,-0.3945066034793854,8.516069412231445,4.8467841148376465
1707164792970933200,4.546933349609375,-0.35104984045028687,8.41497802734375,5.023473739624023
1707164792989892900,4.565892822265625,-0.26955899596214294,8.343334197998047,5.14650297164917
1707164793008852500,4.5848525390625,-0.16549375653266907,8.302157402038574,5.217008590698242
1707164793027811800,4.603811767578125,-0.07295618951320648,8.279316902160645,5.255281925201416
1707164793046771500,4.622771484375,-0.04289215803146362,8.265555381774902,5.277228832244873
1707164793065730800,4.641730712890625,-0.08332432061433792,8.29248046875,5.2343292236328125
1707164793084690400,4.6606904296875,-0.17088592052459717,8.387523651123047,5.0784478187561035
1707164793103650000,4.679650146484375,-0.27238214015960693,8.501175880432129,4.88120698928833
1707164793122609700,4.698609619140625,-0.3460363447666168,8.588884353637695,4.7203521728515625
1707164793141569000,4.717569091796875,-0.3499145209789276,8.65150260925293,4.604285717010498
1707164793160528600,4.736528564453125,-0.2850429117679596,8.712285995483398,4.492795467376709
1707164793179488300,4.75548828125,-0.20068694651126862,8.7930908203125,4.337242126464844
1707164793198447900,4.77444775390625,-0.1301114559173584,8.887805938720703,4.142507076263428
1707164793217407200,4.7934072265625,-0.07794948667287827,8.978509902954102,3.943432331085205
1707164793236366800,4.812366943359375,-0.03417927399277687,9.061819076538086,3.748688220977783
1707164793255326200,4.831326171875,0.011636868119239807,9.142444610595703,3.5476701259613037
1707164793274285800,4.850285888671875,0.06829601526260376,9.223936080932617,3.329374074935913
1707164793293245400,4.869245361328125,0.13952504098415375,9.305331230163574,3.0922040939331055
1707164793312205000,4.888205078125,0.2258230447769165,9.3809232711792,2.8491532802581787
1707164793331164700,4.90716455078125,0.3276626765727997,9.445135116577148,2.6177215576171875
1707164793350124000,4.9261240234375,0.4373934268951416,9.496520042419434,2.407317638397217
1707164793369083600,4.945083740234375,0.5441056489944458,9.537628173828125,2.215395450592041
1707164793388043000,4.96404296875,0.6370077729225159,9.571270942687988,2.0384719371795654
1707164793407002600,4.983002685546875,0.7105726599693298,9.5995454788208,1.8746172189712524
1707164793425962200,5.001962158203125,0.7691894173622131,9.623434066772461,1.7228660583496094
1707164793444921900,5.020921875,0.8188481330871582,9.644317626953125,1.5770256519317627
1707164793463881200,5.039881103515625,0.8614926338195801,9.662577629089355,1.436248540878296
1707164793482840800,5.0588408203125,0.907982349395752,9.676382064819336,1.3090368509292603
1707164793501800400,5.077800537109375,0.9670071005821228,9.683571815490723,1.2098450660705566
1707164793520760000,5.096760009765625,1.0299276113510132,9.685474395751953,1.140714406967163
1707164793539719400,5.115719482421875,1.0746195316314697,9.686578750610352,1.0889374017715454
1707164793558679000,5.134678955078125,1.0884113311767578,9.6873140335083,1.068505048751831
1707164793577638400,5.153638427734375,1.0702440738677979,9.687385559082031,1.0860629081726074
1707164793596598000,5.172597900390625,1.0161737203598022,9.693278312683105,1.0854270458221436
1707164793615557600,5.1915576171875,0.9391056299209595,9.703757286071777,1.0609201192855835
1707164793634517200,5.210517333984375,0.8779041171073914,9.710746765136719,1.0493239164352417
1707164793653476900,5.229476806640625,0.8440912961959839,9.709176063537598,1.0907784700393677
1707164793672436200,5.248436279296875,0.8195338845252991,9.698081016540527,1.2024911642074585
1707164793691395800,5.267395751953125,0.7896780967712402,9.678802490234375,1.3665927648544312
1707164793710355500,5.28635546875,0.7456647753715515,9.652993202209473,1.5601531267166138
1707164793729314800,5.305314697265625,0.6860096454620361,9.623933792114258,1.7548993825912476
1707164793748274400,5.3242744140625,0.6218457818031311,9.595815658569336,1.9245842695236206
1707164793767234000,5.343234130859375,0.5579390525817871,9.569167137145996,2.071265935897827
1707164793786193400,5.362193359375,0.4960551857948303,9.540539741516113,2.214139461517334
1707164793805153000,5.381153076171875,0.44214776158332825,9.503948211669922,2.3769428730010986
1707164793824112600,5.400112548828125,0.40055328607559204,9.452987670898438,2.578944444656372
1707164793843072300,5.419072265625,0.3717564046382904,9.383644104003906,2.8247857093811035
1707164793862031600,5.438031494140625,0.34704717993736267,9.29608154296875,3.103675603866577
1707164793880991200,5.4569912109375,0.313590943813324,9.193437576293945,3.3989343643188477
1707164793899950800,5.475950927734375,0.25948527455329895,9.078086853027344,3.700190782546997
1707164793918910500,5.494910400390625,0.17840072512626648,8.950142860412598,4.004183769226074
1707164793937869800,5.513869873046875,0.07869227975606918,8.809121131896973,4.308548450469971
1707164793956829400,5.532829345703125,-0.014344246126711369,8.66345500946045,4.595074653625488
1707164793975789000,5.5517890625,-0.07905428856611252,8.527255058288574,4.842525959014893
1707164793994748400,5.57074853515625,-0.10619096457958221,8.405627250671387,5.050201892852783
1707164794013708000,5.5897080078125,-0.10258061438798904,8.296570777893066,5.227502346038818
1707164794032667600,5.608667724609375,-0.07662136107683182,8.206395149230957,5.368387699127197
1707164794051627300,5.627627197265625,-0.04295840859413147,8.147462844848633,5.457780838012695
1707164794070586600,5.646586669921875,-0.02596406452357769,8.120088577270508,5.498534202575684
1707164794089546200,5.665546142578125,-0.05133577063679695,8.11380386352539,5.507625102996826
1707164794108505900,5.684505859375,-0.10925973206758499,8.154679298400879,5.446066856384277
1707164794127466000,5.703466064453125,-0.1846502274274826,8.250499725341797,5.297693729400635
1707164794146425300,5.72242529296875,-0.2487335056066513,8.352863311767578,5.132075309753418
1707164794165385000,5.741385009765625,-0.27028322219848633,8.432147979736328,4.9996209144592285
1707164794184344600,5.760344482421875,-0.24772047996520996,8.499353408813477,4.88569450378418
1707164794203304200,5.77930419921875,-0.20751766860485077,8.581938743591309,4.741058826446533
1707164794222263800,5.798263916015625,-0.16654320061206818,8.686136245727539,4.54902982711792
1707164794241223200,5.81722314453125,-0.1485700160264969,8.79259204864502,4.340349197387695
1707164794260182800,5.836182861328125,-0.15302744507789612,8.889824867248535,4.137388706207275
1707164794279142400,5.855142333984375,-0.15223005414009094,8.982144355773926,3.932976245880127
1707164794298102000,5.87410205078125,-0.126252681016922,9.077690124511719,3.708097457885742
1707164794317061400,5.893061279296875,-0.07073765993118286,9.177383422851562,3.455578327178955
1707164794336021000,5.91202099609375,0.007341347169131041,9.275111198425293,3.1847550868988037
1707164794354980600,5.930980712890625,0.10282067209482193,9.362687110900879,2.9154584407806396
1707164794373940000,5.94993994140625,0.20681361854076385,9.435982704162598,2.6626739501953125
1707164794392899600,5.968899658203125,0.3097181022167206,9.496503829956055,2.427111864089966
1707164794411859200,5.987859130859375,0.40544393658638,9.546146392822266,2.2084081172943115
1707164794430818800,6.00681884765625,0.4891079366207123,9.587462425231934,2.0029265880584717
1707164794449778200,6.025778076171875,0.5559174418449402,9.622530937194824,1.8078296184539795
1707164794468737800,6.04473779296875,0.6039443016052246,9.652825355529785,1.6213003396987915
1707164794487697400,6.063697509765625,0.639697790145874,9.679848670959473,1.4358583688735962
1707164794506657000,6.082656982421875,0.6781116127967834,9.702208518981934,1.2560651302337646
1707164794525616600,6.10161669921875,0.7315173745155334,9.717005729675293,1.1022988557815552
1707164794544576000,6.120575927734375,0.7987978458404541,9.72475814819336,0.9805002212524414
1707164794563535600,6.13953564453125,0.8734645247459412,9.727520942687988,0.8847527503967285
1707164794582495200,6.1584951171875,0.9502881169319153,9.727391242980957,0.8032426238059998
1707164794601454800,6.177454833984375,1.0324124097824097,9.724766731262207,0.7303632497787476
1707164794620414200,6.196414306640625,1.1191344261169434,9.719478607177734,0.6705614328384399
1707164794639373800,6.215373779296875,1.1783965826034546,9.715874671936035,0.6193078756332397
1707164794658333400,6.23433349609375,1.184823751449585,9.718432426452637,0.5644888281822205
1707164794677293000,6.25329296875,1.1708784103393555,9.722637176513672,0.5193862318992615
1707164794696252700,6.272252685546875,1.1436257362365723,9.72679615020752,0.5019546151161194
1707164794715212000,6.2912119140625,1.107419490814209,9.729833602905273,0.5237975716590881
1707164794734171600,6.310171630859375,1.0690052509307861,9.730230331420898,0.5918065905570984
1707164794753131300,6.32913134765625,1.0308191776275635,9.726264953613281,0.7124438881874084
1707164794772091000,6.3480908203125,0.9866871237754822,9.71774673461914,0.8730565309524536
1707164794791050200,6.36705029296875,0.9285620450973511,9.706744194030762,1.042729139328003
1707164794810009900,6.386009765625,0.8560359477996826,9.695578575134277,1.1972241401672363
1707164794828969500,6.404969482421875,0.7762284278869629,9.68442440032959,1.334084153175354
1707164794847929000,6.42392919921875,0.6981536149978638,9.671351432800293,1.4655779600143433
1707164794866888700,6.442888671875,0.6296343207359314,9.652920722961426,1.610926628112793
1707164794885848300,6.461848388671875,0.5737650394439697,9.62521743774414,1.7878406047821045
1707164794904808000,6.480807861328125,0.5276939272880554,9.584857940673828,2.005601167678833
1707164794923767600,6.499767578125,0.4872294068336487,9.530139923095703,2.260402202606201
1707164794942727000,6.518726806640625,0.44608405232429504,9.461191177368164,2.5411107540130615
1707164794961686500,6.5376865234375,0.39898329973220825,9.379019737243652,2.836405038833618
1707164794980646100,6.556646240234375,0.33857589960098267,9.283153533935547,3.1430583000183105
1707164794999605800,6.575605712890625,0.26061347126960754,9.17396354675293,3.4555561542510986
1707164795018565400,6.5945654296875,0.17465682327747345,9.055120468139648,3.7609407901763916
1707164795037524700,6.613524658203125,0.0920039564371109,8.933623313903809,4.043797016143799
1707164795056484600,6.632484619140625,0.018828874453902245,8.818055152893066,4.2909135818481445
1707164795075444000,6.65144384765625,-0.029787693172693253,8.716297149658203,4.493958950042725
1707164795094403600,6.670403564453125,-0.04317384213209152,8.634282112121582,4.649482250213623
1707164795113363200,6.68936328125,-0.019765131175518036,8.584221839904785,4.741427421569824
1707164795132322800,6.70832275390625,0.014041527174413204,8.567554473876953,4.771500110626221
1707164795151282400,6.727282470703125,0.03260049223899841,8.57494831085205,4.758107662200928
1707164795170242000,6.746241943359375,0.05614982172846794,8.616738319396973,4.681778907775879
1707164795189201700,6.76520166015625,0.10705602914094925,8.68851375579834,4.546279430389404
1707164795208161300,6.784161376953125,0.19084395468235016,8.761117935180664,4.401904582977295
1707164795227121000,6.803120849609375,0.30837196111679077,8.815710067749023,4.284689426422119
1707164795246080300,6.822080322265625,0.42934107780456543,8.865303039550781,4.1704254150390625
1707164795265040000,6.841039794921875,0.5252202749252319,8.929763793945312,4.019184589385986
1707164795283999500,6.85999951171875,0.5755771994590759,9.008213996887207,3.8329086303710938
1707164795302959000,6.878958984375,0.587284505367279,9.085028648376465,3.6452364921569824
1707164795321918700,6.897918701171875,0.5870716571807861,9.154590606689453,3.4668734073638916
1707164795340878300,6.91687841796875,0.6005020141601562,9.220601081848145,3.2848587036132812
1707164795359838000,6.935837890625,0.6409745812416077,9.286922454833984,3.08425235748291
1707164795378797600,6.954797607421875,0.7096402645111084,9.354026794433594,2.858142852783203
1707164795397757200,6.973757080078125,0.8027135729789734,9.418578147888184,2.6108286380767822
1707164795416716800,6.992716796875,0.9155004620552063,9.474884986877441,2.357712745666504
1707164795435676400,7.011676513671875,1.0393482446670532,9.519301414489746,2.1149563789367676
1707164795454636000,7.030635986328125,1.1653141975402832,9.55124282836914,1.8937263488769531
1707164795473595600,7.049595703125,1.2849141359329224,9.574151992797852,1.6896699666976929
1707164795492555300,7.06855517578125,1.384014368057251,9.592100143432617,1.49883234500885
1707164795511515000,7.087514892578125,1.4524075984954834,9.607332229614258,1.3266812562942505
1707164795530474500,7.106474609375,1.4963946342468262,9.619744300842285,1.179709553718567
1707164795549434000,7.12543408203125,1.5295114517211914,9.628902435302734,1.0560345649719238
1707164795568393700,7.144393798828125,1.5643874406814575,9.633440971374512,0.9591130614280701
1707164795587353300,7.163353271484375,1.6048698425292969,9.63418960571289,0.8815695643424988
1707164795606313000,7.18231298828125,1.644418716430664,9.63329029083252,0.8160834312438965
1707164795625272600,7.2012724609375,1.6764687299728394,9.63183879852295,0.7664969563484192
1707164795644232200,7.220232177734375,1.6958402395248413,9.631303787231445,0.7297205328941345
1707164795663191800,7.23919189453125,1.6943423748016357,9.632611274719238,0.7158225774765015
1707164795682151400,7.2581513671875,1.6632680892944336,9.636507987976074,0.7359694838523865
1707164795701111000,7.277111083984375,1.5915930271148682,9.647119522094727,0.7551922798156738
1707164795720070700,7.296070556640625,1.4884989261627197,9.664937019348145,0.7373999357223511
1707164795739030300,7.3150302734375,1.377581238746643,9.683122634887695,0.7140018939971924
1707164795757990000,7.333989990234375,1.2742167711257935,9.69674301147461,0.7210703492164612
1707164795776949500,7.352949462890625,1.177236795425415,9.70428466796875,0.7819024324417114
1707164795795909000,7.3719091796875,1.0913816690444946,9.704819679260254,0.8920453786849976
1707164795814868700,7.39086865234375,1.0133453607559204,9.698723793029785,1.0384035110473633
1707164795833828400,7.409828369140625,0.9365513920783997,9.687496185302734,1.2023597955703735
1707164795852788000,7.4287880859375,0.8621259331703186,9.673426628112793,1.3608554601669312
1707164795871747600,7.44774755859375,0.7880454063415527,9.657808303833008,1.5086853504180908
1707164795890707200,7.466707275390625,0.7094139456748962,9.639132499694824,1.659590721130371
1707164795909666800,7.485666748046875,0.6324273347854614,9.61435317993164,1.826096534729004
1707164795928626400,7.50462646484375,0.5665603280067444,9.580364227294922,2.01643705368042
1707164795947586000,7.5235859375,0.5137353539466858,9.53518009185791,2.2331128120422363
1707164795966545700,7.542545654296875,0.4733838737010956,9.47839069366455,2.471112012863159
1707164795985505300,7.56150537109375,0.43911880254745483,9.410075187683105,2.7254445552825928
1707164796004465200,7.580465087890625,0.40396708250045776,9.330131530761719,2.99263072013855
1707164796023424500,7.599424560546875,0.36887314915657043,9.238960266113281,3.2674028873443604
1707164796042384100,7.618384033203125,0.32912200689315796,9.139261245727539,3.5406196117401123
1707164796061344000,7.637343994140625,0.27845078706741333,9.035775184631348,3.80100417137146
1707164796080303600,7.6563037109375,0.21180257201194763,8.934576034545898,4.03718900680542
1707164796099263200,7.67526318359375,0.13205388188362122,8.842741012573242,4.237793445587158
1707164796118222800,7.694222900390625,0.055709630250930786,8.76488208770752,4.398195266723633
1707164796137182500,7.713182373046875,-0.0013327631168067455,8.70435619354248,4.517138957977295
1707164796156142000,7.73214208984375,-0.028361333534121513,8.664033889770508,4.59391975402832
1707164796175101700,7.751101806640625,-0.008189195767045021,8.642745971679688,4.633925437927246
1707164796194061300,7.770061279296875,0.04491782933473587,8.634256362915039,4.649514198303223
1707164796213021000,7.78902099609375,0.08800645917654037,8.641058921813965,4.6362409591674805
1707164796231980500,7.80798046875,0.11988386511802673,8.687605857849121,4.547693252563477
1707164796250940200,7.826940185546875,0.15551501512527466,8.773831367492676,4.377910137176514
1707164796269899800,7.845899658203125,0.21688851714134216,8.861307144165039,4.195304870605469
1707164796288859600,7.864859619140625,0.3191872239112854,8.93183708190918,4.036184787750244
1707164796307819000,7.883819091796875,0.4530995488166809,8.989691734313965,3.892366647720337
1707164796326779000,7.90277880859375,0.583148717880249,9.045821189880371,3.742117166519165
1707164796345738500,7.921738525390625,0.6765982508659363,9.10698127746582,3.5742833614349365
1707164796364698000,7.940697998046875,0.7344812750816345,9.167526245117188,3.404026746749878
1707164796383657700,7.95965771484375,0.77735835313797,9.223503112792969,3.239302635192871
1707164796402617300,7.978617431640625,0.8226487636566162,9.275717735290527,3.0748491287231445
1707164796421577000,7.997576904296875,0.8792904019355774,9.327326774597168,2.8979663848876953
1707164796440536600,8.01653662109375,0.9531912803649902,9.380354881286621,2.6964333057403564
1707164796459496200,8.03549609375,1.0418695211410522,9.433216094970703,2.4696803092956543
1707164796478455800,8.054455810546875,1.1368621587753296,9.48182201385498,2.2300195693969727
1707164796497415700,8.073415771484376,1.230077862739563,9.522546768188477,1.9945942163467407
1707164796516375000,8.092375,1.3184047937393188,9.554035186767578,1.7755547761917114
1707164796535335000,8.1113349609375,1.4013874530792236,9.577422142028809,1.5746339559555054
1707164796554294500,8.13029443359375,1.479827880859375,9.594937324523926,1.384798288345337
1707164796573254100,8.149254150390625,1.5500919818878174,9.607958793640137,1.2061173915863037
1707164796592213800,8.1682138671875,1.6123237609863281,9.615747451782227,1.0527079105377197
1707164796611173400,8.18717333984375,1.6673412322998047,9.61879825592041,0.9322491884231567
1707164796630133000,8.206133056640626,1.7113851308822632,9.619555473327637,0.8400638103485107
1707164796649092600,8.225092529296875,1.745627999305725,9.6194429397583,0.7677661180496216
1707164796668052200,8.24405224609375,1.7692601680755615,9.620272636413574,0.7003291845321655
1707164796687011800,8.26301171875,1.781026840209961,9.62169361114502,0.6490984559059143
1707164796705971500,8.281971435546875,1.7774087190628052,9.624396324157715,0.6182251572608948
1707164796724931000,8.30093115234375,1.7485637664794922,9.630508422851562,0.6051461696624756
1707164796743890700,8.319890625,1.7056479454040527,9.637187957763672,0.6210950016975403
1707164796762850600,8.3388505859375,1.6492631435394287,9.645797729492188,0.6394561529159546
1707164796781810200,8.35781005859375,1.5632330179214478,9.660408020019531,0.634983241558075
1707164796800769800,8.376769775390626,1.4676662683486938,9.67569351196289,0.630315363407135
1707164796819729400,8.3957294921875,1.3819787502288818,9.685538291931152,0.6714653968811035
1707164796838689000,8.41468896484375,1.3049328327178955,9.688911437988281,0.7697579264640808
1707164796857648600,8.433648681640625,1.2249420881271362,9.687233924865723,0.9096134305000305
1707164796876608300,8.452608154296875,1.1340690851211548,9.681760787963867,1.071341872215271
1707164796895568000,8.47156787109375,1.0332790613174438,9.673396110534668,1.236180305480957
1707164796914527500,8.490527587890625,0.9380708336830139,9.662765502929688,1.3861348628997803
1707164796933487400,8.5094873046875,0.8568967580795288,9.649760246276855,1.5225801467895508
1707164796952446700,8.52844677734375,0.7876920700073242,9.633210182189941,1.658670425415039
1707164796971406600,8.547406494140626,0.7286388278007507,9.610879898071289,1.8084412813186646
1707164796990366200,8.5663662109375,0.6832340359687805,9.57965087890625,1.9833992719650269
1707164797009325800,8.585325927734376,0.6545809507369995,9.536399841308594,2.190660238265991
1707164797028285400,8.604285400390625,0.6429152488708496,9.479364395141602,2.428723096847534
1707164797047245000,8.6232451171875,0.6417288780212402,9.40803050994873,2.69212007522583
1707164797066204700,8.64220458984375,0.6404325366020203,9.32368278503418,2.971393346786499
1707164797085164300,8.661164306640625,0.6303225755691528,9.228256225585938,3.257661819458008
1707164797104124000,8.6801240234375,0.6031760573387146,9.12432861328125,3.5430479049682617
1707164797123083500,8.69908349609375,0.5477203130722046,9.01638412475586,3.8177497386932373
1707164797142043400,8.71804345703125,0.4639665186405182,8.911125183105469,4.067796230316162
1707164797161002800,8.737002685546875,0.373141884803772,8.815783500671387,4.279382705688477
1707164797179962600,8.755962646484376,0.29562702775001526,8.734063148498535,4.449621200561523
1707164797198922200,8.774922119140625,0.22948282957077026,8.668803215026855,4.579253673553467
1707164797217881900,8.7938818359375,0.17665551602840424,8.62767505645752,4.658583641052246
1707164797236841500,8.812841552734374,0.14739230275154114,8.62157917022705,4.670869827270508
1707164797255801000,8.831801025390625,0.14015065133571625,8.639420509338379,4.638011932373047
1707164797274760700,8.8507607421875,0.13115806877613068,8.691808700561523,4.5393452644348145
1707164797293720300,8.86972021484375,0.13597369194030762,8.784843444824219,4.356423854827881
1707164797312680000,8.888679931640626,0.19264133274555206,8.876129150390625,4.165044784545898
1707164797331639600,8.9076396484375,0.30483564734458923,8.940431594848633,4.018226146697998
1707164797350599400,8.926599365234376,0.45542824268341064,8.986181259155273,3.9001946449279785
1707164797369558800,8.945558837890625,0.6073691844940186,9.0390625,3.7545759677886963
1707164797388518700,8.9645185546875,0.712095320224762,9.108111381530762,3.5644938945770264
1707164797407478300,8.983478271484374,0.7533373236656189,9.179096221923828,3.368539333343506
1707164797426438000,9.00243798828125,0.7599118947982788,9.24020004272461,3.1955630779266357
1707164797445397500,9.0213974609375,0.7635902762413025,9.293614387512207,3.0357983112335205
1707164797464357000,9.040357177734375,0.7816870808601379,9.346613883972168,2.8635928630828857
1707164797483316700,9.059316650390626,0.8215835094451904,9.403246879577637,2.659766674041748
1707164797502276400,9.0782763671875,0.8793991208076477,9.460384368896484,2.428616523742676
1707164797521236000,9.097236083984376,0.9481982588768005,9.51223087310791,2.188323974609375
1707164797540195600,9.116195556640625,1.0218663215637207,9.555171966552734,1.9557251930236816
1707164797559155200,9.1351552734375,1.0963752269744873,9.5888090133667,1.738703966140747
1707164797578115000,9.154114990234374,1.1677658557891846,9.61418342590332,1.5408376455307007
1707164797597074700,9.17307470703125,1.2270821332931519,9.634405136108398,1.3575359582901
1707164797616034300,9.192034423828124,1.2686172723770142,9.65143871307373,1.1877416372299194
1707164797634994000,9.210993896484375,1.2940752506256104,9.665685653686523,1.0345406532287598
1707164797653953500,9.22995361328125,1.3140289783477783,9.67618465423584,0.9028734564781189
1707164797672913200,9.2489130859375,1.3366377353668213,9.68234634399414,0.7974669933319092
1707164797691872800,9.267872802734376,1.3641399145126343,9.684917449951172,0.7154639959335327
1707164797710832400,9.286832275390625,1.4015120267868042,9.684586524963379,0.6441612243652344
1707164797729792000,9.3057919921875,1.4469356536865234,9.681530952453613,0.5871371030807495
1707164797748751600,9.324751708984374,1.4862090349197388,9.678539276123047,0.5361441373825073
1707164797767711200,9.343711181640625,1.5077388286590576,9.676918029785156,0.5043401122093201
1707164797786671000,9.362671142578124,1.5082463026046753,9.676702499389648,0.5069619417190552
1707164797805630500,9.38163037109375,1.4708232879638672,9.682148933410645,0.5128859877586365
1707164797824590300,9.40059033203125,1.3966270685195923,9.69422721862793,0.49172312021255493
1707164797843550000,9.419550048828125,1.3028539419174194,9.707852363586426,0.4801645576953888
1707164797862509600,9.438509521484375,1.2161905765533447,9.716533660888672,0.5293729305267334
1707164797881469200,9.45746923828125,1.1374293565750122,9.718449592590332,0.6545026302337646
1707164797900428800,9.4764287109375,1.0565927028656006,9.715250015258789,0.8172585964202881
1707164797919388400,9.495388427734374,0.9669716358184814,9.708702087402344,0.9881581664085388
1707164797938348000,9.51434814453125,0.8666297197341919,9.700321197509766,1.1502618789672852
1707164797957307600,9.5333076171875,0.7636798620223999,9.689912796020508,1.301058053970337
1707164797976267300,9.552267333984375,0.6602200865745544,9.676664352416992,1.447992205619812
1707164797995227000,9.571226806640626,0.5562795996665955,9.659019470214844,1.6013377904891968
1707164798014186500,9.5901865234375,0.4581405520439148,9.634169578552246,1.7729301452636719
1707164798033146000,9.60914599609375,0.371915727853775,9.598958969116211,1.9728312492370605
1707164798052105700,9.628105712890624,0.30063164234161377,9.551488876342773,2.202061891555786
1707164798071065300,9.6470654296875,0.23845349252223969,9.490089416503906,2.4600250720977783
1707164798090025000,9.66602490234375,0.176783949136734,9.413666725158691,2.7426300048828125
1707164798108984800,9.68498486328125,0.10892031341791153,9.322681427001953,3.040743827819824
1707164798127944400,9.7039443359375,0.03221450746059418,9.21796989440918,3.346400022506714
1707164798146904000,9.722904052734375,-0.05021025612950325,9.103718757629395,3.6455674171447754
1707164798165863700,9.74186376953125,-0.1364694982767105,8.989497184753418,3.9167213439941406
1707164798184823300,9.7608232421875,-0.22322341799736023,8.88426685333252,4.146127223968506
1707164798203783000,9.779782958984375,-0.3013937771320343,8.792253494262695,4.333108425140381
1707164798222742500,9.798742431640624,-0.3620745837688446,8.716974258422852,4.4781293869018555
1707164798241702100,9.8177021484375,-0.39372721314430237,8.663983345031738,4.5772013664245605
1707164798260661800,9.836661865234374,-0.3838454782962799,8.63878345489502,4.625416278839111
1707164798279621400,9.855621337890625,-0.34603527188301086,8.634612083435059,4.636172771453857
1707164798298581000,9.8745810546875,-0.3135831952095032,8.650922775268555,4.607992649078369
1707164798317540600,9.89354052734375,-0.27327704429626465,8.710494041442871,4.4969987869262695
1707164798336500200,9.912500244140626,-0.20100060105323792,8.815403938293457,4.291695594787598
1707164798355459800,9.9314599609375,-0.09938976168632507,8.919792175292969,4.074042320251465
1707164798374419500,9.95041943359375,0.04030327498912811,8.995091438293457,3.906033515930176
1707164798393379300,9.96937939453125,0.21849223971366882,9.04368782043457,3.786074638366699
1707164798412338700,9.988338623046875,0.396771639585495,9.088913917541504,3.6612308025360107
1707164798431298600,10.007298583984374,0.5325186252593994,9.148746490478516,3.4910244941711426
1707164798450258200,10.026258056640625,0.6108929514884949,9.214526176452637,3.2999556064605713
1707164798469217500,10.045217529296876,0.6546936631202698,9.272902488708496,3.123305082321167
1707164798488177400,10.064177490234375,0.6898477077484131,9.323370933532715,2.961296796798706
1707164798507137000,10.083136962890626,0.735135555267334,9.373442649841309,2.7872095108032227
1707164798526096600,10.1020966796875,0.7968952059745789,9.42723274230957,2.5812079906463623
1707164798545056300,10.12105615234375,0.8708617091178894,9.482571601867676,2.343677043914795
1707164798564015900,10.140015869140624,0.9516725540161133,9.533123970031738,2.0938632488250732
1707164798582975500,10.1589755859375,1.0381689071655273,9.573492050170898,1.854945421218872
1707164798601935000,10.17793505859375,1.128697395324707,9.602895736694336,1.6373207569122314
1707164798620894700,10.196894775390625,1.2190707921981812,9.623034477233887,1.442726731300354
1707164798639854300,10.215854248046876,1.301538348197937,9.63742446899414,1.2635055780410767
1707164798658814000,10.23481396484375,1.371200442314148,9.64854621887207,1.0935086011886597
1707164798677773600,10.253773681640626,1.4318222999572754,9.656719207763672,0.9316880702972412
1707164798696733200,10.272733154296875,1.4879183769226074,9.661797523498535,0.778566837310791
1707164798715692800,10.29169287109375,1.5364376306533813,9.664542198181152,0.637462317943573
1707164798734652400,10.31065234375,1.5751479864120483,9.66564655303955,0.5143697261810303
1707164798753612000,10.329612060546875,1.6149743795394897,9.663875579833984,0.41444453597068787
1707164798772571600,10.348571533203126,1.6568045616149902,9.659754753112793,0.33840644359588623
1707164798791531500,10.367531494140625,1.6895637512207031,9.65535831451416,0.2996852397918701
1707164798810491000,10.386490966796876,1.6926497220993042,9.654756546020508,0.3016643822193146
1707164798829450500,10.405450439453125,1.6610050201416016,9.659196853637695,0.3336952030658722
1707164798848410400,10.424410400390625,1.5939598083496094,9.669961929321289,0.3486000895500183
1707164798867369700,10.44336962890625,1.4828342199325562,9.688444137573242,0.32500237226486206
1707164798886329300,10.462329345703125,1.3466626405715942,9.708949089050293,0.30529317259788513
1707164798905289200,10.481289306640624,1.2219167947769165,9.724202156066895,0.3423694968223572
1707164798924248600,10.50024853515625,1.1303129196166992,9.730356216430664,0.461473673582077
1707164798943208400,10.51920849609375,1.0671156644821167,9.727193832397461,0.6429317593574524
1707164798962168000,10.53816796875,1.0113041400909424,9.716647148132324,0.8569865822792053
1707164798981127700,10.557127685546876,0.9479684829711914,9.700348854064941,1.0839663743972778
1707164799000087300,10.57608740234375,0.8786073327064514,9.680203437805176,1.3008071184158325
1707164799019047000,10.595046875,0.8109955787658691,9.658126831054688,1.4944108724594116
1707164799038006500,10.614006591796874,0.7458755970001221,9.634016036987305,1.6732587814331055
1707164799056966100,10.632966064453125,0.6830881834030151,9.605957984924316,1.8518496751785278
1707164799075925800,10.65192578125,0.6256818175315857,9.571296691894531,2.041860818862915
1707164799094885400,10.670885498046875,0.5784850120544434,9.526248931884766,2.2552876472473145
1707164799113845000,10.689844970703126,0.541084349155426,9.467337608337402,2.499424695968628
1707164799132804600,10.7088046875,0.5062342882156372,9.394020080566406,2.768843412399292
1707164799151764200,10.72776416015625,0.4629851281642914,9.30907154083252,3.0491342544555664
1707164799170723800,10.746723876953125,0.402937114238739,9.214861869812012,3.3308186531066895
1707164799189683500,10.765683349609375,0.32546094059944153,9.11356258392334,3.6065850257873535
1707164799208643000,10.78464306640625,0.2343664914369583,9.010709762573242,3.8629744052886963
1707164799227602700,10.803602783203125,0.14028264582157135,8.912939071655273,4.087813854217529
1707164799246562300,10.822562255859374,0.053775202482938766,8.825677871704102,4.2749152183532715
1707164799265522000,10.84152197265625,-0.0229754950851202,8.751861572265625,4.424340724945068
1707164799284481500,10.8604814453125,-0.08372921496629715,8.693582534790039,4.537069320678711
1707164799303441200,10.879441162109375,-0.11876019835472107,8.65676212310791,4.606164932250977
1707164799322400800,10.89840087890625,-0.1116722822189331,8.648641586303711,4.621571063995361
1707164799341360400,10.9173603515625,-0.06449977308511734,8.66474437713623,4.592216491699219
1707164799360320000,10.936320068359375,-0.012217661365866661,8.692072868347168,4.54071569442749
1707164799379279600,10.955279541015624,0.03794066980481148,8.742966651916504,4.441789150238037
1707164799398239200,10.9742392578125,0.10147407650947571,8.829305648803711,4.2665510177612305
1707164799417198800,10.99319873046875,0.1746310591697693,8.926084518432617,4.0576982498168945
1707164799436158700,11.01215869140625,0.2567485272884369,9.012261390686035,3.857928991317749
1707164799455118000,11.0311181640625,0.3606800138950348,9.079504013061523,3.688211679458618
1707164799474078000,11.050077880859375,0.4775087535381317,9.12993049621582,3.547780990600586
1707164799493037600,11.06903759765625,0.5782674551010132,9.179515838623047,3.4018354415893555
1707164799511997000,11.087996826171874,0.6399174928665161,9.239492416381836,3.223764657974243
1707164799530956800,11.106956787109375,0.6520168781280518,9.304624557495117,3.0280721187591553
1707164799549916400,11.12591650390625,0.6334314942359924,9.365467071533203,2.8385164737701416
1707164799568876000,11.1448759765625,0.6087285280227661,9.420770645141602,2.6549763679504395
1707164799587835600,11.163835693359376,0.5988093018531799,9.47234058380127,2.4671008586883545
1707164799606795300,11.182795166015625,0.6178221106529236,9.520949363708496,2.267200231552124
1707164799625755000,11.2017548828125,0.6748437881469727,9.564669609069824,2.057201623916626
1707164799644714500,11.220714599609375,0.7693984508514404,9.600659370422363,1.8454715013504028
1707164799663674000,11.239674072265625,0.8891860842704773,9.626988410949707,1.6434141397476196
1707164799682633700,11.2586337890625,1.0167644023895264,9.64405345916748,1.4590436220169067
1707164799701593300,11.27759326171875,1.138817548751831,9.654443740844727,1.29042387008667
1707164799720553000,11.296552978515624,1.2456570863723755,9.660911560058594,1.1338022947311401
1707164799739512600,11.3155126953125,1.3316936492919922,9.665298461914062,0.9894310235977173
1707164799758472400,11.334472412109376,1.4001781940460205,9.667623519897461,0.8642631769180298
1707164799777431800,11.353431884765625,1.456052303314209,9.66835880279541,0.7570462226867676
1707164799796391700,11.3723916015625,1.4950518608093262,9.669022560119629,0.6672417521476746
1707164799815351300,11.391351318359375,1.515655517578125,9.670453071594238,0.5962508916854858
1707164799834311000,11.410310791015625,1.523424744606018,9.672231674194336,0.5454423427581787
1707164799853270500,11.4292705078125,1.519409418106079,9.674480438232422,0.5159474015235901
1707164799872230100,11.448230224609375,1.489979863166809,9.679363250732422,0.5101668834686279
1707164799891189800,11.467189697265624,1.4408882856369019,9.685104370117188,0.5412810444831848
1707164799910149400,11.4861494140625,1.38714599609375,9.690269470214844,0.587271511554718
1707164799929109000,11.50510888671875,1.3083549737930298,9.700236320495605,0.6033350825309753
1707164799948068600,11.524068603515625,1.205529808998108,9.714052200317383,0.5952206254005432
1707164799967028500,11.543028564453126,1.1162223815917969,9.724267959594727,0.6025335788726807
1707164799985988000,11.561988037109375,1.0615625381469727,9.726921081542969,0.6560981273651123
1707164800004947700,11.58094775390625,1.0320547819137573,9.723088264465332,0.7528719305992126
1707164800023907300,11.5999072265625,1.0095382928848267,9.71556568145752,0.8712034821510315
1707164800042867000,11.618866943359375,0.9827906489372253,9.706008911132812,0.9989517331123352
1707164800061826600,11.63782666015625,0.9459019899368286,9.695862770080566,1.1251224279403687
1707164800080786200,11.6567861328125,0.8986510634422302,9.686573028564453,1.2381870746612549
1707164800099745800,11.675745849609376,0.8429431319236755,9.678081512451172,1.3396155834197998
1707164800118705700,11.69470556640625,0.7851243615150452,9.668563842773438,1.4397379159927368
1707164800137665300,11.713665283203126,0.7340481877326965,9.654805183410645,1.5544424057006836
1707164800156625000,11.732625,0.6972723007202148,9.63286018371582,1.7006484270095825
1707164800175584500,11.75158447265625,0.6757878065109253,9.599374771118164,1.888306975364685
1707164800194544000,11.770544189453124,0.6621766090393066,9.552489280700684,2.117035388946533
1707164800213503700,11.789503662109375,0.6454472541809082,9.491320610046387,2.380887269973755
1707164800232463600,11.808463623046874,0.6175464391708374,9.415719032287598,2.6708121299743652
1707164800251423200,11.82742333984375,0.5699660181999207,9.326811790466309,2.975921869277954
1707164800270382800,11.8463828125,0.4984748959541321,9.22647762298584,3.2854247093200684
1707164800289342500,11.865342529296875,0.409428209066391,9.122406005859375,3.5755345821380615
1707164800308302000,11.884302001953126,0.31761816143989563,9.029033660888672,3.8139312267303467
1707164800327262000,11.903261962890625,0.2403714507818222,8.956145286560059,3.9874916076660156
1707164800346221600,11.9222216796875,0.18060286343097687,8.897186279296875,4.120418548583984
1707164800365181200,11.94118115234375,0.14464887976646423,8.844746589660645,4.233194351196289
1707164800384140800,11.960140869140625,0.15292416512966156,8.804479598999023,4.3160319328308105
1707164800403100400,11.979100341796874,0.20045310258865356,8.780152320861816,4.363386631011963
1707164800422060000,11.99806005859375,0.24640953540802002,8.761992454528809,4.397403240203857
1707164800441020000,12.01702001953125,0.266537070274353,8.763664245605469,4.392897605895996
1707164800459979500,12.0359794921875,0.2549268901348114,8.809732437133789,4.300467491149902
1707164800478939100,12.054939208984376,0.22787819802761078,8.879634857177734,4.155785083770752
1707164800497898800,12.073898681640625,0.2057143747806549,8.943126678466797,4.018527030944824
1707164800516858400,12.0928583984375,0.20319050550460815,8.989388465881348,3.914077043533325
1707164800535818200,12.111818359375,0.22571276128292084,9.023507118225098,3.833505630493164
1707164800554777900,12.13077783203125,0.2556164860725403,9.065865516662598,3.730299711227417
1707164800573737500,12.149737548828124,0.2742795944213867,9.122769355773926,3.587512254714966
1707164800592697000,12.168697021484375,0.2820911705493927,9.185256004333496,3.4237265586853027
1707164800611656700,12.18765673828125,0.28755712509155273,9.247977256774902,3.250016212463379
1707164800630616600,12.206616455078125,0.29798275232315063,9.310062408447266,3.0666520595550537
1707164800649576200,12.225576171875,0.32303157448768616,9.371549606323242,2.870555877685547
1707164800668535800,12.244535888671875,0.36854133009910583,9.431389808654785,2.6614763736724854
1707164800687495700,12.26349560546875,0.4404890537261963,9.485234260559082,2.450853109359741
1707164800706455300,12.282455322265625,0.5386666059494019,9.52930736541748,2.2522268295288086
1707164800725415000,12.301414794921875,0.6526095867156982,9.564445495605469,2.0653975009918213
1707164800744374500,12.32037451171875,0.7703723907470703,9.593470573425293,1.8820867538452148
1707164800763334400,12.33933447265625,0.8832868933677673,9.618229866027832,1.6970102787017822
1707164800782294000,12.3582939453125,0.9820500016212463,9.639137268066406,1.5142663717269897
1707164800801253600,12.377253662109375,1.061529278755188,9.656476974487305,1.340139389038086
1707164800820213200,12.396213134765626,1.1264255046844482,9.669951438903809,1.180500864982605
1707164800839172900,12.4151728515625,1.1811532974243164,9.6800537109375,1.0352826118469238
1707164800858132700,12.4341328125,1.2303411960601807,9.686975479125977,0.9050722122192383
1707164800877092400,12.45309228515625,1.2745981216430664,9.691558837890625,0.7870843410491943
1707164800896052000,12.472052001953125,1.3167856931686401,9.69412612915039,0.6785142421722412
1707164800915011800,12.49101171875,1.3476234674453735,9.696365356445312,0.5786167979240417
1707164800933971500,12.509971435546875,1.3566838502883911,9.699992179870605,0.4898456335067749
1707164800952931000,12.52893115234375,1.3444151878356934,9.704333305358887,0.4345685839653015
1707164800971890700,12.547890625,1.3185805082321167,9.70862102508545,0.4176403284072876
1707164800990850600,12.5668505859375,1.2552865743637085,9.717870712280273,0.3970465064048767
1707164801009810200,12.58581005859375,1.1629945039749146,9.73085880279541,0.35806670784950256
1707164801028769800,12.604769775390626,1.0803624391555786,9.741500854492188,0.3261367678642273
1707164801047729400,12.6237294921875,1.015883445739746,9.74817943572998,0.33370041847229004
1707164801066689300,12.642689208984375,0.9617537260055542,9.75145149230957,0.3932071328163147
1707164801085649000,12.66164892578125,0.9146101474761963,9.751121520996094,0.4995240569114685
1707164801104608500,12.6806083984375,0.8664817810058594,9.74703311920166,0.6441549062728882
1707164801123568400,12.699568359375,0.8018542528152466,9.740168571472168,0.8102709650993347
1707164801142528000,12.718528076171875,0.7160989046096802,9.731146812438965,0.9810069799423218
1707164801161487600,12.737487548828126,0.6142260432243347,9.719645500183105,1.1496132612228394
1707164801180447200,12.756447265625,0.5070902705192566,9.70418930053711,1.319833755493164
1707164801199407000,12.775406982421876,0.4081200063228607,9.682618141174316,1.5002391338348389
1707164801218366700,12.79436669921875,0.32600101828575134,9.652502059936523,1.7009729146957397
1707164801237326300,12.813326416015625,0.2671327292919159,9.611709594726562,1.9271918535232544
1707164801256286200,12.8322861328125,0.22895753383636475,9.559443473815918,2.176008939743042
1707164801275245800,12.851245849609375,0.1989021599292755,9.49532413482666,2.4432854652404785
1707164801294205400,12.870205322265624,0.1647929698228836,9.419713020324707,2.7225418090820312
1707164801313165000,12.8891650390625,0.11704210191965103,9.334941864013672,3.0025899410247803
1707164801332125000,12.908125,0.05296545848250389,9.245742797851562,3.268613815307617
1707164801351084500,12.92708447265625,-0.02338356338441372,9.157712936401367,3.508009672164917
1707164801370044200,12.946044189453126,-0.09966151416301727,9.075010299682617,3.7154595851898193
1707164801389004000,12.965004150390625,-0.15827016532421112,8.99695110321045,3.898743152618408
1707164801407963600,12.983963623046876,-0.1869131177663803,8.924921035766602,4.059708595275879
1707164801426923300,13.00292333984375,-0.1812589317560196,8.864927291870117,4.189342498779297
1707164801445883000,13.0218828125,-0.14111003279685974,8.820352554321289,4.283906936645508
1707164801464842800,13.0408427734375,-0.07090868055820465,8.798903465270996,4.329508304595947
1707164801483802400,13.05980224609375,0.013294038362801075,8.7999906539917,4.3278608322143555
1707164801502762200,13.07876220703125,0.08209863305091858,8.81396770477295,4.298562049865723
1707164801521721900,13.097721923828125,0.12601079046726227,8.850409507751465,4.221938610076904
1707164801540681500,13.116681396484376,0.15847599506378174,8.925793647766113,4.059000015258789
1707164801559641000,13.13564111328125,0.1833759993314743,9.016548156738281,3.852091073989868
1707164801578601000,13.15460107421875,0.21630018949508667,9.092416763305664,3.6676383018493652
1707164801597560600,13.173560546875,0.2765871286392212,9.149649620056152,3.5182082653045654
1707164801616520200,13.192520263671875,0.3590768575668335,9.202393531799316,3.3700735569000244
1707164801635480000,13.21147998046875,0.42552945017814636,9.263252258300781,3.1908438205718994
1707164801654439700,13.230439697265625,0.4521172046661377,9.330184936523438,2.985569953918457
1707164801673399300,13.2493994140625,0.44945651292800903,9.394184112548828,2.778067111968994
1707164801692359000,13.26835888671875,0.4454343616962433,9.450886726379395,2.5792877674102783
1707164801711318800,13.28731884765625,0.46446239948272705,9.501241683959961,2.383498430252075
1707164801730278400,13.3062783203125,0.5172274112701416,9.548246383666992,2.175739049911499
1707164801749238000,13.325238037109376,0.6037311553955078,9.591876029968262,1.9498240947723389
1707164801768198000,13.344197998046875,0.7181028723716736,9.628661155700684,1.7156927585601807
1707164801787157500,13.363157470703126,0.8521455526351929,9.654589653015137,1.494363784790039
1707164801806117000,13.3821171875,0.9951656460762024,9.669487953186035,1.2965470552444458
1707164801825076700,13.40107666015625,1.136897087097168,9.67638874053955,1.1159605979919434
1707164801844036600,13.42003662109375,1.262604832649231,9.679105758666992,0.9439905285835266
1707164801862996200,13.438996337890625,1.3603187799453735,9.680209159851074,0.7832508683204651
1707164801881955800,13.457955810546874,1.4276739358901978,9.680577278137207,0.6469591856002808
1707164801900915500,13.47691552734375,1.4702482223510742,9.680403709411621,0.5463815331459045
1707164801919875300,13.495875244140626,1.4984413385391235,9.679649353027344,0.4789896011352539
1707164801938835000,13.5148349609375,1.517579436302185,9.678597450256348,0.4382724463939667
1707164801957794600,13.533794677734376,1.5296387672424316,9.677863121032715,0.41176068782806396
1707164801976754400,13.55275439453125,1.537339687347412,9.677596092224121,0.388714075088501
1707164801995714000,13.571714111328125,1.5324807167053223,9.679217338562012,0.366949200630188
1707164802014673700,13.590673583984374,1.5046093463897705,9.683891296386719,0.35888710618019104
1707164802033633300,13.60963330078125,1.4581570625305176,9.689760208129883,0.3907877504825592
1707164802052593200,13.62859326171875,1.404594898223877,9.694862365722656,0.4551185667514801
1707164802071552800,13.647552734375,1.317480444908142,9.704680442810059,0.5037970542907715
1707164802090512400,13.666512451171876,1.196945071220398,9.71876335144043,0.5323213338851929
1707164802109472300,13.68547216796875,1.087484359741211,9.729254722595215,0.57390296459198
1707164802128431900,13.704431884765626,1.0042458772659302,9.732880592346191,0.6579565405845642
1707164802147391500,13.7233916015625,0.940261960029602,9.729372024536133,0.7909557819366455
1707164802166351000,13.74235107421875,0.8871188759803772,9.719063758850098,0.9608363509178162
1707164802185311000,13.76131103515625,0.8400978446006775,9.702718734741211,1.1497316360473633
1707164802204270600,13.7802705078125,0.7996716499328613,9.682024002075195,1.3376544713974
1707164802223230200,13.799230224609374,0.7693123817443848,9.659131050109863,1.5098801851272583
1707164802242189800,13.81818994140625,0.7500942349433899,9.635457992553711,1.6630359888076782
1707164802261149700,13.837149658203124,0.738795280456543,9.61092472076416,1.8040751218795776
1707164802280109300,13.856109375,0.7341663241386414,9.583587646484375,1.9458249807357788
1707164802299069200,13.875069091796876,0.7378450632095337,9.550396919250488,2.1014010906219482
1707164802318028800,13.89402880859375,0.7509716749191284,9.508092880249023,2.280921697616577
1707164802336988400,13.912988525390626,0.771949827671051,9.454344749450684,2.4879393577575684
1707164802355948300,13.9319482421875,0.7945346832275391,9.388895034790039,2.718040943145752
1707164802374908000,13.950907958984375,0.8075388073921204,9.31346321105957,2.9627115726470947
1707164802393867500,13.969867431640624,0.8006584048271179,9.230148315429688,3.2146060466766357
1707164802412827100,13.9888271484375,0.7690441608428955,9.140841484069824,3.4675610065460205
1707164802431787000,14.007787109375,0.7135124206542969,9.046219825744629,3.718494415283203
1707164802450746600,14.02674658203125,0.6439800262451172,8.949893951416016,3.956650972366333
1707164802469706200,14.045706298828126,0.573971152305603,8.860298156738281,4.163661956787109
1707164802488666000,14.064666015625,0.5113123655319214,8.783147811889648,4.331887722015381
1707164802507625700,14.083625732421876,0.4618183672428131,8.722801208496094,4.4575605392456055
1707164802526585300,14.10258544921875,0.43633684515953064,8.679903984069824,4.5430474281311035
1707164802545545000,14.121544921875,0.447763592004776,8.653752326965332,4.59156608581543
1707164802564504800,14.1405048828125,0.49650225043296814,8.645610809326172,4.601879596710205
1707164802583464400,14.15946435546875,0.55781090259552,8.655503273010254,4.576188087463379
1707164802602424000,14.178424072265624,0.59251469373703,8.6848726272583,4.515783309936523
1707164802621383700,14.1973837890625,0.6037516593933105,8.746006965637207,4.394681453704834
1707164802640343300,14.21634326171875,0.6159535646438599,8.839692115783691,4.201291561126709
1707164802659303200,14.23530322265625,0.6455198526382446,8.932775497436523,3.9948983192443848
1707164802678262800,14.2542626953125,0.6925598382949829,9.006720542907715,3.8170316219329834
1707164802697222400,14.273222412109375,0.760352373123169,9.06521987915039,3.6625185012817383
1707164802716182000,14.29218212890625,0.8381146788597107,9.122415542602539,3.4999279975891113
1707164802735142000,14.311141845703125,0.8955681324005127,9.187616348266602,3.309992551803589
1707164802754101500,14.3301015625,0.9271153211593628,9.255318641662598,3.106433153152466
1707164802773061000,14.34906103515625,0.9490527510643005,9.316707611083984,2.9100940227508545
1707164802792021000,14.36802099609375,0.9789003133773804,9.370753288269043,2.720499038696289
1707164802810980600,14.386980712890624,1.0213892459869385,9.422377586364746,2.519120454788208
1707164802829940200,14.405940185546875,1.075815200805664,9.473878860473633,2.29317307472229
1707164802848899800,14.42489990234375,1.142238736152649,9.522552490234375,2.0461318492889404
1707164802867859700,14.443859619140625,1.2215638160705566,9.563263893127441,1.795037865638733
1707164802886819300,14.4628193359375,1.3102182149887085,9.592714309692383,1.5599867105484009
1707164802905779000,14.481779052734375,1.4009606838226318,9.611738204956055,1.3498823642730713
1707164802924738800,14.50073876953125,1.4839190244674683,9.6243257522583,1.1578967571258545
1707164802943698400,14.519698486328124,1.5473451614379883,9.634479522705078,0.9761715531349182
1707164802962658000,14.538657958984375,1.583428978919983,9.644330024719238,0.8062576651573181
1707164802981617700,14.55761767578125,1.5964120626449585,9.653603553771973,0.6555954217910767
1707164803000577300,14.576577392578125,1.5998518466949463,9.660964965820312,0.5259497165679932
1707164803019537200,14.595537109375,1.5988152027130127,9.666407585144043,0.41802623867988586
1707164803038496800,14.614496826171875,1.596490502357483,9.6702241897583,0.3291955888271332
1707164803057456400,14.633456298828126,1.5981661081314087,9.671887397766113,0.266189843416214
1707164803076416000,14.652416015625,1.6023459434509277,9.672011375427246,0.23467646539211273
1707164803095376000,14.6713759765625,1.597619891166687,9.673093795776367,0.2219257950782776
1707164803114335500,14.69033544921875,1.5732927322387695,9.67711067199707,0.22063134610652924
1707164803133295000,14.709295166015625,1.5351840257644653,9.68258285522461,0.24738116562366486
1707164803152254700,14.728254638671874,1.475449562072754,9.690567016601562,0.2938319444656372
1707164803171214600,14.747214599609375,1.3750709295272827,9.704682350158691,0.31415170431137085
1707164803190174200,14.76617431640625,1.2478768825531006,9.72226619720459,0.30121150612831116
1707164803209133800,14.7851337890625,1.1338235139846802,9.736191749572754,0.30228400230407715
1707164803228093400,14.804093505859376,1.0479836463928223,9.743837356567383,0.36021628975868225
1707164803247053000,14.823052978515625,0.9836132526397705,9.745479583740234,0.4780665934085846
1707164803266013000,14.842012939453125,0.9247077107429504,9.74249267578125,0.6317798495292664
1707164803284972500,14.86097265625,0.8590783476829529,9.735629081726074,0.806165874004364
1707164803303932200,14.87993212890625,0.7830094695091248,9.724994659423828,0.990841269493103
1707164803322892000,14.89889208984375,0.7045488357543945,9.710988998413086,1.1707714796066284
1707164803341851600,14.9178515625,0.6307753920555115,9.693793296813965,1.342708945274353
1707164803360811300,14.936811279296874,0.5615102052688599,9.672595024108887,1.5152512788772583
1707164803379771000,14.95577099609375,0.4960406720638275,9.64594841003418,1.697062373161316
1707164803398730500,14.97473046875,0.43644315004348755,9.611798286437988,1.8955814838409424
1707164803417690400,14.9936904296875,0.3876688778400421,9.567516326904297,2.11724853515625
1707164803436650000,15.01264990234375,0.34861472249031067,9.510891914367676,2.364696741104126
1707164803455609600,15.031609619140625,0.3125268518924713,9.441850662231445,2.631382703781128
1707164803474569200,15.0505693359375,0.27085360884666443,9.363322257995605,2.9026224613189697
1707164803493529000,15.069529052734374,0.2181716412305832,9.280099868774414,3.162677764892578
1707164803512488700,15.08848876953125,0.15595148503780365,9.197628021240234,3.398486375808716
1707164803531448300,15.1074482421875,0.09044081717729568,9.120177268981934,3.6034135818481445
1707164803550408000,15.126407958984375,0.027345877140760422,9.051836967468262,3.772783041000366
1707164803569367600,15.145367431640626,-0.02532253973186016,8.990791320800781,3.916048526763916
1707164803588327400,15.164327392578125,-0.05162493512034416,8.935070037841797,4.041317939758301
1707164803607287000,15.183287109375,-0.045431457459926605,8.892154693603516,4.1349616050720215
1707164803626246700,15.20224658203125,-0.009164677932858467,8.870807647705078,4.180798530578613
1707164803645206500,15.22120654296875,0.0401613749563694,8.872723579406738,4.176548957824707
1707164803664166000,15.240165771484374,0.08053603023290634,8.899101257324219,4.119453430175781
1707164803683125800,15.259125732421875,0.1274414360523224,8.959254264831543,3.9857139587402344
1707164803702085400,15.27808544921875,0.19410233199596405,9.049378395080566,3.7737843990325928
1707164803721045000,15.297044921875,0.26445862650871277,9.1375093460083,3.5505475997924805
1707164803740004900,15.3160048828125,0.3414238393306732,9.202327728271484,3.3720879554748535
1707164803758964500,15.334964599609375,0.43891438841819763,9.244385719299316,3.2433114051818848
1707164803777924000,15.353924072265626,0.5491266846656799,9.280617713928223,3.120734453201294
1707164803796883700,15.3728837890625,0.6476485729217529,9.325669288635254,2.9635839462280273
1707164803815843300,15.39184326171875,0.7179660797119141,9.37547492980957,2.784849166870117
1707164803834803200,15.41080322265625,0.7674396634101868,9.419235229492188,2.619051218032837
1707164803853762800,15.4297626953125,0.812130868434906,9.456206321716309,2.4679908752441406
1707164803872722400,15.448722412109374,0.8631911277770996,9.491631507873535,2.309593677520752
1707164803891682000,15.46768212890625,0.9263633489608765,9.529730796813965,2.1204898357391357
1707164803910641700,15.4866416015625,0.9997851848602295,9.570043563842773,1.893427848815918
1707164803929601500,15.5056015625,1.0807135105133057,9.606654167175293,1.647612452507019
1707164803948561200,15.52456103515625,1.1659098863601685,9.634256362915039,1.4114396572113037
1707164803967520800,15.543520751953125,1.2524548768997192,9.651875495910645,1.2012640237808228
1707164803986480400,15.56248046875,1.3340669870376587,9.661962509155273,1.0183922052383423
1707164804005440000,15.58143994140625,1.4038193225860596,9.667801856994629,0.856318473815918
1707164804024399600,15.600399658203125,1.455441951751709,9.671904563903809,0.7115866541862488
1707164804043359500,15.619359375,1.4917081594467163,9.674698829650879,0.5877017974853516
1707164804062319000,15.638319091796875,1.5186136960983276,9.676161766052246,0.48588529229164124
1707164804081278700,15.65727880859375,1.5444960594177246,9.675909042358398,0.40212777256965637
1707164804100238300,15.67623828125,1.569975733757019,9.674453735351562,0.33241650462150574
1707164804119198000,15.695197998046876,1.5961874723434448,9.671815872192383,0.2802813649177551
1707164804138157800,15.71415771484375,1.6253176927566528,9.6677827835083,0.25041115283966064
1707164804157117400,15.733117431640625,1.647222638130188,9.664409637451172,0.23715735971927643
1707164804176077000,15.7520771484375,1.6452298164367676,9.66470718383789,0.2388196736574173
1707164804195036700,15.77103662109375,1.6172205209732056,9.668679237365723,0.2676428556442261
1707164804213996300,15.789996337890624,1.5578112602233887,9.677083969116211,0.3125112056732178
1707164804232956200,15.8089560546875,1.4582778215408325,9.69229507446289,0.3212853670120239
1707164804251915800,15.827915771484374,1.3407152891159058,9.709924697875977,0.30037736892700195
1707164804270875400,15.84687548828125,1.2402567863464355,9.722972869873047,0.30976444482803345
1707164804289835000,15.8658349609375,1.1717497110366821,9.728790283203125,0.3847452402114868
1707164804308794600,15.884794677734375,1.1302077770233154,9.72774600982666,0.5137830972671509
1707164804327754200,15.903754150390625,1.0987966060638428,9.721358299255371,0.6769150495529175
1707164804346714000,15.922714111328125,1.0625883340835571,9.71087646484375,0.8603321313858032
1707164804365673700,15.941673828125,1.015848159790039,9.697745323181152,1.0450694561004639
1707164804384633300,15.96063330078125,0.9620077610015869,9.683688163757324,1.2128900289535522
1707164804403593000,15.979593017578125,0.9023001194000244,9.669522285461426,1.362560749053955
1707164804422552600,15.998552490234376,0.8380628228187561,9.653951644897461,1.5064038038253784
1707164804441512400,16.017512451171875,0.7751754522323608,9.633929252624512,1.6603924036026
1707164804460472000,16.03647216796875,0.7214786410331726,9.60565185546875,1.8388335704803467
1707164804479431700,16.055431640625,0.6812659502029419,9.565753936767578,2.0500288009643555
1707164804498391300,16.074391357421874,0.6509405374526978,9.51342487335205,2.28941011428833
1707164804517351200,16.09335107421875,0.6189513206481934,9.450211524963379,2.5457370281219482
1707164804536310800,16.112310791015624,0.5727302432060242,9.378817558288574,2.807162046432495
1707164804555270400,16.1312705078125,0.5080889463424683,9.301743507385254,3.064279794692993
1707164804574230000,16.15022998046875,0.4196756184101105,9.223139762878418,3.30574631690979
1707164804593189600,16.169189697265626,0.3118825852870941,9.150508880615234,3.5130202770233154
1707164804612149500,16.1881494140625,0.20236925780773163,9.090047836303711,3.6742963790893555
1707164804631109000,16.207109130859376,0.10583658516407013,9.040597915649414,3.7982587814331055
1707164804650068700,16.22606884765625,0.02265062741935253,9.000200271606445,3.8943912982940674
1707164804669028400,16.2450283203125,-0.03453635051846504,8.97103214263916,3.9610345363616943
1707164804687988000,16.263988037109375,-0.045241549611091614,8.960585594177246,3.9845006465911865
1707164804706947800,16.28294775390625,-0.02205010876059532,8.965365409851074,3.9739291667938232
1707164804725907500,16.301907470703124,0.0050656977109611034,8.980284690856934,3.9401564598083496
1707164804744867000,16.3208671875,0.04410675913095474,9.016797065734863,3.8556225299835205
1707164804763827000,16.339826904296874,0.09673109650611877,9.078588485717773,3.706786870956421
1707164804782786300,16.358786376953127,0.14337007701396942,9.139239311218262,3.553046941757202
1707164804801746200,16.37774609375,0.1956649124622345,9.184643745422363,3.431389808654785
1707164804820705800,16.396705810546877,0.27174338698387146,9.222356796264648,3.323352575302124
1707164804839665400,16.41566552734375,0.35597485303878784,9.26332950592041,3.1991231441497803
1707164804858625300,16.434625244140626,0.42067527770996094,9.313570976257324,3.041517734527588
1707164804877585000,16.4535849609375,0.45651257038116455,9.367632865905762,2.8652091026306152
1707164804896544500,16.47254443359375,0.47746923565864563,9.418091773986816,2.6910910606384277
1707164804915504000,16.491504150390625,0.4988998472690582,9.462663650512695,2.5257656574249268
1707164804934464000,16.510464111328126,0.534307062625885,9.504637718200684,2.3551578521728516
1707164804953423600,16.529423583984375,0.5949101448059082,9.546031951904297,2.165581226348877
1707164804972383200,16.54838330078125,0.6820784211158752,9.585343360900879,1.9561026096343994
1707164804991342800,16.5673427734375,0.7907127737998962,9.618379592895508,1.741249442100525
1707164805010302700,16.586302734375,0.9110517501831055,9.642251968383789,1.5386176109313965
1707164805029262300,16.605262451171875,1.0320358276367188,9.65796947479248,1.352381706237793
1707164805048222000,16.624221923828124,1.140786051750183,9.668272018432617,1.1804664134979248
1707164805067181800,16.643181884765625,1.2261555194854736,9.675310134887695,1.0272749662399292
1707164805086141400,16.662141357421874,1.2814072370529175,9.68091106414795,0.8990806937217712
1707164805105101000,16.68110107421875,1.3079235553741455,9.68659496307373,0.7934592366218567
1707164805124060700,16.700060791015623,1.3149068355560303,9.692524909973145,0.7045395374298096
1707164805143020500,16.7190205078125,1.3160505294799805,9.697766304016113,0.6258889436721802
1707164805161980200,16.737980224609377,1.313537359237671,9.701748847961426,0.5666393637657166
1707164805180939800,16.756939697265626,1.3112934827804565,9.704117774963379,0.5301017165184021
1707164805199899600,16.775899658203127,1.3141905069351196,9.70488166809082,0.5085113644599915
1707164805218859300,16.794859375,1.3175091743469238,9.705268859863281,0.4922567307949066
1707164805237819000,16.81381884765625,1.3078618049621582,9.706844329833984,0.48689004778862
1707164805256778500,16.832778564453125,1.2865123748779297,9.708718299865723,0.506050169467926
1707164805275738400,16.85173828125,1.2461187839508057,9.712666511535645,0.5307397842407227
1707164805294698000,16.870697998046875,1.1723166704177856,9.721720695495605,0.5331050157546997
1707164805313657600,16.88965771484375,1.091968059539795,9.731115341186523,0.5323538184165955
1707164805332617500,16.908617431640625,1.0343825817108154,9.735932350158691,0.5586190223693848
1707164805351577000,16.9275771484375,0.9976155161857605,9.735404968261719,0.6301140189170837
1707164805370536700,16.94653662109375,0.9706833958625793,9.72928524017334,0.7544423937797546
1707164805389496600,16.96549658203125,0.9447959065437317,9.717737197875977,0.9183303713798523
1707164805408456200,16.984456298828125,0.9084354043006897,9.702147483825684,1.1015721559524536
1707164805427415800,17.003415771484374,0.8564684391021729,9.684613227844238,1.282618522644043
1707164805446375700,17.022375732421875,0.7972719669342041,9.667539596557617,1.4399425983428955
1707164805465335300,17.041335205078123,0.7380301356315613,9.652067184448242,1.56948983669281
1707164805484295200,17.060295166015624,0.6817212700843811,9.636757850646973,1.684799313545227
1707164805503254800,17.0792548828125,0.632835865020752,9.618171691894531,1.8057396411895752
1707164805522214400,17.09821435546875,0.5981938242912292,9.59230899810791,1.9494026899337769
1707164805541174000,17.117174072265627,0.5808617472648621,9.555893898010254,2.1255297660827637
1707164805560134000,17.1361337890625,0.5778073072433472,9.507238388061523,2.334294319152832
1707164805579093500,17.155093505859377,0.578431248664856,9.447351455688477,2.5658063888549805
1707164805598053400,17.174053466796874,0.5696978569030762,9.378321647644043,2.8094329833984375
1707164805617013000,17.193012939453126,0.543668270111084,9.301464080810547,3.059013605117798
1707164805635972600,17.21197265625,0.49753671884536743,9.219808578491211,3.3042361736297607
1707164805654932500,17.230932373046876,0.43112924695014954,9.139151573181152,3.529930830001831
1707164805673892000,17.24989208984375,0.3478196859359741,9.063793182373047,3.727877616882324
1707164805692851700,17.268851806640626,0.25416386127471924,8.994074821472168,3.9003078937530518
1707164805711811600,17.2878115234375,0.15852706134319305,8.932574272155762,4.044054985046387
1707164805730771200,17.306771240234376,0.0794718861579895,8.890575408935547,4.137840747833252
1707164805749731000,17.32573095703125,0.03462044149637222,8.874922752380371,4.1719231605529785
1707164805768690700,17.344690673828126,0.021554818376898766,8.874398231506348,4.17312479019165
1707164805787650600,17.363650634765627,0.017247168347239494,8.879616737365723,4.162033557891846
1707164805806610200,17.382610107421876,0.03371050953865051,8.907577514648438,4.101747035980225
1707164805825570000,17.401570068359376,0.0875718742609024,8.96884822845459,3.9651572704315186
1707164805844529700,17.42052978515625,0.16428400576114655,9.036813735961914,3.8051793575286865
1707164805863489300,17.4394892578125,0.24802930653095245,9.09035873413086,3.6707282066345215
1707164805882449200,17.45844921875,0.3472853899002075,9.123282432556152,3.5798728466033936
1707164805901408800,17.47740869140625,0.4600543975830078,9.148850440979004,3.501038074493408
1707164805920368600,17.49636865234375,0.5625357031822205,9.184988021850586,3.3896796703338623
1707164805939328300,17.515328369140626,0.6326120495796204,9.234031677246094,3.240809679031372
1707164805958288000,17.534287841796875,0.6714913845062256,9.28493881225586,3.083735942840576
1707164805977247700,17.553247802734376,0.6985828280448914,9.331684112548828,2.9329233169555664
1707164805996207400,17.572207275390625,0.7322694659233093,9.375532150268555,2.7809293270111084
1707164806015167200,17.591167236328126,0.7787735462188721,9.420927047729492,2.6096043586730957
1707164806034126800,17.610126953125,0.8366453647613525,9.46859359741211,2.411672353744507
1707164806053086700,17.629086669921875,0.9016449451446533,9.513646125793457,2.2018091678619385
1707164806072046300,17.64804638671875,0.9693120121955872,9.551494598388672,1.9999425411224365
1707164806091006200,17.667006103515625,1.037363052368164,9.581128120422363,1.8155542612075806
1707164806109965800,17.6859658203125,1.0999647378921509,9.604554176330566,1.647115707397461
1707164806128925700,17.70492578125,1.147856593132019,9.624812126159668,1.4885584115982056
1707164806147885300,17.72388525390625,1.173665165901184,9.64368724822998,1.3387237787246704
1707164806166845200,17.74284521484375,1.180440902709961,9.661340713500977,1.19810152053833
1707164806185804800,17.7618046875,1.1758900880813599,9.676637649536133,1.0725451707839966
1707164806204764700,17.7807646484375,1.1749858856201172,9.687572479248047,0.9699041843414307
1707164806223724300,17.799724365234376,1.186625361442566,9.692863464355469,0.9003916382789612
1707164806242684200,17.81868408203125,1.2111703157424927,9.693048477172852,0.86501145362854
1707164806261644000,17.83764404296875,1.242462158203125,9.691577911376953,0.8366562724113464
1707164806280603600,17.856603759765626,1.2684441804885864,9.692342758178711,0.7873481512069702
1707164806299563300,17.875563232421875,1.2782291173934937,9.69568157196045,0.7282147407531738
1707164806318523100,17.894523193359376,1.272048830986023,9.698241233825684,0.7045549750328064
1707164806337482800,17.913482666015625,1.245383620262146,9.700458526611328,0.7214651703834534
1707164806356442600,17.932442626953126,1.1772462129592896,9.708515167236328,0.7274619936943054
1707164806375402200,17.95140234375,1.0784870386123657,9.721697807312012,0.70417320728302
1707164806394362000,17.970362060546876,0.9900185465812683,9.732522964477539,0.68428635597229
1707164806413322000,17.989322021484377,0.9290905594825745,9.737103462219238,0.7042583227157593
1707164806432281600,18.008281494140626,0.8881018757820129,9.735005378723145,0.7818755507469177
1707164806451241500,18.027241455078126,0.8584787845611572,9.727094650268555,0.9038978815078735
1707164806470201000,18.046201171875,0.8295799493789673,9.714418411254883,1.05463707447052
1707164806489161000,18.065160888671876,0.7921711206436157,9.698748588562012,1.2153713703155518
1707164806508120800,18.084120849609373,0.7493430972099304,9.68266487121582,1.3619388341903687
1707164806527080400,18.10308056640625,0.7044416069984436,9.667747497558594,1.4862005710601807
1707164806546040300,18.122040283203123,0.6558794379234314,9.653100967407227,1.5993260145187378
1707164806565000000,18.141,0.6056775450706482,9.635724067687988,1.719407081604004
1707164806583959800,18.159959716796877,0.5603606700897217,9.611532211303711,1.8640927076339722
1707164806602919700,18.178919677734374,0.5248495936393738,9.57710075378418,2.04305100440979
1707164806621879300,18.19787939453125,0.49761268496513367,9.53100872039795,2.2544705867767334
1707164806640839200,18.216839111328124,0.4723180830478668,9.474081993103027,2.4877827167510986
1707164806659798800,18.235798828125,0.43958723545074463,9.409482955932617,2.7274129390716553
1707164806678758700,18.254758544921874,0.38502761721611023,9.339460372924805,2.965909004211426
1707164806697718500,18.273718505859375,0.30181172490119934,9.264837265014648,3.200326442718506
1707164806716678400,18.292678466796875,0.19542640447616577,9.189775466918945,3.4176316261291504
1707164806735638000,18.311637939453124,0.08007202297449112,9.118536949157715,3.6078073978424072
1707164806754598000,18.330597900390625,-0.03304252400994301,9.054889678955078,3.7654061317443848
1707164806773557800,18.349557861328126,-0.13702645897865295,8.999809265136719,3.8929457664489746
1707164806792517400,18.368517333984375,-0.2220955342054367,8.954028129577637,3.9932987689971924
1707164806811477200,18.387477294921876,-0.2693830132484436,8.923958778381348,4.057188987731934
1707164806830437000,18.40643701171875,-0.2701101005077362,8.91683292388916,4.072778224945068
1707164806849396700,18.425396728515626,-0.23878473043441772,8.92529010772705,4.056177616119385
1707164806868356600,18.444356689453127,-0.20001375675201416,8.938665390014648,4.028728485107422
1707164806887316500,18.46331640625,-0.15091368556022644,8.965869903564453,3.9699835777282715
1707164806906276000,18.482276123046876,-0.0928620845079422,9.014970779418945,3.859025001525879
1707164806925236000,18.501236083984374,-0.029805008322000504,9.071207046508789,3.7259469032287598
1707164806944195800,18.52019580078125,0.04223247990012169,9.122724533081055,3.597846269607544
1707164806963155500,18.539155517578124,0.1310456246137619,9.165726661682129,3.484633684158325
1707164806982115300,18.558115234375,0.23541900515556335,9.202198028564453,3.381497383117676
1707164807001075200,18.5770751953125,0.3483688235282898,9.239726066589355,3.2674880027770996
1707164807020035000,18.59603515625,0.4589502215385437,9.28083324432373,3.134625196456909
1707164807038994700,18.61499462890625,0.5547083020210266,9.32346248626709,2.989269733428955
1707164807057954600,18.63395458984375,0.6289427280426025,9.365814208984375,2.8383662700653076
1707164807076914400,18.65291455078125,0.6819140911102295,9.407028198242188,2.685739278793335
1707164807095874000,18.6718740234375,0.7200499176979065,9.448294639587402,2.5261905193328857
1707164807114834000,18.690833984375,0.7501020431518555,9.489706039428711,2.356523275375366
1707164807133793800,18.709793701171876,0.7765980362892151,9.531303405761719,2.172908306121826
1707164807152753700,18.728753662109376,0.8013947010040283,9.570518493652344,1.9832605123519897
1707164807171713300,18.74771337890625,0.8246790170669556,9.605201721191406,1.7973334789276123
1707164807190673200,18.766673095703126,0.8465707898139954,9.634950637817383,1.619085669517517
1707164807209633000,18.785633056640624,0.858738362789154,9.661182403564453,1.447241187095642
1707164807228593000,18.804593017578124,0.8521121144294739,9.685103416442871,1.281819462776184
1707164807247552800,18.823552734375,0.8281266093254089,9.707027435302734,1.1216968297958374
1707164807266512400,18.842512451171874,0.7924957871437073,9.726353645324707,0.9697298407554626
1707164807285472300,18.86147216796875,0.7508196830749512,9.74195671081543,0.8372132778167725
1707164807304432000,18.88043212890625,0.7071307897567749,9.75316333770752,0.7390242218971252
1707164807323392000,18.89939208984375,0.6761090159416199,9.759425163269043,0.6832900643348694
1707164807342351600,18.9183515625,0.6679033041000366,9.761270523071289,0.6647443771362305
1707164807361311500,18.9373115234375,0.665554404258728,9.762252807617188,0.6525668501853943
1707164807380271400,18.956271240234376,0.6555925011634827,9.764119148254395,0.6344783306121826
1707164807399231200,18.975231201171876,0.6468940377235413,9.764009475708008,0.6449978947639465
1707164807418191000,18.994191162109374,0.6382306814193726,9.76215648651123,0.6807088255882263
1707164807437151000,19.01315087890625,0.5970858931541443,9.764662742614746,0.6820741295814514
1707164807456110600,19.032110595703124,0.5539311766624451,9.76943588256836,0.6493625044822693
1707164807475070500,19.051070556640624,0.5330743193626404,9.772027015686035,0.6274582743644714
1707164807494030300,19.0700302734375,0.5318199396133423,9.77075481414795,0.6479947566986084
1707164807512990200,19.088990234375,0.5451575517654419,9.765063285827637,0.7188385128974915
1707164807531949800,19.10794970703125,0.5650874972343445,9.755213737487793,0.8287628889083862
1707164807550910000,19.126909912109376,0.5778190493583679,9.741252899169922,0.9718512296676636
1707164807569869600,19.14586962890625,0.5690539479255676,9.723583221435547,1.1395139694213867
1707164807588829400,19.164829345703126,0.5409493446350098,9.703039169311523,1.314834713935852
1707164807607789300,19.183789306640627,0.5033542513847351,9.680646896362305,1.4839423894882202
1707164807626749200,19.202749267578124,0.4632485508918762,9.656720161437988,1.6442456245422363
1707164807645709000,19.221708984375,0.4267159402370453,9.629778861999512,1.8043456077575684
1707164807664669000,19.2406689453125,0.39885711669921875,9.597087860107422,1.9766671657562256
1707164807683628800,19.25962890625,0.3814615309238434,9.555768966674805,2.1707513332366943
1707164807702588400,19.27858837890625,0.3732845187187195,9.503766059875488,2.3894548416137695
1707164807721548300,19.29754833984375,0.36567774415016174,9.441795349121094,2.6247215270996094
1707164807740508200,19.316508056640625,0.34516823291778564,9.372086524963379,2.866227626800537
1707164807759468000,19.335468017578126,0.3027990758419037,9.296451568603516,3.1072003841400146
1707164807778428000,19.354427978515623,0.23959854245185852,9.217462539672852,3.339367628097534
1707164807797387800,19.3733876953125,0.1603211909532547,9.13985824584961,3.550729513168335
1707164807816347600,19.39234765625,0.07200693339109421,9.067974090576172,3.7332348823547363
1707164807835307300,19.411307373046874,-0.01574552245438099,9.002644538879395,3.8887696266174316
1707164807854267100,19.43026708984375,-0.08894906938076019,8.94402027130127,4.020817756652832
1707164807873227000,19.44922705078125,-0.1320543736219406,8.896454811096191,4.123838424682617
1707164807892187000,19.468186767578125,-0.12953945994377136,8.868380546569824,4.183951377868652
1707164807911146800,19.487146728515626,-0.08787762373685837,8.862475395202637,4.1975226402282715
1707164807930106600,19.506106689453127,-0.04961101710796356,8.8690185546875,4.184309005737305
1707164807949066500,19.52506640625,-0.013037820346653461,8.897598266601562,4.123464107513428
1707164807968026000,19.544026123046876,0.04384976625442505,8.966070175170898,3.9721574783325195
1707164807986986000,19.562986083984374,0.10447175055742264,9.044119834899902,3.7899043560028076
1707164808005945900,19.58194580078125,0.16899940371513367,9.101531028747559,3.647458791732788
1707164808024905700,19.60090576171875,0.25238996744155884,9.135592460632324,3.5563530921936035
1707164808043865600,19.619865478515624,0.34923744201660156,9.165955543518066,3.468958616256714
1707164808062825500,19.638825439453125,0.42408981919288635,9.213212966918945,3.3327529430389404
1707164808081785300,19.657785400390626,0.4644824266433716,9.273531913757324,3.15535306930542
1707164808100745200,19.6767451171875,0.48992106318473816,9.331480979919434,2.9755358695983887
1707164808119704800,19.695704833984376,0.5196338891983032,9.383739471435547,2.801037549972534
1707164808138665000,19.7146650390625,0.5644441843032837,9.43392562866211,2.617793560028076
1707164808157624600,19.73362451171875,0.6318224668502808,9.483810424804688,2.4142332077026367
1707164808176584400,19.75258447265625,0.7239992618560791,9.530731201171875,2.193486452102661
1707164808195544300,19.77154443359375,0.8391757011413574,9.570720672607422,1.9665896892547607
1707164808214504200,19.790504150390625,0.9708113670349121,9.601415634155273,1.7437717914581299
1707164808233464000,19.809464111328126,1.102177619934082,9.623372077941895,1.5317668914794922
1707164808252424000,19.828423828125,1.2181020975112915,9.638524055480957,1.3362107276916504
1707164808271383800,19.8473837890625,1.3080040216445923,9.64950942993164,1.1603738069534302
1707164808290343700,19.86634375,1.3693431615829468,9.657781600952148,1.01120924949646
1707164808309303300,19.88530322265625,1.4048203229904175,9.664588928222656,0.8902738094329834
1707164808328263200,19.90426318359375,1.4246283769607544,9.670247077941895,0.7919350266456604
1707164808347223000,19.92322314453125,1.4395909309387207,9.674379348754883,0.7101702690124512
1707164808366183000,19.942182861328124,1.4526182413101196,9.676786422729492,0.6481439471244812
1707164808385142800,19.961142822265625,1.4660030603408813,9.6774320602417,0.6070525646209717
1707164808404102700,19.9801025390625,1.4759095907211304,9.677868843078613,0.5752654075622559
1707164808423062500,19.9990625,1.4726076126098633,9.680582046508789,0.5367954969406128
1707164808442022400,20.0180224609375,1.45228111743927,9.684981346130371,0.5122487545013428
1707164808460982000,20.03698193359375,1.4149112701416016,9.689520835876465,0.5306576490402222
1707164808479942100,20.055942138671874,1.3523836135864258,9.695659637451172,0.5793551206588745
1707164808498901800,20.07490185546875,1.2498202323913574,9.707499504089355,0.6105731725692749
1707164808517861600,20.093861572265624,1.130458950996399,9.722334861755371,0.6071731448173523
1707164808536821500,20.112821533203125,1.031908631324768,9.732674598693848,0.6169301867485046
1707164808555781400,20.131781494140625,0.951815128326416,9.736144065856934,0.6869850158691406
1707164808574741200,20.1507412109375,0.8764773011207581,9.7334623336792,0.813565194606781
1707164808593700900,20.169700927734375,0.7982617020606995,9.72530746459961,0.9754677414894104
1707164808612661000,20.188660888671876,0.7093368768692017,9.711993217468262,1.1594932079315186
1707164808631620600,20.20762060546875,0.6127175688743591,9.694637298583984,1.3449840545654297
1707164808650580500,20.22658056640625,0.5181240439414978,9.675185203552246,1.5141733884811401
1707164808669540400,20.245540283203123,0.42726850509643555,9.653696060180664,1.671523094177246
1707164808688500200,20.264500244140624,0.33860987424850464,9.628118515014648,1.8316798210144043
1707164808707460000,20.283460205078125,0.25576987862586975,9.595304489135742,2.008755683898926
1707164808726420000,20.302419921875,0.18725189566612244,9.551961898803711,2.2125446796417236
1707164808745379800,20.3213798828125,0.13905006647109985,9.49608039855957,2.4444854259490967
1707164808764339700,20.340339599609376,0.10883774608373642,9.427656173706055,2.6977474689483643
1707164808783299300,20.35929931640625,0.08771433681249619,9.349204063415527,2.9588987827301025
1707164808802259200,20.37825927734375,0.06288119405508041,9.261726379394531,3.2228617668151855
1707164808821219000,20.397218994140626,0.025530925020575523,9.163091659545898,3.493922233581543
1707164808840179000,20.416178955078124,-0.024866480380296707,9.0573148727417,3.759629726409912
1707164808859138800,20.435138916015624,-0.08213435113430023,8.954070091247559,3.9985315799713135
1707164808878098700,20.4540986328125,-0.1407632976770401,8.860428810119629,4.200401782989502
1707164808897058600,20.47305859375,-0.19512203335762024,8.778454780578613,4.36704158782959
1707164808916018200,20.49201806640625,-0.23857282102108002,8.711849212646484,4.496349811553955
1707164808934978000,20.51097802734375,-0.25987258553504944,8.670670509338379,4.57409143447876
1707164808953938000,20.52993798828125,-0.23747342824935913,8.661408424377441,4.59282112121582
1707164808972897800,20.548897705078126,-0.19188199937343597,8.67269229888916,4.573617458343506
1707164808991857700,20.567857666015627,-0.16023506224155426,8.696564674377441,4.529292583465576
1707164809010817500,20.586817626953124,-0.11978782713413239,8.753790855407715,4.418957233428955
1707164809029777200,20.605777099609377,-0.06771533936262131,8.845311164855957,4.233945369720459
1707164809048737000,20.624737060546874,-0.01829472742974758,8.93480396270752,4.04219388961792
1707164809067697000,20.64369677734375,0.03682141378521919,9.003443717956543,3.8867764472961426
1707164809086656800,20.66265673828125,0.1240595132112503,9.056873321533203,3.7587296962738037
1707164809105616600,20.68161669921875,0.23202425241470337,9.115728378295898,3.608330726623535
1707164809124576500,20.700576416015625,0.3334938883781433,9.186816215515137,3.414905309677124
1707164809143536400,20.719536376953126,0.4252769947052002,9.258776664733887,3.20383620262146
1707164809162496000,20.73849609375,0.5167526602745056,9.322272300720215,2.9997665882110596
1707164809181456000,20.757455810546876,0.614055335521698,9.377401351928711,2.803154230117798
1707164809200415700,20.776415771484373,0.7217063307762146,9.42899227142334,2.596848487854004
1707164809219375600,20.795375732421874,0.8427853584289551,9.47797679901123,2.3723509311676025
1707164809238335500,20.81433544921875,0.974741518497467,9.521273612976074,2.1367273330688477
1707164809257295400,20.83329541015625,1.1132479906082153,9.55681037902832,1.8969550132751465
1707164809276255000,20.8522548828125,1.2496095895767212,9.583769798278809,1.661393642425537
1707164809295214800,20.87121484375,1.374070167541504,9.602992057800293,1.43695867061615
1707164809314174700,20.8901748046875,1.4778417348861694,9.616551399230957,1.2281322479248047
1707164809333134600,20.909134521484376,1.5535764694213867,9.626673698425293,1.0411182641983032
1707164809352094500,20.928094482421876,1.6015031337738037,9.634570121765137,0.8835364580154419
1707164809371054300,20.947054443359374,1.6347404718399048,9.640117645263672,0.7524228096008301
1707164809390014000,20.966013916015626,1.660239815711975,9.644039154052734,0.6375712752342224
1707164809408973800,20.984973876953124,1.6807382106781006,9.646790504455566,0.53380286693573
1707164809427933700,21.00393359375,1.7073239088058472,9.646364212036133,0.4506520926952362
1707164809446893600,21.0228935546875,1.7443203926086426,9.641876220703125,0.4024309813976288
1707164809465853200,21.041853271484374,1.7712912559509277,9.637760162353516,0.3827497959136963
1707164809484813000,21.06081298828125,1.7709403038024902,9.638236045837402,0.37225624918937683
1707164809503773000,21.07977294921875,1.7505714893341064,9.641756057739258,0.37740767002105713
1707164809522732800,21.09873291015625,1.7155791521072388,9.646886825561523,0.40587717294692993
1707164809541692700,21.117692626953126,1.6414823532104492,9.658899307250977,0.4261426031589508
1707164809560652500,21.136652587890627,1.522902011871338,9.678524017333984,0.4211046099662781
1707164809579612200,21.155612060546876,1.3929402828216553,9.697859764099121,0.4261740744113922
1707164809598572000,21.174572021484376,1.281436800956726,9.710451126098633,0.48523595929145813
1707164809617532000,21.193531982421874,1.1787916421890259,9.716583251953125,0.6073361039161682
1707164809636491800,21.21249169921875,1.0680274963378906,9.71806812286377,0.7673653960227966
1707164809655451400,21.231451416015624,0.9440595507621765,9.7160005569458,0.9372714757919312
1707164809674411300,21.250411376953124,0.8118178844451904,9.711162567138672,1.0975689888000488
1707164809693371100,21.26937109375,0.6844525933265686,9.70348072052002,1.242730975151062
1707164809712331000,21.2883310546875,0.5721202492713928,9.692228317260742,1.379772663116455
1707164809731291000,21.307290771484375,0.47737622261047363,9.676399230957031,1.5198053121566772
1707164809750250500,21.32625048828125,0.4029037058353424,9.654677391052246,1.6719063520431519
1707164809769210400,21.34521044921875,0.35169845819473267,9.62535572052002,1.8436951637268066
1707164809788170200,21.364170166015626,0.32234108448028564,9.586602210998535,2.040475606918335
1707164809807130000,21.383130126953127,0.30846354365348816,9.537346839904785,2.2614729404449463
1707164809826089700,21.40208984375,0.30266809463500977,9.477557182312012,2.5009372234344482
1707164809845049600,21.421049560546876,0.2957150638103485,9.408714294433594,2.7493696212768555
1707164809864009500,21.440009521484374,0.2806137502193451,9.331513404846191,3.002412796020508
1707164809882969300,21.45896923828125,0.250280499458313,9.247265815734863,3.2551229000091553
1707164809901929200,21.47792919921875,0.21144871413707733,9.162659645080566,3.488744020462036
1707164809920888800,21.496888916015624,0.1687554270029068,9.083673477172852,3.691718816757202
1707164809939848700,21.5158486328125,0.11905128508806229,9.014440536499023,3.859541893005371
1707164809958808600,21.53480859375,0.0724078044295311,8.960164070129395,3.98504900932312
1707164809977768400,21.5537685546875,0.043235648423433304,8.929264068603516,4.054229259490967
1707164809996728000,21.57272802734375,0.03186281770467758,8.92636775970459,4.060706615447998
1707164810015688000,21.59168798828125,0.0465785413980484,8.937203407287598,4.036657810211182
1707164810034647800,21.610647705078126,0.06470970064401627,8.957439422607422,3.9912993907928467
1707164810053607700,21.629607666015627,0.0779855027794838,9.0047607421875,3.883115768432617
1707164810072567300,21.6485673828125,0.10031091421842575,9.083754539489746,3.6940135955810547
1707164810091527200,21.667527099609377,0.12840431928634644,9.163331985473633,3.4910225868225098
1707164810110487000,21.686487060546874,0.16609008610248566,9.221273422241211,3.333303213119507
1707164810129447000,21.705447021484375,0.2227286994457245,9.261697769165039,3.2158544063568115
1707164810148406500,21.724406494140624,0.28893622756004333,9.301416397094727,3.0936336517333984
1707164810167366400,21.743366455078124,0.3394644260406494,9.353281021118164,2.927675724029541
1707164810186326300,21.762326171875,0.35641342401504517,9.41113567352295,2.733839988708496
1707164810205286000,21.781285888671874,0.35522422194480896,9.463639259338379,2.546316623687744
1707164810224245800,21.800245849609375,0.36477968096733093,9.50712776184082,2.3773648738861084
1707164810243205600,21.81920556640625,0.3971521258354187,9.546395301818848,2.2088468074798584
1707164810262165200,21.838165283203125,0.46075916290283203,9.585565567016602,2.0186688899993896
1707164810281125000,21.857125,0.5615133047103882,9.623236656188965,1.8023362159729004
1707164810300085000,21.8760849609375,0.692115068435669,9.653667449951172,1.5805273056030273
1707164810319044900,21.895044921875,0.8367800712585449,9.673172950744629,1.378371238708496
1707164810338004700,21.914004638671877,0.9807679057121277,9.682806015014648,1.2048805952072144
1707164810356964400,21.93296435546875,1.1138590574264526,9.686198234558105,1.0522708892822266
1707164810375924200,21.95192431640625,1.221090316772461,9.68717098236084,0.9154483079910278
1707164810394884000,21.970884033203124,1.2960565090179443,9.687582969665527,0.8008452653884888
1707164810413843700,21.98984375,1.3469302654266357,9.687541007995605,0.7125510573387146
1707164810432803600,22.008803466796873,1.3810484409332275,9.687745094299316,0.6408385038375854
1707164810451763500,22.027763427734374,1.3969295024871826,9.689117431640625,0.5830727219581604
1707164810470723000,22.04672314453125,1.3982735872268677,9.691115379333496,0.5454481244087219
1707164810489683000,22.065682861328124,1.3986295461654663,9.692483901977539,0.5195852518081665
1707164810508642800,22.084642822265625,1.3941072225570679,9.695088386535645,0.48177602887153625
1707164810527602400,22.1036025390625,1.3668347597122192,9.70139217376709,0.43027135729789734
1707164810546562300,22.122562255859375,1.313797116279602,9.710086822509766,0.3981799781322479
1707164810565522200,22.141522216796876,1.252358317375183,9.718550682067871,0.38957613706588745
1707164810584482000,22.16048193359375,1.1644715070724487,9.730255126953125,0.3695155680179596
1707164810603441700,22.179441650390626,1.0512410402297974,9.744544982910156,0.3303423523902893
1707164810622401500,22.198401611328126,0.9476845860481262,9.755627632141113,0.3162441551685333
1707164810641361400,22.217361328125,0.8762485980987549,9.760382652282715,0.37082239985466003
1707164810660321000,22.236321044921876,0.8363147974014282,9.758567810058594,0.4912371039390564
1707164810679281000,22.255281005859374,0.8061200380325317,9.7513427734375,0.6571632027626038
1707164810698240800,22.27424072265625,0.7605943083763123,9.739829063415527,0.8530099987983704
1707164810717200400,22.293200439453123,0.6908083558082581,9.725358009338379,1.0538409948349
1707164810736160300,22.31216015625,0.6055804491043091,9.709339141845703,1.23790442943573
1707164810755120000,22.3311201171875,0.5139499306678772,9.691661834716797,1.4063962697982788
1707164810774079700,22.350079833984374,0.4201752543449402,9.670827865600586,1.5712815523147583
1707164810793039600,22.36903955078125,0.3312307894229889,9.644272804260254,1.7460459470748901
1707164810811999200,22.387999267578124,0.2552734315395355,9.608219146728516,1.9461084604263306
1707164810830959000,22.406958984375,0.19670307636260986,9.559000968933105,2.1810965538024902
1707164810849919000,22.4259189453125,0.15168443322181702,9.495092391967773,2.4475722312927246
1707164810868878600,22.444878662109375,0.10960111767053604,9.417282104492188,2.7337095737457275
1707164810887838500,22.46383837890625,0.06072799861431122,9.328460693359375,3.0243237018585205
1707164810906798300,22.48279833984375,0.0009927680948749185,9.233256340026855,3.3041436672210693
1707164810925758000,22.501758056640625,-0.06577479094266891,9.13744068145752,3.559948205947876
1707164810944717800,22.5207177734375,-0.13083450496196747,9.046775817871094,3.782740592956543
1707164810963677700,22.539677734375,-0.18288390338420868,8.96497917175293,3.970656156539917
1707164810982637600,22.558637451171876,-0.21145962178707123,8.895539283752441,4.1225056648254395
1707164811001597200,22.57759716796875,-0.20620577037334442,8.843432426452637,4.233386993408203
1707164811020557000,22.59655712890625,-0.1622111052274704,8.815104484558105,4.293951034545898
1707164811039516700,22.6155166015625,-0.09392768889665604,8.81396198272705,4.298328399658203
1707164811058476500,22.6344765625,-0.04421360790729523,8.827781677246094,4.2706804275512695
1707164811077436400,22.6534365234375,-0.02953978069126606,8.859231948852539,4.2051777839660645
1707164811096396000,22.67239599609375,-0.028239134699106216,8.934107780456543,4.043677806854248
1707164811115356000,22.69135595703125,-0.017882423475384712,9.037763595581055,3.8064286708831787
1707164811134315500,22.7103154296875,0.0015321330865845084,9.128351211547852,3.5837957859039307
1707164811153275400,22.729275390625,0.03471499681472778,9.19189167022705,3.417355537414551
1707164811172235300,22.7482353515625,0.10061788558959961,9.236745834350586,3.2928407192230225
1707164811191195000,22.76719482421875,0.1852847933769226,9.282143592834473,3.1587769985198975
1707164811210154800,22.78615478515625,0.25108543038368225,9.33992862701416,2.9787709712982178
1707164811229114400,22.8051142578125,0.29336729645729065,9.403594970703125,2.7670798301696777
1707164811248074200,22.82407421875,0.3336389362812042,9.461562156677246,2.556936025619507
1707164811267034000,22.8430341796875,0.38457760214805603,9.510921478271484,2.358999252319336
1707164811285993700,22.86199365234375,0.4570901691913605,9.55642032623291,2.153207540512085
1707164811304953600,22.88095361328125,0.5594400763511658,9.6002836227417,1.921449899673462
1707164811323913200,22.899913330078125,0.6908755898475647,9.640012741088867,1.662297248840332
1707164811342873000,22.918873046875,0.8450109958648682,9.668890953063965,1.403168797492981
1707164811361833000,22.9378330078125,1.0074951648712158,9.683938026428223,1.1733267307281494
1707164811380792600,22.95679248046875,1.16208016872406,9.688517570495605,0.9759988784790039
1707164811399752400,22.97575244140625,1.2957348823547363,9.687691688537598,0.8000500202178955
1707164811418712000,22.994712158203125,1.3962253332138062,9.68541145324707,0.6432382464408875
1707164811437672000,23.013671875,1.4664479494094849,9.682682991027832,0.5153257846832275
1707164811456631800,23.0326318359375,1.5165975093841553,9.679553031921387,0.42019352316856384
1707164811475591400,23.05159130859375,1.5548909902572632,9.67620849609375,0.35170841217041016
1707164811494551300,23.07055126953125,1.5802383422851562,9.673717498779297,0.30400291085243225
1707164811513511000,23.089510986328126,1.589381217956543,9.672957420349121,0.2795538306236267
1707164811532470800,23.108470703125,1.5844978094100952,9.673905372619629,0.2744166851043701
1707164811551430400,23.127430419921875,1.563102126121521,9.67739200592041,0.27418527007102966
1707164811570390300,23.146390380859376,1.5212470293045044,9.683748245239258,0.28497985005378723
1707164811589350100,23.16535009765625,1.4627281427383423,9.691235542297363,0.3328278958797455
1707164811608309800,23.184309814453126,1.37890625,9.70068073272705,0.4071941077709198
1707164811627269600,23.20326953125,1.251207947731018,9.715704917907715,0.45820674300193787
1707164811646229200,23.222229248046876,1.127009391784668,9.729781150817871,0.48123711347579956
1707164811665189000,23.241189208984373,1.03648042678833,9.738048553466797,0.5162321329116821
1707164811684148700,23.260148681640626,0.9634695649147034,9.740114212036133,0.6101486682891846
1707164811703108600,23.279108642578127,0.9012638330459595,9.734437942504883,0.7738404870033264
1707164811722068500,23.298068359375,0.8381557464599609,9.719950675964355,0.9951972961425781
1707164811741028000,23.317028076171876,0.760532557964325,9.697495460510254,1.2452178001403809
1707164811759988000,23.335988037109374,0.6730858087539673,9.670519828796387,1.4826982021331787
1707164811778947600,23.354947509765626,0.5875558257102966,9.643675804138184,1.6806809902191162
1707164811797907500,23.373907470703124,0.5074294209480286,9.618331909179688,1.8440697193145752
1707164811816867000,23.3928671875,0.433307021856308,9.592290878295898,1.9926371574401855
1707164811835827000,23.411826904296873,0.36835142970085144,9.561057090759277,2.149628162384033
1707164811854786600,23.43078662109375,0.32057321071624756,9.519235610961914,2.3349010944366455
1707164811873746400,23.449746337890623,0.29334738850593567,9.46355152130127,2.5545120239257812
1707164811892706300,23.468706298828124,0.28284433484077454,9.393027305603027,2.803823471069336
1707164811911666000,23.487666015625,0.2777792811393738,9.30855655670166,3.073110342025757
1707164811930625800,23.506625732421874,0.2634710967540741,9.214665412902832,3.3452796936035156
1707164811949585400,23.52558544921875,0.2319161593914032,9.118067741394043,3.6024227142333984
1707164811968545300,23.544545166015624,0.18839582800865173,9.022472381591797,3.8379533290863037
1707164811987505000,23.5635048828125,0.14698514342308044,8.929718971252441,4.050790786743164
1707164812006464500,23.582464599609374,0.11561671644449234,8.843851089477539,4.235958099365234
1707164812025424400,23.60142431640625,0.09328469634056091,8.768915176391602,4.389512062072754
1707164812044384300,23.62038427734375,0.07816522568464279,8.710651397705078,4.504312038421631
1707164812063343900,23.63934375,0.08009522408246994,8.679549217224121,4.563923358917236
1707164812082303700,23.6583037109375,0.10961098223924637,8.682353019714355,4.5579752922058105
1707164812101263400,23.677263427734374,0.16111166775226593,8.703436851501465,4.51603889465332
1707164812120223200,23.69622314453125,0.20582641661167145,8.732043266296387,4.458636283874512
1707164812139182800,23.715182861328124,0.25313037633895874,8.782914161682129,4.355079650878906
1707164812158142700,23.734142822265625,0.32049453258514404,8.865644454956055,4.179474830627441
1707164812177102300,23.753102294921874,0.3879503011703491,8.959360122680664,3.968595027923584
1707164812196062200,23.772062255859375,0.45182719826698303,9.039111137390137,3.776334762573242
1707164812215021800,23.791021728515624,0.5292896628379822,9.094136238098145,3.631381034851074
1707164812233981700,23.809981689453124,0.6255365610122681,9.133530616760254,3.5153512954711914
1707164812252941300,23.82894140625,0.7217119336128235,9.176648139953613,3.382103681564331
1707164812271901200,23.847901123046874,0.7924388647079468,9.231893539428711,3.2116286754608154
1707164812290860800,23.86686083984375,0.8387062549591064,9.293907165527344,3.015005588531494
1707164812309820700,23.885820556640624,0.8738333582878113,9.354674339294434,2.8101344108581543
1707164812328780300,23.9047802734375,0.9071438312530518,9.412687301635742,2.597844362258911
1707164812347740200,23.923740234375,0.9482016563415527,9.470364570617676,2.3629415035247803
1707164812366699800,23.94269970703125,1.0064263343811035,9.526611328125,2.0978963375091553
1707164812385659600,23.96165966796875,1.0823423862457275,9.57443904876709,1.8245640993118286
1707164812404619300,23.980619384765625,1.1726157665252686,9.609049797058105,1.5689265727996826
1707164812423579100,23.9995791015625,1.2707929611206055,9.631003379821777,1.341357707977295
1707164812442538800,24.018538818359374,1.3667120933532715,9.64466667175293,1.1326501369476318
1707164812461498600,24.03749853515625,1.4490187168121338,9.653878211975098,0.9345442652702332
1707164812480458200,24.056458251953124,1.5054060220718384,9.660820007324219,0.7567732334136963
1707164812499418000,24.075418212890625,1.5361193418502808,9.666513442993164,0.6076456904411316
1707164812518377700,24.094377685546874,1.5478475093841553,9.671334266662598,0.4897260367870331
1707164812537337600,24.113337646484375,1.5396864414215088,9.67671012878418,0.40128299593925476
1707164812556297200,24.132297119140624,1.5189452171325684,9.682130813598633,0.3457731604576111
1707164812575256800,24.1512568359375,1.5033347606658936,9.685317993164062,0.3240280747413635
1707164812594216700,24.170216796875,1.4929003715515137,9.686847686767578,0.3265150487422943
1707164812613176300,24.18917626953125,1.472101092338562,9.68919849395752,0.3503332734107971
1707164812632136200,24.20813623046875,1.4361481666564941,9.6923828125,0.40691059827804565
1707164812651095800,24.227095703125,1.3810081481933594,9.697134971618652,0.47830402851104736
1707164812670055700,24.2460556640625,1.2815521955490112,9.709074020385742,0.5117635130882263
1707164812689015300,24.265015380859374,1.1522904634475708,9.72539234161377,0.5092811584472656
1707164812707975200,24.28397509765625,1.034809947013855,9.737833023071289,0.5236097574234009
1707164812726934800,24.302934814453124,0.9485703706741333,9.741835594177246,0.605993926525116
1707164812745894700,24.321894775390625,0.889328122138977,9.736583709716797,0.7605311870574951
1707164812764854300,24.340854248046874,0.8363811373710632,9.724590301513672,0.9503777623176575
1707164812783814000,24.35981396484375,0.7724929451942444,9.709779739379883,1.1374671459197998
1707164812802773800,24.378773681640624,0.6977611184120178,9.694782257080078,1.301817536354065
1707164812821733400,24.3977333984375,0.623307466506958,9.680130958557129,1.4411654472351074
