time,seconds_elapsed,z,y,x
1707164788543899000,0.11989892578125,-0.12003492563962936,-0.5702422857284546,0.11392628401517868
1707164788562858200,0.138858154296875,-0.12980876863002777,-0.7360920310020447,0.12156209349632263
1707164788581817600,0.157817626953125,-0.08582650125026703,-1.1129956245422363,0.1545487940311432
1707164788600777000,0.17677685546875,-0.05864302068948746,-1.5167772769927979,0.19089524447917938
1707164788619736300,0.195736328125,-0.06261363625526428,-1.9526292085647583,0.20922118425369263
1707164788638695700,0.21469580078125,-0.06780599057674408,-2.1755948066711426,0.1798996776342392
1707164788657655000,0.233655029296875,-0.10201441496610641,-2.3619086742401123,0.19730933010578156
1707164788676614400,0.252614501953125,-0.12431098520755768,-2.671006202697754,0.2260199636220932
1707164788695574000,0.271573974609375,-0.1536324918270111,-2.936426877975464,0.29443681240081787
1707164788714533400,0.290533447265625,-0.19425499439239502,-3.173748016357422,0.35216355323791504
1707164788733492700,0.30949267578125,-0.2883281707763672,-3.426035165786743,0.37690356373786926
1707164788752452000,0.3284521484375,-0.37781986594200134,-3.4779586791992188,0.3796524703502655
1707164788771411500,0.347411376953125,-0.4150826036930084,-3.375333309173584,0.3692677617073059
1707164788790370800,0.366370849609375,-0.48930269479751587,-3.0943355560302734,0.3637699782848358
1707164788809330200,0.385330078125,-0.6044507026672363,-2.6838343143463135,0.35674503445625305
1707164788828289500,0.40428955078125,-0.6856957077980042,-2.4495677947998047,0.34636032581329346
1707164788847249000,0.423248779296875,-0.8729257583618164,-2.525925874710083,0.30451610684394836
1707164788866208300,0.442208251953125,-0.8381064534187317,-2.4291038513183594,0.19608759880065918
1707164788885167600,0.461167724609375,-0.7541125416755676,-2.15116024017334,0.08796452730894089
1707164788904127000,0.480126953125,-0.8255837559700012,-1.8802417516708374,0.007635809946805239
1707164788923086300,0.49908642578125,-0.9440914988517761,-1.7455461025238037,-0.10690133273601532
1707164788942045700,0.518045654296875,-0.9850194454193115,-1.5641192197799683,-0.2458730787038803
1707164788961005000,0.537005126953125,-1.053436279296875,-1.4260637760162354,-0.37659814953804016
1707164788979964700,0.555964599609375,-1.056185245513916,-1.4413354396820068,-0.4981602132320404
1707164788998924000,0.574924072265625,-0.9902117848396301,-1.5042544603347778,-0.610559344291687
1707164789017883400,0.59388330078125,-0.9767727851867676,-1.6856813430786133,-0.7287616729736328
1707164789036842800,0.6128427734375,-1.0470222234725952,-1.895818829536438,-0.785877525806427
1707164789055802000,0.631802001953125,-1.0653481483459473,-2.0909900665283203,-0.7999274134635925
1707164789074761500,0.650761474609375,-1.0696241855621338,-2.1948370933532715,-0.8249728679656982
1707164789093720800,0.669720947265625,-1.0943642854690552,-2.2421791553497314,-0.8487966060638428
1707164789112680200,0.68868017578125,-1.074511170387268,-2.2232422828674316,-0.8503237962722778
1707164789131639600,0.7076396484375,-1.0344995260238647,-2.1160356998443604,-0.8057306408882141
1707164789150599000,0.726598876953125,-1.0063997507095337,-1.9911137819290161,-0.7751874327659607
1707164789169558300,0.745558349609375,-0.9608902931213379,-1.8903210163116455,-0.7690787315368652
1707164789188517600,0.764517578125,-0.8784235715866089,-1.7614285945892334,-0.7635809779167175
1707164789207477000,0.78347705078125,-0.813060998916626,-1.580307126045227,-0.7400626540184021
1707164789226436400,0.802436279296875,-0.7599157691001892,-1.3961313962936401,-0.7171552777290344
1707164789245395700,0.821395751953125,-0.7073814272880554,-1.2681553363800049,-0.7150171995162964
1707164789264355000,0.84035498046875,-0.6255255341529846,-1.1911863088607788,-0.7107411623001099
1707164789283314400,0.859314453125,-0.5161807537078857,-1.1249074935913086,-0.713184654712677
1707164789302274000,0.878274169921875,-0.40286532044410706,-1.0641264915466309,-0.7006618976593018
1707164789321233400,0.8972333984375,-0.3292561173439026,-0.9926552772521973,-0.6594285368919373
1707164789340192800,0.91619287109375,-0.3139844834804535,-0.9605848789215088,-0.6230821013450623
1707164789359152000,0.935152099609375,-0.2984074354171753,-1.018311619758606,-0.5925388336181641
1707164789378111500,0.954111572265625,-0.2574795186519623,-1.0855066776275635,-0.5656607747077942
1707164789397070800,0.97307080078125,-0.18570289015769958,-1.0674861669540405,-0.5500837564468384
1707164789416030200,0.9920302734375,-0.13652828335762024,-0.9764673709869385,-0.5464185476303101
1707164789434989600,1.010989501953125,-0.10751219838857651,-0.861319363117218,-0.5467239618301392
1707164789453949000,1.029948974609375,-0.1081230640411377,-0.7431169748306274,-0.5381718873977661
1707164789472908300,1.048908203125,-0.12950333952903748,-0.6090322136878967,-0.554665207862854
1707164789491868000,1.067867919921875,-0.14141519367694855,-0.5259546041488647,-0.5406153202056885
1707164789510827300,1.0868271484375,-0.12950333952903748,-0.430659681558609,-0.47464191913604736
1707164789529786600,1.10578662109375,-0.06933315098285675,-0.24434591829776764,-0.40225446224212646
1707164789548746000,1.12474609375,-0.02932151034474373,-0.15515965223312378,-0.34147340059280396
1707164789567705600,1.14370556640625,-0.07971785217523575,-0.18845178186893463,-0.27519458532333374
1707164789586665000,1.1626650390625,-0.13194678723812103,-0.32192572951316833,-0.19608759880065918
1707164789605624300,1.181624267578125,-0.11056652665138245,-0.40317076444625854,-0.14263692498207092
1707164789624583700,1.200583740234375,-0.06108647957444191,-0.4224129915237427,-0.10690133273601532
1707164789643543000,1.21954296875,-0.08399390429258347,-0.34605491161346436,-0.03756818547844887
1707164789662502400,1.23850244140625,-0.11972949653863907,-0.22296564280986786,0.03817904740571976
1707164789681461800,1.257461669921875,-0.09132428467273712,-0.11911863088607788,0.08857539296150208
1707164789700421000,1.276421142578125,-0.08307760953903198,-0.0256563201546669,0.11575887352228165
1707164789719380700,1.295380615234375,-0.08918625861406326,-0.0027488914784044027,0.14049890637397766
1707164789738340000,1.314340087890625,-0.08307760953903198,0.000610864779446274,0.15118902921676636
1707164789757299500,1.333299560546875,-0.05528326332569122,-0.000305432389723137,0.15118902921676636
1707164789776258800,1.3522587890625,-0.05039634555578232,-0.001832594396546483,0.1646280586719513
1707164789795218400,1.371218505859375,-0.06200277432799339,0.014660755172371864,0.17531819641590118
1707164789814177800,1.390177734375,-0.05436696484684944,0.032681263983249664,0.16279546916484833
1707164789833137200,1.40913720703125,-0.03298669680953026,0.024434590712189674,0.13194678723812103
1707164789852096500,1.428096435546875,-0.032681263983249664,-0.003970621153712273,0.10109812021255493
1707164789871056100,1.44705615234375,-0.029626941308379173,-0.01588248461484909,0.08063415437936783
1707164789890015500,1.466015380859375,-0.02107483521103859,-0.004886918235570192,0.06230820715427399
1707164789908974800,1.484974853515625,-0.010079269297420979,0.000305432389723137,0.035735588520765305
1707164789927934200,1.503934326171875,0.0015271619195118546,-0.02412915788590908,0.01282816007733345
1707164789946893600,1.5228935546875,-0.003359756199643016,-0.06566796451807022,-0.000305432389723137
1707164789965853200,1.541853271484375,0.002443459117785096,-0.1078176349401474,-0.008857538923621178
1707164789984812500,1.5608125,0.008246674202382565,-0.13011419773101807,-0.01282816007733345
1707164790003772000,1.57977197265625,0.00946840364485979,-0.14019346237182617,-0.01588248461484909
1707164790022731300,1.598731201171875,0.000305432389723137,-0.1490510106086731,-0.01893680728971958
1707164790041691000,1.61769091796875,-0.013744457624852657,-0.13775001466274261,-0.022296564653515816
1707164790060650200,1.636650146484375,-0.022296564653515816,-0.11392628401517868,-0.03237583488225937
1707164790079609600,1.655609619140625,-0.02871064469218254,-0.0870482325553894,-0.04306596517562866
1707164790098569000,1.67456884765625,-0.0409279391169548,-0.06902772188186646,-0.061391908675432205
1707164790117528600,1.693528564453125,-0.05345066636800766,-0.06291907280683517,-0.07910698652267456
1707164790136488000,1.712488037109375,-0.0513126403093338,-0.039706211537122726,-0.08552107214927673
1707164790155447300,1.731447265625,-0.04214967042207718,-0.007635809946805239,-0.0925460159778595
1707164790174407000,1.750406982421875,-0.03145953640341759,0.006414080038666725,-0.09376774728298187
1707164790193366300,1.7693662109375,-0.022907428443431854,0,-0.09162971377372742
1707164790212325600,1.78832568359375,-0.01740964688360691,-0.007635809946805239,-0.07788526266813278
1707164790231285200,1.80728515625,-0.010079269297420979,-0.021991131827235222,-0.05742128938436508
1707164790250244600,1.82624462890625,-0.003665188793092966,-0.06017018109560013,-0.03329212963581085
1707164790269204000,1.845203857421875,-0.018631376326084137,-0.09285144507884979,-0.01740964688360691
1707164790288163600,1.86416357421875,-0.035124726593494415,-0.1029307171702385,-0.0030543238390237093
1707164790307123000,1.883123046875,-0.041844237595796585,-0.08491020649671555,-0.003970621153712273
1707164790326082300,1.902082275390625,-0.0360410213470459,-0.06352993845939636,-0.0021380267571657896
1707164790345042000,1.9210419921875,-0.01588248461484909,-0.04886918142437935,-0.003970621153712273
1707164790364001300,1.940001220703125,0,-0.04764745384454727,-0.008246674202382565
1707164790382960600,1.958960693359375,0.0021380267571657896,-0.05558869615197182,-0.013133592903614044
1707164790401920300,1.977920166015625,-0.003359756199643016,-0.06261363625526428,-0.019853105768561363
1707164790420879600,1.996879638671875,-0.001832594396546483,-0.06261363625526428,-0.01954767294228077
1707164790439839000,2.0158388671875,0.003970621153712273,-0.051618073135614395,-0.0204639695584774
1707164790458798600,2.034798583984375,0.003665188793092966,-0.05833758786320686,-0.014966187067329884
1707164790477758000,2.053758056640625,-0.001221729558892548,-0.06536252796649933,-0.007941242307424545
1707164790496717600,2.072717529296875,0.003359756199643016,-0.07086031138896942,-0.016798781231045723
1707164790515677000,2.091677001953125,-0.006108647678047419,-0.09376774728298187,-0.03023780696094036
1707164790534636300,2.11063623046875,-0.023518294095993042,-0.10415244847536087,-0.031154103577136993
1707164790553596000,2.129595947265625,-0.023212861269712448,-0.07116574794054031,-0.025961752980947495
1707164790572555300,2.14855517578125,-0.01740964688360691,-0.047952886670827866,-0.02626718580722809
1707164790591515000,2.167514892578125,-0.022296564653515816,-0.06536252796649933,-0.021991131827235222
1707164790610474200,2.18647412109375,-0.0360410213470459,-0.10567960888147354,-0.010079269297420979
1707164790629433600,2.20543359375,-0.04367683082818985,-0.13255766034126282,0.0027488914784044027
1707164790648393200,2.224393310546875,-0.05925388261675835,-0.17134757339954376,-0.0009162971982732415
1707164790667352600,2.2433525390625,-0.08429934084415436,-0.22418737411499023,-0.006108647678047419
1707164790686312000,2.26231201171875,-0.10018182545900345,-0.2684750556945801,-0.00946840364485979
1707164790705271600,2.281271484375,-0.09804379940032959,-0.2617555558681488,-0.03787361457943916
1707164790724231000,2.30023095703125,-0.0873536616563797,-0.25809037685394287,-0.0717766135931015
1707164790743190500,2.3191904296875,-0.11453714966773987,-0.2968802750110626,-0.11178825795650482
1707164790762150000,2.33814990234375,-0.13744457066059113,-0.35063639283180237,-0.129197895526886
1707164790781109500,2.357109619140625,-0.13561198115348816,-0.36774060130119324,-0.1432477980852127
1707164790800068900,2.37606884765625,-0.13133592903614044,-0.3454440236091614,-0.15179990231990814
1707164790819028500,2.395028564453125,-0.14782927930355072,-0.3686569035053253,-0.15302163362503052
1707164790837987800,2.41398779296875,-0.1588248461484909,-0.37690356373786926,-0.1386663019657135
1707164790856947500,2.432947509765625,-0.14019346237182617,-0.31459537148475647,-0.14172062277793884
1707164790875906800,2.45190673828125,-0.1490510106086731,-0.2608392536640167,-0.1432477980852127
1707164790894866400,2.470866455078125,-0.2159406989812851,-0.2528980076313019,-0.14782927930355072
1707164790913825800,2.48982568359375,-0.26358816027641296,-0.27550002932548523,-0.1383608728647232
1707164790932785400,2.508785400390625,-0.282524973154068,-0.25931209325790405,-0.15821397304534912
1707164790951744800,2.527744873046875,-0.3072649836540222,-0.2712239623069763,-0.1740964651107788
1707164790970704100,2.5467041015625,-0.3643808364868164,-0.30451610684394836,-0.1847866028547287
1707164790989663700,2.565663818359375,-0.40317076444625854,-0.3295615613460541,-0.18234314024448395
1707164791008623000,2.584623046875,-0.4202749729156494,-0.36254823207855225,-0.18387030065059662
1707164791027582700,2.603582763671875,-0.4303542375564575,-0.36774060130119324,-0.19608759880065918
1707164791046542000,2.6225419921875,-0.4404335021972656,-0.35582873225212097,-0.2006690800189972
1707164791065501700,2.641501708984375,-0.4569268524646759,-0.2568686306476593,-0.2049451321363449
1707164791084461000,2.6604609375,-0.48960810899734497,-0.13530655205249786,-0.19853104650974274
1707164791103420700,2.679420654296875,-0.5479456782341003,-0.057726722210645676,-0.18173226714134216
1707164791122380300,2.69838037109375,-0.61117023229599,-0.06566796451807022,-0.1637117564678192
1707164791141339600,2.717339599609375,-0.6499601006507874,-0.11545344442129135,-0.15302163362503052
1707164791160299300,2.73629931640625,-0.6597339510917664,-0.1438586562871933,-0.15668681263923645
1707164791179258600,2.755258544921875,-0.6386591196060181,-0.12034036219120026,-0.1802051067352295
1707164791198218000,2.774218017578125,-0.6114756464958191,0.000610864779446274,-0.18875721096992493
1707164791217177600,2.793177490234375,-0.5696313977241516,0.14477495849132538,-0.19730933010578156
1707164791236137000,2.812136962890625,-0.49144071340560913,0.20372340083122253,-0.20463970303535461
1707164791255096600,2.8310966796875,-0.4526508152484894,0.24556763470172882,-0.19669845700263977
1707164791274056200,2.85005615234375,-0.33689191937446594,0.2782489061355591,-0.21777328848838806
1707164791293015600,2.869015625,-0.27000224590301514,0.14141519367694855,-0.17256930470466614
1707164791311975200,2.88797509765625,-0.33017241954803467,0.10903936624526978,-0.03023780696094036
1707164791330934500,2.9069345703125,-0.31581708788871765,0.20891575515270233,0.0772743970155716
1707164791349894100,2.92589404296875,-0.12583814561367035,0.2974911332130432,0.1230892539024353
1707164791368853500,2.944853515625,0.11362084746360779,0.2938259541988373,0.19394956529140472
1707164791387813000,2.963813232421875,0.3042106628417969,0.11698060482740402,0.2877173125743866
1707164791406772500,2.9827724609375,0.364991694688797,0.04550942778587341,0.3909534513950348
1707164791425732000,3.001732177734375,0.35674503445625305,0.10048725455999374,0.49082985520362854
1707164791444691500,3.02069140625,0.4196641147136688,0.25503605604171753,0.5647444725036621
1707164791463651000,3.039651123046875,0.5384773015975952,0.4780016839504242,0.5766563415527344
1707164791482610700,3.058610595703125,0.6960803866386414,0.6343830823898315,0.528092622756958
1707164791501570000,3.077570068359375,0.8536835312843323,0.7516691088676453,0.4511236250400543
1707164791520529700,3.09652978515625,0.9917389750480652,0.8765909671783447,0.41386088728904724
1707164791539489000,3.115489013671875,1.0919208526611328,0.9453132748603821,0.4312705397605896
1707164791558448600,3.13444873046875,1.1615593433380127,0.9382883310317993,0.467006117105484
1707164791577408000,3.153407958984375,1.2235621213912964,0.8203914165496826,0.47983428835868835
1707164791596367600,3.17236767578125,1.2730422019958496,0.5809323787689209,0.44929105043411255
1707164791615327200,3.1913271484375,1.3154972791671753,0.3430005609989166,0.406530499458313
1707164791634286600,3.21028662109375,1.3817760944366455,0.164322629570961,0.35582873225212097
1707164791653246200,3.22924609375,1.4804308414459229,0.03329212963581085,0.3197877109050751
1707164791672205800,3.248205810546875,1.546404242515564,-0.039706211537122726,0.28466299176216125
1707164791691165200,3.267165283203125,1.5289945602416992,-0.05711585655808449,0.2620609998703003
1707164791710124500,3.28612451171875,1.452636480331421,-0.024434590712189674,0.25992295145988464
1707164791729084200,3.305084228515625,1.422093152999878,0.06322450190782547,0.26389357447624207
1707164791748043800,3.324043701171875,1.4260637760162354,0.1798996776342392,0.2809978127479553
1707164791767003100,3.343003173828125,1.388495683670044,0.27030766010284424,0.30054548382759094
1707164791785962800,3.361962646484375,1.2620465755462646,0.3032943606376648,0.30482152104377747
1707164791804922400,3.38092236328125,1.0900882482528687,0.2721402645111084,0.25473061203956604
1707164791823881700,3.3998818359375,0.9630283117294312,0.1795942485332489,0.21135921776294708
1707164791842841300,3.41884130859375,0.8600975871086121,0.07849612087011337,0.17745621502399445
1707164791861800700,3.43780078125,0.7617483735084534,-0.04153880476951599,0.08979712426662445
1707164791880760300,3.45676025390625,0.5900954008102417,-0.17165300250053406,-0.059864748269319534
1707164791899720000,3.475719970703125,0.30604326725006104,-0.18753549456596375,-0.20280711352825165
1707164791918679300,3.49467919921875,0.053756099194288254,-0.08063415437936783,-0.36254823207855225
1707164791937639000,3.513638916015625,-0.13530655205249786,0.007941242307424545,-0.5259546041488647
1707164791956598500,3.5325986328125,-0.24984370172023773,-0.08155044913291931,-0.6349939107894897
1707164791975558000,3.551557861328125,-0.5433642268180847,-0.4214966893196106,-0.7953459620475769
1707164791994517500,3.570517578125,-0.8845322132110596,-0.7205150127410889,-0.8069523572921753
1707164792013476900,3.589476806640625,-0.9938769936561584,-0.805425226688385,-0.6957749724388123
1707164792032436500,3.6084365234375,-0.9737184643745422,-0.5708531141281128,-0.5781835317611694
1707164792051396000,3.62739599609375,-0.8930842876434326,-0.060781046748161316,-0.4520399272441864
1707164792070355700,3.646355712890625,-0.7620537877082825,0.3851502537727356,-0.37232208251953125
1707164792089315000,3.665315185546875,-0.7425061464309692,0.5873464941978455,-0.32162031531333923
1707164792108274400,3.6842744140625,-0.8524618148803711,0.5067123174667358,-0.33567020297050476
1707164792127234000,3.703234130859375,-0.9337068200111389,0.1340848207473755,-0.3656025826931
1707164792146193700,3.722193603515625,-0.934623122215271,-0.3790415823459625,-0.4010327160358429
1707164792165153300,3.7411533203125,-0.9324851036071777,-0.8826996088027954,-0.448069304227829
1707164792184112600,3.760112548828125,-0.9880737662315369,-1.2678498029708862,-0.47464191913604736
1707164792203072300,3.779072265625,-1.0952805280685425,-1.4456114768981934,-0.4822777509689331
1707164792222031600,3.798031494140625,-1.1872156858444214,-1.425147533416748,-0.4920515716075897
1707164792240991200,3.8169912109375,-1.1829396486282349,-1.275485634803772,-0.517707884311676
1707164792259950800,3.835950927734375,-1.0955859422683716,-1.063210129737854,-0.5561923980712891
1707164792278910200,3.85491015625,-0.9911280870437622,-0.8173370957374573,-0.564439058303833
1707164792297869800,3.873869873046875,-0.9037744402885437,-0.5778780579566956,-0.5247328281402588
1707164792316829400,3.892829345703125,-0.8631519079208374,-0.364991694688797,-0.44470956921577454
1707164792335789000,3.9117890625,-0.8289434909820557,-0.22204934060573578,-0.3295615613460541
1707164792354748400,3.93074853515625,-0.7522799968719482,-0.1130099818110466,-0.21899501979351044
1707164792373708000,3.9497080078125,-0.6743947267532349,-0.08949168771505356,-0.14141519367694855
1707164792392667400,3.96866748046875,-0.6337721943855286,-0.1441640853881836,-0.08765909820795059
1707164792411627000,3.987626953125,-0.5952877402305603,-0.25411975383758545,-0.08277218043804169
1707164792430586600,4.006586669921875,-0.49082985520362854,-0.3246746361255646,-0.10048725455999374
1707164792449546200,4.025546142578125,-0.4367683231830597,-0.3686569035053253,-0.09193515032529831
1707164792468505600,4.044505615234375,-0.5894845128059387,-0.47006043791770935,-0.04306596517562866
1707164792487465200,4.06346533203125,-0.7061597108840942,-0.48960810899734497,0.010079269297420979
1707164792506424600,4.082424560546875,-0.42363473773002625,-0.20280711352825165,0.06811141967773438
1707164792525384200,4.10138427734375,-0.1178968995809555,0.11972949653863907,0.18112140893936157
1707164792544343800,4.12034375,-0.10415244847536087,0.732121467590332,0.46059203147888184
1707164792563303400,4.139303466796875,-0.13988803327083588,1.2449424266815186,0.6487383842468262
1707164792582262800,4.1582626953125,0.11209368705749512,1.535408616065979,0.5720748901367188
1707164792601222400,4.177222412109375,0.4566214084625244,1.4468332529067993,0.4926624298095703
1707164792620181800,4.196181640625,0.6918043494224548,0.9367611408233643,0.4172206521034241
1707164792639141400,4.215141357421875,0.8454368710517883,0.5787943601608276,0.37751442193984985
1707164792658101000,4.23410107421875,1.0109812021255493,0.572685718536377,0.4731147587299347
1707164792677060600,4.253060546875,1.1004729270935059,0.7764091491699219,0.6102539300918579
1707164792696020000,4.27202001953125,1.0516036748886108,1.0091485977172852,0.6841685771942139
1707164792714979600,4.2909794921875,0.9798271059989929,1.0122029781341553,0.665842592716217
1707164792733939000,4.30993896484375,0.9874629378318787,0.7718276381492615,0.5806269645690918
1707164792752898600,4.328898681640625,1.0793980360031128,0.4560105502605438,0.4728093445301056
1707164792771858200,4.347858154296875,1.2363903522491455,0.2153298407793045,0.3707949221134186
1707164792790817800,4.36681787109375,1.4440842866897583,0.11453714966773987,0.2889390289783478
1707164792809777200,4.385777099609375,1.6187916994094849,0.11514800786972046,0.2364046722650528
1707164792828736800,4.40473681640625,1.7189735174179077,0.09834922850131989,0.21380266547203064
1707164792847696400,4.4236962890625,1.7748676538467407,0.0256563201546669,0.21685700118541718
1707164792866655700,4.44265576171875,1.7971642017364502,-0.0818558782339096,0.22907429933547974
1707164792885615400,4.461615478515625,1.7244713306427002,-0.1847866028547287,0.21685700118541718
1707164792904575000,4.480574951171875,1.581223487854004,-0.18142683804035187,0.18081597983837128
1707164792923534300,4.499534423828125,1.4453060626983643,-0.010079269297420979,0.19150610268115997
1707164792942494000,4.518493896484375,1.3481786251068115,0.35277441143989563,0.250149130821228
1707164792961453600,4.53745361328125,1.1743875741958618,0.7412844300270081,0.205861434340477
1707164792980413000,4.556412841796875,0.8857539296150208,0.9144645929336548,0.06505709886550903
1707164792999372500,4.57537255859375,0.5647444725036621,0.8909462690353394,-0.10567960888147354
1707164793018332200,4.594332275390625,0.33689191937446594,0.7831286191940308,-0.13469567894935608
1707164793037291500,4.61329150390625,0.29535311460494995,0.4816668927669525,0.000305432389723137
1707164793056251100,4.632251220703125,0.08460476994514465,-0.24953825771808624,-0.05192350596189499
1707164793075210800,4.651210693359375,-0.6493492722511292,-1.107803225517273,-0.21777328848838806
1707164793094170400,4.67017041015625,-1.1114684343338013,-1.4379756450653076,-0.13072505593299866
1707164793113129700,4.689129638671875,-0.9782999157905579,-1.0598503351211548,0.08796452730894089
1707164793132089300,4.70808935546875,-0.7162389755249023,-0.26878049969673157,0.15638138353824615
1707164793151049000,4.727049072265625,-0.6093376278877258,0.3689623177051544,-0.03634645417332649
1707164793170008300,4.74600830078125,-0.8219185471534729,0.5537489056587219,-0.16737695038318634
1707164793188968000,4.764968017578125,-1.0845904350280762,0.35735589265823364,-0.25381430983543396
1707164793207927600,4.783927490234375,-1.1227694749832153,-0.06841685622930527,-0.3652971386909485
1707164793226887200,4.80288720703125,-1.0836740732192993,-0.47555822134017944,-0.4862483739852905
1707164793245846500,4.821846435546875,-1.1157444715499878,-0.7483093738555908,-0.5784889459609985
1707164793264806100,4.84080615234375,-1.2229512929916382,-0.8051197528839111,-0.6264418363571167
1707164793283765800,4.859765869140625,-1.350927472114563,-0.7150171995162964,-0.6514872908592224
1707164793302725000,4.87872509765625,-1.4104868173599243,-0.6084213256835938,-0.6829468011856079
1707164793321684700,4.897684814453125,-1.3619229793548584,-0.48991355299949646,-0.7205150127410889
1707164793340644400,4.916644287109375,-1.2443315982818604,-0.39278605580329895,-0.7388409376144409
1707164793359603700,4.935603759765625,-1.135903000831604,-0.3341430425643921,-0.7095194458961487
1707164793378563300,4.954563232421875,-1.0467168092727661,-0.281914085149765,-0.6273581385612488
1707164793397523000,4.97352294921875,-0.9761618971824646,-0.2672533392906189,-0.5137372612953186
1707164793416482600,4.992482666015625,-0.897665798664093,-0.21716243028640747,-0.4105011224746704
1707164793435442000,5.01144189453125,-0.8549052476882935,-0.12614357471466064,-0.3381136655807495
1707164793454401500,5.030401611328125,-0.8344413042068481,-0.08277218043804169,-0.2828303873538971
1707164793473361200,5.049361083984375,-0.767551600933075,-0.04886918142437935,-0.28069236874580383
1707164793492320500,5.068320556640625,-0.6148353815078735,0.04550942778587341,-0.3338375985622406
1707164793511280000,5.087280029296875,-0.4196641147136688,0.07513637095689774,-0.3695732057094574
1707164793530239700,5.10623974609375,-0.33536475896835327,-0.09896009415388107,-0.32162031531333923
1707164793549199400,5.125199462890625,-0.19150610268115997,-0.10231985151767731,-0.16249002516269684
1707164793568158700,5.14415869140625,0.1130099818110466,0.09590577334165573,0.006719512399286032
1707164793587118300,5.163118408203125,0.09865466505289078,0.2632827162742615,0.25381430983543396
1707164793606078000,5.182077880859375,-0.07574722915887833,0.5897899270057678,0.508544921875
1707164793625037300,5.201037353515625,-0.017715077847242355,0.9477567076683044,0.5241219997406006
1707164793643997000,5.219996826171875,0.27458372712135315,1.1377356052398682,0.35643959045410156
1707164793662956500,5.23895654296875,0.6563742160797119,0.813671886920929,0.22357651591300964
1707164793681916000,5.257916015625,0.9419534802436829,0.4364628791809082,0.19242240488529205
1707164793700875500,5.27687548828125,1.1038326025009155,0.27977606654167175,0.23762640357017517
1707164793719835100,5.295835205078125,1.13712477684021,0.33597561717033386,0.34727662801742554
1707164793738794800,5.314794677734375,1.0204496383666992,0.5674933791160583,0.4370737373828888
1707164793757754400,5.33375439453125,0.8811724185943604,0.7703005075454712,0.4889972507953644
1707164793776713700,5.352713623046875,0.8274163603782654,0.8142827749252319,0.5061014890670776
1707164793795673300,5.37167333984375,0.9046907424926758,0.8127555847167969,0.4834994673728943
1707164793814633000,5.390633056640625,1.1053597927093506,0.8045089244842529,0.4312705397605896
1707164793833592300,5.40959228515625,1.3570361137390137,0.7614429593086243,0.35582873225212097
1707164793852552000,5.428552001953125,1.5735876560211182,0.6826413869857788,0.31031930446624756
1707164793871511600,5.447511474609375,1.701869249343872,0.5595521330833435,0.31581708788871765
1707164793890471000,5.466470947265625,1.7611231803894043,0.3597993552684784,0.35705047845840454
1707164793909430500,5.485430419921875,1.7959424257278442,0.08429934084415436,0.4004218578338623
1707164793928390100,5.50439013671875,1.8307617902755737,-0.18142683804035187,0.4199695289134979
1707164793947349800,5.523349853515625,1.7919718027114868,-0.22724169492721558,0.40866854786872864
1707164793966309000,5.54230908203125,1.5940515995025635,-0.017715077847242355,0.39309149980545044
1707164793985268700,5.561268798828125,1.3552035093307495,0.4007273018360138,0.44318240880966187
1707164794004228400,5.580228271484375,1.1884374618530273,0.8552106618881226,0.5473348498344421
1707164794023188000,5.59918798828125,1.0235038995742798,1.028390884399414,0.5134318470954895
1707164794042147300,5.618147216796875,0.7562506198883057,0.8142827749252319,0.30512696504592896
1707164794061107000,5.63710693359375,0.4321868419647217,0.3591884970664978,0.08124501258134842
1707164794080066600,5.656066650390625,0.258395791053772,-0.17898337543010712,-0.0204639695584774
1707164794099026000,5.67502587890625,-0.06750056147575378,-0.7812960743904114,-0.2101374864578247
1707164794117985500,5.693985595703125,-0.6982184648513794,-1.2217295169830322,-0.2968802750110626
1707164794136945700,5.712945556640625,-0.9453132748603821,-1.166446328163147,-0.18325942754745483
1707164794155905300,5.7319052734375,-0.7651081085205078,-0.637742817401886,-0.01649334840476513
1707164794174865000,5.750864990234375,-0.6108647584915161,-0.05558869615197182,0.000610864779446274
1707164794193824300,5.76982421875,-0.7400626540184021,0.04214967042207718,-0.13469567894935608
1707164794212783900,5.788783935546875,-1.0494656562805176,-0.14630211889743805,-0.3017672002315521
1707164794231743500,5.807743408203125,-1.2018764019012451,-0.5766563415527344,-0.42974337935447693
1707164794250702800,5.826702880859375,-1.1713331937789917,-1.0885610580444336,-0.5152644515037537
1707164794269662500,5.845662353515625,-1.1410953998565674,-1.360701322555542,-0.6120865345001221
1707164794288622000,5.8646220703125,-1.249218463897705,-1.349400281906128,-0.7009673118591309
1707164794307581700,5.883581787109375,-1.4327833652496338,-1.1233803033828735,-0.7391464114189148
1707164794326541300,5.902541259765625,-1.5693116188049316,-0.8381064534187317,-0.7357866168022156
1707164794345500700,5.921500732421875,-1.5836669206619263,-0.5983420610427856,-0.7412844300270081
1707164794364460300,5.940460205078125,-1.489593744277954,-0.4361574649810791,-0.7370083332061768
1707164794383420000,5.959419921875,-1.378721833229065,-0.36254823207855225,-0.7073814272880554
1707164794402379500,5.978379638671875,-1.273958444595337,-0.3249800503253937,-0.6557633280754089
1707164794421339100,5.997339111328125,-1.1881320476531982,-0.3121519088745117,-0.582459568977356
1707164794440298500,6.016298583984375,-1.1297943592071533,-0.2770271897315979,-0.48044514656066895
1707164794459258000,6.035258056640625,-1.071456789970398,-0.2525925934314728,-0.36254823207855225
1707164794478217700,6.0542177734375,-1.053741693496704,-0.2660316228866577,-0.2779434621334076
1707164794497177000,6.073177001953125,-1.0595449209213257,-0.3481929302215576,-0.27947062253952026
1707164794516136700,6.09213671875,-0.9398154616355896,-0.43310311436653137,-0.3585776388645172
1707164794535096300,6.111096435546875,-0.7736602425575256,-0.47097674012184143,-0.43860089778900146
1707164794554056000,6.130055908203125,-0.6261364221572876,-0.5174024701118469,-0.4841103255748749
1707164794573015300,6.149015380859375,-0.5433642268180847,-0.6640099883079529,-0.5079340934753418
1707164794591975000,6.167974853515625,-0.536339282989502,-0.8927788734436035,-0.5537489056587219
1707164794610934500,6.1869345703125,-0.46456265449523926,-0.7672461867332458,-0.5897899270057678
1707164794629894100,6.20589404296875,-0.37720900774002075,-0.44318240880966187,-0.46395179629325867
1707164794648853800,6.224853759765625,-0.3656025826931,-0.14721840620040894,-0.09987638890743256
1707164794667813000,6.243813232421875,-0.22663083672523499,0.6618719696998596,0.12736530601978302
1707164794686772700,6.262772705078125,0.010079269297420979,1.3533709049224854,0.2507599890232086
1707164794705732400,6.281732421875,0.26389357447624207,1.479209065437317,0.291687935590744
1707164794724692000,6.30069189453125,0.4783071279525757,1.109635829925537,0.27366742491722107
1707164794743651600,6.319651611328125,0.7174606919288635,0.6484329700469971,0.23304490745067596
1707164794762611200,6.338611083984375,0.9221003651618958,0.3903425931930542,0.23335035145282745
1707164794781570600,6.357570556640625,0.9837977290153503,0.39248061180114746,0.30482152104377747
1707164794800530200,6.3765302734375,0.9205732345581055,0.648127555847168,0.4303542375564575
1707164794819489800,6.39548974609375,0.831997811794281,0.9541707634925842,0.5320632457733154
1707164794838449400,6.414449462890625,0.7889318466186523,1.1270455121994019,0.5684096813201904
1707164794857409000,6.433408935546875,0.8429933786392212,1.1859939098358154,0.5482511520385742
1707164794876368400,6.452368408203125,1.000291109085083,1.1795798540115356,0.4978547990322113
1707164794895328000,6.471327880859375,1.2186752557754517,1.1142174005508423,0.44929105043411255
1707164794914287600,6.49028759765625,1.434615969657898,1.028085470199585,0.4172206521034241
1707164794933247200,6.509247314453125,1.5977168083190918,0.8668171167373657,0.39675667881965637
1707164794952206800,6.528206787109375,1.6914845705032349,0.6264418363571167,0.37843072414398193
1707164794971166500,6.54716650390625,1.76570463180542,0.35613417625427246,0.3759872615337372
1707164794990125800,6.566125732421875,1.8274019956588745,0.1542433500289917,0.4263836145401001
1707164795009085700,6.585085693359375,1.831372618675232,0.044898562133312225,0.46456265449523926
1707164795028045000,6.604045166015625,1.7434080839157104,-0.001832594396546483,0.4523453712463379
1707164795047004700,6.623004638671875,1.5625921487808228,0.05894844979047775,0.4667007029056549
1707164795065964300,6.64196435546875,1.334434151649475,0.26878049969673157,0.4783071279525757
1707164795084924000,6.660923828125,1.094058871269226,0.39828383922576904,0.3656025826931
1707164795103883500,6.679883544921875,0.7614429593086243,0.25473061203956604,0.05100720748305321
1707164795122843100,6.698843017578125,0.3448331654071808,-0.08063415437936783,-0.23915356397628784
1707164795141802800,6.717802734375,0.09285144507884979,-0.5308414697647095,-0.41233372688293457
1707164795160762400,6.736762451171875,-0.2516762912273407,-0.9257655739784241,-0.6276635527610779
1707164795179721700,6.7557216796875,-0.6963858604431152,-0.7968730926513672,-0.6374374032020569
1707164795198681300,6.774681396484375,-0.861319363117218,-0.24312418699264526,-0.4465421438217163
1707164795217641000,6.793640869140625,-0.6801979541778564,0.45448338985443115,-0.3185659945011139
1707164795236600600,6.8126005859375,-0.5525271892547607,0.7910698652267456,-0.2721402645111084
1707164795255560200,6.831560302734375,-0.711046576499939,0.6068941354751587,-0.3023780584335327
1707164795274519800,6.850519775390625,-0.9896009564399719,0.011300998739898205,-0.3552178740501404
1707164795293479400,6.8694794921875,-1.0848958492279053,-0.7018836140632629,-0.411722868680954
1707164795312439000,6.88843896484375,-1.0583232641220093,-1.2055416107177734,-0.4886918365955353
1707164795331398700,6.907398681640625,-1.0882556438446045,-1.3826924562454224,-0.5760455131530762
1707164795350358300,6.926358154296875,-1.1969895362854004,-1.240360975265503,-0.6264418363571167
1707164795369318000,6.94531787109375,-1.3390156030654907,-0.8979712128639221,-0.6414080262184143
1707164795388277200,6.96427734375,-1.4584397077560425,-0.5549706816673279,-0.6603448390960693
1707164795407237000,6.983237060546875,-1.4859285354614258,-0.29535311460494995,-0.703410804271698
1707164795426196700,7.00219677734375,-1.4227041006088257,-0.1649334877729416,-0.7412844300270081
1707164795445156000,7.021156005859375,-1.295338749885559,-0.12461641430854797,-0.7559451460838318
1707164795464115700,7.04011572265625,-1.1820234060287476,-0.08399390429258347,-0.722347617149353
1707164795483075600,7.05907568359375,-1.1035271883010864,-0.05742128938436508,-0.6215549111366272
1707164795502035000,7.078034912109375,-1.015562653541565,-0.08582650125026703,-0.45967575907707214
1707164795520994600,7.09699462890625,-0.8836159110069275,-0.17165300250053406,-0.3231474757194519
1707164795539954200,7.1159541015625,-0.7834340929985046,-0.2929096519947052,-0.2623664140701294
1707164795558913800,7.134913818359375,-0.6676751971244812,-0.406530499458313,-0.2657261788845062
1707164795577873400,7.153873291015625,-0.5409207344055176,-0.37232208251953125,-0.28435754776000977
1707164795596833000,7.1728330078125,-0.47952884435653687,-0.36163195967674255,-0.28466299176216125
1707164795615792600,7.191792724609375,-0.3836230933666229,-0.33322674036026,-0.2367101013660431
1707164795634752300,7.210752197265625,-0.3231474757194519,-0.38789913058280945,-0.1792888194322586
1707164795653712000,7.2297119140625,-0.23304490745067596,-0.4260781705379486,-0.08063415437936783
1707164795672671500,7.24867138671875,0.013439024798572063,-0.2611446976661682,0.05345066636800766
1707164795691631000,7.267631103515625,0.12553271651268005,-0.0461202897131443,0.29413139820098877
1707164795710590700,7.2865908203125,-0.018631376326084137,0.526565432548523,0.5794052481651306
1707164795729550600,7.305550537109375,-0.04428769648075104,0.9376774430274963,0.693026065826416
1707164795748510000,7.324510009765625,0.13652828335762024,1.1691951751708984,0.6667588949203491
1707164795767469600,7.343469482421875,0.40225446224212646,1.0323615074157715,0.6017017960548401
1707164795786429400,7.362429443359375,0.6603448390960693,0.9132428169250488,0.5342012643814087
1707164795805388800,7.381388916015625,0.8762855529785156,1.0509928464889526,0.5088503360748291
1707164795824348400,7.400348388671875,1.0244202613830566,1.3402373790740967,0.5488619804382324
1707164795843308300,7.419308349609375,1.0375537872314453,1.5690062046051025,0.5821541547775269
1707164795862267600,7.438267578125,0.9676098227500916,1.5683953762054443,0.5928442478179932
1707164795881227500,7.4572275390625,0.9416480660438538,1.3374884128570557,0.6032289862632751
1707164795900187100,7.476187255859375,0.9868520498275757,1.056185245513916,0.5879573225975037
1707164795919146500,7.495146484375,1.0876446962356567,0.8368847370147705,0.5161807537078857
1707164795938106400,7.5141064453125,1.2214241027832031,0.7266236543655396,0.4413498044013977
1707164795957066000,7.53306591796875,1.352454662322998,0.7296779751777649,0.3915643095970154
1707164795976025600,7.552025634765625,1.4566071033477783,0.7696896195411682,0.374765545129776
1707164795994985200,7.570985107421875,1.5473204851150513,0.7510582208633423,0.3906480371952057
1707164796013944800,7.58994482421875,1.617875337600708,0.68386310338974,0.3851502537727356
1707164796032904400,7.608904541015625,1.6377284526824951,0.5299251675605774,0.36285367608070374
1707164796051864000,7.627864013671875,1.592524528503418,0.3173442482948303,0.34788748621940613
1707164796070823700,7.64682373046875,1.479209065437317,0.10018182545900345,0.3582721948623657
1707164796089783300,7.665783203125,1.2892301082611084,-0.1288924664258957,0.3549124300479889
1707164796108743000,7.684742919921875,1.063210129737854,-0.3280344009399414,0.2715294063091278
1707164796127702800,7.703702880859375,0.8258891701698303,-0.4309650957584381,0.13683371245861053
1707164796146662100,7.722662109375,0.5723803043365479,-0.4269944727420807,-0.008857538923621178
1707164796165622000,7.7416220703125,0.33231043815612793,-0.2776380479335785,-0.16798780858516693
1707164796184581600,7.76058154296875,0.1695149689912796,-0.05406153202056885,-0.3032943606376648
1707164796203541200,7.779541259765625,0.06750056147575378,-0.10567960888147354,-0.31459537148475647
1707164796222500900,7.7985009765625,-0.2861901521682739,-0.4822777509689331,-0.48533207178115845
1707164796241460500,7.81746044921875,-0.8622356653213501,-0.7742711305618286,-0.5885682106018066
1707164796260420000,7.836420166015625,-1.064737319946289,-0.5009090900421143,-0.47036588191986084
1707164796279379700,7.855379638671875,-0.9309579133987427,0.16065743565559387,-0.33689191937446594
1707164796298339300,7.87433935546875,-0.7812960743904114,0.7220421433448792,-0.3271180987358093
1707164796317299000,7.893298828125,-0.7415898442268372,0.8109229803085327,-0.37659814953804016
1707164796336258600,7.912258544921875,-0.8579595685005188,0.3631591200828552,-0.4266890585422516
1707164796355218200,7.93121826171875,-0.9471458196640015,-0.32681265473365784,-0.5079340934753418
1707164796374177800,7.950177734375,-0.9721912741661072,-0.9040798544883728,-0.6185005903244019
1707164796393137700,7.9691376953125,-1.0048725605010986,-1.1523964405059814,-0.6832522749900818
1707164796412097000,7.988096923828125,-1.0775654315948486,-1.0665699243545532,-0.6750055551528931
1707164796431057000,8.007056884765625,-1.1994329690933228,-0.740368127822876,-0.6374374032020569
1707164796450016500,8.0260166015625,-1.3258819580078125,-0.3744601011276245,-0.6090322136878967
1707164796468976000,8.04497607421875,-1.3906337022781372,-0.13713914155960083,-0.593149721622467
1707164796487935700,8.063935791015625,-1.3674207925796509,-0.07299833744764328,-0.5751292109489441
1707164796506895400,8.082895263671874,-1.286786675453186,-0.11545344442129135,-0.555276095867157
1707164796525855000,8.10185498046875,-1.194240689277649,-0.17287473380565643,-0.5283980369567871
1707164796544814600,8.120814697265626,-1.1236857175827026,-0.15241076052188873,-0.4932733178138733
1707164796563774200,8.139774169921875,-1.0677915811538696,-0.09071341902017593,-0.43921178579330444
1707164796582733800,8.15873388671875,-0.9407317638397217,-0.05558869615197182,-0.3863719701766968
1707164796601693400,8.177693359375,-0.7409789562225342,0.017715077847242355,-0.34147340059280396
1707164796620653000,8.196653076171875,-0.5595521330833435,0.04245510324835777,-0.28069236874580383
1707164796639613000,8.215613037109375,-0.4462367296218872,-0.12125665694475174,-0.2528980076313019
1707164796658572500,8.234572509765625,-0.4364628791809082,-0.2877173125743866,-0.19914191961288452
1707164796677532200,8.2535322265625,-0.3790415823459625,-0.34238970279693604,-0.12614357471466064
1707164796696491800,8.27249169921875,-0.3017672002315521,-0.564439058303833,-0.0720820426940918
1707164796715451400,8.291451416015626,-0.2788597643375397,-0.7693842053413391,0.046425722539424896
1707164796734411000,8.310410888671875,-0.0873536616563797,-0.6524035930633545,0.13530655205249786
1707164796753370600,8.32937060546875,0.0717766135931015,-0.15302163362503052,0.235793799161911
1707164796772330200,8.348330322265625,0.05589412897825241,0.5149590373039246,0.4825831651687622
1707164796791289900,8.367289794921875,0.07941242307424545,0.934623122215271,0.600785493850708
1707164796810249500,8.38624951171875,0.3225366175174713,0.9822705388069153,0.5375609993934631
1707164796829209300,8.405209228515625,0.6023126840591431,0.6417134404182434,0.43860089778900146
1707164796848168700,8.424168701171874,0.7910698652267456,0.3231474757194519,0.42088583111763
1707164796867128600,8.443128662109375,0.9159917235374451,0.4465421438217163,0.500298261642456
1707164796886088200,8.462088134765626,0.9819651246070862,0.8460476994514465,0.6194168925285339
1707164796905047800,8.4810478515625,0.9492838382720947,1.3029745817184448,0.6728675365447998
1707164796924007400,8.50000732421875,0.896138608455658,1.6530001163482666,0.6679806113243103
1707164796942967000,8.518967041015625,0.887891948223114,1.7455461025238037,0.6420188546180725
1707164796961926700,8.5379267578125,0.9392045736312866,1.6035200357437134,0.5952877402305603
1707164796980886300,8.55688623046875,1.043662428855896,1.37078058719635,0.5112938284873962
1707164796999846000,8.575845947265625,1.2037090063095093,1.1502584218978882,0.40714138746261597
1707164797018805500,8.594805419921874,1.3695588111877441,0.9679152369499207,0.2889390289783478
1707164797037765400,8.613765380859375,1.5192207098007202,0.7816014885902405,0.18814635276794434
1707164797056724700,8.632724853515626,1.6233731508255005,0.5962040424346924,0.13958260416984558
1707164797075684600,8.6516845703125,1.6789618730545044,0.4114174246788025,0.13255766034126282
1707164797094644200,8.670644287109376,1.694538950920105,0.18203771114349365,0.13591741025447845
1707164797113603800,8.689603759765625,1.6560543775558472,-0.0870482325553894,0.1847866028547287
1707164797132563500,8.7085634765625,1.5485422611236572,-0.3039052188396454,0.2663370370864868
1707164797151523000,8.727523193359374,1.3487894535064697,-0.3707949221134186,0.3246746361255646
1707164797170482700,8.746482666015625,1.1169662475585938,-0.3530798554420471,0.26908594369888306
1707164797189442300,8.7654423828125,0.880256175994873,-0.35246896743774414,0.20402882993221283
1707164797208402000,8.78440185546875,0.6267472505569458,-0.32039856910705566,0.19120067358016968
1707164797227361500,8.803361572265626,0.20708316564559937,-0.37812530994415283,0.021685699000954628
1707164797246321400,8.8223212890625,-0.07513637095689774,-0.4627300798892975,-0.18264856934547424
1707164797265280800,8.84128076171875,-0.37110036611557007,-0.6493492722511292,-0.28985533118247986
1707164797284240600,8.86024072265625,-0.9703587293624878,-0.9217949509620667,-0.41386088728904724
1707164797303200300,8.8792001953125,-1.1682789325714111,-0.43340855836868286,-0.33078327775001526
1707164797322159900,8.898159912109374,-0.905912458896637,0.5082395076751709,-0.19120067358016968
1707164797341119500,8.917119384765625,-0.6053670048713684,1.2553271055221558,-0.15638138353824615
1707164797360079000,8.9360791015625,-0.62857985496521,1.4297289848327637,-0.24342961609363556
1707164797379038700,8.955038818359375,-0.9007201194763184,0.9367611408233643,-0.3029889166355133
1707164797397998300,8.973998291015626,-1.0604612827301025,0.007941242307424545,-0.33139413595199585
1707164797416958000,8.9929580078125,-1.0112866163253784,-0.8735366463661194,-0.40775224566459656
1707164797435917600,9.01191748046875,-0.9737184643745422,-1.3463460206985474,-0.49999281764030457
1707164797454877400,9.03087744140625,-1.046105980873108,-1.388495683670044,-0.5381718873977661
1707164797473837000,9.049837158203125,-1.2189806699752808,-1.091004490852356,-0.5314523577690125
1707164797492796700,9.068796630859374,-1.370475172996521,-0.740368127822876,-0.5170970559120178
1707164797511756300,9.08775634765625,-1.4211769104003906,-0.5076286196708679,-0.5219839811325073
1707164797530716000,9.1067158203125,-1.3848304748535156,-0.4929678738117218,-0.5522217750549316
1707164797549675500,9.125675537109375,-1.3170244693756104,-0.6191114783287048,-0.5787943601608276
1707164797568635100,9.14463525390625,-1.2263110876083374,-0.7171552777290344,-0.5717694163322449
1707164797587594800,9.1635947265625,-1.1533126831054688,-0.7510582208633423,-0.500298261642456
1707164797606554400,9.182554443359376,-1.08978271484375,-0.7342594861984253,-0.3848448097705841
1707164797625514000,9.201513916015625,-1.0015127658843994,-0.6511818766593933,-0.25992295145988464
1707164797644473600,9.2204736328125,-0.8744529485702515,-0.49082985520362854,-0.18234314024448395
1707164797663433200,9.23943310546875,-0.720820426940918,-0.3430005609989166,-0.1744018942117691
1707164797682393000,9.25839306640625,-0.5748237371444702,-0.3387245237827301,-0.20311254262924194
1707164797701352400,9.2773525390625,-0.5018253922462463,-0.2886336147785187,-0.24342961609363556
1707164797720312300,9.296312255859375,-0.39889469742774963,-0.2577849328517914,-0.2935205399990082
1707164797739272000,9.31527197265625,-0.4010327160358429,-0.4981602132320404,-0.30512696504592896
1707164797758231600,9.3342314453125,-0.3484983444213867,-0.5601630210876465,-0.20311254262924194
1707164797777191200,9.353191162109376,-0.07757982611656189,-0.1744018942117691,-0.09346231073141098
1707164797796150800,9.37215087890625,0.08949168771505356,0.29626941680908203,0.15577052533626556
1707164797815110400,9.3911103515625,0.018325943499803543,0.8179479241371155,0.4211912751197815
1707164797834070000,9.410070068359374,0.023212861269712448,0.8671225309371948,0.5583304166793823
1707164797853029600,9.429029541015625,0.30634868144989014,0.7113520503044128,0.516791582107544
1707164797871989200,9.4479892578125,0.7018836140632629,0.3426951467990875,0.42394015192985535
1707164797890948900,9.466948974609375,0.9013310074806213,0.15760311484336853,0.42913252115249634
1707164797909908500,9.485908447265626,0.9639446139335632,0.3094030022621155,0.48533207178115845
1707164797928868000,9.5048681640625,0.9361502528190613,0.6117810606956482,0.5879573225975037
1707164797947828000,9.523827880859375,0.8927788734436035,0.9572250843048096,0.6579013466835022
1707164797966787300,9.542787353515624,0.8759800791740417,1.1893537044525146,0.7018836140632629
1707164797985747200,9.561747314453125,0.896138608455658,1.2024873495101929,0.7287616729736328
1707164798004706800,9.580706787109374,0.9706641435623169,1.0491602420806885,0.6976075768470764
1707164798023666400,9.59966650390625,1.1053597927093506,0.8261946439743042,0.6157516837120056
1707164798042626000,9.6186259765625,1.2605195045471191,0.5977311730384827,0.5057960152626038
1707164798061585700,9.637585693359375,1.4104868173599243,0.3900371491909027,0.4101957082748413
1707164798080545300,9.656545166015626,1.5610649585723877,0.22663083672523499,0.36774060130119324
1707164798099505000,9.6755048828125,1.6670500040054321,0.12095122784376144,0.3692677617073059
1707164798118464500,9.694464599609375,1.7452406883239746,0.03817904740571976,0.3949240744113922
1707164798137424100,9.713424072265624,1.7623448371887207,-0.001832594396546483,0.41844236850738525
1707164798156383700,9.7323837890625,1.6533055305480957,-0.008857538923621178,0.43982264399528503
1707164798175343400,9.75134326171875,1.442862629890442,0.019242240116000175,0.4740310609340668
1707164798194303000,9.770302978515625,1.2085959911346436,0.05955931544303894,0.46975502371788025
1707164798213262600,9.7892626953125,0.9728021621704102,0.09376774728298187,0.40866854786872864
1707164798232222500,9.808222412109375,0.7159335017204285,0.09529490768909454,0.2770271897315979
1707164798251181800,9.827181884765626,0.40775224566459656,0.10415244847536087,0.05803215503692627
1707164798270141700,9.8461416015625,0.14599667489528656,0.1432477980852127,-0.10690133273601532
1707164798289101300,9.865101318359375,-0.019853105768561363,0.04367683082818985,-0.1594357043504715
1707164798308061000,9.88406103515625,-0.39675667881965637,-0.28588470816612244,-0.3698786199092865
1707164798327020500,9.9030205078125,-1.0519092082977295,-0.5082395076751709,-0.6362156867980957
1707164798345980200,9.921980224609374,-1.3038908243179321,-0.1905898153781891,-0.5400044918060303
1707164798364939800,9.940939697265625,-1.0589340925216675,0.6169734001159668,-0.31551164388656616
1707164798383899400,9.9598994140625,-0.6856957077980042,1.3139700889587402,-0.32162031531333923
1707164798402859000,9.97885888671875,-0.5595521330833435,1.3881902694702148,-0.4364628791809082
1707164798421818600,9.997818603515626,-0.7877101302146912,0.907439649105072,-0.49663305282592773
1707164798440778200,10.0167783203125,-1.0097594261169434,0.02107483521103859,-0.5338957905769348
1707164798459737900,10.03573779296875,-1.018311619758606,-0.777325451374054,-0.5858193039894104
1707164798478697500,10.054697509765624,-0.96180659532547,-1.2037090063095093,-0.6255255341529846
1707164798497657000,10.073656982421875,-1.0305289030075073,-1.2592977285385132,-0.6520981788635254
1707164798516616700,10.09261669921875,-1.2082905769348145,-1.0390809774398804,-0.6432406306266785
1707164798535576300,10.111576416015625,-1.3878847360610962,-0.7476984858512878,-0.6139190793037415
1707164798554536000,10.130535888671876,-1.4743221998214722,-0.5827649831771851,-0.6010909676551819
1707164798573495800,10.149495849609375,-1.4300343990325928,-0.5626064538955688,-0.6230821013450623
1707164798592455200,10.168455078125,-1.331685185432434,-0.6313287615776062,-0.6527090072631836
1707164798611415000,10.1874150390625,-1.2095122337341309,-0.6814196705818176,-0.6533198952674866
1707164798630374700,10.206374755859375,-1.1246020793914795,-0.6771436333656311,-0.6068941354751587
1707164798649334000,10.225333984375,-1.0784817934036255,-0.6319395899772644,-0.5146535634994507
1707164798668294000,10.2442939453125,-1.0225876569747925,-0.4838049113750458,-0.4266890585422516
1707164798687253500,10.26325341796875,-0.9563088417053223,-0.258395791053772,-0.36804601550102234
1707164798706213000,10.282213134765625,-0.8643736839294434,-0.022296564653515816,-0.3017672002315521
1707164798725172700,10.3011728515625,-0.7379246354103088,0.15210533142089844,-0.2306014597415924
1707164798744132400,10.32013232421875,-0.5907062292098999,0.164322629570961,-0.2461785078048706
1707164798763092000,10.339092041015626,-0.48502662777900696,0.010384701192378998,-0.28405213356018066
1707164798782051600,10.358051513671874,-0.33689191937446594,-0.27977606654167175,-0.2617555558681488
1707164798801011200,10.37701123046875,-0.15241076052188873,-0.5088503360748291,-0.12370011955499649
1707164798819970800,10.395970703125,0.056199558079242706,-0.4523453712463379,0.05925388261675835
1707164798838930400,10.414930419921875,0.11514800786972046,0.0824667438864708,0.27550002932548523
1707164798857890000,10.43389013671875,-0.013439024798572063,0.8359684348106384,0.5943714380264282
1707164798876849700,10.452849609375,0.007635809946805239,1.2910627126693726,0.8142827749252319
1707164798895809300,10.471809326171876,0.2864955961704254,1.313053846359253,0.777325451374054
1707164798914769000,10.490768798828125,0.6927206516265869,0.8619301915168762,0.5592467188835144
1707164798933728500,10.509728515625,1.0106757879257202,0.34697118401527405,0.35185810923576355
1707164798952688000,10.528688232421874,1.1731657981872559,0.1750127524137497,0.2889390289783478
1707164798971647700,10.547647705078125,1.2718204259872437,0.3995055556297302,0.3555232882499695
1707164798990607400,10.566607421875,1.2736530303955078,0.8188642263412476,0.45478883385658264
1707164799009567000,10.58556689453125,1.176525592803955,1.1698060035705566,0.5119046568870544
1707164799028526600,10.604526611328126,1.091309905052185,1.3188570737838745,0.5421425104141235
1707164799047486200,10.623486328125,1.074205756187439,1.2715150117874146,0.5503891706466675
1707164799066445800,10.64244580078125,1.110857605934143,1.1029163599014282,0.517707884311676
1707164799085405400,10.661405517578125,1.2162318229675293,0.9001092314720154,0.44409868121147156
1707164799104365000,10.680364990234375,1.3771946430206299,0.7302888631820679,0.36621344089508057
1707164799123324700,10.69932470703125,1.5332705974578857,0.600785493850708,0.3271180987358093
1707164799142284500,10.718284423828125,1.6187916994094849,0.4776962697505951,0.337808221578598
1707164799161244000,10.737243896484374,1.6475023031234741,0.31642794609069824,0.3799578845500946
1707164799180203500,10.75620361328125,1.6462805271148682,0.12736530601978302,0.4147771894931793
1707164799199163400,10.775163330078126,1.5726714134216309,-0.0412333719432354,0.43890634179115295
1707164799218122800,10.794122802734375,1.416595458984375,-0.15577052533626556,0.4315759539604187
1707164799237082600,10.81308251953125,1.20981764793396,-0.17867794632911682,0.3964512348175049
1707164799256042200,10.832042236328125,0.989295482635498,-0.1493564397096634,0.37110036611557007
1707164799275001600,10.851001708984375,0.7895427346229553,-0.15149445831775665,0.2987128794193268
1707164799293961500,10.86996142578125,0.5494728684425354,-0.19394956529140472,0.14538581669330597
1707164799312921000,10.888921142578125,0.23518294095993042,-0.2510654330253601,-0.10323614627122879
1707164799331880700,10.907880615234374,-0.09346231073141098,-0.21227550506591797,-0.33628106117248535
1707164799350840300,10.92684033203125,-0.22693626582622528,-0.17623448371887207,-0.38240134716033936
1707164799369800000,10.945800048828126,-0.41294458508491516,-0.29535311460494995,-0.42882707715034485
1707164799388759600,10.964759521484375,-0.8906408548355103,-0.5146535634994507,-0.619722306728363
1707164799407719200,10.98371923828125,-1.1966841220855713,-0.5656607747077942,-0.6502655744552612
1707164799426678800,11.0026787109375,-1.1902700662612915,-0.3335321843624115,-0.5097666382789612
1707164799445638400,11.021638427734375,-1.0158681869506836,0.1533270627260208,-0.3955349326133728
1707164799464598000,11.040597900390624,-0.7733548283576965,0.5986474752426147,-0.3442223072052002
1707164799483557600,11.0595576171875,-0.7104357481002808,0.6728675365447998,-0.3136790692806244
1707164799502517200,11.078517333984376,-0.8897245526313782,0.29016077518463135,-0.3194822669029236
1707164799521476900,11.097476806640625,-1.0708459615707397,-0.37629270553588867,-0.28985533118247986
1707164799540436500,11.1164365234375,-1.1038326025009155,-1.0571014881134033,-0.3087921440601349
1707164799559396000,11.13539599609375,-1.1050543785095215,-1.5583161115646362,-0.3634645342826843
1707164799578355700,11.154355712890625,-1.1533126831054688,-1.8044945001602173,-0.4416552484035492
1707164799597315300,11.1733154296875,-1.2400555610656738,-1.7372994422912598,-0.5054906010627747
1707164799616275000,11.19227490234375,-1.3066397905349731,-1.3979640007019043,-0.5815432667732239
1707164799635234600,11.211234619140624,-1.3066397905349731,-0.9245438575744629,-0.6713404059410095
1707164799654194400,11.2301943359375,-1.2333359718322754,-0.5018253922462463,-0.740368127822876
1707164799673153800,11.24915380859375,-1.1099413633346558,-0.21471896767616272,-0.7550288438796997
1707164799692113700,11.26811376953125,-0.9920443892478943,-0.035735588520765305,-0.7168498039245605
1707164799711073300,11.2870732421875,-0.9114102721214294,0.017104214057326317,-0.6499601006507874
1707164799730033000,11.306032958984375,-0.8604030609130859,-0.07330377399921417,-0.5564978122711182
1707164799748992500,11.324992431640625,-0.7657189965248108,-0.14569124579429626,-0.4581485986709595
1707164799767952100,11.3439521484375,-0.6698132157325745,-0.15760311484336853,-0.3851502537727356
1707164799786911700,11.362911865234375,-0.5781835317611694,-0.1331685185432434,-0.2877173125743866
1707164799805871400,11.381871337890624,-0.46425724029541016,-0.08949168771505356,-0.17623448371887207
1707164799824831000,11.4008310546875,-0.3335321843624115,-0.04306596517562866,-0.09193515032529831
1707164799843790600,11.41979052734375,-0.22266021370887756,-0.1905898153781891,-0.048563748598098755
1707164799862750500,11.43875048828125,-0.168904110789299,-0.6200277805328369,0.05192350596189499
1707164799881709800,11.457709716796876,-0.01740964688360691,-0.9120211005210876,0.16218459606170654
1707164799900669700,11.476669677734375,0.14569124579429626,-0.7764091491699219,0.17104214429855347
1707164799919629300,11.49562939453125,0.05406153202056885,-0.23365578055381775,0.35674503445625305
1707164799938589000,11.5145888671875,-0.07024945318698883,0.26419901847839355,0.593149721622467
1707164799957548500,11.533548583984375,0.010079269297420979,0.5387827157974243,0.565049946308136
1707164799976508200,11.552508056640624,0.2779434621334076,0.5338957905769348,0.35094180703163147
1707164799995467800,11.5714677734375,0.5375609993934631,0.41783151030540466,0.17806708812713623
1707164800014427400,11.590427490234376,0.66645348072052,0.4358520209789276,0.13255766034126282
1707164800033387300,11.60938720703125,0.7385355234146118,0.6908880472183228,0.17745621502399445
1707164800052346600,11.6283466796875,0.7809906005859375,1.1029163599014282,0.28069236874580383
1707164800071306500,11.647306396484375,0.7538071274757385,1.5137228965759277,0.39889469742774963
1707164800090266000,11.66626611328125,0.7095194458961487,1.7892229557037354,0.5009090900421143
1707164800109225700,11.685225830078124,0.695164144039154,1.8643592596054077,0.5503891706466675
1707164800128185300,11.704185302734375,0.7480039000511169,1.7635666131973267,0.5290089249610901
1707164800147145000,11.72314501953125,0.8894191384315491,1.5604541301727295,0.4462367296218872
1707164800166104800,11.742104736328125,1.099556565284729,1.324660301208496,0.34147340059280396
1707164800185064400,11.761064453125,1.3170244693756104,1.0662645101547241,0.25992295145988464
1707164800204024000,11.780024169921875,1.5106686353683472,0.794124186038971,0.22388194501399994
1707164800222983700,11.798983642578126,1.6609413623809814,0.5146535634994507,0.2208276242017746
1707164800241943300,11.817943359375,1.7544035911560059,0.24953825771808624,0.2513708472251892
1707164800260903000,11.83690283203125,1.8072434663772583,0.03481929376721382,0.32162031531333923
1707164800279862800,11.85586279296875,1.758985161781311,-0.0720820426940918,0.40317076444625854
1707164800298822400,11.874822509765625,1.5134174823760986,-0.13561198115348816,0.4312705397605896
1707164800317782000,11.893781982421874,1.1255183219909668,-0.16615521907806396,0.3656025826931
1707164800336741600,11.91274169921875,0.8402445316314697,-0.12095122784376144,0.3087921440601349
1707164800355701200,11.931701171875,0.7244856357574463,-0.020769402384757996,0.2559523284435272
1707164800374661000,11.9506611328125,0.5849030017852783,0.0665842592716217,0.056199558079242706
1707164800393620700,11.969620849609376,0.35613417625427246,0.16646064817905426,-0.1533270627260208
1707164800412580400,11.988580322265625,0.2834412455558777,0.25503605604171753,-0.14049890637397766
1707164800431540000,12.0075400390625,0.19242240488529205,0.11667517572641373,-0.09682206809520721
1707164800450499600,12.02649951171875,-0.3292561173439026,-0.323452889919281,-0.13775001466274261
1707164800469459200,12.045459228515625,-0.7779362797737122,-0.6957749724388123,-0.1441640853881836
1707164800488419000,12.064419189453124,-0.8069523572921753,-0.5583304166793823,-0.007024944759905338
1707164800507378700,12.083378662109375,-0.6343830823898315,-0.15118902921676636,0.09926552325487137
1707164800526338300,12.10233837890625,-0.42332929372787476,0.07849612087011337,-0.008552107028663158
1707164800545298000,12.1212978515625,-0.4874700903892517,0.043371398001909256,-0.12217295914888382
1707164800564257500,12.140257568359376,-0.7483093738555908,-0.22479823231697083,-0.20769402384757996
1707164800583217400,12.159217529296875,-0.9111047983169556,-0.6133082509040833,-0.3020726442337036
1707164800602177000,12.178177001953125,-0.9841031432151794,-0.907439649105072,-0.3848448097705841
1707164800621136600,12.19713671875,-1.0506874322891235,-1.0506874322891235,-0.4251618981361389
1707164800640096500,12.216096435546875,-1.1334595680236816,-1.0348049402236938,-0.46456265449523926
1707164800659055900,12.235055908203124,-1.2257001399993896,-0.9107993841171265,-0.509155809879303
1707164800678015700,12.254015625,-1.25715970993042,-0.7351757884025574,-0.5809323787689209
1707164800696975400,12.272975341796876,-1.186299443244934,-0.49632763862609863,-0.6585122346878052
1707164800715935000,12.29193505859375,-1.0983349084854126,-0.2528980076313019,-0.6985238790512085
1707164800734894800,12.310894775390626,-1.0528254508972168,-0.08124501258134842,-0.693026065826416
1707164800753854500,12.3298544921875,-1.0482439994812012,0.02871064469218254,-0.6536253094673157
1707164800772814000,12.34881396484375,-1.036942958831787,0.05742128938436508,-0.5870410799980164
1707164800791773700,12.367773681640625,-0.998153030872345,-0.029932374134659767,-0.49418962001800537
1707164800810733600,12.386733642578125,-0.9382883310317993,-0.1646280586719513,-0.4269944727420807
1707164800829693200,12.405693115234374,-0.8768963813781738,-0.3289506733417511,-0.3753764033317566
1707164800848652800,12.42465283203125,-0.8060360550880432,-0.37110036611557007,-0.3387245237827301
1707164800867612700,12.44361279296875,-0.7327322959899902,-0.34208428859710693,-0.30451610684394836
1707164800886572300,12.462572265625,-0.676227331161499,-0.318871408700943,-0.30054548382759094
1707164800905532000,12.481531982421876,-0.6389645338058472,-0.40805765986442566,-0.25350889563560486
1707164800924491500,12.500491455078125,-0.6322450637817383,-0.6563742160797119,-0.15271618962287903
1707164800943451400,12.519451416015626,-0.5079340934753418,-0.7626646757125854,-0.029626941308379173
1707164800962411000,12.538410888671875,-0.24006985127925873,-0.544891357421875,0.015271619893610477
1707164800981370600,12.55737060546875,-0.15760311484336853,-0.1288924664258957,0.23793183267116547
1707164801000330200,12.576330322265624,-0.2107483446598053,0.4969384968280792,0.5115992426872253
1707164801019289900,12.595289794921875,-0.12767073512077332,1.1615593433380127,0.5262600183486938
1707164801038249700,12.614249755859374,0.11117739230394363,1.5137228965759277,0.42088583111763
1707164801057209300,12.633209228515625,0.4050033390522003,1.4437788724899292,0.3500255048274994
1707164801076169000,12.6521689453125,0.6600393652915955,1.2825106382369995,0.30085089802742004
1707164801095128600,12.671128662109375,0.878728985786438,1.1392627954483032,0.2779434621334076
1707164801114088400,12.69008837890625,1.0109812021255493,1.0830632448196411,0.3634645342826843
1707164801133048000,12.709048095703125,1.0399973392486572,1.0705405473709106,0.4990765154361725
1707164801152007700,12.728007568359375,1.007315993309021,0.9938769936561584,0.6071996092796326
1707164801170967600,12.746967529296874,0.9841031432151794,0.8402445316314697,0.6569850444793701
1707164801189927200,12.76592724609375,1.0097594261169434,0.6899717450141907,0.6273581385612488
1707164801208887000,12.784886962890624,1.0989457368850708,0.5925388336181641,0.5491674542427063
1707164801227846700,12.8038466796875,1.2354739904403687,0.5647444725036621,0.4361574649810791
1707164801246806300,12.82280615234375,1.368031620979309,0.5687150955200195,0.32620179653167725
1707164801265766000,12.841765869140625,1.4825688600540161,0.5482511520385742,0.2721402645111084
1707164801284725800,12.860725830078126,1.5754202604293823,0.44837474822998047,0.25992295145988464
1707164801303685400,12.879685302734375,1.6111558675765991,0.26542073488235474,0.27947062253952026
1707164801322645000,12.89864501953125,1.564730167388916,0.04153880476951599,0.3020726442337036
1707164801341604900,12.91760498046875,1.436448574066162,-0.13011419773101807,0.3277289569377899
1707164801360564500,12.936564453125,1.258992314338684,-0.16859868168830872,0.3426951467990875
1707164801379524000,12.955524169921874,1.1151336431503296,-0.060781046748161316,0.3191768527030945
1707164801398483700,12.974483642578125,0.9963204264640808,0.15699224174022675,0.26480987668037415
1707164801417443600,12.993443603515624,0.8258891701698303,0.39370235800743103,0.18661919236183167
1707164801436403200,13.0124033203125,0.6499601006507874,0.5256491303443909,0.06017018109560013
1707164801455362800,13.03136279296875,0.40317076444625854,0.5219839811325073,-0.11881320178508759
1707164801474322400,13.050322509765625,0.09590577334165573,0.4153880476951599,-0.2715294063091278
1707164801493282300,13.0692822265625,-0.05955931544303894,0.2052505612373352,-0.3197877109050751
1707164801512242000,13.088241943359375,-0.23426663875579834,-0.2315177470445633,-0.4120282828807831
1707164801531201500,13.107201416015625,-0.7544180154800415,-0.822834849357605,-0.6233875155448914
1707164801550161400,13.126161376953124,-1.1624757051467896,-1.016784429550171,-0.5537489056587219
1707164801569121000,13.14512109375,-1.1142174005508423,-0.6322450637817383,-0.31154105067253113
1707164801588080600,13.16408056640625,-0.878728985786438,-0.043371398001909256,-0.21471896767616272
1707164801607040300,13.183040283203125,-0.7754928469657898,0.39736753702163696,-0.24984370172023773
1707164801626000100,13.202000244140624,-0.9046907424926758,0.37171122431755066,-0.2623664140701294
1707164801644959700,13.220959716796875,-1.0980294942855835,-0.17745621502399445,-0.27000224590301514
1707164801663919400,13.23991943359375,-1.1655299663543701,-0.8210022449493408,-0.2889390289783478
1707164801682879200,13.258879150390625,-1.1523964405059814,-1.2455532550811768,-0.34605491161346436
1707164801701838800,13.2778388671875,-1.146898627281189,-1.34237539768219,-0.44470956921577454
1707164801720798500,13.296798583984375,-1.2214241027832031,-1.1691951751708984,-0.5384773015975952
1707164801739758000,13.315758056640625,-1.3274091482162476,-0.8506292104721069,-0.6243038177490234
1707164801758718000,13.334718017578124,-1.3851358890533447,-0.535728394985199,-0.7082977294921875
1707164801777677600,13.353677490234375,-1.3142756223678589,-0.23426663875579834,-0.767857015132904
1707164801796637400,13.372637451171874,-1.1575887203216553,-0.0027488914784044027,-0.795040488243103
1707164801815597000,13.39159716796875,-1.0296125411987305,0.16035200655460358,-0.7910698652267456
1707164801834556700,13.410556640625,-0.9556979537010193,0.25931209325790405,-0.7183769941329956
1707164801853516300,13.429516357421875,-0.898276686668396,0.19792018830776215,-0.5925388336181641
1707164801872476200,13.44847607421875,-0.7974839806556702,0.04917461425065994,-0.4456258714199066
1707164801891435800,13.467435791015625,-0.6389645338058472,-0.18753549456596375,-0.3176496922969818
1707164801910395400,13.4863955078125,-0.4978547990322113,-0.4266890585422516,-0.2406807243824005
1707164801929355300,13.505355224609374,-0.37720900774002075,-0.5763509273529053,-0.1893680840730667
1707164801948315000,13.52431494140625,-0.29413139820098877,-0.5775726437568665,-0.13927717506885529
1707164801967274500,13.5432744140625,-0.25900667905807495,-0.47036588191986084,-0.11026109009981155
1707164801986234000,13.562234130859375,-0.2364046722650528,-0.3588830530643463,-0.04153880476951599
1707164802005194000,13.581194091796876,-0.1905898153781891,-0.3646862804889679,0.08429934084415436
1707164802024153600,13.600153564453125,0.018631376326084137,-0.4150826036930084,0.18570289015769958
1707164802043113200,13.61911328125,0.2663370370864868,-0.35613417625427246,0.18295399844646454
1707164802062073000,13.638072998046875,0.2776380479335785,0.10231985151767731,0.40255987644195557
1707164802081032700,13.65703271484375,0.18264856934547424,0.5464185476303101,0.6856957077980042
1707164802099992300,13.675992431640625,0.2678641974925995,0.8576541543006897,0.6801979541778564
1707164802118952000,13.694951904296875,0.49082985520362854,0.805425226688385,0.5140427350997925
1707164802137911800,13.713911865234374,0.729983389377594,0.4401280879974365,0.36774060130119324
1707164802156871400,13.732871337890625,0.9193515181541443,0.24037529528141022,0.2974911332130432
1707164802175831000,13.7518310546875,1.0396918058395386,0.3491092324256897,0.2822195291519165
1707164802194791000,13.770791015625,1.0757328271865845,0.6957749724388123,0.2977965772151947
1707164802213750500,13.78975048828125,1.0357211828231812,1.1252129077911377,0.31490078568458557
1707164802232710100,13.808710205078125,0.9572250843048096,1.4245367050170898,0.31031930446624756
1707164802251669800,13.827669677734375,0.8927788734436035,1.5094468593597412,0.2993237376213074
1707164802270629600,13.846629638671875,0.8854485154151917,1.4587451219558716,0.27855435013771057
1707164802289589200,13.86558935546875,0.9489784240722656,1.3616175651550293,0.24006985127925873
1707164802308548900,13.884548828125,1.072983980178833,1.250440239906311,0.18723005056381226
1707164802327508500,13.903508544921875,1.2327251434326172,1.1462877988815308,0.13683371245861053
1707164802346468400,13.92246826171875,1.378721833229065,1.0467168092727661,0.11362084746360779
1707164802365428000,13.941427978515625,1.4767656326293945,0.8967494964599609,0.1279761642217636
1707164802384387600,13.9603876953125,1.525329351425171,0.6918043494224548,0.18570289015769958
1707164802403347500,13.979347412109375,1.5360194444656372,0.4776962697505951,0.2626718580722809
1707164802422307000,13.99830712890625,1.5305217504501343,0.287106454372406,0.35216355323791504
1707164802441266700,14.0172666015625,1.48776113986969,0.1282816082239151,0.39186975359916687
1707164802460226300,14.036226318359375,1.3301581144332886,0.016187917441129684,0.37323838472366333
1707164802479186200,14.055186279296874,1.1026109457015991,-0.03634645417332649,0.3329212963581085
1707164802498145800,14.074145751953125,0.8549052476882935,0.017104214057326317,0.3197877109050751
1707164802517105400,14.09310546875,0.6175842881202698,0.1640172004699707,0.29016077518463135
1707164802536065300,14.112065185546875,0.41386088728904724,0.2813032269477844,0.13927717506885529
1707164802555025000,14.13102490234375,0.19639302790164948,0.29626941680908203,-0.0769689604640007
1707164802573984500,14.149984619140625,-0.02932151034474373,0.19853104650974274,-0.25411975383758545
1707164802592944000,14.168944091796876,-0.22510367631912231,-0.09926552325487137,-0.29474225640296936
1707164802611904000,14.187904052734375,-0.5525271892547607,-0.6004800796508789,-0.4172206521034241
1707164802630863600,14.206863525390625,-1.0757328271865845,-0.9022472500801086,-0.5057960152626038
1707164802649823200,14.2258232421875,-1.2611303329467773,-0.7293725609779358,-0.4269944727420807
1707164802668782800,14.244782958984375,-1.0809252262115479,-0.210442915558815,-0.22754712402820587
1707164802687742700,14.26374267578125,-0.8610138893127441,0.28496840596199036,-0.1432477980852127
1707164802706702300,14.282702392578125,-0.8249728679656982,0.4780016839504242,-0.20372340083122253
1707164802725662000,14.301661865234376,-0.9896009564399719,0.25534147024154663,-0.24465134739875793
1707164802744621800,14.320621826171875,-1.1398736238479614,-0.21441353857517242,-0.27580544352531433
1707164802763581400,14.33958154296875,-1.155450701713562,-0.6780598759651184,-0.36254823207855225
1707164802782541000,14.358541015625,-1.1429280042648315,-0.9483675956726074,-0.4682278633117676
1707164802801500700,14.377500732421876,-1.2092068195343018,-1.0045671463012695,-0.5296197533607483
1707164802820460500,14.39646044921875,-1.3503166437149048,-0.8808670043945312,-0.5342012643814087
1707164802839420200,14.415420166015625,-1.469740629196167,-0.6774490475654602,-0.526870846748352
1707164802858379800,14.4343798828125,-1.4999784231185913,-0.4990765154361725,-0.5503891706466675
1707164802877339400,14.45333935546875,-1.4159845113754272,-0.3946186602115631,-0.5852084755897522
1707164802896299000,14.472299072265624,-1.2718204259872437,-0.35063639283180237,-0.5958985686302185
1707164802915259000,14.4912587890625,-1.1578941345214844,-0.3237583339214325,-0.5589412450790405
1707164802934218500,14.510218505859376,-1.099556565284729,-0.3066541254520416,-0.4566214084625244
1707164802953178000,14.52917822265625,-1.0458004474639893,-0.3179551064968109,-0.3029889166355133
1707164802972138000,14.548137939453126,-0.953559935092926,-0.29626941680908203,-0.15027274191379547
1707164802991097600,14.56709765625,-0.8121446967124939,-0.15210533142089844,-0.06414080411195755
1707164803010057200,14.58605712890625,-0.6847794055938721,-0.035124726593494415,-0.029932374134659767
1707164803029016800,14.605016845703124,-0.5635227560997009,-0.016187917441129684,-0.014966187067329884
1707164803047976700,14.623976806640625,-0.43310311436653137,-0.0461202897131443,-0.04153880476951599
1707164803066936300,14.642936279296874,-0.25870123505592346,-0.21166464686393738,-0.07422006875276566
1707164803085896000,14.66189599609375,-0.18356487154960632,-0.5125155448913574,-0.05039634555578232
1707164803104855600,14.68085546875,-0.21410810947418213,-0.8744529485702515,0.04581485688686371
1707164803123815200,14.699815185546875,-0.0766635313630104,-0.8307760953903198,0.1230892539024353
1707164803142775000,14.718775146484376,0.14080433547496796,-0.43921178579330444,0.21410810947418213
1707164803161734700,14.737734619140625,0.14996729791164398,0.2922987937927246,0.49480047821998596
1707164803180694300,14.7566943359375,0.008552107028663158,0.9401208758354187,0.7257073521614075
1707164803199654000,14.77565380859375,0.08399390429258347,1.3310743570327759,0.6988292932510376
1707164803218613800,14.79461376953125,0.3915643095970154,1.3390156030654907,0.5345066785812378
1707164803237573400,14.813573486328124,0.7092140316963196,0.9798271059989929,0.3799578845500946
1707164803256533000,14.832532958984375,0.8915571570396423,0.7144063711166382,0.33017241954803467
1707164803275492900,14.851492919921874,1.0030399560928345,0.7666352987289429,0.3753764033317566
1707164803294452200,14.8704521484375,1.0836740732192993,0.9847140312194824,0.467006117105484
1707164803313412000,14.889412109375,1.0836740732192993,1.17499840259552,0.5259546041488647
1707164803332371700,14.908371826171875,1.0415244102478027,1.2156208753585815,0.528092622756958
1707164803351331300,14.927331298828125,1.0238093137741089,1.0528254508972168,0.5006036758422852
1707164803370291200,14.946291259765625,1.0476330518722534,0.7614429593086243,0.45875945687294006
1707164803389250800,14.965250732421875,1.1099413633346558,0.4633409380912781,0.39675667881965637
1707164803408210400,14.98421044921875,1.2177588939666748,0.2626718580722809,0.3130682110786438
1707164803427170000,15.003170166015625,1.359479546546936,0.1795942485332489,0.24312418699264526
1707164803446130000,15.0221298828125,1.4883720874786377,0.14569124579429626,0.21288637816905975
1707164803465089500,15.041089599609375,1.5488476753234863,0.11606431007385254,0.21991132199764252
1707164803484049200,15.060049072265626,1.5265511274337769,0.035124726593494415,0.24770566821098328
1707164803503008800,15.0790087890625,1.4181225299835205,-0.08063415437936783,0.2614501118659973
1707164803521968400,15.097968505859376,1.2605195045471191,-0.20891575515270233,0.2406807243824005
1707164803540928300,15.11692822265625,1.0522146224975586,-0.2614501118659973,0.2159406989812851
1707164803559888000,15.135887939453125,0.8848376274108887,-0.17318016290664673,0.22846342623233795
1707164803578847500,15.154847412109374,0.7984002828598022,-0.03695731982588768,0.15577052533626556
1707164803597807400,15.173807373046875,0.6520981788635254,0.04276053607463837,0.0015271619195118546
1707164803616766700,15.1927666015625,0.3805687427520752,0.054672397673130035,-0.16187916696071625
1707164803635726600,15.2117265625,0.08949168771505356,0.03695731982588768,-0.26939135789871216
1707164803654686200,15.230686279296876,-0.19425499439239502,-0.026878049597144127,-0.24709481000900269
1707164803673645800,15.249645751953125,-0.5839866995811462,-0.21655155718326569,-0.3741546869277954
1707164803692605700,15.268605712890626,-1.1209368705749512,-0.4098902642726898,-0.5513054728507996
1707164803711565300,15.2875654296875,-1.314581036567688,-0.2632827162742615,-0.43279770016670227
1707164803730525000,15.30652490234375,-1.0772600173950195,0.2364046722650528,-0.1951712965965271
1707164803749484500,15.325484619140624,-0.7275399565696716,0.7318159937858582,-0.15668681263923645
1707164803768444200,15.344444091796875,-0.5729911923408508,0.9141591191291809,-0.24953825771808624
1707164803787404000,15.363404052734374,-0.7385355234146118,0.6860011219978333,-0.34238970279693604
1707164803806363600,15.38236376953125,-0.9425643682479858,0.08979712426662445,-0.41905322670936584
1707164803825323300,15.4013232421875,-0.952643632888794,-0.535728394985199,-0.471587598323822
1707164803844283000,15.420282958984375,-0.8958331942558289,-0.9217949509620667,-0.5250383019447327
1707164803863242500,15.439242431640626,-0.9434806704521179,-1.0482439994812012,-0.565049946308136
1707164803882202400,15.458202392578125,-1.1068869829177856,-0.9062178730964661,-0.5690205693244934
1707164803901162000,15.477161865234375,-1.314886450767517,-0.6151408553123474,-0.5442805290222168
1707164803920121600,15.49612158203125,-1.433394193649292,-0.37354379892349243,-0.5335903763771057
1707164803939081200,15.515081298828125,-1.390328288078308,-0.23304490745067596,-0.5317577719688416
1707164803958040800,15.534040771484374,-1.2498292922973633,-0.18264856934547424,-0.537255585193634
1707164803977000400,15.55300048828125,-1.1001675128936768,-0.2006690800189972,-0.5186241865158081
1707164803995960300,15.571960205078126,-0.9782999157905579,-0.20769402384757996,-0.4584540128707886
1707164804014920000,15.590919921875,-0.887891948223114,-0.1740964651107788,-0.35277441143989563
1707164804033879600,15.609879638671876,-0.7693842053413391,-0.11178825795650482,-0.2528980076313019
1707164804052839200,15.628839111328125,-0.638353705406189,-0.029932374134659767,-0.18264856934547424
1707164804071798800,15.647798828125,-0.5204567909240723,0.05497783049941063,-0.16554436087608337
1707164804090758700,15.666758544921874,-0.4309650957584381,0.09071341902017593,-0.1646280586719513
1707164804109718300,15.68571826171875,-0.34238970279693604,0.0409279391169548,-0.17195843160152435
1707164804128678000,15.704677978515624,-0.21899501979351044,-0.06872228533029556,-0.20158538222312927
1707164804147637500,15.723637451171875,-0.16035200655460358,-0.3292561173439026,-0.19333870708942413
1707164804166597000,15.74259716796875,-0.16707152128219604,-0.6927206516265869,-0.07574722915887833
1707164804185557000,15.761556884765625,-0.024740023538470268,-0.6661480665206909,0.05955931544303894
1707164804204516600,15.7805166015625,0.1695149689912796,-0.3802633285522461,0.20372340083122253
1707164804223476200,15.799476318359375,0.08002328872680664,0.1444695144891739,0.4877755343914032
1707164804242435800,15.818435791015625,-0.08429934084415436,0.6783653497695923,0.6866120100021362
1707164804261395500,15.8373955078125,0.09285144507884979,1.1612539291381836,0.6502655744552612
1707164804280355300,15.856355224609375,0.47433650493621826,1.176220178604126,0.45417797565460205
1707164804299315000,15.87531494140625,0.768467903137207,0.8292489647865295,0.2660316228866577
1707164804318274600,15.894274658203125,0.9349285364151001,0.5561923980712891,0.18325942754745483
1707164804337234200,15.913234130859376,1.0473276376724243,0.5100721120834351,0.20158538222312927
1707164804356193800,15.93219384765625,1.089477300643921,0.6698132157325745,0.282524973154068
1707164804375153400,15.9511533203125,1.0344995260238647,0.9456186890602112,0.3695732057094574
1707164804394113300,15.97011328125,0.9425643682479858,1.1352921724319458,0.4416552484035492
1707164804413073000,15.989072998046876,0.8943060636520386,1.1560616493225098,0.4935787320137024
1707164804432032500,16.008032470703125,0.9224058389663696,1.0519092082977295,0.4981602132320404
1707164804450992000,16.0269921875,1.02655827999115,0.8833104968070984,0.4419606626033783
1707164804469951700,16.04595166015625,1.1939351558685303,0.6939423680305481,0.3451386094093323
1707164804488911600,16.06491162109375,1.3588687181472778,0.5503891706466675,0.26358816027641296
1707164804507871200,16.083871337890624,1.4691298007965088,0.40225446224212646,0.231212317943573
1707164804526830800,16.102830810546877,1.5106686353683472,0.20158538222312927,0.24831652641296387
1707164804545790500,16.12179052734375,1.5018110275268555,-0.021991131827235222,0.27947062253952026
1707164804564750300,16.140750244140627,1.4370594024658203,-0.2519817352294922,0.32100942730903625
1707164804583710000,16.1597099609375,1.2702933549880981,-0.4770853817462921,0.36712974309921265
1707164804602669600,16.178669677734376,1.0106757879257202,-0.5888736248016357,0.35705047845840454
1707164804621629200,16.197629150390625,0.7849612236022949,-0.5968148708343506,0.30085089802742004
1707164804640588800,16.2165888671875,0.6181951761245728,-0.5439751148223877,0.25473061203956604
1707164804659548700,16.235548583984375,0.4676169753074646,-0.44898560643196106,0.19364413619041443
1707164804678508300,16.25450830078125,0.2364046722650528,-0.27947062253952026,0.018631376326084137
1707164804697468000,16.273468017578125,-0.007635809946805239,-0.053145237267017365,-0.08643736690282822
1707164804716427500,16.292427490234374,-0.11484257876873016,0.07605266571044922,-0.06963858753442764
1707164804735387100,16.31138720703125,-0.32559093832969666,-0.05894844979047775,-0.21930044889450073
1707164804754347000,16.330346923828124,-0.7434224486351013,-0.281914085149765,-0.4062250852584839
1707164804773306600,16.349306640625,-0.8909462690353394,-0.3197877109050751,-0.32559093832969666
1707164804792266200,16.368266357421874,-0.7058542370796204,-0.0513126403093338,-0.17776164412498474
1707164804811226000,16.38722607421875,-0.5751292109489441,0.3539961278438568,-0.17226386070251465
1707164804830185700,16.406185791015623,-0.6078104376792908,0.5131264328956604,-0.24373504519462585
1707164804849145300,16.425145263671876,-0.7904590368270874,0.258395791053772,-0.29046618938446045
1707164804868105000,16.44410498046875,-0.9517273306846619,-0.33628106117248535,-0.3552178740501404
1707164804887064600,16.463064697265626,-0.989906370639801,-0.9196569323539734,-0.43493571877479553
1707164804906024400,16.4820244140625,-0.9688315391540527,-1.288313865661621,-0.5067123174667358
1707164804924984000,16.500984130859376,-1.0131192207336426,-1.3515383005142212,-0.5445859432220459
1707164804943943700,16.519943603515625,-1.125823736190796,-1.0916153192520142,-0.5729911923408508
1707164804962903300,16.5389033203125,-1.2418880462646484,-0.6609556674957275,-0.5989528894424438
1707164804981863200,16.55786328125,-1.2663227319717407,-0.2263254076242447,-0.630107045173645
1707164805000822800,16.57682275390625,-1.176525592803955,0.09346231073141098,-0.6539307236671448
1707164805019782400,16.595782470703124,-1.05496346950531,0.2712239623069763,-0.6551524996757507
1707164805038742000,16.614741943359373,-0.962722897529602,0.2968802750110626,-0.6154462695121765
1707164805057702000,16.633701904296874,-0.8680388331413269,0.2260199636220932,-0.5161807537078857
1707164805076661500,16.65266162109375,-0.7443387508392334,0.09712749719619751,-0.37323838472366333
1707164805095621000,16.67162109375,-0.6346884965896606,-0.032681263983249664,-0.2208276242017746
1707164805114581000,16.6905810546875,-0.5506945848464966,-0.12095122784376144,-0.09468404203653336
1707164805133540600,16.70954052734375,-0.5036579966545105,-0.09682206809520721,-0.040317077189683914
1707164805152500200,16.728500244140626,-0.41263917088508606,-0.0409279391169548,-0.013744457624852657
1707164805171459800,16.7474599609375,-0.2675587832927704,-0.014049889519810677,-0.009162971749901772
1707164805190419700,16.766419677734376,-0.18203771114349365,-0.11636973917484283,-0.053145237267017365
1707164805209379300,16.78537939453125,-0.17287473380565643,-0.3176496922969818,-0.07635809481143951
1707164805228339000,16.8043388671875,-0.1750127524137497,-0.5506945848464966,-0.022907428443431854
1707164805247298800,16.823298828125,-0.02626718580722809,-0.5222893953323364,0.0360410213470459
1707164805266258400,16.842258544921876,0.09162971377372742,-0.22296564280986786,0.13164135813713074
1707164805285218300,16.86121826171875,0.01649334840476513,0.20250166952610016,0.3863719701766968
1707164805304178000,16.880177978515626,0.007330377586185932,0.6032289862632751,0.5067123174667358
1707164805323137500,16.899137451171875,0.17287473380565643,0.8478803038597107,0.3992001414299011
1707164805342097200,16.91809716796875,0.4153880476951599,0.7470875978469849,0.24953825771808624
1707164805361057000,16.93705712890625,0.6905826330184937,0.4883863925933838,0.16554436087608337
1707164805380016600,16.9560166015625,0.9080504775047302,0.3338375985622406,0.1380554437637329
1707164805398976300,16.974976318359374,1.033583164215088,0.3992001414299011,0.19272783398628235
1707164805417936100,16.99393603515625,1.06443190574646,0.6145299673080444,0.3127627670764923
1707164805436895700,17.012895751953124,0.9676098227500916,0.8512400984764099,0.40255987644195557
1707164805455855400,17.03185546875,0.8112284541130066,0.9776890873908997,0.43829548358917236
1707164805474815200,17.050815185546874,0.7082977294921875,0.9871574640274048,0.44837474822998047
1707164805493774800,17.06977490234375,0.7095194458961487,0.9306524991989136,0.4251618981361389
1707164805512734500,17.088734375,0.813671886920929,0.8662062287330627,0.35766133666038513
1707164805531694300,17.1076943359375,0.9856303334236145,0.8139773011207581,0.2657261788845062
1707164805550654000,17.126654052734374,1.176525592803955,0.7608320713043213,0.1798996776342392
1707164805569613800,17.14561376953125,1.3264929056167603,0.6743947267532349,0.13072505593299866
1707164805588573400,17.164573486328123,1.4117084741592407,0.5329795479774475,0.13652828335762024
1707164805607533000,17.183532958984376,1.464242935180664,0.3481929302215576,0.17531819641590118
1707164805626493000,17.202492919921873,1.4676026105880737,0.1340848207473755,0.21716243028640747
1707164805645452500,17.22145263671875,1.3781108856201172,-0.09285144507884979,0.25381430983543396
1707164805664412200,17.240412109375,1.2177588939666748,-0.3090975880622864,0.27977606654167175
1707164805683372000,17.2593720703125,1.071456789970398,-0.4321868419647217,0.31031930446624756
1707164805702331600,17.27833154296875,0.9309579133987427,-0.47952884435653687,0.32650721073150635
1707164805721291500,17.29729150390625,0.6783653497695923,-0.5216785073280334,0.2409861534833908
1707164805740251100,17.316251220703126,0.3029889166355133,-0.5421425104141235,0.06047561392188072
1707164805759211000,17.3352109375,0.047952886670827866,-0.4667007029056549,-0.08857539296150208
1707164805778170600,17.354170654296876,-0.007024944759905338,-0.32039856910705566,-0.06841685622930527
1707164805797130200,17.373130126953125,-0.19761475920677185,-0.24404047429561615,-0.1386663019657135
1707164805816090000,17.392090087890626,-0.6982184648513794,-0.23518294095993042,-0.35643959045410156
1707164805835049700,17.4110498046875,-0.9392045736312866,-0.06261363625526428,-0.3903425931930542
1707164805854009600,17.430009521484376,-0.8274163603782654,0.35796675086021423,-0.2049451321363449
1707164805872969200,17.44896923828125,-0.5311469435691833,0.8173370957374573,-0.11392628401517868
1707164805891928800,17.4679287109375,-0.3530798554420471,1.025641918182373,-0.18081597983837128
1707164805910888700,17.486888671875,-0.4819723069667816,0.8347467184066772,-0.2822195291519165
1707164805929848300,17.505848388671875,-0.7455604672431946,0.3451386094093323,-0.3338375985622406
1707164805948808200,17.52480810546875,-0.8646790981292725,-0.18784092366695404,-0.337808221578598
1707164805967767800,17.543767822265625,-0.8646790981292725,-0.5436696410179138,-0.3601047992706299
1707164805986727700,17.562727783203126,-0.8866702318191528,-0.6753110289573669,-0.4068359434604645
1707164806005687300,17.581687255859375,-0.9856303334236145,-0.5894845128059387,-0.42913252115249634
1707164806024647000,17.60064697265625,-1.1398736238479614,-0.4046979248523712,-0.42913252115249634
1707164806043606800,17.619606689453125,-1.221118688583374,-0.24342961609363556,-0.42974337935447693
1707164806062566400,17.63856640625,-1.1866048574447632,-0.16249002516269684,-0.4303542375564575
1707164806081526300,17.6575263671875,-1.0885610580444336,-0.14019346237182617,-0.43371400237083435
1707164806100486000,17.67648583984375,-0.990517258644104,-0.14691297709941864,-0.41844236850738525
1707164806119445800,17.69544580078125,-0.9334014058113098,-0.1740964651107788,-0.3530798554420471
1707164806138405400,17.7144052734375,-0.8921679854393005,-0.22296564280986786,-0.23273947834968567
1707164806157365200,17.733365234375,-0.8558215498924255,-0.3124573230743408,-0.1328630894422531
1707164806176325000,17.7523251953125,-0.8051197528839111,-0.4266890585422516,-0.05833758786320686
1707164806195284700,17.77128466796875,-0.7046325206756592,-0.4159989058971405,-0.04367683082818985
1707164806214244600,17.79024462890625,-0.5216785073280334,-0.2306014597415924,-0.0766635313630104
1707164806233204200,17.809204345703126,-0.28069236874580383,-0.04306596517562866,-0.13958260416984558
1707164806252164000,17.8281640625,-0.17745621502399445,-0.003665188793092966,-0.19761475920677185
1707164806271123700,17.847123779296876,-0.29046618938446045,-0.16676609218120575,-0.20158538222312927
1707164806290083600,17.86608349609375,-0.4401280879974365,-0.42332929372787476,-0.13591741025447845
1707164806309043200,17.885043212890626,-0.27427828311920166,-0.383928507566452,-0.03909534588456154
1707164806328003000,17.904003173828126,0.03543015569448471,-0.13591741025447845,0.03756818547844887
1707164806346962700,17.922962646484375,0.08307760953903198,0.23548837006092072,0.30634868144989014
1707164806365922600,17.941922607421876,-0.050090912729501724,0.7541125416755676,0.5845975875854492
1707164806384882200,17.960882080078125,-0.040317077189683914,1.0299180746078491,0.5913171172142029
1707164806403842000,17.979842041015626,0.1597411334514618,1.0552688837051392,0.4321868419647217
1707164806422802000,17.998802001953123,0.4569268524646759,0.7672461867332458,0.28588470816612244
1707164806441761500,18.017761474609376,0.6863065958023071,0.5305360555648804,0.20219624042510986
1707164806460721400,18.036721435546873,0.8552106618881226,0.593149721622467,0.19853104650974274
1707164806479681000,18.055680908203126,0.9532544612884521,0.8112284541130066,0.272751122713089
1707164806498641000,18.074640869140627,0.9144645929336548,0.9984585046768188,0.33536475896835327
1707164806517600500,18.0936005859375,0.7919861674308777,1.0424407720565796,0.35766133666038513
1707164806536560400,18.112560302734376,0.7000510096549988,0.916297197341919,0.3704894781112671
1707164806555520300,18.131520263671874,0.6988292932510376,0.7229584455490112,0.37110036611557007
1707164806574480000,18.15047998046875,0.8032872080802917,0.5778780579566956,0.34177884459495544
1707164806593439700,18.169439697265624,0.9822705388069153,0.5201513767242432,0.291687935590744
1707164806612399600,18.188399658203124,1.17194402217865,0.5247328281402588,0.25045454502105713
1707164806631359200,18.207359130859373,1.3194679021835327,0.5207622051239014,0.2367101013660431
1707164806650319000,18.226319091796874,1.378721833229065,0.42424559593200684,0.23762640357017517
1707164806669278700,18.24527880859375,1.3808598518371582,0.23976442217826843,0.2926042377948761
1707164806688238600,18.264238525390624,1.3817760944366455,-0.007635809946805239,0.37140578031539917
1707164806707198500,18.283198486328125,1.3121376037597656,-0.27458372712135315,0.4218021333217621
1707164806726158000,18.302157958984374,1.1704169511795044,-0.4886918365955353,0.41355544328689575
1707164806745118000,18.321117919921875,0.9822705388069153,-0.5714640021324158,0.3909534513950348
1707164806764077800,18.340077880859376,0.8063415288925171,-0.5219839811325073,0.37781986594200134
1707164806783037400,18.359037353515625,0.6597339510917664,-0.4376846253871918,0.3298669755458832
1707164806801997300,18.377997314453125,0.48013970255851746,-0.3533852696418762,0.17043127119541168
1707164806820957200,18.396957275390626,0.185092031955719,-0.30512696504592896,-0.07330377399921417
1707164806839917000,18.4159169921875,-0.06322450190782547,-0.24281874299049377,-0.24801109731197357
1707164806858876700,18.434876708984376,-0.1130099818110466,-0.19242240488529205,-0.2761108875274658
1707164806877836500,18.45383642578125,-0.21502439677715302,-0.21777328848838806,-0.35674503445625305
1707164806896796400,18.47279638671875,-0.5476402640342712,-0.39797839522361755,-0.49968740344047546
1707164806915756000,18.491756103515623,-0.7528908252716064,-0.45387253165245056,-0.5073232054710388
1707164806934716000,18.5107158203125,-0.750141978263855,-0.21441353857517242,-0.40897396206855774
1707164806953675800,18.52967578125,-0.6716458201408386,0.2107483446598053,-0.32039856910705566
1707164806972635400,18.548635498046874,-0.5763509273529053,0.5904008150100708,-0.2883281707763672
1707164806991595300,18.56759521484375,-0.593149721622467,0.7690787315368652,-0.3084867000579834
1707164807010555100,18.58655517578125,-0.6814196705818176,0.7418952584266663,-0.36132651567459106
1707164807029514800,18.6055146484375,-0.7467821836471558,0.535728394985199,-0.39278605580329895
1707164807048474600,18.624474609375,-0.7907644510269165,0.17043127119541168,-0.4224129915237427
1707164807067434500,18.6434345703125,-0.8265000581741333,-0.281914085149765,-0.4474584460258484
1707164807086394000,18.66239404296875,-0.9046907424926758,-0.6389645338058472,-0.44409868121147156
1707164807105354200,18.681354248046876,-0.9871574640274048,-0.8155044913291931,-0.4202749729156494
1707164807124313900,18.70031396484375,-1.0882556438446045,-0.8304706811904907,-0.37781986594200134
1707164807143273700,18.719273681640626,-1.1395682096481323,-0.7617483735084534,-0.3384190797805786
1707164807162233600,18.738233642578123,-1.1239912509918213,-0.6551524996757507,-0.29443681240081787
1707164807181193200,18.757193115234376,-1.0751219987869263,-0.5216785073280334,-0.2562577724456787
1707164807200153000,18.776153076171877,-1.0314451456069946,-0.3860665261745453,-0.1902843713760376
1707164807219113000,18.795113037109374,-0.9902117848396301,-0.24709481000900269,-0.05711585655808449
1707164807238072800,18.81407275390625,-0.9453132748603821,-0.04428769648075104,0.08124501258134842
1707164807257032400,18.833032470703124,-0.8881973624229431,0.13713914155960083,0.1805105358362198
1707164807275992300,18.851992431640625,-0.794124186038971,0.19883649051189423,0.22296564280986786
1707164807294952200,18.8709521484375,-0.6178897023200989,0.1389717310667038,0.23518294095993042
1707164807313912000,18.889912109375,-0.3909534513950348,-0.01740964688360691,0.16523891687393188
1707164807332872000,18.908871826171875,-0.1744018942117691,-0.26908594369888306,0.007330377586185932
1707164807351831600,18.92783154296875,-0.12400554865598679,-0.5803215503692627,-0.06291907280683517
1707164807370791400,18.94679150390625,-0.21502439677715302,-0.8463531732559204,-0.0256563201546669
1707164807389751300,18.965751220703126,-0.09682206809520721,-0.8958331942558289,-0.030543239787220955
1707164807408711200,18.984711181640623,0.12705987691879272,-0.5458076596260071,-0.06872228533029556
1707164807427670800,19.0036708984375,0.013744457624852657,-0.0256563201546669,0.17256930470466614
1707164807446631000,19.022630859375,-0.20127993822097778,0.5885682106018066,0.30573782324790955
1707164807465590500,19.041590576171874,-0.13072505593299866,1.240666389465332,0.23762640357017517
1707164807484550400,19.06055029296875,0.12125665694475174,1.497534990310669,0.1337793916463852
1707164807503510300,19.07951025390625,0.4199695289134979,1.3466514348983765,0.023823726922273636
1707164807522470100,19.09847021484375,0.6441569328308105,1.0674861669540405,-0.043982263654470444
1707164807541430000,19.117429931640626,0.8249728679656982,0.8738420605659485,-0.03298669680953026
1707164807560389600,19.1363896484375,0.9694424271583557,0.7247910499572754,0.0720820426940918
1707164807579349500,19.155349609375,1.0201442241668701,0.5989528894424438,0.18234314024448395
1707164807598309400,19.174309326171876,0.9804379940032959,0.4776962697505951,0.23732095956802368
1707164807617269200,19.193269287109374,0.9107993841171265,0.3543015718460083,0.2528980076313019
1707164807636229000,19.21222900390625,0.8869756460189819,0.2889390289783478,0.24495677649974823
1707164807655189000,19.23118896484375,0.9385937452316284,0.2977965772151947,0.21380266547203064
1707164807674148600,19.250148681640624,1.054658055305481,0.37354379892349243,0.17837251722812653
1707164807693108500,19.2691083984375,1.204014539718628,0.4581485986709595,0.14294235408306122
1707164807712068400,19.288068359375,1.3203842639923096,0.4627300798892975,0.12614357471466064
1707164807731028200,19.3070283203125,1.3793326616287231,0.3591884970664978,0.15210533142089844
1707164807749988000,19.325988037109376,1.3976585865020752,0.16126830875873566,0.2098320573568344
1707164807768948000,19.344947998046877,1.3762784004211426,-0.07757982611656189,0.24892739951610565
1707164807787907800,19.363907958984374,1.2800670862197876,-0.29565855860710144,0.2672533392906189
1707164807806867500,19.382867431640626,1.1197150945663452,-0.47555822134017944,0.2614501118659973
1707164807825827300,19.401827392578124,0.96180659532547,-0.5714640021324158,0.24220788478851318
1707164807844787200,19.420787109375,0.8347467184066772,-0.5479456782341003,0.19669845700263977
1707164807863747000,19.4397470703125,0.684473991394043,-0.4517345130443573,0.09071341902017593
1707164807882707000,19.45870703125,0.45509424805641174,-0.3329212963581085,-0.09712749719619751
1707164807901666800,19.477666748046875,0.14813470840454102,-0.16249002516269684,-0.2608392536640167
1707164807920626700,19.496626708984376,-0.020769402384757996,0.024740023538470268,-0.18753549456596375
1707164807939586600,19.515586669921873,-0.17867794632911682,0.008857538923621178,-0.1695149689912796
1707164807958546400,19.53454638671875,-0.7186824083328247,-0.14172062277793884,-0.383928507566452
1707164807977506300,19.55350634765625,-1.0656535625457764,-0.12247838824987411,-0.3329212963581085
1707164807996466000,19.5724658203125,-0.8854485154151917,0.28588470816612244,-0.10109812021255493
1707164808015425800,19.59142578125,-0.5326740741729736,0.6612611413002014,-0.08429934084415436
1707164808034385700,19.6103857421875,-0.374765545129776,0.7092140316963196,-0.24312418699264526
1707164808053345500,19.629345458984375,-0.6175842881202698,0.3698786199092865,-0.3335321843624115
1707164808072305400,19.648305419921876,-0.9413426518440247,-0.314289927482605,-0.4013381600379944
1707164808091265300,19.667265380859376,-1.0326669216156006,-0.9361502528190613,-0.49480047821998596
1707164808110225200,19.68622509765625,-1.0231984853744507,-1.2257001399993896,-0.562911868095398
1707164808129185000,19.70518505859375,-1.0852012634277344,-1.2583814859390259,-0.6133082509040833
1707164808148144600,19.72414453125,-1.20981764793396,-1.0418298244476318,-0.6343830823898315
1707164808167104500,19.7431044921875,-1.3158026933670044,-0.6823359727859497,-0.6569850444793701
1707164808186064400,19.762064453125,-1.341459035873413,-0.3170388340950012,-0.6918043494224548
1707164808205024300,19.781024169921874,-1.2904518842697144,-0.000305432389723137,-0.7348703145980835
1707164808223984000,19.799984130859375,-1.2095122337341309,0.1737910360097885,-0.7296779751777649
1707164808242944000,19.818944091796876,-1.1029163599014282,0.21899501979351044,-0.6612611413002014
1707164808261904000,19.83790380859375,-0.998763918876648,0.16279546916484833,-0.5451968312263489
1707164808280863500,19.856863525390626,-0.8799507021903992,-0.028405211865901947,-0.41844236850738525
1707164808299823600,19.87582373046875,-0.7568614482879639,-0.24923282861709595,-0.2910770773887634
1707164808318783200,19.894783203125,-0.6545416116714478,-0.37751442193984985,-0.1899789422750473
1707164808337743000,19.9137431640625,-0.5797106623649597,-0.34147340059280396,-0.1432477980852127
1707164808356703000,19.932702880859374,-0.46486809849739075,-0.1692095398902893,-0.10720676928758621
1707164808375662800,19.951662841796875,-0.30085089802742004,0.04886918142437935,-0.09651663154363632
1707164808394622700,19.970622802734376,-0.20799945294857025,0.06505709886550903,-0.10170898586511612
1707164808413582600,19.98958251953125,-0.27366742491722107,-0.16310089826583862,-0.046425722539424896
1707164808432542500,20.00854248046875,-0.3029889166355133,-0.49571678042411804,0.02871064469218254
1707164808451502300,20.02750244140625,-0.0717766135931015,-0.5830704569816589,0.10140355676412582
1707164808470462000,20.0464619140625,0.17806708812713623,-0.38728827238082886,0.2107483446598053
1707164808489421800,20.065421875,0.1902843713760376,-0.022296564653515816,0.49021899700164795
1707164808508381700,20.084381591796873,0.015577051788568497,0.5198459029197693,0.7055488228797913
1707164808527341600,20.103341552734374,0.07360920310020447,0.9938769936561584,0.6426297426223755
1707164808546301400,20.122301513671875,0.4202749729156494,1.2171480655670166,0.527481734752655
1707164808565261300,20.14126123046875,0.7510582208633423,1.0735948085784912,0.4718930423259735
1707164808584221200,20.16022119140625,0.9456186890602112,0.9111047983169556,0.46944957971572876
1707164808603181000,20.17918115234375,1.0772600173950195,0.8866702318191528,0.5345066785812378
1707164808622140700,20.198140625,1.1059707403182983,0.8906408548355103,0.600785493850708
1707164808641100800,20.217100830078124,1.0128138065338135,0.8463531732559204,0.6038398146629333
1707164808660060400,20.236060302734376,0.9147700071334839,0.7153226733207703,0.5787943601608276
1707164808679020300,20.255020263671874,0.8927788734436035,0.528092622756958,0.5555815100669861
1707164808697980200,20.273980224609375,0.9544762372970581,0.3805687427520752,0.5213730931282043
1707164808716940000,20.29293994140625,1.0870338678359985,0.35674503445625305,0.4630354940891266
1707164808735900000,20.31189990234375,1.247385859489441,0.4376846253871918,0.383928507566452
1707164808754859500,20.330859619140625,1.3897173404693604,0.5601630210876465,0.3176496922969818
1707164808773819600,20.349819580078126,1.4657700061798096,0.6233875155448914,0.2831358313560486
1707164808792779300,20.368779296875,1.4999784231185913,0.5986474752426147,0.2919933497905731
1707164808811739100,20.3877392578125,1.564730167388916,0.518318772315979,0.3399462401866913
1707164808830699000,20.406698974609377,1.5931353569030762,0.430659681558609,0.3970620930194855
1707164808849659000,20.425658935546874,1.4856231212615967,0.3130682110786438,0.40775224566459656
1707164808868618800,20.44461865234375,1.2932007312774658,0.16065743565559387,0.3652971386909485
1707164808887578400,20.463578369140624,1.0906990766525269,0.022907428443431854,0.3017672002315521
1707164808906538500,20.48253857421875,0.8988875150680542,-0.10231985151767731,0.1902843713760376
1707164808925498000,20.501498046875,0.6230821013450623,-0.2461785078048706,0.022907428443431854
1707164808944458000,20.5204580078125,0.2519817352294922,-0.2984074354171753,-0.2254091054201126
1707164808963417900,20.53941796875,-0.03940077871084213,-0.1847866028547287,-0.3393353819847107
1707164808982377700,20.558377685546876,-0.15271618962287903,-0.14080433547496796,-0.2202167510986328
1707164809001337600,20.577337646484374,-0.4367683231830597,-0.28466299176216125,-0.3588830530643463
1707164809020297500,20.59629736328125,-0.9728021621704102,-0.5329795479774475,-0.5583304166793823
1707164809039257300,20.61525732421875,-1.12765634059906,-0.5442805290222168,-0.4773908257484436
1707164809058217000,20.634217041015624,-0.9416480660438538,-0.13652828335762024,-0.2364046722650528
1707164809077176800,20.6531767578125,-0.7168498039245605,0.3787361681461334,-0.1997527778148651
1707164809096136700,20.67213671875,-0.7666352987289429,0.6142245531082153,-0.31062474846839905
1707164809115096600,20.6910966796875,-1.0222822427749634,0.45417797565460205,-0.39370235800743103
1707164809134056400,20.710056396484376,-1.1621702909469604,0.09132428467273712,-0.49602219462394714
1707164809153016300,20.729016357421877,-1.1520910263061523,-0.29138249158859253,-0.6325504779815674
1707164809171976000,20.747975830078126,-1.120326042175293,-0.6218603253364563,-0.7614429593086243
1707164809190935800,20.766935791015626,-1.184772253036499,-0.7492256760597229,-0.8271108865737915
1707164809209895700,20.785895751953124,-1.3041963577270508,-0.6637045741081238,-0.8521563410758972
1707164809228855600,20.80485546875,-1.3716968297958374,-0.4682278633117676,-0.8530726432800293
1707164809247815400,20.8238154296875,-1.3854413032531738,-0.25534147024154663,-0.8426879644393921
1707164809266775000,20.842775146484374,-1.3533709049224854,-0.1279761642217636,-0.8213077187538147
1707164809285735000,20.86173486328125,-1.2980875968933105,-0.13011419773101807,-0.7715222239494324
1707164809304694800,20.88069482421875,-1.2266165018081665,-0.19333870708942413,-0.6765327453613281
1707164809323654700,20.899654541015625,-1.128572702407837,-0.24740023910999298,-0.5308414697647095
1707164809342614500,20.918614501953126,-0.9810488224029541,-0.2721402645111084,-0.36193737387657166
1707164809361574400,20.937574462890623,-0.8307760953903198,-0.2776380479335785,-0.25992295145988464
1707164809380534000,20.956533935546876,-0.7476984858512878,-0.3026835024356842,-0.20922118425369263
1707164809399494000,20.975493896484377,-0.7046325206756592,-0.3295615613460541,-0.1585194170475006
1707164809418453800,20.994453857421874,-0.6062833070755005,-0.29993459582328796,-0.17256930470466614
1707164809437413600,21.01341357421875,-0.38820457458496094,-0.19730933010578156,-0.23793183267116547
1707164809456373500,21.03237353515625,-0.19822561740875244,-0.22724169492721558,-0.2156352698802948
1707164809475333400,21.05133349609375,-0.1997527778148651,-0.5424479246139526,-0.08918625861406326
1707164809494293000,21.07029296875,-0.16798780858516693,-0.7067705392837524,0.0204639695584774
1707164809513252900,21.0892529296875,0.027488915249705315,-0.4783071279525757,0.06291907280683517
1707164809532212700,21.108212646484375,0.10903936624526978,-0.035735588520765305,0.3087921440601349
1707164809551172600,21.127172607421876,0.03176496922969818,0.5094612240791321,0.6359102129936218
1707164809570132200,21.14613232421875,0.07819069176912308,0.8222240209579468,0.7629700899124146
1707164809589092000,21.165092041015626,0.37201663851737976,0.8869756460189819,0.6524035930633545
1707164809608052000,21.184052001953123,0.7021890878677368,0.6310232877731323,0.5571087002754211
1707164809627011800,21.20301171875,0.9043853282928467,0.4013381600379944,0.5827649831771851
1707164809645971700,21.2219716796875,0.9731075763702393,0.48930269479751587,0.676227331161499
1707164809664931300,21.240931396484374,0.9447023868560791,0.7999274134635925,0.7800742983818054
1707164809683891200,21.25989111328125,0.8735366463661194,1.1166608333587646,0.8210022449493408
1707164809702851000,21.27885107421875,0.8246674537658691,1.2907572984695435,0.7837395071983337
1707164809721811000,21.29781103515625,0.8210022449493408,1.220813274383545,0.6991347670555115
1707164809740770600,21.3167705078125,0.8634573817253113,0.9789108037948608,0.5732966065406799
1707164809759730400,21.33573046875,0.9523382186889648,0.7324268817901611,0.4221075773239136
1707164809778690300,21.354690185546875,1.0806198120117188,0.5510000586509705,0.2770271897315979
1707164809797650200,21.373650146484376,1.2177588939666748,0.4059196412563324,0.1597411334514618
1707164809816610000,21.392610107421874,1.334128737449646,0.2932150959968567,0.08307760953903198
1707164809835569700,21.411569580078126,1.4046835899353027,0.2098320573568344,0.059864748269319534
1707164809854529500,21.430529541015623,1.442862629890442,0.16768237948417664,0.08124501258134842
1707164809873489400,21.449489501953124,1.4801253080368042,0.15088360011577606,0.16157373785972595
1707164809892449300,21.46844921875,1.4147628545761108,0.16859868168830872,0.22846342623233795
1707164809911409000,21.487408935546874,1.2681553363800049,0.13011419773101807,0.22937972843647003
1707164809930368800,21.50636865234375,1.0787872076034546,0.0021380267571657896,0.22296564280986786
1707164809949328600,21.52532861328125,0.8579595685005188,-0.15638138353824615,0.16737695038318634
1707164809968288500,21.54428857421875,0.5577195286750793,-0.34727662801742554,-0.005803215317428112
1707164809987248400,21.563248291015626,0.14538581669330597,-0.5442805290222168,-0.16829325258731842
1707164810006208000,21.5822080078125,-0.10109812021255493,-0.4318813979625702,-0.22968515753746033
1707164810025168000,21.60116796875,-0.16768237948417664,-0.24984370172023773,-0.2055560052394867
1707164810044127700,21.620127685546876,-0.45051276683807373,-0.3533852696418762,-0.2254091054201126
1707164810063087400,21.63908740234375,-0.9865466356277466,-0.5219839811325073,-0.3182605504989624
1707164810082047200,21.658047119140626,-1.2082905769348145,-0.32039856910705566,-0.19089524447917938
1707164810101007000,21.677007080078123,-0.9608902931213379,0.29626941680908203,0.06230820715427399
1707164810119967000,21.695967041015624,-0.6447677612304688,0.8466585874557495,0.11942406743764877
1707164810138926800,21.7149267578125,-0.5577195286750793,0.916602611541748,-0.0009162971982732415
1707164810157886500,21.733886474609374,-0.7816014885902405,0.5867356061935425,-0.10201441496610641
1707164810176846300,21.752846435546875,-1.0112866163253784,-0.16096286475658417,-0.19181154668331146
1707164810195806200,21.77180615234375,-1.0601558685302734,-0.9731075763702393,-0.2981020212173462
1707164810214765800,21.790765869140625,-0.9770781993865967,-1.443168044090271,-0.44409868121147156
1707164810233725700,21.8097255859375,-0.9773836731910706,-1.5833615064620972,-0.5589412450790405
1707164810252685600,21.828685546875,-1.1053597927093506,-1.3961313962936401,-0.6340776681900024
1707164810271645200,21.847645263671875,-1.2718204259872437,-0.9923498630523682,-0.7168498039245605
1707164810290605000,21.86660498046875,-1.321605920791626,-0.5323686599731445,-0.7925970554351807
1707164810309565000,21.88556494140625,-1.2107340097427368,-0.1893680840730667,-0.8283326625823975
1707164810328524800,21.90452490234375,-1.0293071269989014,-0.02779434807598591,-0.8304706811904907
1707164810347484400,21.923484375,-0.8967494964599609,0.0030543238390237093,-0.7898481488227844
1707164810366444300,21.9424443359375,-0.815199077129364,-0.0565049909055233,-0.6814196705818176
1707164810385404200,21.961404052734373,-0.7156280875205994,-0.1805105358362198,-0.5140427350997925
1707164810404364000,21.980364013671874,-0.5754346251487732,-0.24831652641296387,-0.3756818473339081
1707164810423323600,21.99932373046875,-0.49052441120147705,-0.30451610684394836,-0.2831358313560486
1707164810442283500,22.018283447265624,-0.43004879355430603,-0.3228420317173004,-0.17653992772102356
1707164810461243400,22.037243408203125,-0.3185659945011139,-0.287106454372406,-0.07422006875276566
1707164810480203000,22.056203125,-0.22479823231697083,-0.2528980076313019,-0.06780599057674408
1707164810499163000,22.075162841796875,-0.2660316228866577,-0.22174391150474548,-0.048563748598098755
1707164810518122800,22.094122802734375,-0.3814850449562073,-0.2306014597415924,0.08032871782779694
1707164810537082400,22.113082275390624,-0.3090975880622864,-0.3023780584335327,0.22235478460788727
1707164810556042200,22.132042236328125,-0.1026252806186676,0.027488915249705315,0.2721402645111084
1707164810575002000,22.151002197265626,-0.04764745384454727,0.7241802215576172,0.448069304227829
1707164810593961700,22.169961669921875,-0.12370011955499649,1.2400555610656738,0.6801979541778564
1707164810612921600,22.188921630859376,-0.005803215317428112,1.543655276298523,0.6774490475654602
1707164810631881500,22.207881591796873,0.3634645342826843,1.451414704322815,0.48960810899734497
1707164810650841000,22.226841064453126,0.7195987105369568,0.9908226728439331,0.2614501118659973
1707164810669801000,22.245801025390627,0.943175196647644,0.5320632457733154,0.1545487940311432
1707164810688760800,22.2647607421875,1.091309905052185,0.24526220560073853,0.2000582218170166
1707164810707720400,22.283720458984376,1.1331541538238525,0.1701258420944214,0.33231043815612793
1707164810726680300,22.302680419921874,1.0494656562805176,0.26511532068252563,0.4456258714199066
1707164810745640200,22.32164013671875,0.9532544612884521,0.40286532044410706,0.5152644515037537
1707164810764600000,22.34060009765625,0.9153808951377869,0.4984656572341919,0.5668824911117554
1707164810783559700,22.3595595703125,0.9453132748603821,0.5406153202056885,0.5760455131530762
1707164810802519600,22.37851953125,1.0662645101547241,0.5571087002754211,0.528092622756958
1707164810821479200,22.397479248046874,1.2592977285385132,0.5549706816673279,0.4462367296218872
1707164810840439000,22.41643896484375,1.4535527229309082,0.5210676789283752,0.3634645342826843
1707164810859399000,22.43539892578125,1.5943571329116821,0.40897396206855774,0.31062474846839905
1707164810878358500,22.454358642578125,1.6618576049804688,0.2110537886619568,0.2837466895580292
1707164810897318400,22.473318359375,1.6432262659072876,-0.010690134018659592,0.2706131041049957
1707164810916278300,22.4922783203125,1.5445716381072998,-0.2257145345211029,0.24006985127925873
1707164810935238000,22.51123779296875,1.379027247428894,-0.34086254239082336,0.2006690800189972
1707164810954197800,22.53019775390625,1.1884374618530273,-0.32528549432754517,0.15027274191379547
1707164810973157600,22.54915771484375,0.9853248596191406,-0.21991132199764252,0.08307760953903198
1707164810992117200,22.5681171875,0.7544180154800415,-0.01893680728971958,0.0009162971982732415
1707164811011077000,22.5870771484375,0.4874700903892517,0.17776164412498474,-0.11209368705749512
1707164811030036700,22.60603662109375,0.13713914155960083,0.2614501118659973,-0.24465134739875793
1707164811048996600,22.62499658203125,-0.08002328872680664,0.21288637816905975,-0.19394956529140472
1707164811067956500,22.64395654296875,-0.2049451321363449,-0.03451386094093323,-0.12095122784376144
1707164811086916000,22.662916015625,-0.6997455954551697,-0.5174024701118469,-0.2764163017272949
1707164811105876000,22.6818759765625,-1.2993093729019165,-0.815199077129364,-0.3845393657684326
1707164811124835600,22.700835693359377,-1.3353503942489624,-0.5732966065406799,-0.23823726177215576
1707164811143795500,22.71979541015625,-1.0259474515914917,-0.09865466505289078,-0.0824667438864708
1707164811162755300,22.73875537109375,-0.7046325206756592,0.32528549432754517,-0.14263692498207092
1707164811181715000,22.75771484375,-0.6554579138755798,0.5088503360748291,-0.2770271897315979
1707164811200674800,22.7766748046875,-0.9138537049293518,0.19211697578430176,-0.3536907136440277
1707164811219634700,22.795634765625,-1.1594213247299194,-0.40714138746261597,-0.40927940607070923
1707164811238594300,22.81459423828125,-1.2073742151260376,-0.8258891701698303,-0.48502662777900696
1707164811257554200,22.83355419921875,-1.148425817489624,-0.9850194454193115,-0.547029435634613
1707164811276513800,22.852513671875,-1.184772253036499,-0.8723149299621582,-0.5858193039894104
1707164811295473700,22.8714736328125,-1.3185516595840454,-0.48502662777900696,-0.6282744407653809
1707164811314433500,22.89043359375,-1.4648537635803223,-0.03298669680953026,-0.6896663308143616
1707164811333393200,22.90939306640625,-1.472795009613037,0.3390299379825592,-0.7730493545532227
1707164811352353000,22.92835302734375,-1.29503333568573,0.5308414697647095,-0.8316923975944519
1707164811371312600,22.947312744140625,-1.0876446962356567,0.581848680973053,-0.8179479241371155
1707164811390272500,22.9662724609375,-0.9395100474357605,0.5580250024795532,-0.7464767694473267
1707164811409232100,22.985232177734375,-0.8512400984764099,0.3704894781112671,-0.6068941354751587
1707164811428192000,23.00419189453125,-0.7409789562225342,0.06750056147575378,-0.4584540128707886
1707164811447151900,23.02315185546875,-0.6151408553123474,-0.2935205399990082,-0.36132651567459106
1707164811466111700,23.04211181640625,-0.5207622051239014,-0.5222893953323364,-0.287106454372406
1707164811485071400,23.0610712890625,-0.4105011224746704,-0.45478883385658264,-0.20311254262924194
1707164811504031000,23.080031005859375,-0.26022839546203613,-0.23243404924869537,-0.09865466505289078
1707164811522990800,23.098990966796876,-0.10873392969369888,-0.09590577334165573,-0.025045456364750862
1707164811541950700,23.11795068359375,-0.07849612087011337,-0.18906265497207642,0.05589412897825241
1707164811560910300,23.136910400390626,-0.11453714966773987,-0.5238165259361267,0.15027274191379547
1707164811579870200,23.1558701171875,0.08491020649671555,-0.5152644515037537,0.2360992431640625
1707164811598829800,23.174829833984376,0.3597993552684784,-0.043982263654470444,0.3640754222869873
1707164811617789700,23.193789794921877,0.37354379892349243,0.7791580557823181,0.7107411623001099
1707164811636749300,23.212749267578126,0.23518294095993042,1.1679733991622925,0.778241753578186
1707164811655709200,23.231709228515626,0.2971857190132141,1.4019346237182617,0.5907062292098999
1707164811674669000,23.2506689453125,0.5702422857284546,1.0506874322891235,0.448069304227829
1707164811693628700,23.269628662109376,0.8998038172721863,0.4156934916973114,0.33689191937446594
1707164811712588500,23.288588623046873,1.1887428760528564,-0.004276053514331579,0.2926042377948761
1707164811731548200,23.307548095703126,1.3658936023712158,-0.06902772188186646,0.36835145950317383
1707164811750508000,23.326508056640623,1.3533709049224854,0.17348559200763702,0.4740310609340668
1707164811769467600,23.345467529296876,1.1618647575378418,0.4969384968280792,0.5287034511566162
1707164811788427500,23.364427490234377,0.9615011811256409,0.6890554428100586,0.5458076596260071
1707164811807387100,23.38338720703125,0.850934624671936,0.721431314945221,0.5384773015975952
1707164811826347000,23.402346923828127,0.8634573817253113,0.6789761781692505,0.5033525824546814
1707164811845307000,23.421306884765624,1.0045671463012695,0.637742817401886,0.42088583111763
1707164811864266500,23.4402666015625,1.204319953918457,0.6053670048713684,0.3075704276561737
1707164811883226400,23.459226318359374,1.3900227546691895,0.5018253922462463,0.18417572975158691
1707164811902186000,23.47818603515625,1.5250239372253418,0.314289927482605,0.08399390429258347
