time,seconds_elapsed,z,y,x
1707164788487020800,0.063020751953125,-0.09537126123905182,-0.30627232789993286,0.06780599057674408
1707164788505980200,0.081980224609375,-0.0907897800207138,-0.37988153100013733,0.10109812021255493
1707164788524939500,0.100939453125,-0.09964732080698013,-0.46662431955337524,0.11636973917484283
1707164788543899000,0.11989892578125,-0.12255474925041199,-0.567111611366272,0.12950333952903748
1707164788562858200,0.138858154296875,-0.1323285847902298,-0.7329613566398621,0.13713914155960083
1707164788581817600,0.157817626953125,-0.08834631741046906,-1.1098649501800537,0.1701258420944214
1707164788600777000,0.17677685546875,-0.061162836849689484,-1.5136466026306152,0.20647229254245758
1707164788619736300,0.195736328125,-0.0651334598660469,-1.9494985342025757,0.22479823231697083
1707164788638695700,0.21469580078125,-0.0703258067369461,-2.17246413230896,0.1954767256975174
1707164788657655000,0.233655029296875,-0.10453423857688904,-2.3587779998779297,0.21288637816905975
1707164788676614400,0.252614501953125,-0.1268308013677597,-2.6678755283355713,0.2415970265865326
1707164788695574000,0.271573974609375,-0.15615230798721313,-2.9332962036132812,0.31001389026641846
1707164788714533400,0.290533447265625,-0.19677481055259705,-3.1706173419952393,0.36774060130119324
1707164788733492700,0.30949267578125,-0.2908479869365692,-3.4229044914245605,0.39248061180114746
1707164788752452000,0.3284521484375,-0.38033968210220337,-3.474828004837036,0.3952295184135437
1707164788771411500,0.347411376953125,-0.41760244965553284,-3.3722026348114014,0.3848448097705841
1707164788790370800,0.366370849609375,-0.4918225109577179,-3.091204881668091,0.379347026348114
1707164788809330200,0.385330078125,-0.606970489025116,-2.680703639984131,0.37232208251953125
1707164788828289500,0.40428955078125,-0.6882155537605286,-2.446437120437622,0.36193737387657166
1707164788847249000,0.423248779296875,-0.8754456043243408,-2.5227952003479004,0.32009315490722656
1707164788866208300,0.442208251953125,-0.8406262993812561,-2.4259731769561768,0.21166464686393738
1707164788885167600,0.461167724609375,-0.756632387638092,-2.1480295658111572,0.10354158282279968
1707164788904127000,0.480126953125,-0.8281035423278809,-1.8771110773086548,0.023212861269712448
1707164788923086300,0.49908642578125,-0.9466113448143005,-1.742415428161621,-0.09132428467273712
1707164788942045700,0.518045654296875,-0.9875392913818359,-1.5609885454177856,-0.23029601573944092
1707164788961005000,0.537005126953125,-1.0559561252593994,-1.4229331016540527,-0.3610210716724396
1707164788979964700,0.555964599609375,-1.0587049722671509,-1.4382047653198242,-0.4825831651687622
1707164788998924000,0.574924072265625,-0.9927316308021545,-1.5011237859725952,-0.5949822664260864
1707164789017883400,0.59388330078125,-0.9792925715446472,-1.6825506687164307,-0.713184654712677
1707164789036842800,0.6128427734375,-1.0495420694351196,-1.8926881551742554,-0.7703005075454712
1707164789055802000,0.631802001953125,-1.0678679943084717,-2.0878593921661377,-0.7843503952026367
1707164789074761500,0.650761474609375,-1.0721440315246582,-2.191706418991089,-0.8093958497047424
1707164789093720800,0.669720947265625,-1.09688401222229,-2.239048480987549,-0.833219587802887
1707164789112680200,0.68868017578125,-1.0770310163497925,-2.220111608505249,-0.8347467184066772
1707164789131639600,0.7076396484375,-1.0370193719863892,-2.1129050254821777,-0.7901535630226135
1707164789150599000,0.726598876953125,-1.008919596672058,-1.9879831075668335,-0.7596103549003601
1707164789169558300,0.745558349609375,-0.9634101390838623,-1.887190341949463,-0.7535017132759094
1707164789188517600,0.764517578125,-0.8809433579444885,-1.7582979202270508,-0.7480039000511169
1707164789207477000,0.78347705078125,-0.8155808448791504,-1.5771764516830444,-0.7244856357574463
1707164789226436400,0.802436279296875,-0.7624356150627136,-1.3930007219314575,-0.7015781998634338
1707164789245395700,0.821395751953125,-0.7099012136459351,-1.2650245428085327,-0.6994401812553406
1707164789264355000,0.84035498046875,-0.628045380115509,-1.1880556344985962,-0.695164144039154
1707164789283314400,0.859314453125,-0.5187005400657654,-1.121776819229126,-0.6976075768470764
1707164789302274000,0.878274169921875,-0.4053851366043091,-1.0609958171844482,-0.685084879398346
1707164789321233400,0.8972333984375,-0.3317759335041046,-0.9895246028900146,-0.6438514590263367
1707164789340192800,0.91619287109375,-0.3165042996406555,-0.9574542045593262,-0.6075050234794617
1707164789359152000,0.935152099609375,-0.3009272515773773,-1.0151809453964233,-0.5769617557525635
1707164789378111500,0.954111572265625,-0.2599993348121643,-1.0823760032653809,-0.5500837564468384
1707164789397070800,0.97307080078125,-0.1882227063179016,-1.064355492591858,-0.5345066785812378
1707164789416030200,0.9920302734375,-0.13904809951782227,-0.9733366966247559,-0.5308414697647095
1707164789434989600,1.010989501953125,-0.11003202199935913,-0.8581886291503906,-0.5311469435691833
1707164789453949000,1.029948974609375,-0.11064288020133972,-0.7399863004684448,-0.5225948095321655
1707164789472908300,1.048908203125,-0.1320231556892395,-0.6059014797210693,-0.5390881896018982
1707164789491868000,1.067867919921875,-0.14393500983715057,-0.5228238701820374,-0.5250383019447327
1707164789510827300,1.0868271484375,-0.1320231556892395,-0.427528977394104,-0.45906487107276917
1707164789529786600,1.10578662109375,-0.07185296714305878,-0.24121522903442383,-0.38667741417884827
1707164789548746000,1.12474609375,-0.031841326504945755,-0.15202897787094116,-0.32589635252952576
1707164789567705600,1.14370556640625,-0.08223766833543777,-0.18532110750675201,-0.25961753726005554
1707164789586665000,1.1626650390625,-0.13446660339832306,-0.3187950551509857,-0.1805105358362198
1707164789605624300,1.181624267578125,-0.11308634281158447,-0.40004006028175354,-0.12705987691879272
1707164789624583700,1.200583740234375,-0.06360629200935364,-0.41928231716156006,-0.09132428467273712
1707164789643543000,1.21954296875,-0.08651372790336609,-0.34292420744895935,-0.021991131827235222
1707164789662502400,1.23850244140625,-0.1222493126988411,-0.21983496844768524,0.053756099194288254
1707164789681461800,1.257461669921875,-0.09384410083293915,-0.11598794907331467,0.10415244847536087
1707164789700421000,1.276421142578125,-0.08559742569923401,-0.022525638341903687,0.13133592903614044
1707164789719380700,1.295380615234375,-0.09170607477426529,0.00038179047987796366,0.15607595443725586
1707164789738340000,1.314340087890625,-0.08559742569923401,0.003741546766832471,0.16676609218120575
1707164789757299500,1.333299560546875,-0.05780307948589325,0.002825249684974551,0.16676609218120575
1707164789776258800,1.3522587890625,-0.052916161715984344,0.0012980876490473747,0.1802051067352295
1707164789795218400,1.371218505859375,-0.06452259421348572,0.01779143698513508,0.19089524447917938
1707164789814177800,1.390177734375,-0.05688678100705147,0.03581194952130318,0.17837251722812653
1707164789833137200,1.40913720703125,-0.03550651669502258,0.02756527252495289,0.14752385020256042
1707164789852096500,1.428096435546875,-0.03520108386874199,-0.000839939049910754,0.11667517572641373
1707164789871056100,1.44705615234375,-0.03214675933122635,-0.012751801870763302,0.09621120244264603
1707164789890015500,1.466015380859375,-0.023594651371240616,-0.0017562361899763346,0.07788526266813278
1707164789908974800,1.484974853515625,-0.01259908638894558,0.0034361144062131643,0.0513126403093338
1707164789927934200,1.503934326171875,-0.0009926552884280682,-0.020998476073145866,0.028405211865901947
1707164789946893600,1.5228935546875,-0.0058795735239982605,-0.062537282705307,0.015271619893610477
1707164789965853200,1.541853271484375,-0.00007635809743078426,-0.10468695312738419,0.006719512399286032
1707164789984812500,1.5608125,0.0057268571108579636,-0.12698352336883545,0.0027488914784044027
1707164790003772000,1.57977197265625,0.006948587018996477,-0.13706278800964355,-0.000305432389723137
1707164790022731300,1.598731201171875,-0.0022143847309052944,-0.14592032134532928,-0.003359756199643016
1707164790041691000,1.61769091796875,-0.01626427471637726,-0.1346193253993988,-0.006719512399286032
1707164790060650200,1.636650146484375,-0.024816380813717842,-0.11079560220241547,-0.016798781231045723
1707164790079609600,1.655609619140625,-0.031230462715029716,-0.08391755074262619,-0.027488915249705315
1707164790098569000,1.67456884765625,-0.04344775900244713,-0.06589704006910324,-0.04581485688686371
1707164790117528600,1.693528564453125,-0.055970486253499985,-0.05978839099407196,-0.06352993845939636
1707164790136488000,1.712488037109375,-0.053832460194826126,-0.03657552972435951,-0.06994401663541794
1707164790155447300,1.731447265625,-0.044669486582279205,-0.004505127668380737,-0.0769689604640007
1707164790174407000,1.750406982421875,-0.033979352563619614,0.00954476185142994,-0.07819069176912308
1707164790193366300,1.7693662109375,-0.02542724646627903,0.0031306820455938578,-0.07605266571044922
1707164790212325600,1.78832568359375,-0.019929463043808937,-0.004505127668380737,-0.06230820715427399
1707164790231285200,1.80728515625,-0.01259908638894558,-0.018860450014472008,-0.041844237595796585
1707164790250244600,1.82624462890625,-0.006185005884617567,-0.057039499282836914,-0.017715077847242355
1707164790269204000,1.845203857421875,-0.021151192486286163,-0.08972076326608658,-0.001832594396546483
1707164790288163600,1.86416357421875,-0.03764454275369644,-0.09980003535747528,0.012522728182375431
1707164790307123000,1.883123046875,-0.04436405375599861,-0.08177952468395233,0.011606430634856224
1707164790326082300,1.902082275390625,-0.038560837507247925,-0.06039925664663315,0.013439024798572063
1707164790345042000,1.9210419921875,-0.018402300775051117,-0.045738499611616135,0.011606430634856224
1707164790364001300,1.940001220703125,-0.0025198173243552446,-0.04451677203178406,0.007330377586185932
1707164790382960600,1.958960693359375,-0.00038179047987796366,-0.0524580143392086,0.002443459117785096
1707164790401920300,1.977920166015625,-0.0058795735239982605,-0.05948295816779137,-0.004276053514331579
1707164790420879600,1.996879638671875,-0.004352411720901728,-0.05948295816779137,-0.003970621153712273
1707164790439839000,2.0158388671875,0.001450803829357028,-0.04848739132285118,-0.004886918235570192
1707164790458798600,2.034798583984375,0.0011453714687377214,-0.05520690605044365,0.000610864779446274
1707164790477758000,2.053758056640625,-0.003741546766832471,-0.06223184987902641,0.007635809946805239
1707164790496717600,2.072717529296875,0.000839939049910754,-0.06772962957620621,-0.001221729558892548
1707164790515677000,2.091677001953125,-0.008628465235233307,-0.09063705801963806,-0.014660755172371864
1707164790534636300,2.11063623046875,-0.026038112118840218,-0.10102175921201706,-0.015577051788568497
1707164790553596000,2.129595947265625,-0.025732679292559624,-0.0680350661277771,-0.010384701192378998
1707164790572555300,2.14855517578125,-0.019929463043808937,-0.04482220485806465,-0.010690134018659592
1707164790591515000,2.167514892578125,-0.024816380813717842,-0.06223184987902641,-0.006414080038666725
1707164790610474200,2.18647412109375,-0.038560837507247925,-0.10254892706871033,0.0054977829568088055
1707164790629433600,2.20543359375,-0.046196650713682175,-0.129426971077919,0.018325943499803543
1707164790648393200,2.224393310546875,-0.06177370250225067,-0.16821688413619995,0.014660755172371864
1707164790667352600,2.2433525390625,-0.08681915700435638,-0.22105668485164642,0.00946840364485979
1707164790686312000,2.26231201171875,-0.10270164161920547,-0.26534438133239746,0.006108647678047419
1707164790705271600,2.281271484375,-0.10056361556053162,-0.2586248815059662,-0.022296564653515816
1707164790724231000,2.30023095703125,-0.08987347781658173,-0.25495967268943787,-0.056199558079242706
1707164790743190500,2.3191904296875,-0.1170569658279419,-0.29374960064888,-0.09621120244264603
1707164790762150000,2.33814990234375,-0.13996438682079315,-0.34750568866729736,-0.11362084746360779
1707164790781109500,2.357109619140625,-0.13813179731369019,-0.3646099269390106,-0.12767073512077332
1707164790800068900,2.37606884765625,-0.13385574519634247,-0.34231334924697876,-0.13622283935546875
1707164790819028500,2.395028564453125,-0.15034909546375275,-0.3655261993408203,-0.13744457066059113
1707164790837987800,2.41398779296875,-0.16134466230869293,-0.37377288937568665,-0.1230892539024353
1707164790856947500,2.432947509765625,-0.1427132785320282,-0.31146466732025146,-0.12614357471466064
1707164790875906800,2.45190673828125,-0.15157082676887512,-0.2577085793018341,-0.12767073512077332
1707164790894866400,2.470866455078125,-0.21846051514148712,-0.24976733326911926,-0.13225223124027252
1707164790913825800,2.48982568359375,-0.266107976436615,-0.2723693251609802,-0.12278381735086441
1707164790932785400,2.508785400390625,-0.28504478931427,-0.25618141889572144,-0.14263692498207092
1707164790951744800,2.527744873046875,-0.30978479981422424,-0.2680932879447937,-0.1585194170475006
1707164790970704100,2.5467041015625,-0.36690065264701843,-0.30138540267944336,-0.1692095398902893
1707164790989663700,2.565663818359375,-0.40569058060646057,-0.3264308571815491,-0.16676609218120575
1707164791008623000,2.584623046875,-0.42279478907585144,-0.35941755771636963,-0.16829325258731842
1707164791027582700,2.603582763671875,-0.43287405371665955,-0.3646099269390106,-0.1805105358362198
1707164791046542000,2.6225419921875,-0.44295331835746765,-0.35269805788993835,-0.185092031955719
1707164791065501700,2.641501708984375,-0.45944666862487793,-0.2537379562854767,-0.1893680840730667
1707164791084461000,2.6604609375,-0.492127925157547,-0.13217586278915405,-0.18295399844646454
1707164791103420700,2.679420654296875,-0.5504655241966248,-0.05459604039788246,-0.16615521907806396
1707164791122380300,2.69838037109375,-0.6136900186538696,-0.062537282705307,-0.14813470840454102
1707164791141339600,2.717339599609375,-0.6524799466133118,-0.11232276260852814,-0.13744457066059113
1707164791160299300,2.73629931640625,-0.6622537970542908,-0.1407279670238495,-0.14110976457595825
1707164791179258600,2.755258544921875,-0.6411789655685425,-0.11720968037843704,-0.1646280586719513
1707164791198218000,2.774218017578125,-0.6139954328536987,0.003741546766832471,-0.17318016290664673
1707164791217177600,2.793177490234375,-0.572151243686676,0.147905632853508,-0.18173226714134216
1707164791236137000,2.812136962890625,-0.49396052956581116,0.20685409009456635,-0.18906265497207642
1707164791255096600,2.8310966796875,-0.4551706314086914,0.24869832396507263,-0.18112140893936157
1707164791274056200,2.85005615234375,-0.33941173553466797,0.2813795804977417,-0.20219624042510986
1707164791293015600,2.869015625,-0.27252206206321716,0.14454588294029236,-0.15699224174022675
1707164791311975200,2.88797509765625,-0.3326922357082367,0.11217004805803299,-0.014660755172371864
1707164791330934500,2.9069345703125,-0.3183369040489197,0.21204642951488495,0.09285144507884979
1707164791349894100,2.92589404296875,-0.12835796177387238,0.3006218373775482,0.1386663019657135
1707164791368853500,2.944853515625,0.11110103130340576,0.2969566285610199,0.20952661335468292
1707164791387813000,2.963813232421875,0.30169084668159485,0.12011128664016724,0.3032943606376648
1707164791406772500,2.9827724609375,0.36247187852859497,0.04864010959863663,0.406530499458313
1707164791425732000,3.001732177734375,0.354225218296051,0.10361793637275696,0.5064069032669067
1707164791444691500,3.02069140625,0.4171442985534668,0.25816673040390015,0.5803215503692627
1707164791463651000,3.039651123046875,0.5359575152397156,0.4811323583126068,0.592233419418335
1707164791482610700,3.058610595703125,0.6935606002807617,0.6375137567520142,0.5436696410179138
1707164791501570000,3.077570068359375,0.8511636853218079,0.7547997832298279,0.4667007029056549
1707164791520529700,3.09652978515625,0.9892191290855408,0.8797216415405273,0.42943793535232544
1707164791539489000,3.115489013671875,1.0894010066986084,0.9484439492225647,0.4468475878238678
1707164791558448600,3.13444873046875,1.1590396165847778,0.9414190053939819,0.4825831651687622
1707164791577408000,3.153407958984375,1.2210423946380615,0.8235220909118652,0.49541133642196655
1707164791596367600,3.17236767578125,1.2705223560333252,0.5840631127357483,0.46486809849739075
1707164791615327200,3.1913271484375,1.3129774332046509,0.34613126516342163,0.4221075773239136
1707164791634286600,3.21028662109375,1.3792563676834106,0.16745330393314362,0.37140578031539917
1707164791653246200,3.22924609375,1.4779109954833984,0.036422811448574066,0.33536475896835327
1707164791672205800,3.248205810546875,1.5438843965530396,-0.03657552972435951,0.30024003982543945
1707164791691165200,3.267165283203125,1.5264747142791748,-0.053985174745321274,0.2776380479335785
1707164791710124500,3.28612451171875,1.4501166343688965,-0.02130390889942646,0.27550002932548523
1707164791729084200,3.305084228515625,1.419573426246643,0.06635518372058868,0.27947062253952026
1707164791748043800,3.324043701171875,1.4235440492630005,0.183030366897583,0.2965748608112335
1707164791767003100,3.343003173828125,1.3859758377075195,0.27343833446502686,0.31612253189086914
1707164791785962800,3.361962646484375,1.2595268487930298,0.3064250349998474,0.32039856910705566
1707164791804922400,3.38092236328125,1.0875684022903442,0.275270938873291,0.27030766010284424
1707164791823881700,3.3998818359375,0.9605085253715515,0.18272492289543152,0.22693626582622528
1707164791842841300,3.41884130859375,0.8575778007507324,0.08162680268287659,0.19303326308727264
1707164791861800700,3.43780078125,0.7592285871505737,-0.03840812295675278,0.10537417232990265
1707164791880760300,3.45676025390625,0.5875755548477173,-0.16852232813835144,-0.04428769648075104
1707164791899720000,3.475719970703125,0.303523451089859,-0.18440480530261993,-0.18723005056381226
1707164791918679300,3.49467919921875,0.05123628303408623,-0.07750347256660461,-0.34697118401527405
1707164791937639000,3.513638916015625,-0.1378263682126999,0.01107192412018776,-0.5103775262832642
1707164791956598500,3.5325986328125,-0.25236350297927856,-0.0784197673201561,-0.6194168925285339
1707164791975558000,3.551557861328125,-0.5458840131759644,-0.418366014957428,-0.7797688841819763
1707164791994517500,3.570517578125,-0.8870519995689392,-0.7173843383789062,-0.7913753390312195
1707164792013476900,3.589476806640625,-0.9963968396186829,-0.8022945523262024,-0.6801979541778564
1707164792032436500,3.6084365234375,-0.9762382507324219,-0.5677224397659302,-0.5626064538955688
1707164792051396000,3.62739599609375,-0.895604133605957,-0.0576503649353981,-0.4364628791809082
1707164792070355700,3.646355712890625,-0.7645736336708069,0.3882809281349182,-0.35674503445625305
1707164792089315000,3.665315185546875,-0.7450259327888489,0.5904771685600281,-0.30604326725006104
1707164792108274400,3.6842744140625,-0.8549816012382507,0.5098429918289185,-0.32009315490722656
1707164792127234000,3.703234130859375,-0.9362266063690186,0.1372154951095581,-0.3500255048274994
1707164792146193700,3.722193603515625,-0.9371429085731506,-0.3759109079837799,-0.3854556679725647
1707164792165153300,3.7411533203125,-0.9350048899650574,-0.8795689344406128,-0.4324922561645508
1707164792184112600,3.760112548828125,-0.9905936121940613,-1.2647191286087036,-0.45906487107276917
1707164792203072300,3.779072265625,-1.097800374031067,-1.4424808025360107,-0.4667007029056549
1707164792222031600,3.798031494140625,-1.1897355318069458,-1.4220168590545654,-0.4764745235443115
1707164792240991200,3.8169912109375,-1.1854594945907593,-1.2723549604415894,-0.5021308660507202
1707164792259950800,3.835950927734375,-1.098105788230896,-1.0600794553756714,-0.5406153202056885
1707164792278910200,3.85491015625,-0.9936479330062866,-0.8142064213752747,-0.5488619804382324
1707164792297869800,3.873869873046875,-0.9062942862510681,-0.5747473835945129,-0.509155809879303
1707164792316829400,3.892829345703125,-0.8656717538833618,-0.3618610203266144,-0.42913252115249634
1707164792335789000,3.9117890625,-0.8314633369445801,-0.21891866624355316,-0.3139844834804535
1707164792354748400,3.93074853515625,-0.7547997832298279,-0.10987929999828339,-0.20341797173023224
1707164792373708000,3.9497080078125,-0.6769145131111145,-0.08636100590229034,-0.12583814561367035
1707164792392667400,3.96866748046875,-0.636292040348053,-0.14103341102600098,-0.0720820426940918
1707164792411627000,3.987626953125,-0.5978075265884399,-0.25098907947540283,-0.06719512492418289
1707164792430586600,4.006586669921875,-0.49334967136383057,-0.32154396176338196,-0.08491020649671555
1707164792449546200,4.025546142578125,-0.4392881393432617,-0.3655261993408203,-0.07635809481143951
1707164792468505600,4.044505615234375,-0.5920043587684631,-0.46692976355552673,-0.027488915249705315
1707164792487465200,4.06346533203125,-0.7086794972419739,-0.48647743463516235,0.0256563201546669
1707164792506424600,4.082424560546875,-0.42615455389022827,-0.19967642426490784,0.08368847519159317
1707164792525384200,4.10138427734375,-0.12041672319173813,0.12286017835140228,0.19669845700263977
1707164792544343800,4.12034375,-0.1066722646355629,0.7352521419525146,0.4761691093444824
1707164792563303400,4.139303466796875,-0.1424078494310379,1.2480731010437012,0.6643154621124268
1707164792582262800,4.1582626953125,0.10957387089729309,1.5385392904281616,0.5876519083976746
1707164792601222400,4.177222412109375,0.4541015923023224,1.449963927268982,0.5082395076751709
1707164792620181800,4.196181640625,0.6892845630645752,0.9398918151855469,0.43279770016670227
1707164792639141400,4.215141357421875,0.8429170250892639,0.5819250345230103,0.39309149980545044
1707164792658101000,4.23410107421875,1.008461356163025,0.5758163928985596,0.4886918365955353
1707164792677060600,4.253060546875,1.0979530811309814,0.7795398235321045,0.6258309483528137
1707164792696020000,4.27202001953125,1.049083948135376,1.0122792720794678,0.6997455954551697
1707164792714979600,4.2909794921875,0.9773072600364685,1.015333652496338,0.6814196705818176
1707164792733939000,4.30993896484375,0.9849430918693542,0.7749583125114441,0.5962040424346924
1707164792752898600,4.328898681640625,1.0768781900405884,0.45914125442504883,0.4883863925933838
1707164792771858200,4.347858154296875,1.233870506286621,0.21846051514148712,0.3863719701766968
1707164792790817800,4.36681787109375,1.4415645599365234,0.11766783148050308,0.30451610684394836
1707164792809777200,4.385777099609375,1.6162718534469604,0.11827868968248367,0.2519817352294922
1707164792828736800,4.40473681640625,1.7164536714553833,0.1014799103140831,0.22937972843647003
1707164792847696400,4.4236962890625,1.7723478078842163,0.028787001967430115,0.23243404924869537
1707164792866655700,4.44265576171875,1.7946443557739258,-0.07872519642114639,0.24465134739875793
1707164792885615400,4.461615478515625,1.7219514846801758,-0.1816559135913849,0.23243404924869537
1707164792904575000,4.480574951171875,1.5787036418914795,-0.17829616367816925,0.19639302790164948
1707164792923534300,4.499534423828125,1.4427862167358398,-0.006948587018996477,0.20708316564559937
1707164792942494000,4.518493896484375,1.345658779144287,0.35590508580207825,0.2657261788845062
1707164792961453600,4.53745361328125,1.1718677282333374,0.7444151043891907,0.2214384824037552
1707164792980413000,4.556412841796875,0.8832340836524963,0.9175952672958374,0.08063415437936783
1707164792999372500,4.57537255859375,0.5622246861457825,0.894076943397522,-0.09010255336761475
1707164793018332200,4.594332275390625,0.3343721032142639,0.7862593531608582,-0.11911863088607788
1707164793037291500,4.61329150390625,0.2928332984447479,0.48479756712913513,0.01588248461484909
1707164793056251100,4.632251220703125,0.08208495378494263,-0.24640758335590363,-0.03634645417332649
1707164793075210800,4.651210693359375,-0.6518690586090088,-1.1046725511550903,-0.20219624042510986
1707164793094170400,4.67017041015625,-1.1139882802963257,-1.434844970703125,-0.11514800786972046
1707164793113129700,4.689129638671875,-0.9808197617530823,-1.0567196607589722,0.10354158282279968
1707164793132089300,4.70808935546875,-0.718758761882782,-0.26564982533454895,0.17195843160152435
1707164793151049000,4.727049072265625,-0.6118574142456055,0.3720930218696594,-0.020769402384757996
1707164793170008300,4.74600830078125,-0.8244383931159973,0.5568795800209045,-0.15179990231990814
1707164793188968000,4.764968017578125,-1.0871102809906006,0.36048656702041626,-0.23823726177215576
1707164793207927600,4.783927490234375,-1.1252893209457397,-0.06528617441654205,-0.3497200906276703
1707164793226887200,4.80288720703125,-1.0861939191818237,-0.4724275469779968,-0.47067132592201233
1707164793245846500,4.821846435546875,-1.1182643175125122,-0.7451786994934082,-0.562911868095398
1707164793264806100,4.84080615234375,-1.2254711389541626,-0.8019890785217285,-0.6108647584915161
1707164793283765800,4.859765869140625,-1.3534473180770874,-0.7118865251541138,-0.6359102129936218
1707164793302725000,4.87872509765625,-1.4130065441131592,-0.6052906513214111,-0.6673697829246521
1707164793321684700,4.897684814453125,-1.3644428253173828,-0.48678287863731384,-0.7049379348754883
1707164793340644400,4.916644287109375,-1.2468513250350952,-0.38965538144111633,-0.7232639193534851
1707164793359603700,4.935603759765625,-1.1384228467941284,-0.3310123383998871,-0.6939423680305481
1707164793378563300,4.954563232421875,-1.0492366552352905,-0.2787834107875824,-0.6117810606956482
1707164793397523000,4.97352294921875,-0.978681743144989,-0.2641226649284363,-0.4981602132320404
1707164793416482600,4.992482666015625,-0.9001855850219727,-0.21403174102306366,-0.3949240744113922
1707164793435442000,5.01144189453125,-0.8574250936508179,-0.12301289290189743,-0.3225366175174713
1707164793454401500,5.030401611328125,-0.8369610905647278,-0.07964149862527847,-0.2672533392906189
1707164793473361200,5.049361083984375,-0.7700713872909546,-0.045738499611616135,-0.26511532068252563
1707164793492320500,5.068320556640625,-0.617355227470398,0.04864010959863663,-0.3182605504989624
1707164793511280000,5.087280029296875,-0.42218393087387085,0.07826705276966095,-0.3539961278438568
1707164793530239700,5.10623974609375,-0.3378845751285553,-0.09582941234111786,-0.30604326725006104
1707164793549199400,5.125199462890625,-0.194025918841362,-0.09918916970491409,-0.14691297709941864
1707164793568158700,5.14415869140625,0.11049016565084457,0.09903645515441895,0.022296564653515816
1707164793587118300,5.163118408203125,0.09613484144210815,0.2664133906364441,0.26939135789871216
1707164793606078000,5.182077880859375,-0.07826705276966095,0.5929206013679504,0.5241219997406006
1707164793625037300,5.201037353515625,-0.02023489587008953,0.9508873820304871,0.5396990180015564
1707164793643997000,5.219996826171875,0.2720639109611511,1.1408662796020508,0.37201663851737976
1707164793662956500,5.23895654296875,0.6538543701171875,0.8168025612831116,0.23915356397628784
1707164793681916000,5.257916015625,0.9394336938858032,0.4395935535430908,0.20799945294857025
1707164793700875500,5.27687548828125,1.1013128757476807,0.28290674090385437,0.25320345163345337
1707164793719835100,5.295835205078125,1.1346049308776855,0.33910632133483887,0.36285367608070374
1707164793738794800,5.314794677734375,1.0179297924041748,0.570624053478241,0.4526508152484894
1707164793757754400,5.33375439453125,0.8786526322364807,0.7734311819076538,0.5045742988586426
1707164793776713700,5.352713623046875,0.824896514415741,0.8174134492874146,0.5216785073280334
1707164793795673300,5.37167333984375,0.9021708965301514,0.8158862590789795,0.4990765154361725
1707164793814633000,5.390633056640625,1.1028399467468262,0.8076395988464355,0.4468475878238678
1707164793833592300,5.40959228515625,1.3545162677764893,0.7645736336708069,0.37140578031539917
1707164793852552000,5.428552001953125,1.5710678100585938,0.6857720613479614,0.32589635252952576
1707164793871511600,5.447511474609375,1.6993494033813477,0.5626828074455261,0.33139413595199585
1707164793890471000,5.466470947265625,1.7586033344268799,0.362930029630661,0.37262752652168274
1707164793909430500,5.485430419921875,1.7934225797653198,0.08743002265691757,0.4159989058971405
1707164793928390100,5.50439013671875,1.8282419443130493,-0.17829616367816925,0.4355465769767761
1707164793947349800,5.523349853515625,1.7894519567489624,-0.22411102056503296,0.42424559593200684
1707164793966309000,5.54230908203125,1.5915318727493286,-0.014584396965801716,0.40866854786872864
1707164793985268700,5.561268798828125,1.352683663368225,0.4038579761981964,0.45875945687294006
1707164794004228400,5.580228271484375,1.185917615890503,0.85834139585495,0.562911868095398
1707164794023188000,5.59918798828125,1.020984172821045,1.0315215587615967,0.5290089249610901
1707164794042147300,5.618147216796875,0.7537307739257812,0.8174134492874146,0.32070401310920715
1707164794061107000,5.63710693359375,0.42966702580451965,0.3623191714286804,0.09682206809520721
1707164794080066600,5.656066650390625,0.25587597489356995,-0.1758527010679245,-0.004886918235570192
1707164794099026000,5.67502587890625,-0.07002037763595581,-0.7781654000282288,-0.1945604383945465
1707164794117985500,5.693985595703125,-0.700738251209259,-1.2185988426208496,-0.2813032269477844
1707164794136945700,5.712945556640625,-0.9478330612182617,-1.1633156538009644,-0.16768237948417664
1707164794155905300,5.7319052734375,-0.7676279544830322,-0.6346121430397034,-0.0009162971982732415
1707164794174865000,5.750864990234375,-0.6133846044540405,-0.0524580143392086,0.016187917441129684
1707164794193824300,5.76982421875,-0.7425824999809265,0.04528035223484039,-0.11911863088607788
1707164794212783900,5.788783935546875,-1.051985502243042,-0.14317142963409424,-0.2861901521682739
1707164794231743500,5.807743408203125,-1.2043962478637695,-0.5735256671905518,-0.41416633129119873
1707164794250702800,5.826702880859375,-1.1738530397415161,-1.085430383682251,-0.49968740344047546
1707164794269662500,5.845662353515625,-1.1436152458190918,-1.3575706481933594,-0.5965094566345215
1707164794288622000,5.8646220703125,-1.2517383098602295,-1.3462696075439453,-0.685390293598175
1707164794307581700,5.883581787109375,-1.4353032112121582,-1.120249629020691,-0.7235693335533142
1707164794326541300,5.902541259765625,-1.571831464767456,-0.8349757790565491,-0.7202095985412598
1707164794345500700,5.921500732421875,-1.5861867666244507,-0.595211386680603,-0.7257073521614075
1707164794364460300,5.940460205078125,-1.4921135902404785,-0.4330267608165741,-0.721431314945221
1707164794383420000,5.959419921875,-1.3812416791915894,-0.35941755771636963,-0.6918043494224548
1707164794402379500,5.978379638671875,-1.2764782905578613,-0.32184937596321106,-0.6401863098144531
1707164794421339100,5.997339111328125,-1.190651774406433,-0.3090212345123291,-0.5668824911117554
1707164794440298500,6.016298583984375,-1.1323142051696777,-0.2738964855670929,-0.46486809849739075
1707164794459258000,6.035258056640625,-1.0739766359329224,-0.24946190416812897,-0.34697118401527405
1707164794478217700,6.0542177734375,-1.0562615394592285,-0.2629009187221527,-0.2623664140701294
1707164794497177000,6.073177001953125,-1.06206476688385,-0.345062255859375,-0.26389357447624207
1707164794516136700,6.09213671875,-0.942335307598114,-0.42997244000434875,-0.3430005609989166
1707164794535096300,6.111096435546875,-0.77618008852005,-0.4678460657596588,-0.42302384972572327
1707164794554056000,6.130055908203125,-0.6286562085151672,-0.5142717957496643,-0.4685332775115967
1707164794573015300,6.149015380859375,-0.5458840131759644,-0.6608793139457703,-0.4923570156097412
1707164794591975000,6.167974853515625,-0.5388590693473816,-0.8896481990814209,-0.5381718873977661
1707164794610934500,6.1869345703125,-0.4670824706554413,-0.7641154527664185,-0.574212908744812
1707164794629894100,6.20589404296875,-0.3797288239002228,-0.44005170464515686,-0.44837474822998047
1707164794648853800,6.224853759765625,-0.368122398853302,-0.14408773183822632,-0.08429934084415436
1707164794667813000,6.243813232421875,-0.229150652885437,0.6650026440620422,0.14294235408306122
1707164794686772700,6.262772705078125,0.00755945174023509,1.356501579284668,0.2663370370864868
1707164794705732400,6.281732421875,0.26137375831604004,1.4823397397994995,0.3072649836540222
1707164794724692000,6.30069189453125,0.47578731179237366,1.1127665042877197,0.28924447298049927
1707164794743651600,6.319651611328125,0.7149408459663391,0.6515636444091797,0.24862197041511536
1707164794762611200,6.338611083984375,0.9195805788040161,0.3934732675552368,0.24892739951610565
1707164794781570600,6.357570556640625,0.9812778830528259,0.39561131596565247,0.32039856910705566
1707164794800530200,6.3765302734375,0.918053388595581,0.6512582302093506,0.4459312856197357
1707164794819489800,6.39548974609375,0.8294780254364014,0.9573014378547668,0.5476402640342712
1707164794838449400,6.414449462890625,0.7864120602607727,1.1301761865615845,0.5839866995811462
1707164794857409000,6.433408935546875,0.8404735922813416,1.1891247034072876,0.56382817029953
1707164794876368400,6.452368408203125,0.9977712631225586,1.1827105283737183,0.5134318470954895
1707164794895328000,6.471327880859375,1.2161554098129272,1.117348074913025,0.46486809849739075
1707164794914287600,6.49028759765625,1.4320961236953735,1.0312161445617676,0.43279770016670227
1707164794933247200,6.509247314453125,1.5951969623565674,0.8699477910995483,0.41233372688293457
1707164794952206800,6.528206787109375,1.6889647245407104,0.6295725107192993,0.39400777220726013
1707164794971166500,6.54716650390625,1.7631847858428955,0.3592648506164551,0.3915643095970154
1707164794990125800,6.566125732421875,1.82488214969635,0.1573740392923355,0.4419606626033783
1707164795009085700,6.585085693359375,1.8288527727127075,0.04802924394607544,0.48013970255851746
1707164795028045000,6.604045166015625,1.740888237953186,0.0012980876490473747,0.4679224193096161
1707164795047004700,6.623004638671875,1.5600723028182983,0.06207913160324097,0.4822777509689331
1707164795065964300,6.64196435546875,1.3319143056869507,0.2719111740589142,0.4938841760158539
1707164795084924000,6.660923828125,1.0915390253067017,0.40141451358795166,0.3811796307563782
1707164795103883500,6.679883544921875,0.7589231133460999,0.25786128640174866,0.0665842592716217
1707164795122843100,6.698843017578125,0.34231334924697876,-0.07750347256660461,-0.22357651591300964
1707164795141802800,6.717802734375,0.09033162891864777,-0.5277107954025269,-0.39675667881965637
1707164795160762400,6.736762451171875,-0.2541961073875427,-0.9226348996162415,-0.6120865345001221
1707164795179721700,6.7557216796875,-0.6989056468009949,-0.7937424182891846,-0.6218603253364563
1707164795198681300,6.774681396484375,-0.8638391494750977,-0.23999349772930145,-0.4309650957584381
1707164795217641000,6.793640869140625,-0.6827177405357361,0.45761406421661377,-0.3029889166355133
1707164795236600600,6.8126005859375,-0.5550470352172852,0.794200599193573,-0.2565632164478302
1707164795255560200,6.831560302734375,-0.7135664224624634,0.6100248694419861,-0.2868010103702545
1707164795274519800,6.850519775390625,-0.9921207427978516,0.014431680552661419,-0.3396408259868622
1707164795293479400,6.8694794921875,-1.0874156951904297,-0.6987529397010803,-0.3961458206176758
1707164795312439000,6.88843896484375,-1.0608429908752441,-1.2024109363555908,-0.4731147587299347
1707164795331398700,6.907398681640625,-1.0907753705978394,-1.3795617818832397,-0.5604684352874756
1707164795350358300,6.926358154296875,-1.1995093822479248,-1.2372303009033203,-0.6108647584915161
1707164795369318000,6.94531787109375,-1.3415354490280151,-0.8948405385017395,-0.6258309483528137
1707164795388277200,6.96427734375,-1.4609594345092773,-0.5518399477005005,-0.6447677612304688
1707164795407237000,6.983237060546875,-1.4884483814239502,-0.29222244024276733,-0.6878337264060974
1707164795426196700,7.00219677734375,-1.42522394657135,-0.16180281341075897,-0.7257073521614075
1707164795445156000,7.021156005859375,-1.2978585958480835,-0.12148573249578476,-0.740368127822876
1707164795464115700,7.04011572265625,-1.1845431327819824,-0.08086322247982025,-0.7067705392837524
1707164795483075600,7.05907568359375,-1.1060470342636108,-0.05429060757160187,-0.6059778332710266
1707164795502035000,7.078034912109375,-1.0180824995040894,-0.08269581943750381,-0.44409868121147156
1707164795520994600,7.09699462890625,-0.8861356973648071,-0.16852232813835144,-0.3075704276561737
1707164795539954200,7.1159541015625,-0.7859538793563843,-0.2897789776325226,-0.2467893660068512
1707164795558913800,7.134913818359375,-0.6701950430870056,-0.40339982509613037,-0.250149130821228
1707164795577873400,7.153873291015625,-0.543440580368042,-0.36919140815734863,-0.26878049969673157
1707164795596833000,7.1728330078125,-0.4820486605167389,-0.35850125551223755,-0.26908594369888306
1707164795615792600,7.191792724609375,-0.38614290952682495,-0.3300960659980774,-0.2211330533027649
1707164795634752300,7.210752197265625,-0.32566729187965393,-0.38476845622062683,-0.1637117564678192
1707164795653712000,7.2297119140625,-0.235564723610878,-0.422947496175766,-0.06505709886550903
1707164795672671500,7.24867138671875,0.010919207707047462,-0.2580140233039856,0.06902772188186646
1707164795691631000,7.267631103515625,0.12301289290189743,-0.04298960790038109,0.30970844626426697
1707164795710590700,7.2865908203125,-0.021151192486286163,0.5296961069107056,0.5949822664260864
1707164795729550600,7.305550537109375,-0.046807512640953064,0.940808117389679,0.7086031436920166
1707164795748510000,7.324510009765625,0.1340084671974182,1.172325849533081,0.6823359727859497
1707164795767469600,7.343469482421875,0.39973464608192444,1.035492181777954,0.6172788739204407
1707164795786429400,7.362429443359375,0.6578249931335449,0.9163735508918762,0.5497782826423645
1707164795805388800,7.381388916015625,0.8737657070159912,1.0541235208511353,0.5244274139404297
1707164795824348400,7.400348388671875,1.0219004154205322,1.3433680534362793,0.564439058303833
1707164795843308300,7.419308349609375,1.0350340604782104,1.5721368789672852,0.5977311730384827
1707164795862267600,7.438267578125,0.9650899767875671,1.571526050567627,0.6084213256835938
1707164795881227500,7.4572275390625,0.9391282200813293,1.3406190872192383,0.618806004524231
1707164795900187100,7.476187255859375,0.984332263469696,1.0593159198760986,0.6035344004631042
1707164795919146500,7.495146484375,1.0851249694824219,0.8400154113769531,0.5317577719688416
1707164795938106400,7.5141064453125,1.2189042568206787,0.7297543287277222,0.4569268524646759
1707164795957066000,7.53306591796875,1.3499348163604736,0.7328086495399475,0.40714138746261597
1707164795976025600,7.552025634765625,1.454087257385254,0.7728202939033508,0.3903425931930542
1707164795994985200,7.570985107421875,1.5448006391525269,0.7541889548301697,0.4062250852584839
1707164796013944800,7.58994482421875,1.6153554916381836,0.6869937777519226,0.4007273018360138
1707164796032904400,7.608904541015625,1.6352086067199707,0.5330559015274048,0.37843072414398193
1707164796051864000,7.627864013671875,1.5900046825408936,0.32047492265701294,0.3634645342826843
1707164796070823700,7.64682373046875,1.4766892194747925,0.10331250727176666,0.3738492429256439
1707164796089783300,7.665783203125,1.286710262298584,-0.12576179206371307,0.3704894781112671
1707164796108743000,7.684742919921875,1.0606902837753296,-0.3249036967754364,0.287106454372406
1707164796127702800,7.703702880859375,0.8233693838119507,-0.4278344213962555,0.15241076052188873
1707164796146662100,7.722662109375,0.5698604583740234,-0.42386379837989807,0.006719512399286032
1707164796165622000,7.7416220703125,0.3297906219959259,-0.2745073735713959,-0.15241076052188873
1707164796184581600,7.76058154296875,0.16699515283107758,-0.050930850207805634,-0.2877173125743866
1707164796203541200,7.779541259765625,0.06498073786497116,-0.10254892706871033,-0.29901832342147827
1707164796222500900,7.7985009765625,-0.28870996832847595,-0.4791470468044281,-0.46975502371788025
1707164796241460500,7.81746044921875,-0.8647554516792297,-0.7711403965950012,-0.5729911923408508
1707164796260420000,7.836420166015625,-1.0672571659088135,-0.49777844548225403,-0.45478883385658264
1707164796279379700,7.855379638671875,-0.9334777593612671,0.16378812491893768,-0.32131487131118774
1707164796298339300,7.87433935546875,-0.783815860748291,0.7251728773117065,-0.31154105067253113
1707164796317299000,7.893298828125,-0.7441096305847168,0.8140536546707153,-0.3610210716724396
1707164796336258600,7.912258544921875,-0.8604794144630432,0.36628979444503784,-0.4111120104789734
1707164796355218200,7.93121826171875,-0.9496656656265259,-0.3236819803714752,-0.4923570156097412
1707164796374177800,7.950177734375,-0.9747111201286316,-0.9009491801261902,-0.6029235124588013
1707164796393137700,7.9691376953125,-1.007392406463623,-1.1492657661437988,-0.6676751971244812
1707164796412097000,7.988096923828125,-1.080085277557373,-1.0634392499923706,-0.6594285368919373
1707164796431057000,8.007056884765625,-1.2019528150558472,-0.7372374534606934,-0.6218603253364563
1707164796450016500,8.0260166015625,-1.328401803970337,-0.3713294267654419,-0.5934551358222961
1707164796468976000,8.04497607421875,-1.393153429031372,-0.1340084671974182,-0.5775726437568665
1707164796487935700,8.063935791015625,-1.3699406385421753,-0.06986765563488007,-0.5595521330833435
1707164796506895400,8.082895263671874,-1.2893065214157104,-0.11232276260852814,-0.5396990180015564
1707164796525855000,8.10185498046875,-1.1967604160308838,-0.16974404454231262,-0.5128209590911865
1707164796544814600,8.120814697265626,-1.126205563545227,-0.14928008615970612,-0.4776962697505951
1707164796563774200,8.139774169921875,-1.070311427116394,-0.08758273720741272,-0.42363473773002625
1707164796582733800,8.15873388671875,-0.9432515501976013,-0.0524580143392086,-0.3707949221134186
1707164796601693400,8.177693359375,-0.7434988021850586,0.02084576152265072,-0.32589635252952576
1707164796620653000,8.196653076171875,-0.5620719790458679,0.04558578506112099,-0.26511532068252563
1707164796639613000,8.215613037109375,-0.44875654578208923,-0.11812597513198853,-0.23732095956802368
1707164796658572500,8.234572509765625,-0.43898269534111023,-0.284586638212204,-0.18356487154960632
1707164796677532200,8.2535322265625,-0.38156139850616455,-0.3392590284347534,-0.11056652665138245
1707164796696491800,8.27249169921875,-0.30428701639175415,-0.5613083839416504,-0.0565049909055233
1707164796715451400,8.291451416015626,-0.2813795804977417,-0.7662535309791565,0.06200277432799339
1707164796734411000,8.310410888671875,-0.08987347781658173,-0.6492729187011719,0.15088360011577606
1707164796753370600,8.32937060546875,0.06925679743289948,-0.1498909443616867,0.2513708472251892
1707164796772330200,8.348330322265625,0.053374309092760086,0.5180897116661072,0.4981602132320404
1707164796791289900,8.367289794921875,0.07689260691404343,0.9377537965774536,0.6163625717163086
1707164796810249500,8.38624951171875,0.3200167715549469,0.9854012727737427,0.5531380772590637
1707164796829209300,8.405209228515625,0.5997928380966187,0.644844114780426,0.45417797565460205
1707164796848168700,8.424168701171874,0.788550078868866,0.3262781500816345,0.4364628791809082
1707164796867128600,8.443128662109375,0.9134719371795654,0.4496728479862213,0.5158752799034119
1707164796886088200,8.462088134765626,0.9794453382492065,0.8491783738136292,0.6349939107894897
1707164796905047800,8.4810478515625,0.9467640519142151,1.3061052560806274,0.6884446144104004
1707164796924007400,8.50000732421875,0.8936188220977783,1.6561307907104492,0.6835576891899109
1707164796942967000,8.518967041015625,0.8853721618652344,1.7486767768859863,0.6575959324836731
1707164796961926700,8.5379267578125,0.936684787273407,1.606650710105896,0.6108647584915161
1707164796980886300,8.55688623046875,1.0411427021026611,1.3739112615585327,0.526870846748352
1707164796999846000,8.575845947265625,1.2011892795562744,1.1533890962600708,0.42271843552589417
1707164797018805500,8.594805419921874,1.3670389652252197,0.9710459113121033,0.30451610684394836
1707164797037765400,8.613765380859375,1.5167008638381958,0.7847321629524231,0.20372340083122253
1707164797056724700,8.632724853515626,1.620853304862976,0.599334716796875,0.15515965223312378
1707164797075684600,8.6516845703125,1.67644202709198,0.4145480990409851,0.14813470840454102
1707164797094644200,8.670644287109376,1.6920191049575806,0.18516838550567627,0.15149445831775665
1707164797113603800,8.689603759765625,1.6535346508026123,-0.08391755074262619,0.2003636509180069
1707164797132563500,8.7085634765625,1.5460224151611328,-0.30077454447746277,0.281914085149765
1707164797151523000,8.727523193359374,1.3462696075439453,-0.36766424775123596,0.3402516841888428
1707164797170482700,8.746482666015625,1.1144464015960693,-0.3499491512775421,0.28466299176216125
1707164797189442300,8.7654423828125,0.8777363300323486,-0.3493382930755615,0.21960589289665222
1707164797208402000,8.78440185546875,0.6242274641990662,-0.31726789474487305,0.20677772164344788
1707164797227361500,8.803361572265626,0.20456334948539734,-0.3749946057796478,0.037262752652168274
1707164797246321400,8.8223212890625,-0.07765618711709976,-0.4595993757247925,-0.16707152128219604
1707164797265280800,8.84128076171875,-0.3736201822757721,-0.6462185978889465,-0.27427828311920166
1707164797284240600,8.86024072265625,-0.9728785157203674,-0.918664276599884,-0.39828383922576904
1707164797303200300,8.8792001953125,-1.170798659324646,-0.43027788400650024,-0.31520622968673706
1707164797322159900,8.898159912109374,-0.9084323048591614,0.5113701820373535,-0.17562362551689148
1707164797341119500,8.917119384765625,-0.607886791229248,1.2584577798843384,-0.14080433547496796
1707164797360079000,8.9360791015625,-0.6310997009277344,1.4328596591949463,-0.22785256803035736
1707164797379038700,8.955038818359375,-0.903239905834198,0.9398918151855469,-0.2874118685722351
1707164797397998300,8.973998291015626,-1.062981128692627,0.01107192412018776,-0.31581708788871765
1707164797416958000,8.9929580078125,-1.0138064622879028,-0.8704059720039368,-0.39217519760131836
1707164797435917600,9.01191748046875,-0.9762382507324219,-1.3432153463363647,-0.48441576957702637
1707164797454877400,9.03087744140625,-1.0486257076263428,-1.3853650093078613,-0.5225948095321655
1707164797473837000,9.049837158203125,-1.2215005159378052,-1.0878738164901733,-0.5158752799034119
1707164797492796700,9.068796630859374,-1.3729948997497559,-0.7372374534606934,-0.5015199780464172
1707164797511756300,9.08775634765625,-1.423696756362915,-0.5044979453086853,-0.5064069032669067
1707164797530716000,9.1067158203125,-1.38735032081604,-0.4898371994495392,-0.536644697189331
1707164797549675500,9.125675537109375,-1.3195443153381348,-0.6159807443618774,-0.5632173418998718
1707164797568635100,9.14463525390625,-1.2288308143615723,-0.714024543762207,-0.5561923980712891
1707164797587594800,9.1635947265625,-1.1558325290679932,-0.7479275465011597,-0.48472121357917786
1707164797606554400,9.182554443359376,-1.0923025608062744,-0.7311288118362427,-0.3692677617073059
1707164797625514000,9.201513916015625,-1.0040326118469238,-0.6480512022972107,-0.24434591829776764
1707164797644473600,9.2204736328125,-0.8769727349281311,-0.4876991808414459,-0.16676609218120575
1707164797663433200,9.23943310546875,-0.7233402729034424,-0.339869886636734,-0.1588248461484909
1707164797682393000,9.25839306640625,-0.5773435831069946,-0.3355938494205475,-0.18753549456596375
1707164797701352400,9.2773525390625,-0.5043452382087708,-0.28550294041633606,-0.22785256803035736
1707164797720312300,9.296312255859375,-0.40141451358795166,-0.25465425848960876,-0.2779434621334076
1707164797739272000,9.31527197265625,-0.4035525321960449,-0.4950295388698578,-0.28954991698265076
1707164797758231600,9.3342314453125,-0.35101816058158875,-0.5570323467254639,-0.18753549456596375
1707164797777191200,9.353191162109376,-0.08009964227676392,-0.1712712198495865,-0.07788526266813278
1707164797796150800,9.37215087890625,0.08697187155485153,0.29940009117126465,0.17134757339954376
1707164797815110400,9.3911103515625,0.015806125476956367,0.8210785984992981,0.4367683231830597
1707164797834070000,9.410070068359374,0.020693045109510422,0.8702532649040222,0.5739074349403381
1707164797853029600,9.429029541015625,0.3038288652896881,0.7144827246665955,0.5323686599731445
1707164797871989200,9.4479892578125,0.6993638277053833,0.34582582116127014,0.43951719999313354
1707164797890948900,9.466948974609375,0.8988111615180969,0.16073378920555115,0.44470956921577454
1707164797909908500,9.485908447265626,0.9614248275756836,0.3125337064266205,0.5009090900421143
1707164797928868000,9.5048681640625,0.9336304664611816,0.6149117350578308,0.6035344004631042
1707164797947828000,9.523827880859375,0.8902590870857239,0.960355818271637,0.6734784245491028
1707164797966787300,9.542787353515624,0.8734602928161621,1.1924843788146973,0.7174606919288635
1707164797985747200,9.561747314453125,0.8936188220977783,1.2056180238723755,0.7443387508392334
1707164798004706800,9.580706787109374,0.9681442975997925,1.052290916442871,0.713184654712677
1707164798023666400,9.59966650390625,1.1028399467468262,0.8293253183364868,0.6313287615776062
1707164798042626000,9.6186259765625,1.2579996585845947,0.6008618474006653,0.5213730931282043
1707164798061585700,9.637585693359375,1.4079669713974,0.3931678533554077,0.4257727563381195
1707164798080545300,9.656545166015626,1.5585451126098633,0.2297615110874176,0.38331764936447144
1707164798099505000,9.6755048828125,1.6645301580429077,0.12408190965652466,0.3848448097705841
1707164798118464500,9.694464599609375,1.7427208423614502,0.04130972921848297,0.4105011224746704
1707164798137424100,9.713424072265624,1.7598251104354858,0.0012980876490473747,0.43401941657066345
1707164798156383700,9.7323837890625,1.6507856845855713,-0.0057268571108579636,0.45539969205856323
1707164798175343400,9.75134326171875,1.4403427839279175,0.02237292192876339,0.48960810899734497
1707164798194303000,9.770302978515625,1.2060761451721191,0.06268999725580215,0.48533207178115845
1707164798213262600,9.7892626953125,0.9702823162078857,0.09689842909574509,0.42424559593200684
1707164798232222500,9.808222412109375,0.7134137153625488,0.09842558950185776,0.2926042377948761
1707164798251181800,9.827181884765626,0.40523242950439453,0.10728313028812408,0.07360920310020447
1707164798270141700,9.8461416015625,0.14347685873508453,0.14637847244739532,-0.09132428467273712
1707164798289101300,9.865101318359375,-0.02237292192876339,0.046807512640953064,-0.1438586562871933
1707164798308061000,9.88406103515625,-0.3992764949798584,-0.2827540338039398,-0.3543015718460083
1707164798327020500,9.9030205078125,-1.0544289350509644,-0.5051088333129883,-0.6206386089324951
1707164798345980200,9.921980224609374,-1.3064106702804565,-0.18745912611484528,-0.5244274139404297
1707164798364939800,9.940939697265625,-1.061453938484192,0.6201041340827942,-0.29993459582328796
1707164798383899400,9.9598994140625,-0.6882155537605286,1.3171007633209229,-0.30604326725006104
1707164798402859000,9.97885888671875,-0.5620719790458679,1.3913209438323975,-0.42088583111763
1707164798421818600,9.997818603515626,-0.7902299761772156,0.9105703234672546,-0.48105600476264954
1707164798440778200,10.0167783203125,-1.0122792720794678,0.024205517023801804,-0.518318772315979
1707164798459737900,10.03573779296875,-1.0208313465118408,-0.7741947770118713,-0.5702422857284546
1707164798478697500,10.054697509765624,-0.9643264412879944,-1.2005783319473267,-0.609948456287384
1707164798497657000,10.073656982421875,-1.0330487489700317,-1.2561670541763306,-0.6365211009979248
1707164798516616700,10.09261669921875,-1.2108103036880493,-1.0359503030776978,-0.6276635527610779
1707164798535576300,10.111576416015625,-1.3904045820236206,-0.7445678114891052,-0.5983420610427856
1707164798554536000,10.130535888671876,-1.476841926574707,-0.5796343088150024,-0.5855138897895813
1707164798573495800,10.149495849609375,-1.4325542449951172,-0.5594757795333862,-0.6075050234794617
1707164798592455200,10.168455078125,-1.3342050313949585,-0.6281980872154236,-0.6371319890022278
1707164798611415000,10.1874150390625,-1.2120320796966553,-0.678288996219635,-0.637742817401886
1707164798630374700,10.206374755859375,-1.127121925354004,-0.6740128993988037,-0.5913171172142029
1707164798649334000,10.225333984375,-1.08100163936615,-0.6288089156150818,-0.4990765154361725
1707164798668294000,10.2442939453125,-1.025107502937317,-0.48067423701286316,-0.4111120104789734
1707164798687253500,10.26325341796875,-0.9588286280632019,-0.25526511669158936,-0.35246896743774414
1707164798706213000,10.282213134765625,-0.866893470287323,-0.0191658828407526,-0.2861901521682739
1707164798725172700,10.3011728515625,-0.7404444813728333,0.15523600578308105,-0.21502439677715302
1707164798744132400,10.32013232421875,-0.5932260751724243,0.16745330393314362,-0.2306014597415924
1707164798763092000,10.339092041015626,-0.487546443939209,0.013515383005142212,-0.2684750556945801
1707164798782051600,10.358051513671874,-0.33941173553466797,-0.27664539217948914,-0.2461785078048706
1707164798801011200,10.37701123046875,-0.15493057668209076,-0.5057196617126465,-0.1081230640411377
1707164798819970800,10.395970703125,0.05367974191904068,-0.4492146968841553,0.07483093440532684
1707164798838930400,10.414930419921875,0.11262819170951843,0.08559742569923401,0.2910770773887634
1707164798857890000,10.43389013671875,-0.015958841890096664,0.839099109172821,0.609948456287384
1707164798876849700,10.452849609375,0.00511599238961935,1.2941933870315552,0.8298597931861877
1707164798895809300,10.471809326171876,0.283975750207901,1.3161845207214355,0.7929024696350098
1707164798914769000,10.490768798828125,0.6902008652687073,0.8650608658790588,0.5748237371444702
1707164798933728500,10.509728515625,1.0081559419631958,0.35010188817977905,0.36743515729904175
1707164798952688000,10.528688232421874,1.1706459522247314,0.1781434416770935,0.30451610684394836
1707164798971647700,10.547647705078125,1.2693006992340088,0.40263625979423523,0.37110036611557007
1707164798990607400,10.566607421875,1.271133303642273,0.8219949007034302,0.47036588191986084
1707164799009567000,10.58556689453125,1.1740057468414307,1.1729366779327393,0.527481734752655
1707164799028526600,10.604526611328126,1.0887900590896606,1.3219877481460571,0.5577195286750793
1707164799047486200,10.623486328125,1.0716859102249146,1.2746456861495972,0.5659661889076233
1707164799066445800,10.64244580078125,1.1083377599716187,1.1060470342636108,0.5332849621772766
1707164799085405400,10.661405517578125,1.2137119770050049,0.903239905834198,0.45967575907707214
1707164799104365000,10.680364990234375,1.3746747970581055,0.7334195375442505,0.38179048895835876
1707164799123324700,10.69932470703125,1.5307507514953613,0.6039161682128906,0.3426951467990875
1707164799142284500,10.718284423828125,1.6162718534469604,0.4808269441127777,0.3533852696418762
1707164799161244000,10.737243896484374,1.6449824571609497,0.31955865025520325,0.3955349326133728
1707164799180203500,10.75620361328125,1.6437608003616333,0.13049599528312683,0.4303542375564575
1707164799199163400,10.775163330078126,1.5701515674591064,-0.03810269013047218,0.45448338985443115
1707164799218122800,10.794122802734375,1.4140756130218506,-0.15263983607292175,0.4471530318260193
1707164799237082600,10.81308251953125,1.207297921180725,-0.1755472719669342,0.4120282828807831
1707164799256042200,10.832042236328125,0.9867756962776184,-0.14622575044631958,0.38667741417884827
1707164799275001600,10.851001708984375,0.7870228886604309,-0.14836378395557404,0.314289927482605
1707164799293961500,10.86996142578125,0.546953022480011,-0.1908188909292221,0.16096286475658417
1707164799312921000,10.888921142578125,0.2326631247997284,-0.2479347437620163,-0.08765909820795059
1707164799331880700,10.907880615234374,-0.095982126891613,-0.20914483070373535,-0.32070401310920715
1707164799350840300,10.92684033203125,-0.2294560819864273,-0.17310380935668945,-0.36682429909706116
1707164799369800000,10.945800048828126,-0.4154644012451172,-0.29222244024276733,-0.41325002908706665
1707164799388759600,10.964759521484375,-0.8931606411933899,-0.5115228891372681,-0.6041452884674072
1707164799407719200,10.98371923828125,-1.1992039680480957,-0.5625301003456116,-0.6346884965896606
1707164799426678800,11.0026787109375,-1.1927897930145264,-0.3304014801979065,-0.49418962001800537
1707164799445638400,11.021638427734375,-1.0183879137039185,0.15645773708820343,-0.3799578845500946
1707164799464598000,11.040597900390624,-0.7758746147155762,0.6017781496047974,-0.328645259141922
1707164799483557600,11.0595576171875,-0.7129555344581604,0.6759982109069824,-0.2981020212173462
1707164799502517200,11.078517333984376,-0.8922443389892578,0.29329144954681396,-0.3039052188396454
1707164799521476900,11.097476806640625,-1.0733658075332642,-0.37316203117370605,-0.27427828311920166
1707164799540436500,11.1164365234375,-1.10635244846344,-1.0539708137512207,-0.2932150959968567
1707164799559396000,11.13539599609375,-1.107574224472046,-1.555185317993164,-0.34788748621940613
1707164799578355700,11.154355712890625,-1.1558325290679932,-1.8013638257980347,-0.4260781705379486
1707164799597315300,11.1733154296875,-1.2425752878189087,-1.7341687679290771,-0.48991355299949646
1707164799616275000,11.19227490234375,-1.3091596364974976,-1.3948333263397217,-0.5659661889076233
1707164799635234600,11.211234619140624,-1.3091596364974976,-0.9214131832122803,-0.6557633280754089
1707164799654194400,11.2301943359375,-1.2358558177947998,-0.4986947476863861,-0.7247910499572754
1707164799673153800,11.24915380859375,-1.1124610900878906,-0.2115882933139801,-0.7394518256187439
1707164799692113700,11.26811376953125,-0.9945642352104187,-0.03260490670800209,-0.7012727856636047
1707164799711073300,11.2870732421875,-0.9139300584793091,0.02023489587008953,-0.6343830823898315
1707164799730033000,11.306032958984375,-0.8629228472709656,-0.07017309218645096,-0.5409207344055176
1707164799748992500,11.324992431640625,-0.7682388424873352,-0.14256057143211365,-0.4425715208053589
1707164799767952100,11.3439521484375,-0.6723330616950989,-0.15447242558002472,-0.3695732057094574
1707164799786911700,11.362911865234375,-0.5807033181190491,-0.1300378441810608,-0.2721402645111084
1707164799805871400,11.381871337890624,-0.4667770564556122,-0.08636100590229034,-0.16065743565559387
1707164799824831000,11.4008310546875,-0.3360520005226135,-0.03993528336286545,-0.07635809481143951
1707164799843790600,11.41979052734375,-0.2251800298690796,-0.18745912611484528,-0.03298669680953026
1707164799862750500,11.43875048828125,-0.17142392694950104,-0.6168970465660095,0.06750056147575378
1707164799881709800,11.457709716796876,-0.019929463043808937,-0.908890426158905,0.17776164412498474
1707164799900669700,11.476669677734375,0.14317142963409424,-0.7732784748077393,0.18661919236183167
1707164799919629300,11.49562939453125,0.05154171586036682,-0.23052509129047394,0.37232208251953125
1707164799938589000,11.5145888671875,-0.07276926934719086,0.26732969284057617,0.6087267398834229
1707164799957548500,11.533548583984375,0.00755945174023509,0.5419133901596069,0.5806269645690918
1707164799976508200,11.552508056640624,0.27542364597320557,0.5370265245437622,0.36651885509490967
1707164799995467800,11.5714677734375,0.5350412130355835,0.4209621846675873,0.19364413619041443
1707164800014427400,11.590427490234376,0.6639336347579956,0.43898269534111023,0.14813470840454102
1707164800033387300,11.60938720703125,0.7360156774520874,0.6940187215805054,0.19303326308727264
1707164800052346600,11.6283466796875,0.7784708142280579,1.1060470342636108,0.29626941680908203
1707164800071306500,11.647306396484375,0.7512873411178589,1.5168535709381104,0.41447174549102783
1707164800090266000,11.66626611328125,0.7069995999336243,1.792353630065918,0.5164861679077148
1707164800109225700,11.685225830078124,0.6926442980766296,1.8674899339675903,0.5659661889076233
1707164800128185300,11.704185302734375,0.7454841136932373,1.7666972875595093,0.5445859432220459
1707164800147145000,11.72314501953125,0.8868992924690247,1.563584804534912,0.4618137776851654
1707164800166104800,11.742104736328125,1.0970368385314941,1.3277909755706787,0.35705047845840454
1707164800185064400,11.761064453125,1.314504623413086,1.0693951845169067,0.27550002932548523
1707164800204024000,11.780024169921875,1.5081487894058228,0.7972549200057983,0.23945899307727814
1707164800222983700,11.798983642578126,1.658421516418457,0.5177842378616333,0.2364046722650528
1707164800241943300,11.817943359375,1.751883864402771,0.25266894698143005,0.2669478952884674
1707164800260903000,11.83690283203125,1.8047236204147339,0.037949975579977036,0.33719736337661743
1707164800279862800,11.85586279296875,1.7564653158187866,-0.06895136088132858,0.41874781250953674
1707164800298822400,11.874822509765625,1.5108976364135742,-0.13248129189014435,0.4468475878238678
1707164800317782000,11.893781982421874,1.122998595237732,-0.16302454471588135,0.3811796307563782
1707164800336741600,11.91274169921875,0.8377246856689453,-0.11782054603099823,0.3243691921234131
1707164800355701200,11.931701171875,0.7219657897949219,-0.01763872057199478,0.2715294063091278
1707164800374661000,11.9506611328125,0.5823832154273987,0.06971494108438492,0.0717766135931015
1707164800393620700,11.969620849609376,0.35361436009407043,0.16959133744239807,-0.13775001466274261
1707164800412580400,11.988580322265625,0.28092142939567566,0.25816673040390015,-0.12492185086011887
1707164800431540000,12.0075400390625,0.18990258872509003,0.11980585753917694,-0.08124501258134842
1707164800450499600,12.02649951171875,-0.3317759335041046,-0.3203222155570984,-0.12217295914888382
1707164800469459200,12.045459228515625,-0.7804561257362366,-0.6926442980766296,-0.1285870373249054
1707164800488419000,12.064419189453124,-0.8094722032546997,-0.5551997423171997,0.008552107028663158
1707164800507378700,12.083378662109375,-0.6369028687477112,-0.14805835485458374,0.11484257876873016
1707164800526338300,12.10233837890625,-0.4258491098880768,0.08162680268287659,0.007024944759905338
1707164800545298000,12.1212978515625,-0.48998990654945374,0.04650207981467247,-0.10659590363502502
1707164800564257500,12.140257568359376,-0.7508291602134705,-0.2216675579547882,-0.19211697578430176
1707164800583217400,12.159217529296875,-0.91362464427948,-0.6101775765419006,-0.2864955961704254
1707164800602177000,12.178177001953125,-0.9866229891777039,-0.9043089747428894,-0.3692677617073059
1707164800621136600,12.19713671875,-1.053207278251648,-1.047556757926941,-0.40958482027053833
1707164800640096500,12.216096435546875,-1.135979413986206,-1.0316742658615112,-0.44898560643196106
1707164800659055900,12.235055908203124,-1.228219985961914,-0.9076687097549438,-0.4935787320137024
1707164800678015700,12.254015625,-1.2596795558929443,-0.73204505443573,-0.5653553605079651
1707164800696975400,12.272975341796876,-1.188819169998169,-0.493196964263916,-0.6429351568222046
1707164800715935000,12.29193505859375,-1.1008546352386475,-0.24976733326911926,-0.6829468011856079
1707164800734894800,12.310894775390626,-1.0553452968597412,-0.0781143307685852,-0.6774490475654602
1707164800753854500,12.3298544921875,-1.050763726234436,0.031841326504945755,-0.6380482912063599
1707164800772814000,12.34881396484375,-1.0394628047943115,0.060551971197128296,-0.5714640021324158
1707164800791773700,12.367773681640625,-1.0006728172302246,-0.026801692321896553,-0.4786125421524048
1707164800810733600,12.386733642578125,-0.940808117389679,-0.16149736940860748,-0.4114174246788025
1707164800829693200,12.405693115234374,-0.8794162273406982,-0.3258199989795685,-0.3597993552684784
1707164800848652800,12.42465283203125,-0.8085559010505676,-0.36796966195106506,-0.3231474757194519
1707164800867612700,12.44361279296875,-0.7352521419525146,-0.33895358443260193,-0.2889390289783478
1707164800886572300,12.462572265625,-0.6787471175193787,-0.3157407343387604,-0.28496840596199036
1707164800905532000,12.481531982421876,-0.6414843797683716,-0.40492698550224304,-0.23793183267116547
1707164800924491500,12.500491455078125,-0.6347648501396179,-0.6532435417175293,-0.13713914155960083
1707164800943451400,12.519451416015626,-0.5104538798332214,-0.7595340013504028,-0.014049889519810677
1707164800962411000,12.538410888671875,-0.24258968234062195,-0.5417606830596924,0.0308486707508564
1707164800981370600,12.55737060546875,-0.16012293100357056,-0.12576179206371307,0.25350889563560486
1707164801000330200,12.576330322265624,-0.21326816082000732,0.5000692009925842,0.5271763205528259
1707164801019289900,12.595289794921875,-0.13019055128097534,1.1646900177001953,0.5418370366096497
1707164801038249700,12.614249755859374,0.10865757614374161,1.5168535709381104,0.4364628791809082
1707164801057209300,12.633209228515625,0.4024835228919983,1.4469095468521118,0.3656025826931
1707164801076169000,12.6521689453125,0.6575195789337158,1.2856413125991821,0.31642794609069824
1707164801095128600,12.671128662109375,0.8762091398239136,1.1423934698104858,0.2935205399990082
1707164801114088400,12.69008837890625,1.008461356163025,1.0861939191818237,0.3790415823459625
1707164801133048000,12.709048095703125,1.0374774932861328,1.0736712217330933,0.5146535634994507
1707164801152007700,12.728007568359375,1.0047961473464966,0.9970076680183411,0.6227766275405884
1707164801170967600,12.746967529296874,0.9815833568572998,0.8433752059936523,0.6725621223449707
1707164801189927200,12.76592724609375,1.0072396993637085,0.6931024789810181,0.6429351568222046
1707164801208887000,12.784886962890624,1.0964258909225464,0.5956695079803467,0.5647444725036621
1707164801227846700,12.8038466796875,1.2329541444778442,0.5678751468658447,0.4517345130443573
1707164801246806300,12.82280615234375,1.3655118942260742,0.5718457698822021,0.34177884459495544
1707164801265766000,12.841765869140625,1.4800490140914917,0.5513818264007568,0.2877173125743866
1707164801284725800,12.860725830078126,1.572900414466858,0.4515054225921631,0.27550002932548523
1707164801303685400,12.879685302734375,1.6086360216140747,0.26855143904685974,0.29504770040512085
1707164801322645000,12.89864501953125,1.5622103214263916,0.044669486582279205,0.3176496922969818
1707164801341604900,12.91760498046875,1.4339287281036377,-0.12698352336883545,0.3433060050010681
1707164801360564500,12.936564453125,1.2564724683761597,-0.1654679924249649,0.3582721948623657
1707164801379524000,12.955524169921874,1.1126137971878052,-0.0576503649353981,0.3347539007663727
1707164801398483700,12.974483642578125,0.9938006401062012,0.16012293100357056,0.28038692474365234
1707164801417443600,12.993443603515624,0.8233693838119507,0.39683303236961365,0.20219624042510986
1707164801436403200,13.0124033203125,0.6474403142929077,0.5287798047065735,0.07574722915887833
1707164801455362800,13.03136279296875,0.4006509482860565,0.5251146554946899,-0.10323614627122879
1707164801474322400,13.050322509765625,0.09338594973087311,0.41851872205734253,-0.2559523284435272
1707164801493282300,13.0692822265625,-0.06207913160324097,0.20838125050067902,-0.3042106628417969
1707164801512242000,13.088241943359375,-0.23678645491600037,-0.22838707268238068,-0.3964512348175049
1707164801531201500,13.107201416015625,-0.7569378018379211,-0.8197041749954224,-0.6078104376792908
1707164801550161400,13.126161376953124,-1.164995551109314,-1.0136537551879883,-0.5381718873977661
1707164801569121000,13.14512109375,-1.1167371273040771,-0.6291143894195557,-0.29596397280693054
1707164801588080600,13.16408056640625,-0.8812488317489624,-0.04024071618914604,-0.19914191961288452
1707164801607040300,13.183040283203125,-0.7780126333236694,0.4004982113838196,-0.23426663875579834
1707164801626000100,13.202000244140624,-0.9072105288505554,0.3748418986797333,-0.2467893660068512
1707164801644959700,13.220959716796875,-1.1005492210388184,-0.17432554066181183,-0.25442516803741455
1707164801663919400,13.23991943359375,-1.1680498123168945,-0.8178715705871582,-0.2733619809150696
1707164801682879200,13.258879150390625,-1.1549161672592163,-1.2424225807189941,-0.33047783374786377
1707164801701838800,13.2778388671875,-1.1494184732437134,-1.3392447233200073,-0.42913252115249634
1707164801720798500,13.296798583984375,-1.2239439487457275,-1.1660645008087158,-0.5229002237319946
1707164801739758000,13.315758056640625,-1.329928994178772,-0.8474985361099243,-0.6087267398834229
1707164801758718000,13.334718017578124,-1.3876557350158691,-0.5325977206230164,-0.6927206516265869
1707164801777677600,13.353677490234375,-1.3167953491210938,-0.23113596439361572,-0.7522799968719482
1707164801796637400,13.372637451171874,-1.1601085662841797,0.00038179047987796366,-0.7794634699821472
1707164801815597000,13.39159716796875,-1.0321323871612549,0.1634826809167862,-0.7754928469657898
1707164801834556700,13.410556640625,-0.9582177400588989,0.26244276762008667,-0.702799916267395
1707164801853516300,13.429516357421875,-0.9007964730262756,0.20105087757110596,-0.5769617557525635
1707164801872476200,13.44847607421875,-0.8000037670135498,0.05230529606342316,-0.43004879355430603
1707164801891435800,13.467435791015625,-0.6414843797683716,-0.18440480530261993,-0.3020726442337036
1707164801910395400,13.4863955078125,-0.5003746151924133,-0.4235583543777466,-0.22510367631912231
1707164801929355300,13.505355224609374,-0.3797288239002228,-0.5732202529907227,-0.1737910360097885
1707164801948315000,13.52431494140625,-0.2966512143611908,-0.5744419693946838,-0.12370011955499649
1707164801967274500,13.5432744140625,-0.261526495218277,-0.4672352075576782,-0.09468404203653336
1707164801986234000,13.562234130859375,-0.23892448842525482,-0.3557523787021637,-0.025961752980947495
1707164802005194000,13.581194091796876,-0.1931096315383911,-0.3615556061267853,0.09987638890743256
1707164802024153600,13.600153564453125,0.01611155830323696,-0.4119519293308258,0.20127993822097778
1707164802043113200,13.61911328125,0.2638172209262848,-0.35300347208976746,0.19853104650974274
1707164802062073000,13.638072998046875,0.27511823177337646,0.10545053333044052,0.41813695430755615
1707164802081032700,13.65703271484375,0.18012875318527222,0.5495492219924927,0.7012727856636047
1707164802099992300,13.675992431640625,0.26534438133239746,0.8607848286628723,0.6957749724388123
1707164802118952000,13.694951904296875,0.4883100390434265,0.8085559010505676,0.5296197533607483
1707164802137911800,13.713911865234374,0.7274636030197144,0.44325876235961914,0.38331764936447144
1707164802156871400,13.732871337890625,0.9168316721916199,0.24350596964359283,0.3130682110786438
1707164802175831000,13.7518310546875,1.0371720790863037,0.3522399067878723,0.2977965772151947
1707164802194791000,13.770791015625,1.0732131004333496,0.6989056468009949,0.3133736252784729
1707164802213750500,13.78975048828125,1.0332014560699463,1.1283435821533203,0.33047783374786377
1707164802232710100,13.808710205078125,0.9547052979469299,1.4276673793792725,0.32589635252952576
1707164802251669800,13.827669677734375,0.8902590870857239,1.5125775337219238,0.31490078568458557
1707164802270629600,13.846629638671875,0.8829286694526672,1.4618757963180542,0.29413139820098877
1707164802289589200,13.86558935546875,0.946458637714386,1.364748239517212,0.2556469142436981
1707164802308548900,13.884548828125,1.0704641342163086,1.2535709142684937,0.20280711352825165
1707164802327508500,13.903508544921875,1.2302052974700928,1.1494184732437134,0.15241076052188873
1707164802346468400,13.92246826171875,1.3762019872665405,1.0498474836349487,0.129197895526886
1707164802365428000,13.941427978515625,1.4742457866668701,0.8998801708221436,0.143553227186203
1707164802384387600,13.9603876953125,1.5228095054626465,0.6949350237846375,0.20127993822097778
1707164802403347500,13.979347412109375,1.5334997177124023,0.4808269441127777,0.2782489061355591
1707164802422307000,13.99830712890625,1.5280019044876099,0.2902371287345886,0.36774060130119324
1707164802441266700,14.0172666015625,1.4852412939071655,0.13141228258609772,0.40744680166244507
1707164802460226300,14.036226318359375,1.3276382684707642,0.0193185992538929,0.38881543278694153
1707164802479186200,14.055186279296874,1.1000910997390747,-0.03321577236056328,0.3484983444213867
1707164802498145800,14.074145751953125,0.8523854613304138,0.02023489587008953,0.33536475896835327
1707164802517105400,14.09310546875,0.6150645017623901,0.16714787483215332,0.30573782324790955
1707164802536065300,14.112065185546875,0.4113410711288452,0.28443390130996704,0.15485422313213348
1707164802555025000,14.13102490234375,0.19387321174144745,0.29940009117126465,-0.061391908675432205
1707164802573984500,14.149984619140625,-0.031841326504945755,0.20166173577308655,-0.23854269087314606
1707164802592944000,14.168944091796876,-0.22762349247932434,-0.09613484144210815,-0.27916520833969116
1707164802611904000,14.187904052734375,-0.5550470352172852,-0.5973494052886963,-0.4016436040401459
1707164802630863600,14.206863525390625,-1.0782526731491089,-0.899116575717926,-0.49021899700164795
1707164802649823200,14.2258232421875,-1.2636501789093018,-0.7262418866157532,-0.4114174246788025
1707164802668782800,14.244782958984375,-1.0834450721740723,-0.20731224119663239,-0.21197007596492767
1707164802687742700,14.26374267578125,-0.8635337352752686,0.28809911012649536,-0.12767073512077332
1707164802706702300,14.282702392578125,-0.8274927139282227,0.4811323583126068,-0.18814635276794434
1707164802725662000,14.301661865234376,-0.9921207427978516,0.25847217440605164,-0.22907429933547974
1707164802744621800,14.320621826171875,-1.1423934698104858,-0.2112828493118286,-0.26022839546203613
1707164802763581400,14.33958154296875,-1.1579705476760864,-0.6749292016029358,-0.34697118401527405
1707164802782541000,14.358541015625,-1.145447850227356,-0.94523686170578,-0.4526508152484894
1707164802801500700,14.377500732421876,-1.2117266654968262,-1.001436471939087,-0.5140427350997925
1707164802820460500,14.39646044921875,-1.3528363704681396,-0.8777363300323486,-0.5186241865158081
1707164802839420200,14.415420166015625,-1.4722604751586914,-0.6743183732032776,-0.5112938284873962
1707164802858379800,14.4343798828125,-1.5024982690811157,-0.49594584107398987,-0.5348120927810669
1707164802877339400,14.45333935546875,-1.4185043573379517,-0.3914879560470581,-0.5696313977241516
1707164802896299000,14.472299072265624,-1.274340271949768,-0.34750568866729736,-0.5803215503692627
1707164802915259000,14.4912587890625,-1.1604139804840088,-0.3206276595592499,-0.5433642268180847
1707164802934218500,14.510218505859376,-1.1020764112472534,-0.303523451089859,-0.4410443603992462
1707164802953178000,14.52917822265625,-1.0483202934265137,-0.3148244321346283,-0.2874118685722351
1707164802972138000,14.548137939453126,-0.9560797214508057,-0.2931387424468994,-0.13469567894935608
1707164802991097600,14.56709765625,-0.8146645426750183,-0.14897464215755463,-0.048563748598098755
1707164803010057200,14.58605712890625,-0.6872992515563965,-0.0319940410554409,-0.01435532234609127
1707164803029016800,14.605016845703124,-0.5660426020622253,-0.013057234697043896,0.000610864779446274
1707164803047976700,14.623976806640625,-0.4356229603290558,-0.04298960790038109,-0.025961752980947495
1707164803066936300,14.642936279296874,-0.2612210512161255,-0.20853395760059357,-0.05864302068948746
1707164803085896000,14.66189599609375,-0.18608468770980835,-0.5093848705291748,-0.03481929376721382
1707164803104855600,14.68085546875,-0.21662792563438416,-0.8713222742080688,0.061391908675432205
1707164803123815200,14.699815185546875,-0.07918334752321243,-0.8276454210281372,0.1386663019657135
1707164803142775000,14.718775146484376,0.13828451931476593,-0.43608108162879944,0.22968515753746033
1707164803161734700,14.737734619140625,0.14744748175144196,0.2954294681549072,0.5103775262832642
1707164803180694300,14.7566943359375,0.00603228947147727,0.9432515501976013,0.7412844300270081
1707164803199654000,14.77565380859375,0.08147408813238144,1.3342050313949585,0.7144063711166382
1707164803218613800,14.79461376953125,0.38904449343681335,1.3421462774276733,0.5500837564468384
1707164803237573400,14.813573486328124,0.7066941857337952,0.9829577803611755,0.3955349326133728
1707164803256533000,14.832532958984375,0.8890373110771179,0.7175370454788208,0.34574946761131287
1707164803275492900,14.851492919921874,1.00052011013031,0.7697659730911255,0.3909534513950348
1707164803294452200,14.8704521484375,1.0811543464660645,0.987844705581665,0.4825831651687622
1707164803313412000,14.889412109375,1.0811543464660645,1.1781290769577026,0.5415316224098206
1707164803332371700,14.908371826171875,1.0390046834945679,1.2187515497207642,0.5436696410179138
1707164803351331300,14.927331298828125,1.021289587020874,1.0559561252593994,0.5161807537078857
1707164803370291200,14.946291259765625,1.0451133251190186,0.7645736336708069,0.47433650493621826
1707164803389250800,14.965250732421875,1.1074215173721313,0.4664716124534607,0.41233372688293457
1707164803408210400,14.98421044921875,1.21523916721344,0.2658025324344635,0.328645259141922
1707164803427170000,15.003170166015625,1.3569597005844116,0.18272492289543152,0.25870123505592346
1707164803446130000,15.0221298828125,1.4858522415161133,0.14882193505764008,0.22846342623233795
1707164803465089500,15.041089599609375,1.546327829360962,0.11919499188661575,0.23548837006092072
1707164803484049200,15.060049072265626,1.5240312814712524,0.03825540840625763,0.2632827162742615
1707164803503008800,15.0790087890625,1.4156028032302856,-0.07750347256660461,0.2770271897315979
1707164803521968400,15.097968505859376,1.2579996585845947,-0.20578506588935852,0.2562577724456787
1707164803540928300,15.11692822265625,1.0496947765350342,-0.2583194375038147,0.2315177470445633
1707164803559888000,15.135887939453125,0.882317841053009,-0.1700494885444641,0.24404047429561615
1707164803578847500,15.154847412109374,0.7958804368972778,-0.033826638013124466,0.17134757339954376
1707164803597807400,15.173807373046875,0.649578332901001,0.04589121788740158,0.017104214057326317
1707164803616766700,15.1927666015625,0.37804892659187317,0.05780307948589325,-0.14630211889743805
1707164803635726600,15.2117265625,0.08697187155485153,0.040088001638650894,-0.25381430983543396
1707164803654686200,15.230686279296876,-0.19677481055259705,-0.023747367784380913,-0.2315177470445633
1707164803673645800,15.249645751953125,-0.5865065455436707,-0.21342088282108307,-0.3585776388645172
1707164803692605700,15.268605712890626,-1.1234567165374756,-0.4067595899105072,-0.535728394985199
1707164803711565300,15.2875654296875,-1.3171007633209229,-0.26015204191207886,-0.4172206521034241
1707164803730525000,15.30652490234375,-1.079779863357544,0.2395353466272354,-0.1795942485332489
1707164803749484500,15.325484619140624,-0.7300597429275513,0.7349466681480408,-0.14110976457595825
1707164803768444200,15.344444091796875,-0.5755109786987305,0.9172898530960083,-0.23396120965480804
1707164803787404000,15.363404052734374,-0.7410553097724915,0.6891318559646606,-0.32681265473365784
1707164803806363600,15.38236376953125,-0.9450841546058655,0.09292780607938766,-0.40347617864608765
1707164803825323300,15.4013232421875,-0.9551634192466736,-0.5325977206230164,-0.4560105502605438
1707164803844283000,15.420282958984375,-0.8983530402183533,-0.918664276599884,-0.5094612240791321
1707164803863242500,15.439242431640626,-0.9460004568099976,-1.0451133251190186,-0.5494728684425354
1707164803882202400,15.458202392578125,-1.10940682888031,-0.9030871987342834,-0.5534434914588928
1707164803901162000,15.477161865234375,-1.3174062967300415,-0.61201012134552,-0.5287034511566162
1707164803920121600,15.49612158203125,-1.4359140396118164,-0.3704131245613098,-0.5180133581161499
1707164803939081200,15.515081298828125,-1.392848014831543,-0.22991423308849335,-0.5161807537078857
1707164803958040800,15.534040771484374,-1.2523491382598877,-0.17951788008213043,-0.5216785073280334
1707164803977000400,15.55300048828125,-1.1026872396469116,-0.19753839075565338,-0.5030471682548523
1707164803995960300,15.571960205078126,-0.9808197617530823,-0.20456334948539734,-0.4428769648075104
1707164804014920000,15.590919921875,-0.8904117941856384,-0.170965775847435,-0.33719736337661743
1707164804033879600,15.609879638671876,-0.7719039916992188,-0.10865757614374161,-0.23732095956802368
1707164804052839200,15.628839111328125,-0.6408734917640686,-0.026801692321896553,-0.16707152128219604
1707164804071798800,15.647798828125,-0.5229766368865967,0.05810851231217384,-0.14996729791164398
1707164804090758700,15.666758544921874,-0.43348491191864014,0.09384410083293915,-0.1490510106086731
1707164804109718300,15.68571826171875,-0.34490951895713806,0.04405862092971802,-0.15638138353824615
1707164804128678000,15.704677978515624,-0.22151483595371246,-0.06559160351753235,-0.18600831925868988
1707164804147637500,15.723637451171875,-0.1628718227148056,-0.32612544298171997,-0.17776164412498474
1707164804166597000,15.74259716796875,-0.16959133744239807,-0.6895899772644043,-0.06017018109560013
1707164804185557000,15.761556884765625,-0.027259841561317444,-0.6630173325538635,0.07513637095689774
1707164804204516600,15.7805166015625,0.16699515283107758,-0.3771326541900635,0.21930044889450073
1707164804223476200,15.799476318359375,0.07750347256660461,0.1476002037525177,0.5033525824546814
1707164804242435800,15.818435791015625,-0.08681915700435638,0.6814960241317749,0.7021890878677368
1707164804261395500,15.8373955078125,0.09033162891864777,1.1643846035003662,0.665842592716217
1707164804280355300,15.856355224609375,0.47181668877601624,1.1793508529663086,0.46975502371788025
1707164804299315000,15.87531494140625,0.7659480571746826,0.8323796391487122,0.2816086709499359
1707164804318274600,15.894274658203125,0.9324087500572205,0.5593230724334717,0.19883649051189423
1707164804337234200,15.913234130859376,1.0448077917099,0.5132027864456177,0.21716243028640747
1707164804356193800,15.93219384765625,1.086957573890686,0.6729438900947571,0.2981020212173462
1707164804375153400,15.9511533203125,1.0319796800613403,0.9487493634223938,0.3851502537727356
1707164804394113300,15.97011328125,0.9400445222854614,1.1384228467941284,0.4572322964668274
1707164804413073000,15.989072998046876,0.8917862176895142,1.1591923236846924,0.509155809879303
1707164804432032500,16.008032470703125,0.9198859930038452,1.055039882659912,0.5137372612953186
1707164804450992000,16.0269921875,1.0240384340286255,0.886441171169281,0.4575377106666565
1707164804469951700,16.04595166015625,1.1914154291152954,0.6970730423927307,0.3607156574726105
1707164804488911600,16.06491162109375,1.3563488721847534,0.5535198450088501,0.27916520833969116
1707164804507871200,16.083871337890624,1.4666099548339844,0.4053851366043091,0.2467893660068512
1707164804526830800,16.102830810546877,1.5081487894058228,0.2047160565853119,0.26389357447624207
1707164804545790500,16.12179052734375,1.4992913007736206,-0.018860450014472008,0.29504770040512085
1707164804564750300,16.140750244140627,1.434539556503296,-0.24885104596614838,0.33658650517463684
1707164804583710000,16.1597099609375,1.2677735090255737,-0.4739547073841095,0.38270679116249084
1707164804602669600,16.178669677734376,1.0081559419631958,-0.5857429504394531,0.37262752652168274
1707164804621629200,16.197629150390625,0.7824414372444153,-0.593684196472168,0.31642794609069824
1707164804640588800,16.2165888671875,0.6156753301620483,-0.5408443808555603,0.27030766010284424
1707164804659548700,16.235548583984375,0.4650971591472626,-0.44585493206977844,0.20922118425369263
1707164804678508300,16.25450830078125,0.23388485610485077,-0.27633994817733765,0.034208428114652634
1707164804697468000,16.273468017578125,-0.010155626572668552,-0.05001455545425415,-0.07086031138896942
1707164804716427500,16.292427490234374,-0.11736239492893219,0.07918334752321243,-0.05406153202056885
1707164804735387100,16.31138720703125,-0.3281107544898987,-0.05581776797771454,-0.20372340083122253
1707164804754347000,16.330346923828124,-0.745942234992981,-0.2787834107875824,-0.3906480371952057
1707164804773306600,16.349306640625,-0.8934661149978638,-0.31665703654289246,-0.31001389026641846
1707164804792266200,16.368266357421874,-0.7083740830421448,-0.04818195849657059,-0.16218459606170654
1707164804811226000,16.38722607421875,-0.5776489973068237,0.3571268320083618,-0.15668681263923645
1707164804830185700,16.406185791015623,-0.6103302836418152,0.516257107257843,-0.22815799713134766
1707164804849145300,16.425145263671876,-0.792978823184967,0.261526495218277,-0.27488914132118225
1707164804868105000,16.44410498046875,-0.9542471170425415,-0.33315038681030273,-0.3396408259868622
1707164804887064600,16.463064697265626,-0.9924262166023254,-0.9165262579917908,-0.41935867071151733
1707164804906024400,16.4820244140625,-0.9713513851165771,-1.2851831912994385,-0.49113526940345764
1707164804924984000,16.500984130859376,-1.015639066696167,-1.3484076261520386,-0.5290089249610901
1707164804943943700,16.519943603515625,-1.1283435821533203,-1.0884846448898315,-0.5574141144752502
1707164804962903300,16.5389033203125,-1.2444078922271729,-0.6578249931335449,-0.583375871181488
1707164804981863200,16.55786328125,-1.2688424587249756,-0.22319471836090088,-0.6145299673080444
1707164805000822800,16.57682275390625,-1.1790454387664795,0.0965929925441742,-0.638353705406189
1707164805019782400,16.595782470703124,-1.0574833154678345,0.27435463666915894,-0.6395754218101501
1707164805038742000,16.614741943359373,-0.9652426838874817,0.3000109791755676,-0.5998691916465759
1707164805057702000,16.633701904296874,-0.8705586791038513,0.229150652885437,-0.5006036758422852
1707164805076661500,16.65266162109375,-0.746858537197113,0.10025817900896072,-0.35766133666038513
1707164805095621000,16.67162109375,-0.6372083425521851,-0.0295505840331316,-0.2052505612373352
1707164805114581000,16.6905810546875,-0.553214430809021,-0.11782054603099823,-0.07910698652267456
1707164805133540600,16.70954052734375,-0.5061778426170349,-0.093691386282444,-0.024740023538470268
1707164805152500200,16.728500244140626,-0.4151589870452881,-0.03779725730419159,0.001832594396546483
1707164805171459800,16.7474599609375,-0.2700785994529724,-0.010919207707047462,0.006414080038666725
1707164805190419700,16.766419677734376,-0.18455752730369568,-0.11323905736207962,-0.03756818547844887
1707164805209379300,16.78537939453125,-0.17539454996585846,-0.3145190179347992,-0.060781046748161316
1707164805228339000,16.8043388671875,-0.17753258347511292,-0.547563910484314,-0.007330377586185932
1707164805247298800,16.823298828125,-0.028787001967430115,-0.5191587209701538,0.051618073135614395
1707164805266258400,16.842258544921876,0.08910989761352539,-0.21983496844768524,0.14721840620040894
1707164805285218300,16.86121826171875,0.013973532244563103,0.20563235878944397,0.401949018239975
1707164805304178000,16.880177978515626,0.004810560029000044,0.6063596606254578,0.5222893953323364
1707164805323137500,16.899137451171875,0.1703549176454544,0.8510109782218933,0.4147771894931793
1707164805342097200,16.91809716796875,0.4128682315349579,0.7502183318138123,0.26511532068252563
1707164805361057000,16.93705712890625,0.6880627870559692,0.4915170669555664,0.18112140893936157
1707164805380016600,16.9560166015625,0.9055306911468506,0.3369682729244232,0.1536324918270111
1707164805398976300,16.974976318359374,1.031063437461853,0.40233081579208374,0.20830489695072174
1707164805417936100,16.99393603515625,1.0619120597839355,0.617660641670227,0.3283398151397705
1707164805436895700,17.012895751953124,0.9650899767875671,0.8543707728385925,0.41813695430755615
1707164805455855400,17.03185546875,0.8087086081504822,0.9808197617530823,0.45387253165245056
1707164805474815200,17.050815185546874,0.7057778835296631,0.9902881383895874,0.46395179629325867
1707164805493774800,17.06977490234375,0.7069995999336243,0.9337831735610962,0.4407389461994171
1707164805512734500,17.088734375,0.8111520409584045,0.8693369626998901,0.37323838472366333
1707164805531694300,17.1076943359375,0.9831104874610901,0.8171079754829407,0.2813032269477844
1707164805550654000,17.126654052734374,1.1740057468414307,0.7639627456665039,0.1954767256975174
1707164805569613800,17.14561376953125,1.3239730596542358,0.6775254011154175,0.14630211889743805
1707164805588573400,17.164573486328123,1.4091887474060059,0.5361102223396301,0.15210533142089844
1707164805607533000,17.183532958984376,1.4617230892181396,0.35132360458374023,0.19089524447917938
1707164805626493000,17.202492919921873,1.4650827646255493,0.1372154951095581,0.23273947834968567
1707164805645452500,17.22145263671875,1.3755911588668823,-0.08972076326608658,0.26939135789871216
1707164805664412200,17.240412109375,1.21523916721344,-0.30596688389778137,0.29535311460494995
1707164805683372000,17.2593720703125,1.068937063217163,-0.4290561378002167,0.32589635252952576
1707164805702331600,17.27833154296875,0.928438127040863,-0.47639816999435425,0.34208428859710693
1707164805721291500,17.29729150390625,0.6758455038070679,-0.5185478329658508,0.2565632164478302
1707164805740251100,17.316251220703126,0.3004691004753113,-0.5390118360519409,0.07605266571044922
1707164805759211000,17.3352109375,0.04543306678533554,-0.4635699987411499,-0.07299833744764328
1707164805778170600,17.354170654296876,-0.00954476185142994,-0.31726789474487305,-0.05283980444073677
1707164805797130200,17.373130126953125,-0.20013457536697388,-0.24090979993343353,-0.1230892539024353
1707164805816090000,17.392090087890626,-0.700738251209259,-0.2320522516965866,-0.34086254239082336
1707164805835049700,17.4110498046875,-0.941724419593811,-0.05948295816779137,-0.374765545129776
1707164805854009600,17.430009521484376,-0.829936146736145,0.36109745502471924,-0.1893680840730667
1707164805872969200,17.44896923828125,-0.533666729927063,0.8204677700996399,-0.09834922850131989
1707164805891928800,17.4679287109375,-0.35559967160224915,1.0287725925445557,-0.16523891687393188
1707164805910888700,17.486888671875,-0.48449212312698364,0.8378773927688599,-0.2666424810886383
1707164805929848300,17.505848388671875,-0.7480802536010742,0.3482692837715149,-0.3182605504989624
1707164805948808200,17.52480810546875,-0.8671988844871521,-0.18471023440361023,-0.3222311735153198
1707164805967767800,17.543767822265625,-0.8671988844871521,-0.5405389666557312,-0.3445277214050293
1707164805986727700,17.562727783203126,-0.8891900181770325,-0.6721803545951843,-0.3912588953971863
1707164806005687300,17.581687255859375,-0.9881501197814941,-0.5863538384437561,-0.41355544328689575
1707164806024647000,17.60064697265625,-1.1423934698104858,-0.4015672206878662,-0.41355544328689575
1707164806043606800,17.619606689453125,-1.2236385345458984,-0.24029892683029175,-0.41416633129119873
1707164806062566400,17.63856640625,-1.1891247034072876,-0.15935935080051422,-0.4147771894931793
1707164806081526300,17.6575263671875,-1.091080904006958,-0.13706278800964355,-0.41813695430755615
1707164806100486000,17.67648583984375,-0.9930370450019836,-0.14378230273723602,-0.40286532044410706
1707164806119445800,17.69544580078125,-0.9359211921691895,-0.170965775847435,-0.33750277757644653
1707164806138405400,17.7144052734375,-0.894687831401825,-0.21983496844768524,-0.21716243028640747
1707164806157365200,17.733365234375,-0.85834139585495,-0.3093266487121582,-0.11728604137897491
1707164806176325000,17.7523251953125,-0.8076395988464355,-0.4235583543777466,-0.04276053607463837
1707164806195284700,17.77128466796875,-0.7071523666381836,-0.4128682315349579,-0.028099779039621353
1707164806214244600,17.79024462890625,-0.5241983532905579,-0.2274707704782486,-0.06108647957444191
1707164806233204200,17.809204345703126,-0.28321218490600586,-0.03993528336286545,-0.12400554865598679
1707164806252164000,17.8281640625,-0.17997603118419647,-0.0005345066892914474,-0.18203771114349365
1707164806271123700,17.847123779296876,-0.2929860055446625,-0.16363540291786194,-0.18600831925868988
1707164806290083600,17.86608349609375,-0.44264790415763855,-0.42019861936569214,-0.12034036219120026
1707164806309043200,17.885043212890626,-0.2767980992794037,-0.3807978332042694,-0.023518294095993042
1707164806328003000,17.904003173828126,0.032910339534282684,-0.13278673589229584,0.053145237267017365
1707164806346962700,17.922962646484375,0.08055779337882996,0.23861905932426453,0.32192572951316833
1707164806365922600,17.941922607421876,-0.05261072888970375,0.757243275642395,0.6001746654510498
1707164806384882200,17.960882080078125,-0.04283689334988594,1.0330487489700317,0.6068941354751587
1707164806403842000,17.979842041015626,0.15722131729125977,1.0583995580673218,0.4477638900279999
1707164806422802000,17.998802001953123,0.4544070363044739,0.7703768610954285,0.30146175622940063
1707164806441761500,18.017761474609376,0.6837867498397827,0.533666729927063,0.21777328848838806
1707164806460721400,18.036721435546873,0.8526908755302429,0.5962803959846497,0.21410810947418213
1707164806479681000,18.055680908203126,0.9507346749305725,0.8143591284751892,0.2883281707763672
1707164806498641000,18.074640869140627,0.9119447469711304,1.0015891790390015,0.35094180703163147
1707164806517600500,18.0936005859375,0.789466381072998,1.0455714464187622,0.37323838472366333
1707164806536560400,18.112560302734376,0.6975312232971191,0.9194278717041016,0.3860665261745453
1707164806555520300,18.131520263671874,0.696309506893158,0.7260891199111938,0.38667741417884827
1707164806574480000,18.15047998046875,0.8007673621177673,0.581008791923523,0.35735589265823364
1707164806593439700,18.169439697265624,0.9797507524490356,0.5232820510864258,0.3072649836540222
1707164806612399600,18.188399658203124,1.169424295425415,0.5278635025024414,0.2660316228866577
1707164806631359200,18.207359130859373,1.3169480562210083,0.523892879486084,0.2522871494293213
1707164806650319000,18.226319091796874,1.3762019872665405,0.42737627029418945,0.25320345163345337
1707164806669278700,18.24527880859375,1.3783400058746338,0.24289511144161224,0.3081812858581543
1707164806688238600,18.264238525390624,1.3792563676834106,-0.004505127668380737,0.38698282837867737
1707164806707198500,18.283198486328125,1.3096177577972412,-0.27145302295684814,0.4373791813850403
1707164806726158000,18.302157958984374,1.16789710521698,-0.4855611324310303,0.42913252115249634
1707164806745118000,18.321117919921875,0.9797507524490356,-0.5683333277702332,0.406530499458313
1707164806764077800,18.340077880859376,0.8038216829299927,-0.5188532471656799,0.39339691400527954
1707164806783037400,18.359037353515625,0.6572141647338867,-0.43455392122268677,0.3454440236091614
1707164806801997300,18.377997314453125,0.47761988639831543,-0.3502545952796936,0.18600831925868988
1707164806820957200,18.396957275390626,0.18257221579551697,-0.30199626088142395,-0.057726722210645676
1707164806839917000,18.4159169921875,-0.0657443255186081,-0.23968806862831116,-0.23243404924869537
1707164806858876700,18.434876708984376,-0.11552979797124863,-0.18929173052310944,-0.2605338394641876
1707164806877836500,18.45383642578125,-0.21754421293735504,-0.21464261412620544,-0.34116798639297485
1707164806896796400,18.47279638671875,-0.5501601099967957,-0.39484772086143494,-0.4841103255748749
1707164806915756000,18.491756103515623,-0.7554106712341309,-0.45074185729026794,-0.4917461574077606
1707164806934716000,18.5107158203125,-0.7526617646217346,-0.2112828493118286,-0.39339691400527954
1707164806953675800,18.52967578125,-0.674165666103363,0.2138790339231491,-0.30482152104377747
1707164806972635400,18.548635498046874,-0.5788707137107849,0.5935314893722534,-0.272751122713089
1707164806991595300,18.56759521484375,-0.5956695079803467,0.7722094655036926,-0.2929096519947052
1707164807010555100,18.58655517578125,-0.6839394569396973,0.7450259327888489,-0.34574946761131287
1707164807029514800,18.6055146484375,-0.7493020296096802,0.5388590693473816,-0.37720900774002075
1707164807048474600,18.624474609375,-0.7932842969894409,0.1735619604587555,-0.4068359434604645
1707164807067434500,18.6434345703125,-0.8290198445320129,-0.2787834107875824,-0.4318813979625702
1707164807086394000,18.66239404296875,-0.9072105288505554,-0.6358338594436646,-0.42852163314819336
1707164807105354200,18.681354248046876,-0.9896773099899292,-0.8123738169670105,-0.4046979248523712
1707164807124313900,18.70031396484375,-1.0907753705978394,-0.8273400068283081,-0.36224281787872314
1707164807143273700,18.719273681640626,-1.1420880556106567,-0.7586176991462708,-0.3228420317173004
1707164807162233600,18.738233642578123,-1.1265109777450562,-0.6520217657089233,-0.2788597643375397
1707164807181193200,18.757193115234376,-1.0776418447494507,-0.5185478329658508,-0.2406807243824005
1707164807200153000,18.776153076171877,-1.033964991569519,-0.38293585181236267,-0.1747073233127594
1707164807219113000,18.795113037109374,-0.9927316308021545,-0.24396412074565887,-0.04153880476951599
1707164807238072800,18.81407275390625,-0.9478330612182617,-0.041157014667987823,0.09682206809520721
1707164807257032400,18.833032470703124,-0.8907172083854675,0.14026983082294464,0.19608759880065918
1707164807275992300,18.851992431640625,-0.7966440320014954,0.20196716487407684,0.23854269087314606
1707164807294952200,18.8709521484375,-0.6204095482826233,0.1421024203300476,0.2507599890232086
1707164807313912000,18.889912109375,-0.3934732675552368,-0.014278964139521122,0.18081597983837128
1707164807332872000,18.908871826171875,-0.17692171037197113,-0.26595523953437805,0.022907428443431854
1707164807351831600,18.92783154296875,-0.1265253722667694,-0.5771908760070801,-0.04734202101826668
1707164807370791400,18.94679150390625,-0.21754421293735504,-0.8432224988937378,-0.010079269297420979
1707164807389751300,18.965751220703126,-0.09934188425540924,-0.8927025198936462,-0.014966187067329884
1707164807408711200,18.984711181640623,0.1245400533080101,-0.5426769852638245,-0.053145237267017365
1707164807427670800,19.0036708984375,0.011224640533328056,-0.022525638341903687,0.18814635276794434
1707164807446631000,19.022630859375,-0.203799769282341,0.5916988849639893,0.32131487131118774
1707164807465590500,19.041590576171874,-0.13324488699436188,1.2437970638275146,0.25320345163345337
1707164807484550400,19.06055029296875,0.11873684078454971,1.5006656646728516,0.1493564397096634
1707164807503510300,19.07951025390625,0.4174497127532959,1.349782109260559,0.03940077871084213
1707164807522470100,19.09847021484375,0.6416370868682861,1.0706168413162231,-0.028405211865901947
1707164807541430000,19.117429931640626,0.8224530816078186,0.8769727349281311,-0.01740964688360691
1707164807560389600,19.1363896484375,0.9669225811958313,0.727921724319458,0.08765909820795059
1707164807579349500,19.155349609375,1.0176243782043457,0.6020836234092712,0.19792018830776215
1707164807598309400,19.174309326171876,0.9779181480407715,0.4808269441127777,0.2528980076313019
1707164807617269200,19.193269287109374,0.9082795977592468,0.3574322462081909,0.2684750556945801
1707164807636229000,19.21222900390625,0.8844558596611023,0.2920697331428528,0.2605338394641876
1707164807655189000,19.23118896484375,0.936073899269104,0.3009272515773773,0.22937972843647003
1707164807674148600,19.250148681640624,1.0521382093429565,0.37667450308799744,0.19394956529140472
1707164807693108500,19.2691083984375,1.2014946937561035,0.4612792730331421,0.1585194170475006
1707164807712068400,19.288068359375,1.3178644180297852,0.4658607542514801,0.14172062277793884
1707164807731028200,19.3070283203125,1.3768128156661987,0.3623191714286804,0.16768237948417664
1707164807749988000,19.325988037109376,1.3951387405395508,0.16439898312091827,0.2254091054201126
1707164807768948000,19.344947998046877,1.3737585544586182,-0.07444914430379868,0.26450446248054504
1707164807787907800,19.363907958984374,1.2775473594665527,-0.2925278842449188,0.2828303873538971
1707164807806867500,19.382867431640626,1.1171953678131104,-0.4724275469779968,0.2770271897315979
1707164807825827300,19.401827392578124,0.9592867493629456,-0.5683333277702332,0.2577849328517914
1707164807844787200,19.420787109375,0.8322269320487976,-0.5448150038719177,0.21227550506591797
1707164807863747000,19.4397470703125,0.6819541454315186,-0.4486038088798523,0.10629047453403473
1707164807882707000,19.45870703125,0.4525744318962097,-0.3297906219959259,-0.08155044913291931
1707164807901666800,19.477666748046875,0.145614892244339,-0.15935935080051422,-0.24526220560073853
1707164807920626700,19.496626708984376,-0.02328922040760517,0.027870705351233482,-0.17195843160152435
1707164807939586600,19.515586669921873,-0.18119776248931885,0.011988221667706966,-0.1539379209280014
1707164807958546400,19.53454638671875,-0.7212022542953491,-0.13858994841575623,-0.36835145950317383
1707164807977506300,19.55350634765625,-1.0681734085083008,-0.1193477064371109,-0.3173442482948303
1707164807996466000,19.5724658203125,-0.8879683017730713,0.28901541233062744,-0.08552107214927673
1707164808015425800,19.59142578125,-0.535193920135498,0.664391815662384,-0.06872228533029556
1707164808034385700,19.6103857421875,-0.377285361289978,0.7123447060585022,-0.22754712402820587
1707164808053345500,19.629345458984375,-0.6201041340827942,0.3730092942714691,-0.3179551064968109
1707164808072305400,19.648305419921876,-0.9438624382019043,-0.31115925312042236,-0.3857611119747162
1707164808091265300,19.667265380859376,-1.035186767578125,-0.9330195784568787,-0.47922343015670776
1707164808110225200,19.68622509765625,-1.025718331336975,-1.222569465637207,-0.5473348498344421
1707164808129185000,19.70518505859375,-1.0877211093902588,-1.2552508115768433,-0.5977311730384827
1707164808148144600,19.72414453125,-1.2123374938964844,-1.0386991500854492,-0.618806004524231
1707164808167104500,19.7431044921875,-1.3183225393295288,-0.6792052984237671,-0.6414080262184143
1707164808186064400,19.762064453125,-1.3439788818359375,-0.3139081299304962,-0.676227331161499
1707164808205024300,19.781024169921874,-1.2929716110229492,0.002825249684974551,-0.7192932963371277
1707164808223984000,19.799984130859375,-1.2120320796966553,0.17692171037197113,-0.7141009569168091
1707164808242944000,19.818944091796876,-1.1054362058639526,0.22212570905685425,-0.6456840634346008
1707164808261904000,19.83790380859375,-1.0012837648391724,0.16592614352703094,-0.5296197533607483
1707164808280863500,19.856863525390626,-0.8824705481529236,-0.025274530053138733,-0.40286532044410706
1707164808299823600,19.87582373046875,-0.7593812942504883,-0.24610215425491333,-0.27550002932548523
1707164808318783200,19.894783203125,-0.6570614576339722,-0.37438374757766724,-0.1744018942117691
1707164808337743000,19.9137431640625,-0.5822305083274841,-0.33834272623062134,-0.12767073512077332
1707164808356703000,19.932702880859374,-0.4673879146575928,-0.1660788655281067,-0.09162971377372742
1707164808375662800,19.951662841796875,-0.30337071418762207,0.05199986323714256,-0.08093958348035812
1707164808394622700,19.970622802734376,-0.21051926910877228,0.06818778067827225,-0.08613193035125732
1707164808413582600,19.98958251953125,-0.2761872410774231,-0.1599702090024948,-0.0308486707508564
1707164808432542500,20.00854248046875,-0.3055087625980377,-0.49258607625961304,0.04428769648075104
1707164808451502300,20.02750244140625,-0.07429642975330353,-0.5799397230148315,0.11698060482740402
1707164808470462000,20.0464619140625,0.1755472719669342,-0.38415759801864624,0.2263254076242447
1707164808489421800,20.065421875,0.18776455521583557,-0.0191658828407526,0.5057960152626038
1707164808508381700,20.084381591796873,0.013057234697043896,0.5229766368865967,0.7211259007453918
1707164808527341600,20.103341552734374,0.07108938694000244,0.9970076680183411,0.6582068204879761
1707164808546301400,20.122301513671875,0.4177551567554474,1.2202787399291992,0.5430588126182556
1707164808565261300,20.14126123046875,0.7485384345054626,1.0767254829406738,0.4874700903892517
1707164808584221200,20.16022119140625,0.9430988430976868,0.9142354726791382,0.48502662777900696
1707164808603181000,20.17918115234375,1.0747401714324951,0.8898009061813354,0.5500837564468384
1707164808622140700,20.198140625,1.103450894355774,0.8937715291976929,0.6163625717163086
1707164808641100800,20.217100830078124,1.010293960571289,0.849483847618103,0.6194168925285339
1707164808660060400,20.236060302734376,0.9122501611709595,0.7184533476829529,0.5943714380264282
1707164808679020300,20.255020263671874,0.8902590870857239,0.5312232971191406,0.5711585879325867
1707164808697980200,20.273980224609375,0.9519563913345337,0.3836994469165802,0.5369501113891602
1707164808716940000,20.29293994140625,1.0845140218734741,0.35987570881843567,0.4786125421524048
1707164808735900000,20.31189990234375,1.2448660135269165,0.4408152997493744,0.3995055556297302
1707164808754859500,20.330859619140625,1.3871976137161255,0.5632936954498291,0.33322674036026
1707164808773819600,20.349819580078126,1.4632502794265747,0.626518189907074,0.2987128794193268
1707164808792779300,20.368779296875,1.4974586963653564,0.6017781496047974,0.3075704276561737
1707164808811739100,20.3877392578125,1.5622103214263916,0.5214494466781616,0.3555232882499695
1707164808830699000,20.406698974609377,1.5906155109405518,0.4337903559207916,0.41263917088508606
1707164808849659000,20.425658935546874,1.4831032752990723,0.3161988854408264,0.42332929372787476
1707164808868618800,20.44461865234375,1.2906808853149414,0.16378812491893768,0.3808741867542267
1707164808887578400,20.463578369140624,1.0881792306900024,0.026038112118840218,0.3173442482948303
1707164808906538500,20.48253857421875,0.8963677287101746,-0.09918916970491409,0.205861434340477
1707164808925498000,20.501498046875,0.6205622553825378,-0.2430478185415268,0.03848448023200035
1707164808944458000,20.5204580078125,0.24946190416812897,-0.2952767610549927,-0.2098320573568344
1707164808963417900,20.53941796875,-0.04192059487104416,-0.1816559135913849,-0.3237583339214325
1707164808982377700,20.558377685546876,-0.15523600578308105,-0.13767364621162415,-0.20463970303535461
1707164809001337600,20.577337646484374,-0.4392881393432617,-0.28153231739997864,-0.3433060050010681
1707164809020297500,20.59629736328125,-0.9753220081329346,-0.5298488140106201,-0.5427533388137817
1707164809039257300,20.61525732421875,-1.1301761865615845,-0.5411498546600342,-0.4618137776851654
1707164809058217000,20.634217041015624,-0.9441678524017334,-0.13339759409427643,-0.2208276242017746
1707164809077176800,20.6531767578125,-0.719369649887085,0.38186684250831604,-0.18417572975158691
1707164809096136700,20.67213671875,-0.7691551446914673,0.617355227470398,-0.29504770040512085
1707164809115096600,20.6910966796875,-1.0248019695281982,0.45730865001678467,-0.37812530994415283
1707164809134056400,20.710056396484376,-1.1646900177001953,0.09445496648550034,-0.48044514656066895
1707164809153016300,20.729016357421877,-1.1546107530593872,-0.2882518172264099,-0.6169734001159668
1707164809171976000,20.747975830078126,-1.1228457689285278,-0.6187296509742737,-0.7458658814430237
1707164809190935800,20.766935791015626,-1.1872920989990234,-0.7460949420928955,-0.8115338683128357
1707164809209895700,20.785895751953124,-1.3067160844802856,-0.6605738997459412,-0.8365793228149414
1707164809228855600,20.80485546875,-1.3742166757583618,-0.4650971591472626,-0.8374956250190735
1707164809247815400,20.8238154296875,-1.3879611492156982,-0.252210795879364,-0.8271108865737915
1707164809266775000,20.842775146484374,-1.3558907508850098,-0.124845489859581,-0.8057306408882141
1707164809285735000,20.86173486328125,-1.300607442855835,-0.12698352336883545,-0.7559451460838318
1707164809304694800,20.88069482421875,-1.229136347770691,-0.19020801782608032,-0.6609556674957275
1707164809323654700,20.899654541015625,-1.1310925483703613,-0.24426954984664917,-0.5152644515037537
1707164809342614500,20.918614501953126,-0.9835686683654785,-0.2690095901489258,-0.34636032581329346
1707164809361574400,20.937574462890623,-0.8332959413528442,-0.2745073735713959,-0.24434591829776764
1707164809380534000,20.956533935546876,-0.7502183318138123,-0.2995528280735016,-0.19364413619041443
1707164809399494000,20.975493896484377,-0.7071523666381836,-0.3264308571815491,-0.14294235408306122
1707164809418453800,20.994453857421874,-0.6088030934333801,-0.29680392146110535,-0.15699224174022675
1707164809437413600,21.01341357421875,-0.39072439074516296,-0.19417864084243774,-0.22235478460788727
1707164809456373500,21.03237353515625,-0.20074543356895447,-0.22411102056503296,-0.2000582218170166
1707164809475333400,21.05133349609375,-0.20227259397506714,-0.53931725025177,-0.07360920310020447
1707164809494293000,21.07029296875,-0.17050762474536896,-0.7036398649215698,0.0360410213470459
1707164809513252900,21.0892529296875,0.02496909722685814,-0.47517645359039307,0.07849612087011337
1707164809532212700,21.108212646484375,0.10651954263448715,-0.03260490670800209,0.3243691921234131
1707164809551172600,21.127172607421876,0.029245151206851006,0.5125918984413147,0.6514872908592224
1707164809570132200,21.14613232421875,0.07567087560892105,0.8253546953201294,0.7785471677780151
1707164809589092000,21.165092041015626,0.36949682235717773,0.8901063203811646,0.6679806113243103
1707164809608052000,21.184052001953123,0.6996692419052124,0.6341540217399597,0.572685718536377
1707164809627011800,21.20301171875,0.9018654823303223,0.404468834400177,0.5983420610427856
1707164809645971700,21.2219716796875,0.9705877900123596,0.4924333691596985,0.6918043494224548
1707164809664931300,21.240931396484374,0.9421825408935547,0.8030580878257751,0.795651376247406
1707164809683891200,21.25989111328125,0.871016800403595,1.1197915077209473,0.8365793228149414
1707164809702851000,21.27885107421875,0.8221476078033447,1.293887972831726,0.7993165850639343
1707164809721811000,21.29781103515625,0.8184824585914612,1.2239439487457275,0.7147117853164673
1707164809740770600,21.3167705078125,0.8609375357627869,0.9820414781570435,0.5888736248016357
1707164809759730400,21.33573046875,0.9498183727264404,0.7355575561523438,0.4376846253871918
1707164809778690300,21.354690185546875,1.0780999660491943,0.5541307330131531,0.2926042377948761
1707164809797650200,21.373650146484376,1.21523916721344,0.409050315618515,0.17531819641590118
1707164809816610000,21.392610107421874,1.3316088914871216,0.2963457703590393,0.09865466505289078
1707164809835569700,21.411569580078126,1.4021637439727783,0.21296273171901703,0.07544180005788803
1707164809854529500,21.430529541015623,1.4403427839279175,0.17081306874752045,0.09682206809520721
1707164809873489400,21.449489501953124,1.4776055812835693,0.15401428937911987,0.17715078592300415
1707164809892449300,21.46844921875,1.4122430086135864,0.17172935605049133,0.24404047429561615
1707164809911409000,21.487408935546874,1.2656354904174805,0.13324488699436188,0.24495677649974823
1707164809930368800,21.50636865234375,1.0762673616409302,0.005268708802759647,0.23854269087314606
1707164809949328600,21.52532861328125,0.8554397821426392,-0.15325069427490234,0.18295399844646454
1707164809968288500,21.54428857421875,0.5551997423171997,-0.3441459536552429,0.009773836471140385
1707164809987248400,21.563248291015626,0.14286600053310394,-0.5411498546600342,-0.15271618962287903
1707164810006208000,21.5822080078125,-0.10361793637275696,-0.4287507236003876,-0.21410810947418213
1707164810025168000,21.60116796875,-0.17020219564437866,-0.24671301245689392,-0.1899789422750473
1707164810044127700,21.620127685546876,-0.45303258299827576,-0.3502545952796936,-0.2098320573568344
1707164810063087400,21.63908740234375,-0.9890664219856262,-0.5188532471656799,-0.3026835024356842
1707164810082047200,21.658047119140626,-1.2108103036880493,-0.31726789474487305,-0.17531819641590118
1707164810101007000,21.677007080078123,-0.9634101390838623,0.29940009117126465,0.07788526266813278
1707164810119967000,21.695967041015624,-0.6472876071929932,0.8497892618179321,0.13500112295150757
1707164810138926800,21.7149267578125,-0.5602393746376038,0.9197332859039307,0.014660755172371864
1707164810157886500,21.733886474609374,-0.7841212749481201,0.5898662805557251,-0.08643736690282822
1707164810176846300,21.752846435546875,-1.0138064622879028,-0.15783219039440155,-0.17623448371887207
1707164810195806200,21.77180615234375,-1.0626755952835083,-0.9699769020080566,-0.282524973154068
1707164810214765800,21.790765869140625,-0.9795980453491211,-1.4400373697280884,-0.42852163314819336
1707164810233725700,21.8097255859375,-0.9799034595489502,-1.5802308320999146,-0.5433642268180847
1707164810252685600,21.828685546875,-1.107879638671875,-1.3930007219314575,-0.6185005903244019
1707164810271645200,21.847645263671875,-1.274340271949768,-0.9892191290855408,-0.7012727856636047
1707164810290605000,21.86660498046875,-1.3241257667541504,-0.5292379856109619,-0.7770199775695801
1707164810309565000,21.88556494140625,-1.2132538557052612,-0.1862373948097229,-0.8127555847167969
1707164810328524800,21.90452490234375,-1.0318269729614258,-0.024663666263222694,-0.8148936033248901
1707164810347484400,21.923484375,-0.8992693424224854,0.006185005884617567,-0.7742711305618286
1707164810366444300,21.9424443359375,-0.8177188634872437,-0.053374309092760086,-0.665842592716217
1707164810385404200,21.961404052734373,-0.7181479334831238,-0.17737986147403717,-0.4984656572341919
1707164810404364000,21.980364013671874,-0.5779544115066528,-0.24518585205078125,-0.3601047992706299
1707164810423323600,21.99932373046875,-0.4930442273616791,-0.30138540267944336,-0.2675587832927704
1707164810442283500,22.018283447265624,-0.43256860971450806,-0.3197113573551178,-0.16096286475658417
1707164810461243400,22.037243408203125,-0.3210858106613159,-0.283975750207901,-0.05864302068948746
1707164810480203000,22.056203125,-0.22731806337833405,-0.24976733326911926,-0.05222893878817558
1707164810499163000,22.075162841796875,-0.26855143904685974,-0.21861323714256287,-0.03298669680953026
1707164810518122800,22.094122802734375,-0.3840048611164093,-0.2274707704782486,0.09590577334165573
1707164810537082400,22.113082275390624,-0.3116174042224884,-0.2992473840713501,0.23793183267116547
1707164810556042200,22.132042236328125,-0.10514509677886963,0.03061959706246853,0.2877173125743866
1707164810575002000,22.151002197265626,-0.0501672700047493,0.7273108959197998,0.46364638209342957
1707164810593961700,22.169961669921875,-0.12621992826461792,1.2431862354278564,0.6957749724388123
1707164810612921600,22.188921630859376,-0.008323032408952713,1.5467859506607056,0.693026065826416
1707164810631881500,22.207881591796873,0.3609447181224823,1.4545453786849976,0.5051851868629456
1707164810650841000,22.226841064453126,0.7170788645744324,0.9939533472061157,0.2770271897315979
1707164810669801000,22.245801025390627,0.9406554102897644,0.535193920135498,0.1701258420944214
1707164810688760800,22.2647607421875,1.0887900590896606,0.24839289486408234,0.2156352698802948
1707164810707720400,22.283720458984376,1.1306343078613281,0.173256516456604,0.34788748621940613
1707164810726680300,22.302680419921874,1.0469459295272827,0.26824599504470825,0.4612029194831848
1707164810745640200,22.32164013671875,0.9507346749305725,0.4059959948062897,0.5308414697647095
1707164810764600000,22.34060009765625,0.9128610491752625,0.5015963315963745,0.582459568977356
1707164810783559700,22.3595595703125,0.9427934288978577,0.5437459945678711,0.591622531414032
1707164810802519600,22.37851953125,1.0637446641921997,0.5602393746376038,0.5436696410179138
1707164810821479200,22.397479248046874,1.2567778825759888,0.5581013560295105,0.4618137776851654
1707164810840439000,22.41643896484375,1.4510328769683838,0.5241983532905579,0.3790415823459625
1707164810859399000,22.43539892578125,1.5918372869491577,0.41210466623306274,0.32620179653167725
1707164810878358500,22.454358642578125,1.6593377590179443,0.2141844630241394,0.2993237376213074
1707164810897318400,22.473318359375,1.6407064199447632,-0.00755945174023509,0.2861901521682739
1707164810916278300,22.4922783203125,1.5420517921447754,-0.2225838601589203,0.2556469142436981
1707164810935238000,22.51123779296875,1.3765074014663696,-0.33773186802864075,0.2162461280822754
1707164810954197800,22.53019775390625,1.185917615890503,-0.32215481996536255,0.16584978997707367
1707164810973157600,22.54915771484375,0.982805073261261,-0.2167806327342987,0.09865466505289078
1707164810992117200,22.5681171875,0.7518981695175171,-0.015806125476956367,0.01649334840476513
1707164811011077000,22.5870771484375,0.4849502742290497,0.18089233338832855,-0.09651663154363632
1707164811030036700,22.60603662109375,0.1346193253993988,0.2645808160305023,-0.22907429933547974
1707164811048996600,22.62499658203125,-0.08254310488700867,0.21601705253124237,-0.17837251722812653
1707164811067956500,22.64395654296875,-0.20746494829654694,-0.03138317912817001,-0.10537417232990265
1707164811086916000,22.662916015625,-0.7022654414176941,-0.5142717957496643,-0.2608392536640167
1707164811105876000,22.6818759765625,-1.301829218864441,-0.8120683431625366,-0.3689623177051544
1707164811124835600,22.700835693359377,-1.3378702402114868,-0.5701659321784973,-0.22266021370887756
1707164811143795500,22.71979541015625,-1.0284671783447266,-0.09552398324012756,-0.0668896958231926
1707164811162755300,22.73875537109375,-0.7071523666381836,0.3284161686897278,-0.12705987691879272
1707164811181715000,22.75771484375,-0.6579777002334595,0.5119810700416565,-0.2614501118659973
1707164811200674800,22.7766748046875,-0.9163735508918762,0.19524765014648438,-0.3381136655807495
1707164811219634700,22.795634765625,-1.1619411706924438,-0.40401068329811096,-0.39370235800743103
1707164811238594300,22.81459423828125,-1.209894061088562,-0.8227584958076477,-0.46944957971572876
1707164811257554200,22.83355419921875,-1.1509455442428589,-0.9818887710571289,-0.5314523577690125
1707164811276513800,22.852513671875,-1.1872920989990234,-0.8691841959953308,-0.5702422857284546
1707164811295473700,22.8714736328125,-1.3210713863372803,-0.48189595341682434,-0.6126973628997803
1707164811314433500,22.89043359375,-1.4673736095428467,-0.029856016859412193,-0.6740893125534058
1707164811333393200,22.90939306640625,-1.4753148555755615,0.3421606421470642,-0.7574723362922668
1707164811352353000,22.92835302734375,-1.2975531816482544,0.5339722037315369,-0.8161153197288513
1707164811371312600,22.947312744140625,-1.0901645421981812,0.5849793553352356,-0.8023709058761597
1707164811390272500,22.9662724609375,-0.9420298337936401,0.5611556768417358,-0.7308996915817261
1707164811409232100,22.985232177734375,-0.8537598848342896,0.3736201822757721,-0.5913171172142029
1707164811428192000,23.00419189453125,-0.7434988021850586,0.070631243288517,-0.4428769648075104
1707164811447151900,23.02315185546875,-0.617660641670227,-0.2903898358345032,-0.34574946761131287
1707164811466111700,23.04211181640625,-0.5232820510864258,-0.5191587209701538,-0.2715294063091278
1707164811485071400,23.0610712890625,-0.41302093863487244,-0.4516581594944,-0.18753549456596375
1707164811504031000,23.080031005859375,-0.26274821162223816,-0.22930335998535156,-0.08307760953903198
1707164811522990800,23.098990966796876,-0.11125374585390091,-0.09277509152889252,-0.00946840364485979
1707164811541950700,23.11795068359375,-0.081015944480896,-0.1859319657087326,0.07147117704153061
1707164811560910300,23.136910400390626,-0.1170569658279419,-0.5206858515739441,0.16584978997707367
1707164811579870200,23.1558701171875,0.08239039033651352,-0.512133777141571,0.2516762912273407
1707164811598829800,23.174829833984376,0.35727953910827637,-0.04085158184170723,0.3796524703502655
1707164811617789700,23.193789794921877,0.3710239827632904,0.7822887301445007,0.7263182401657104
1707164811636749300,23.212749267578126,0.2326631247997284,1.1711041927337646,0.7938187718391418
1707164811655709200,23.231709228515626,0.2946659028530121,1.4050652980804443,0.6062833070755005
1707164811674669000,23.2506689453125,0.5677224397659302,1.0538181066513062,0.46364638209342957
1707164811693628700,23.269628662109376,0.8972840309143066,0.418824166059494,0.35246896743774414
1707164811712588500,23.288588623046873,1.186223030090332,-0.0011453714687377214,0.3081812858581543
1707164811731548200,23.307548095703126,1.363373875617981,-0.06589704006910324,0.383928507566452
1707164811750508000,23.326508056640623,1.350851058959961,0.17661628127098083,0.48960810899734497
1707164811769467600,23.345467529296876,1.159345030784607,0.5000692009925842,0.5442805290222168
1707164811788427500,23.364427490234377,0.9589813351631165,0.692186176776886,0.5613847374916077
1707164811807387100,23.38338720703125,0.8484148383140564,0.7245619893074036,0.5540543794631958
1707164811826347000,23.402346923828127,0.8609375357627869,0.6821069121360779,0.5189296007156372
