time,seconds_elapsed,z,y,x
1700358261312747500,0.09974755859375,0,0.00022907429956831038,0.0007635809597559273
1700358261331708200,0.118708251953125,-0.000610864779446274,-0.00038179047987796366,0.00045814859913662076
1700358261350668800,0.137668701171875,0,-0.00007635809743078426,-0.0001527161948615685
1700358261369629400,0.15662939453125,-0.000610864779446274,-0.00038179047987796366,0.00045814859913662076
1700358261388590000,0.175590087890625,-0.000305432389723137,0.00022907429956831038,-0.0001527161948615685
1700358261407550500,0.194550537109375,-0.0009162971982732415,0.00022907429956831038,0.0010690133785828948
1700358261426511000,0.213510986328125,0,-0.00038179047987796366,0.0001527161948615685
1700358261445471700,0.2324716796875,0.000305432389723137,-0.00007635809743078426,0.00045814859913662076
1700358261464432400,0.251432373046875,-0.0009162971982732415,0.00022907429956831038,0.00045814859913662076
1700358261483392800,0.270392822265625,0,0.000839939049910754,-0.0001527161948615685
1700358261502353400,0.289353515625,-0.000305432389723137,-0.00007635809743078426,-0.0001527161948615685
1700358261521314000,0.30831396484375,0.000305432389723137,0.000839939049910754,0.0001527161948615685
1700358261540274700,0.327274658203125,0,0.0005345066892914474,0.0007635809597559273
1700358261559235000,0.346235107421875,0,-0.00007635809743078426,0.0001527161948615685
1700358261578195700,0.36519580078125,0.000305432389723137,-0.00007635809743078426,0.0007635809597559273
1700358261597156400,0.38415625,0.000610864779446274,0.00022907429956831038,0.00045814859913662076
1700358261616116700,0.40311669921875,-0.000305432389723137,0.00022907429956831038,-0.00045814859913662076
1700358261635077400,0.422077392578125,0.000305432389723137,0.00022907429956831038,0.0010690133785828948
1700358261654038000,0.4410380859375,-0.000610864779446274,-0.00007635809743078426,0.0010690133785828948
1700358261672998700,0.45999853515625,0,0.00022907429956831038,0.001679878099821508
1700358261691959300,0.478959228515625,0.000305432389723137,0.00022907429956831038,0.0001527161948615685
1700358261710919700,0.497919677734375,0.000610864779446274,-0.00007635809743078426,0.0001527161948615685
1700358261729880300,0.51688037109375,0.000305432389723137,0.00022907429956831038,-0.0001527161948615685
1700358261748841000,0.535841064453125,0.000610864779446274,-0.00007635809743078426,0.0010690133785828948
1700358261767801600,0.554801513671875,0.000305432389723137,0.001450803829357028,0.0007635809597559273
1700358261786762000,0.573761962890625,-0.000610864779446274,0.0005345066892914474,0.004734201822429895
1700358261805722600,0.59272265625,-0.001221729558892548,0.00022907429956831038,-0.0001527161948615685
1700358261824683300,0.611683349609375,0,-0.00007635809743078426,0.0013744457392022014
1700358261843644000,0.630643798828125,-0.000305432389723137,-0.00007635809743078426,-0.0001527161948615685
1700358261862604300,0.649604248046875,0.000305432389723137,-0.00007635809743078426,-0.00045814859913662076
1700358261881565000,0.66856494140625,0.000305432389723137,-0.00007635809743078426,0.0007635809597559273
1700358261900525600,0.687525634765625,-0.000305432389723137,-0.00007635809743078426,-0.0001527161948615685
1700358261919486200,0.706486328125,-0.000610864779446274,0.000839939049910754,0.0010690133785828948
1700358261938446600,0.725446533203125,0.000305432389723137,0.00022907429956831038,-0.0013744457392022014
1700358261957407200,0.7444072265625,0,-0.0009926552884280682,0.00045814859913662076
1700358261976367900,0.763367919921875,-0.000610864779446274,0.0005345066892914474,-0.0001527161948615685
1700358261995328500,0.78232861328125,-0.000610864779446274,-0.00038179047987796366,0.0007635809597559273
1700358262014289200,0.8012890625,0,-0.00007635809743078426,0.0010690133785828948
1700358262033249500,0.82024951171875,0,-0.00007635809743078426,0.0007635809597559273
1700358262052210200,0.839210205078125,-0.0009162971982732415,0.0005345066892914474,0.00045814859913662076
1700358262071170800,0.8581708984375,-0.0015271619195118546,0.00022907429956831038,-0.00045814859913662076
1700358262090131500,0.87713134765625,0.000610864779446274,-0.0006872228696011007,-0.0001527161948615685
1700358262109091800,0.896091796875,0.000305432389723137,0.00022907429956831038,-0.001679878099821508
1700358262128052500,0.915052490234375,-0.000305432389723137,0.00022907429956831038,0.0001527161948615685
1700358262147013000,0.93401318359375,-0.000610864779446274,-0.00007635809743078426,0.00045814859913662076
1700358262165973500,0.952973388671875,-0.000610864779446274,0.0005345066892914474,0.00045814859913662076
1700358262184934100,0.97193408203125,-0.000610864779446274,0.0005345066892914474,-0.00045814859913662076
1700358262203894800,0.990894775390625,0,0.0005345066892914474,-0.0007635809597559273
1700358262222855400,1.00985546875,0,-0.00007635809743078426,-0.0010690133785828948
1700358262241815800,1.02881591796875,-0.000610864779446274,-0.00007635809743078426,0.00045814859913662076
1700358262260776400,1.0477763671875,-0.0009162971982732415,-0.00038179047987796366,0.0001527161948615685
1700358262279737000,1.066737060546875,0,-0.0012980876490473747,0.00045814859913662076
1700358262298697700,1.08569775390625,0.0009162971982732415,-0.0019089524867013097,-0.00045814859913662076
1700358262317658400,1.104658447265625,-0.000610864779446274,-0.00007635809743078426,-0.0001527161948615685
1700358262336618800,1.12361865234375,-0.000610864779446274,-0.00038179047987796366,0.0001527161948615685
1700358262355579400,1.142579345703125,-0.000305432389723137,0.0005345066892914474,0.0001527161948615685
1700358262374540000,1.1615400390625,0,-0.00038179047987796366,0.0001527161948615685
1700358262393500700,1.180500732421875,-0.000610864779446274,-0.00007635809743078426,0.0001527161948615685
1700358262412461300,1.19946142578125,-0.000305432389723137,-0.00038179047987796366,-0.00045814859913662076
1700358262431421700,1.218421630859375,-0.000305432389723137,-0.0006872228696011007,0.001679878099821508
1700358262450382300,1.23738232421875,0.0009162971982732415,0.0011453714687377214,0.0007635809597559273
1700358262469343000,1.256343017578125,-0.000610864779446274,0.0005345066892914474,0.0010690133785828948
1700358262488303600,1.2753037109375,-0.000305432389723137,0.0005345066892914474,-0.0001527161948615685
1700358262507264300,1.29426416015625,-0.000305432389723137,-0.00007635809743078426,0.00045814859913662076
1700358262526225000,1.313224853515625,0,-0.00007635809743078426,0.00045814859913662076
1700358262545185300,1.332185302734375,0.000305432389723137,0.00022907429956831038,0.0007635809597559273
1700358262564146000,1.35114599609375,-0.000610864779446274,0.0035888305865228176,0.003512472379952669
1700358262583106600,1.3701064453125,0.000305432389723137,0.0005345066892914474,0.00045814859913662076
1700358262602067000,1.38906689453125,0,0.0011453714687377214,-0.0010690133785828948
1700358262621027600,1.408027587890625,-0.000305432389723137,0.0011453714687377214,0.00045814859913662076
1700358262639988200,1.42698828125,0.000305432389723137,-0.0009926552884280682,-0.0019853105768561363
1700358262658948900,1.445948974609375,0.000610864779446274,-0.0019089524867013097,0.0013744457392022014
1700358262677909500,1.464909423828125,0.0009162971982732415,-0.0006872228696011007,0.0001527161948615685
1700358262696870000,1.483869873046875,-0.000305432389723137,-0.0009926552884280682,-0.0001527161948615685
1700358262715830500,1.50283056640625,-0.0009162971982732415,-0.00007635809743078426,0.0001527161948615685
1700358262734791200,1.521791259765625,-0.000305432389723137,0.00022907429956831038,-0.0025961752980947495
1700358262753751800,1.540751708984375,-0.001221729558892548,-0.0009926552884280682,-0.0010690133785828948
1700358262772712400,1.55971240234375,0,-0.0012980876490473747,-0.0010690133785828948
1700358262791673000,1.578673095703125,0.000305432389723137,0.0005345066892914474,0.0001527161948615685
1700358262810633500,1.597633544921875,0.000305432389723137,0.00022907429956831038,-0.00045814859913662076
1700358262829594000,1.616593994140625,-0.000610864779446274,0.00022907429956831038,-0.00045814859913662076
1700358262848554800,1.6355546875,0.000305432389723137,0.0011453714687377214,-0.0007635809597559273
1700358262867515400,1.654515380859375,0.000305432389723137,-0.00007635809743078426,0.00045814859913662076
1700358262886476000,1.67347607421875,0,0.00022907429956831038,0.0007635809597559273
1700358262905436400,1.6924365234375,0.000305432389723137,0.00022907429956831038,0.00045814859913662076
1700358262924397000,1.71139697265625,0,0.002672533504664898,0.003512472379952669
1700358262943357700,1.730357666015625,0,-0.00007635809743078426,0.00045814859913662076
1700358262962318300,1.749318359375,-0.000305432389723137,0.0011453714687377214,-0.0010690133785828948
1700358262981279000,1.768279052734375,0.000610864779446274,0.00022907429956831038,0.00045814859913662076
1700358263000239600,1.787239501953125,0.0009162971982732415,0.0011453714687377214,-0.0010690133785828948
1700358263019200000,1.806199951171875,-0.000610864779446274,0.00022907429956831038,0.0007635809597559273
1700358263038160600,1.82516064453125,0.000610864779446274,0.0005345066892914474,-0.0019853105768561363
1700358263057121300,1.844121337890625,-0.000610864779446274,-0.00038179047987796366,0.0001527161948615685
1700358263076082000,1.86308203125,-0.000305432389723137,0.00022907429956831038,0.0010690133785828948
1700358263095042600,1.88204248046875,-0.000305432389723137,0.00022907429956831038,0.00045814859913662076
1700358263114003200,1.901003173828125,-0.0009162971982732415,0.00022907429956831038,0.0010690133785828948
1700358263132963800,1.9199638671875,0.000305432389723137,-0.00038179047987796366,-0.0013744457392022014
1700358263151924200,1.93892431640625,-0.000305432389723137,-0.00007635809743078426,0.0019853105768561363
1700358263170884900,1.957884765625,0.001221729558892548,0.00022907429956831038,-0.0007635809597559273
1700358263189845500,1.976845458984375,0,0.00022907429956831038,0.0019853105768561363
1700358263208806100,1.99580615234375,0.000305432389723137,0.0005345066892914474,0.00045814859913662076
1700358263227766800,2.014766845703125,-0.000610864779446274,0.00022907429956831038,0.00045814859913662076
1700358263246727400,2.0337275390625,0,0.00022907429956831038,-0.00045814859913662076
1700358263265688000,2.05268798828125,0.000305432389723137,0.00022907429956831038,-0.0001527161948615685
1700358263284648400,2.0716484375,0.0009162971982732415,-0.00038179047987796366,0.0001527161948615685
1700358263303609000,2.090609130859375,0.000305432389723137,0.0005345066892914474,0.0007635809597559273
1700358263322569700,2.10956982421875,-0.000610864779446274,-0.00007635809743078426,0.00045814859913662076
1700358263341530400,2.1285302734375,0,0.0011453714687377214,-0.0013744457392022014
1700358263360491000,2.147490966796875,0.000305432389723137,-0.00038179047987796366,0.0001527161948615685
1700358263379451600,2.16645166015625,0.000305432389723137,-0.00038179047987796366,-0.00045814859913662076
1700358263398412300,2.185412353515625,0,-0.00038179047987796366,0.0001527161948615685
1700358263417372700,2.20437255859375,0.000610864779446274,-0.00038179047987796366,0.0001527161948615685
1700358263436333300,2.223333251953125,0,-0.00038179047987796366,0.0007635809597559273
1700358263455294000,2.2422939453125,0,-0.00007635809743078426,0.0007635809597559273
1700358263474254600,2.261254638671875,-0.000305432389723137,0.0005345066892914474,0.0010690133785828948
1700358263493215200,2.28021533203125,-0.0009162971982732415,0.0005345066892914474,-0.0001527161948615685
1700358263512175900,2.29917578125,-0.000305432389723137,-0.0012980876490473747,-0.0013744457392022014
1700358263531136500,2.318136474609375,0,0.00022907429956831038,0.0001527161948615685
1700358263550097200,2.33709716796875,0.000610864779446274,0.00022907429956831038,-0.0019853105768561363
1700358263569057800,2.356057861328125,0.0009162971982732415,-0.0022143847309052944,-0.0013744457392022014
1700358263588018400,2.375018310546875,-0.000305432389723137,-0.0006872228696011007,-0.0010690133785828948
1700358263606978800,2.393978759765625,0.000305432389723137,-0.00007635809743078426,-0.001679878099821508
1700358263625939500,2.412939453125,-0.000610864779446274,0.000839939049910754,-0.00045814859913662076
1700358263644900000,2.431900146484375,0.000610864779446274,-0.00007635809743078426,-0.00045814859913662076
1700358263663860700,2.45086083984375,0.000305432389723137,-0.00038179047987796366,0.0013744457392022014
1700358263682821400,2.4698212890625,0.000305432389723137,0.00022907429956831038,0.00045814859913662076
1700358263701782000,2.488781982421875,-0.000305432389723137,-0.0009926552884280682,0.0007635809597559273
1700358263720742700,2.50774267578125,0,0.0005345066892914474,-0.0001527161948615685
1700358263739703300,2.526703369140625,-0.000610864779446274,0.0005345066892914474,-0.0010690133785828948
1700358263758664000,2.545663818359375,-0.000610864779446274,0.0005345066892914474,0.0010690133785828948
1700358263777624600,2.56462451171875,0.000610864779446274,0.00022907429956831038,-0.0001527161948615685
1700358263796585000,2.5835849609375,0.000305432389723137,-0.00007635809743078426,0.0001527161948615685
1700358263815545600,2.602545654296875,-0.000305432389723137,-0.00007635809743078426,-0.0001527161948615685
1700358263834506200,2.62150634765625,-0.000305432389723137,0.0005345066892914474,0.0007635809597559273
1700358263853467000,2.640466796875,0,-0.00038179047987796366,0.0010690133785828948
1700358263872427500,2.659427490234375,-0.000610864779446274,0.000839939049910754,0.0010690133785828948
1700358263891388200,2.67838818359375,-0.000305432389723137,-0.00007635809743078426,0.0007635809597559273
1700358263910348800,2.697348876953125,0.000305432389723137,-0.00007635809743078426,0.0001527161948615685
1700358263929309400,2.716309326171875,0,0.002672533504664898,0.0007635809597559273
1700358263948270000,2.73527001953125,-0.001832594396546483,0.003283398225903511,0.001679878099821508
1700358263967230700,2.754230712890625,0.000610864779446274,0.00022907429956831038,-0.0007635809597559273
1700358263986191000,2.773191162109375,0.000305432389723137,-0.002825249684974551,-0.002901607658714056
1700358264005151700,2.79215185546875,0.000305432389723137,-0.0031306820455938578,-0.0013744457392022014
1700358264024112400,2.8111123046875,-0.000305432389723137,0.0005345066892914474,0.00045814859913662076
1700358264043073000,2.830072998046875,-0.000305432389723137,-0.00007635809743078426,-0.0007635809597559273
1700358264062033700,2.84903369140625,0.0009162971982732415,-0.00007635809743078426,0.0007635809597559273
1700358264080994300,2.867994384765625,-0.000305432389723137,0.000839939049910754,0.0001527161948615685
1700358264099955000,2.886954833984375,0,-0.00038179047987796366,0.0001527161948615685
1700358264118915600,2.90591552734375,0.0009162971982732415,-0.00007635809743078426,0.00045814859913662076
1700358264137876200,2.924876220703125,0.000305432389723137,-0.00007635809743078426,0.0001527161948615685
1700358264156836900,2.9438369140625,-0.000610864779446274,0.00022907429956831038,0.00045814859913662076
1700358264175797500,2.962797607421875,-0.000610864779446274,0.00022907429956831038,0.00045814859913662076
1700358264194758100,2.981758056640625,0.000305432389723137,-0.00007635809743078426,0.00045814859913662076
1700358264213718800,3.00071875,-0.000610864779446274,0.00022907429956831038,0.00045814859913662076
1700358264232679400,3.019679443359375,-0.000610864779446274,-0.00038179047987796366,0.0013744457392022014
1700358264251640000,3.03864013671875,-0.000305432389723137,-0.0006872228696011007,0.00045814859913662076
1700358264270600700,3.0576005859375,0.000610864779446274,-0.00038179047987796366,-0.0001527161948615685
1700358264289561300,3.076561279296875,0,0.00022907429956831038,-0.0001527161948615685
1700358264308521700,3.095521728515625,-0.000610864779446274,0.00022907429956831038,0.00045814859913662076
1700358264327482400,3.114482421875,0,0.0005345066892914474,0.00045814859913662076
1700358264346443000,3.133443115234375,0.000305432389723137,-0.00038179047987796366,0.00045814859913662076
1700358264365403600,3.152403564453125,-0.000610864779446274,-0.00007635809743078426,-0.0001527161948615685
1700358264384364300,3.1713642578125,0.000305432389723137,-0.00007635809743078426,-0.00045814859913662076
1700358264403325000,3.190324951171875,0.000610864779446274,-0.00007635809743078426,0.0001527161948615685
1700358264422285600,3.20928564453125,0,0.00022907429956831038,-0.0001527161948615685
1700358264441246200,3.22824609375,0,0.00022907429956831038,0.00045814859913662076
1700358264460206800,3.247206787109375,0.001221729558892548,0.0005345066892914474,0.00045814859913662076
1700358264479167500,3.26616748046875,0,-0.0006872228696011007,0.0007635809597559273
1700358264498128100,3.285128173828125,0.000305432389723137,0.00022907429956831038,0.0001527161948615685
1700358264517088800,3.3040888671875,0,0.0005345066892914474,-0.0001527161948615685
1700358264536049400,3.32304931640625,0.0009162971982732415,0.0005345066892914474,0.0010690133785828948
1700358264555010000,3.342010009765625,-0.000610864779446274,-0.00038179047987796366,0.00045814859913662076
1700358264573970700,3.360970703125,0,0.00022907429956831038,-0.0001527161948615685
1700358264592931300,3.379931396484375,0,-0.00007635809743078426,-0.0001527161948615685
1700358264611892000,3.39889208984375,-0.000610864779446274,0.00022907429956831038,0.0001527161948615685
1700358264630852400,3.417852294921875,0.0009162971982732415,0.0011453714687377214,0.0001527161948615685
1700358264649813000,3.43681298828125,0.001221729558892548,-0.00038179047987796366,0.0001527161948615685
1700358264668773600,3.455773681640625,-0.000305432389723137,0.0005345066892914474,-0.00045814859913662076
1700358264687734300,3.474734375,-0.000610864779446274,0.000839939049910754,0.0001527161948615685
1700358264706695000,3.49369482421875,-0.000305432389723137,0.00022907429956831038,0.00045814859913662076
1700358264725655600,3.512655517578125,0.000305432389723137,0.00022907429956831038,0.0010690133785828948
1700358264744616200,3.5316162109375,-0.000305432389723137,-0.00038179047987796366,0.00045814859913662076
1700358264763576800,3.550576904296875,0.000610864779446274,-0.00007635809743078426,-0.0007635809597559273
1700358264782537500,3.569537353515625,0,-0.0006872228696011007,-0.00045814859913662076
1700358264801498000,3.588498046875,-0.000610864779446274,-0.00038179047987796366,-0.0007635809597559273
1700358264820458800,3.607458740234375,0.000305432389723137,-0.00007635809743078426,0.0007635809597559273
1700358264839419400,3.62641943359375,0.000305432389723137,-0.00007635809743078426,-0.0007635809597559273
1700358264858380000,3.645380126953125,-0.000610864779446274,-0.00038179047987796366,-0.0001527161948615685
1700358264877340700,3.664340576171875,-0.000305432389723137,0.00022907429956831038,0.0007635809597559273
1700358264896301300,3.68330126953125,0.000305432389723137,-0.00007635809743078426,0.00045814859913662076
1700358264915262000,3.702261962890625,0,0.00022907429956831038,0.0001527161948615685
1700358264934222600,3.72122265625,0.000305432389723137,-0.00007635809743078426,0.00045814859913662076
1700358264953183200,3.740183349609375,0.000305432389723137,0.00022907429956831038,-0.0001527161948615685
1700358264972143900,3.759143798828125,0,-0.00007635809743078426,0.0001527161948615685
1700358264991104500,3.7781044921875,0.000305432389723137,0.00022907429956831038,0.0007635809597559273
1700358265010065200,3.797065185546875,-0.000610864779446274,-0.00007635809743078426,-0.0001527161948615685
1700358265029025800,3.81602587890625,-0.0009162971982732415,-0.00007635809743078426,0.00045814859913662076
1700358265047986400,3.834986328125,0,-0.00038179047987796366,0.0001527161948615685
1700358265066947000,3.853947021484375,0.000610864779446274,-0.00038179047987796366,-0.00045814859913662076
1700358265085907500,3.872907470703125,0.000305432389723137,0.00022907429956831038,0.00045814859913662076
1700358265104868000,3.8918681640625,-0.000610864779446274,0.00022907429956831038,0.0010690133785828948
1700358265123828700,3.910828857421875,-0.0009162971982732415,0.00022907429956831038,0.00045814859913662076
1700358265142789400,3.929789306640625,0,0.0005345066892914474,0.0007635809597559273
1700358265161750000,3.94875,0.000305432389723137,0.0005345066892914474,-0.0001527161948615685
1700358265180711000,3.9677109375,-0.000610864779446274,0.000839939049910754,0.0010690133785828948
1700358265199671600,3.986671630859375,-0.000305432389723137,-0.00007635809743078426,0.0001527161948615685
1700358265218632000,4.0056318359375,0.000305432389723137,-0.00007635809743078426,-0.0001527161948615685
1700358265237592600,4.024592529296875,0,0.000839939049910754,-0.0007635809597559273
1700358265256553200,4.04355322265625,0.000305432389723137,-0.0009926552884280682,-0.00045814859913662076
1700358265275513900,4.062513916015625,0,-0.00007635809743078426,0.0001527161948615685
1700358265294474500,4.081474609375,-0.000610864779446274,-0.00007635809743078426,0.00045814859913662076
1700358265313435100,4.10043505859375,0.000305432389723137,-0.00038179047987796366,0.00045814859913662076
1700358265332395800,4.119395751953125,0.000305432389723137,-0.00038179047987796366,-0.0001527161948615685
1700358265351356400,4.1383564453125,-0.000305432389723137,-0.00007635809743078426,-0.0007635809597559273
1700358265370317000,4.157317138671875,-0.000610864779446274,0.00022907429956831038,0.00045814859913662076
1700358265389277700,4.176277587890625,-0.000305432389723137,0.0005345066892914474,0.0007635809597559273
1700358265408238300,4.19523828125,-0.000305432389723137,-0.00007635809743078426,-0.0001527161948615685
1700358265427199000,4.214198974609375,-0.000610864779446274,-0.0012980876490473747,-0.00045814859913662076
1700358265446159600,4.23315966796875,-0.000305432389723137,0.00022907429956831038,-0.0001527161948615685
1700358265465120300,4.252120361328125,0.000305432389723137,-0.00038179047987796366,-0.0001527161948615685
1700358265484081000,4.271080810546875,0.000305432389723137,-0.00007635809743078426,-0.0001527161948615685
1700358265503041500,4.29004150390625,-0.0009162971982732415,0.0005345066892914474,0.0001527161948615685
1700358265522002200,4.309002197265625,0.000610864779446274,-0.00038179047987796366,-0.0001527161948615685
1700358265540962800,4.327962890625,-0.000305432389723137,-0.00007635809743078426,0.00045814859913662076
1700358265559923500,4.34692333984375,0,0.00022907429956831038,0.0001527161948615685
1700358265578884000,4.365884033203125,-0.0009162971982732415,0.00022907429956831038,0.0001527161948615685
1700358265597844700,4.3848447265625,-0.000610864779446274,-0.00007635809743078426,0.00045814859913662076
1700358265616805400,4.403805419921875,0,0.00022907429956831038,-0.0001527161948615685
1700358265635766000,4.42276611328125,-0.000305432389723137,-0.0006872228696011007,0.0007635809597559273
1700358265654726700,4.4417265625,0,0.00022907429956831038,0.00045814859913662076
1700358265673687300,4.460687255859375,0.000610864779446274,-0.00007635809743078426,0.001679878099821508
1700358265692648000,4.47964794921875,0.000610864779446274,0.00022907429956831038,0.00045814859913662076
1700358265711608600,4.498608642578125,0.000610864779446274,-0.00007635809743078426,0.00045814859913662076
1700358265730569200,4.5175693359375,0.000305432389723137,-0.0016035200096666813,0.0019853105768561363
1700358265749529900,4.53652978515625,-0.0015271619195118546,0.0005345066892914474,0.0025961752980947495
1700358265768490500,4.555490478515625,0.000610864779446274,0.004810560029000044,-0.006566796451807022
1700358265787451100,4.574451171875,0.000610864779446274,0.002672533504664898,-0.0007635809597559273
1700358265806411800,4.593411865234375,0.000610864779446274,0.00022907429956831038,-0.0001527161948615685
1700358265825372400,4.612372314453125,-0.001221729558892548,-0.0009926552884280682,-0.0010690133785828948
1700358265844333000,4.6313330078125,0.0009162971982732415,0.000839939049910754,-0.0001527161948615685
1700358265863293700,4.650293701171875,0.000305432389723137,-0.0006872228696011007,-0.00045814859913662076
1700358265882254300,4.66925439453125,-0.000610864779446274,0.0005345066892914474,-0.00045814859913662076
1700358265901215000,4.688215087890625,0.0009162971982732415,-0.00007635809743078426,-0.0013744457392022014
1700358265920175600,4.707175537109375,0.0009162971982732415,-0.00007635809743078426,0.0007635809597559273
1700358265939136300,4.72613623046875,-0.0015271619195118546,0.0005345066892914474,-0.00045814859913662076
1700358265958097000,4.745096923828125,-0.000305432389723137,0.0011453714687377214,0.0013744457392022014
1700358265977057500,4.7640576171875,0.000305432389723137,-0.00007635809743078426,0.0001527161948615685
1700358265996018200,4.78301806640625,-0.000610864779446274,-0.00007635809743078426,0.00045814859913662076
1700358266014978800,4.801978759765625,-0.000305432389723137,-0.00007635809743078426,0.0013744457392022014
1700358266033939500,4.820939453125,-0.000610864779446274,0.00022907429956831038,0.0019853105768561363
1700358266052900000,4.839900146484375,0.001221729558892548,-0.00038179047987796366,-0.00045814859913662076
1700358266071860500,4.858860595703125,0.000305432389723137,-0.00007635809743078426,-0.0007635809597559273
1700358266090821000,4.877821044921875,0,-0.00007635809743078426,-0.0007635809597559273
1700358266109782000,4.896781982421875,-0.000305432389723137,-0.00007635809743078426,-0.00045814859913662076
1700358266128742700,4.91574267578125,-0.000305432389723137,-0.00007635809743078426,-0.00045814859913662076
1700358266147703300,4.934703369140625,-0.000305432389723137,0.0005345066892914474,-0.00045814859913662076
1700358266166664000,4.953663818359375,0.000305432389723137,0.000839939049910754,0.0001527161948615685
1700358266185624600,4.97262451171875,0,-0.00038179047987796366,-0.0001527161948615685
1700358266204585000,4.9915849609375,-0.0009162971982732415,0.0005345066892914474,0.00045814859913662076
1700358266223545600,5.010545654296875,0,-0.00007635809743078426,0.0007635809597559273
1700358266242506200,5.02950634765625,0.000305432389723137,-0.0009926552884280682,0.0010690133785828948
1700358266261467100,5.048467041015625,-0.000305432389723137,-0.0006872228696011007,0.0013744457392022014
1700358266280427800,5.067427734375,-0.000305432389723137,-0.00007635809743078426,0.0010690133785828948
1700358266299388400,5.086388427734375,-0.000610864779446274,-0.00007635809743078426,-0.0001527161948615685
1700358266318349000,5.10534912109375,0.000610864779446274,-0.00007635809743078426,-0.0001527161948615685
1700358266337309400,5.124309326171875,0.000610864779446274,-0.00007635809743078426,-0.0001527161948615685
1700358266356270000,5.14327001953125,0,-0.00007635809743078426,-0.0001527161948615685
1700358266375230700,5.162230712890625,0,0.00022907429956831038,-0.00045814859913662076
1700358266394191400,5.18119140625,0.000610864779446274,0.0005345066892914474,-0.0001527161948615685
1700358266413152300,5.20015234375,0.000305432389723137,0.00022907429956831038,-0.0001527161948615685
1700358266432113000,5.21911279296875,-0.000610864779446274,-0.00007635809743078426,0.00045814859913662076
1700358266451073500,5.238073486328125,-0.000305432389723137,-0.00007635809743078426,0.0001527161948615685
1700358266470034000,5.257033935546875,-0.000305432389723137,-0.00038179047987796366,0.0001527161948615685
1700358266488994600,5.27599462890625,-0.000610864779446274,0.00022907429956831038,-0.0001527161948615685
1700358266507955200,5.294955078125,0.000305432389723137,-0.00007635809743078426,0.00045814859913662076
1700358266526915800,5.313915771484375,0.000305432389723137,-0.0006872228696011007,-0.00045814859913662076
1700358266545876500,5.33287646484375,-0.000610864779446274,-0.00038179047987796366,0.0007635809597559273
1700358266564837400,5.35183740234375,0,0.0005345066892914474,0.0013744457392022014
1700358266583798000,5.370798095703125,0.000610864779446274,-0.00007635809743078426,-0.0001527161948615685
1700358266602758400,5.38975830078125,0.000305432389723137,0.00022907429956831038,0.0007635809597559273
1700358266621719000,5.408718994140625,-0.000610864779446274,-0.00007635809743078426,0.00045814859913662076
1700358266640679700,5.4276796875,0.000305432389723137,0.000839939049910754,0.00045814859913662076
1700358266659640300,5.446640380859375,0.000305432389723137,0.00022907429956831038,0.0010690133785828948
1700358266678601000,5.46560107421875,0,-0.00007635809743078426,0.00045814859913662076
1700358266697561600,5.4845615234375,0,-0.00007635809743078426,-0.0010690133785828948
1700358266716522500,5.5035224609375,-0.001221729558892548,-0.00007635809743078426,-0.0001527161948615685
1700358266735483000,5.52248291015625,-0.0009162971982732415,-0.00007635809743078426,-0.0010690133785828948
1700358266754443500,5.541443603515625,0,0.000839939049910754,0.00045814859913662076
1700358266773404200,5.560404052734375,0.0009162971982732415,-0.00007635809743078426,0.0007635809597559273
1700358266792364800,5.57936474609375,-0.000305432389723137,0.00022907429956831038,-0.0001527161948615685
1700358266811325400,5.598325439453125,-0.000610864779446274,-0.00007635809743078426,0.0019853105768561363
1700358266830286000,5.6172861328125,0,0.00022907429956831038,0.0007635809597559273
1700358266849246700,5.636246826171875,0.000610864779446274,0.00022907429956831038,0.00045814859913662076
1700358266868207400,5.655207275390625,-0.000305432389723137,0.00022907429956831038,-0.0001527161948615685
1700358266887168000,5.67416796875,-0.0009162971982732415,0.00022907429956831038,0.0001527161948615685
1700358266906128600,5.693128662109375,-0.000610864779446274,-0.00007635809743078426,0.0010690133785828948
1700358266925089300,5.71208935546875,0,0.00022907429956831038,0.00045814859913662076
1700358266944050000,5.7310498046875,0.001221729558892548,0.0005345066892914474,0.0013744457392022014
1700358266963010600,5.750010498046875,-0.000610864779446274,-0.00007635809743078426,0.00045814859913662076
1700358266981971200,5.76897119140625,0,-0.00038179047987796366,-0.00045814859913662076
1700358267000931800,5.787931884765625,-0.000305432389723137,0.002061668550595641,0.002901607658714056
1700358267019892500,5.806892578125,0.000305432389723137,0.0005345066892914474,-0.002901607658714056
1700358267038853000,5.82585302734375,0.000305432389723137,0.0005345066892914474,0.0013744457392022014
1700358267057813800,5.844813720703125,-0.000610864779446274,-0.00038179047987796366,-0.0001527161948615685
1700358267076774400,5.8637744140625,-0.0009162971982732415,-0.00007635809743078426,-0.0001527161948615685
1700358267095735000,5.882735107421875,0.0015271619195118546,0.00022907429956831038,0.001679878099821508
1700358267114695700,5.90169580078125,0.0009162971982732415,-0.00038179047987796366,0.0001527161948615685
1700358267133656300,5.92065625,-0.000610864779446274,-0.00007635809743078426,0.00045814859913662076
1700358267152617000,5.939616943359375,0,0.0011453714687377214,-0.0010690133785828948
1700358267171577600,5.95857763671875,0,0.00022907429956831038,0.0007635809597559273
1700358267190538200,5.977538330078125,-0.000610864779446274,-0.00038179047987796366,-0.0007635809597559273
1700358267209499000,5.996498779296875,0,0.00022907429956831038,0.0007635809597559273
1700358267228459500,6.01545947265625,-0.000305432389723137,0.00022907429956831038,0.0007635809597559273
1700358267247420200,6.034420166015625,0,-0.00007635809743078426,0.001679878099821508
1700358267266380800,6.053380859375,-0.000305432389723137,-0.00007635809743078426,-0.0001527161948615685
1700358267285341400,6.072341552734375,-0.000610864779446274,-0.00007635809743078426,0.0001527161948615685
1700358267304302000,6.091302001953125,0.000305432389723137,-0.00038179047987796366,-0.0001527161948615685
1700358267323262700,6.1102626953125,-0.000305432389723137,-0.0006872228696011007,-0.00045814859913662076
1700358267342223400,6.129223388671875,-0.000305432389723137,0.000839939049910754,0.00045814859913662076
1700358267361184000,6.14818408203125,0.000610864779446274,-0.00007635809743078426,-0.00045814859913662076
1700358267380144600,6.16714453125,0,-0.00038179047987796366,0.0001527161948615685
1700358267399105300,6.186105224609375,0,0.0005345066892914474,0.0007635809597559273
1700358267418066000,6.20506591796875,0.000610864779446274,0.000839939049910754,0.0010690133785828948
1700358267437026600,6.224026611328125,-0.000305432389723137,0.00022907429956831038,0.0019853105768561363
1700358267455987200,6.2429873046875,0,-0.00007635809743078426,0.00045814859913662076
1700358267474947800,6.26194775390625,-0.000305432389723137,-0.00007635809743078426,0.00045814859913662076
1700358267493908500,6.280908447265625,-0.000305432389723137,-0.00038179047987796366,0.0010690133785828948
1700358267512869000,6.299869140625,-0.000305432389723137,0.00022907429956831038,-0.0001527161948615685
1700358267531829800,6.318829833984375,0.0009162971982732415,0.0005345066892914474,-0.0001527161948615685
1700358267550790400,6.337790283203125,0,0.00022907429956831038,-0.00045814859913662076
1700358267569751000,6.3567509765625,0,-0.00038179047987796366,-0.0001527161948615685
1700358267588711400,6.37571142578125,0.000305432389723137,-0.00038179047987796366,-0.0007635809597559273
1700358267607672000,6.394672119140625,0,-0.00007635809743078426,0.0001527161948615685
1700358267626632700,6.4136328125,-0.000305432389723137,-0.00007635809743078426,0.0010690133785828948
1700358267645593600,6.432593505859375,-0.000610864779446274,-0.00038179047987796366,0.00045814859913662076
1700358267664554200,6.45155419921875,-0.0009162971982732415,-0.00007635809743078426,0.0013744457392022014
1700358267683515000,6.470514892578125,0,-0.00007635809743078426,0.0001527161948615685
1700358267702475500,6.4894755859375,0.0009162971982732415,0.00022907429956831038,-0.0001527161948615685
1700358267721436000,6.508435791015625,0.0001527161948615685,0.00045814859913662076,-0.00007635809743078426
1700358267740396500,6.527396484375,-0.00045814859913662076,-0.0001527161948615685,-0.0009926552884280682
1700358267759357200,6.546357177734375,0.0001527161948615685,-0.0001527161948615685,-0.0022143847309052944
1700358267778317800,6.56531787109375,0.00045814859913662076,-0.0007635809597559273,-0.00038179047987796366
1700358267797278500,6.584278564453125,0.0010690133785828948,-0.00045814859913662076,-0.0009926552884280682
1700358267816239000,6.603239013671875,0.00045814859913662076,-0.0001527161948615685,-0.0006872228696011007
1700358267835199700,6.62219970703125,-0.0001527161948615685,0.00045814859913662076,-0.00007635809743078426
1700358267854160400,6.641160400390625,0.00045814859913662076,0.0010690133785828948,-0.00038179047987796366
1700358267873121000,6.66012109375,-0.0001527161948615685,-0.0001527161948615685,-0.0006872228696011007
1700358267892081700,6.67908154296875,0.00045814859913662076,-0.00045814859913662076,0.0011453714687377214
1700358267911042300,6.698042236328125,0.0007635809597559273,-0.00045814859913662076,0.001450803829357028
1700358267930003000,6.7170029296875,-0.00045814859913662076,0.0010690133785828948,0.001450803829357028
1700358267948963600,6.735963623046875,-0.0001527161948615685,0.0010690133785828948,0.0017562361899763346
1700358267967924200,6.75492431640625,0.00045814859913662076,0.0013744457392022014,0.0011453714687377214
1700358267986884900,6.773884765625,0.0001527161948615685,0.00045814859913662076,-0.0006872228696011007
1700358268005845500,6.792845458984375,-0.00045814859913662076,-0.0007635809597559273,0.000839939049910754
1700358268024806100,6.81180615234375,0.0007635809597559273,-0.00045814859913662076,-0.0012980876490473747
1700358268043766800,6.830766845703125,0.00045814859913662076,-0.00045814859913662076,-0.00038179047987796366
1700358268062727400,6.8497275390625,-0.0001527161948615685,-0.0001527161948615685,-0.00007635809743078426
1700358268081688000,6.86868798828125,-0.0001527161948615685,0.0007635809597559273,-0.00007635809743078426
1700358268100648700,6.887648681640625,-0.0001527161948615685,-0.0007635809597559273,-0.00038179047987796366
1700358268119609300,6.906609375,0.0001527161948615685,0.0001527161948615685,-0.0006872228696011007
1700358268138570000,6.925570068359375,0.00045814859913662076,0.00045814859913662076,-0.0012980876490473747
1700358268157530600,6.944530517578125,0.0001527161948615685,0.0001527161948615685,-0.0006872228696011007
1700358268176491000,6.963490966796875,-0.0001527161948615685,0.0001527161948615685,0.00022907429956831038
1700358268195451600,6.98245166015625,0.0007635809597559273,0.0001527161948615685,-0.00007635809743078426
1700358268214412300,7.001412353515625,0.00045814859913662076,-0.0001527161948615685,0.00022907429956831038
1700358268233373000,7.020373046875,0.0001527161948615685,-0.0001527161948615685,-0.00007635809743078426
1700358268252333600,7.03933349609375,-0.0001527161948615685,0.00045814859913662076,-0.00007635809743078426
1700358268271294200,7.058294189453125,-0.0001527161948615685,0.0001527161948615685,0.00022907429956831038
1700358268290254800,7.0772548828125,0.0001527161948615685,0.0001527161948615685,-0.00007635809743078426
1700358268309215500,7.096215576171875,0.0007635809597559273,0.00045814859913662076,-0.00007635809743078426
1700358268328176000,7.115176025390625,0.0001527161948615685,0.00045814859913662076,-0.00007635809743078426
1700358268347136800,7.13413671875,-0.0001527161948615685,-0.0001527161948615685,-0.0006872228696011007
1700358268366097400,7.153097412109375,0.00045814859913662076,0.0001527161948615685,-0.00007635809743078426
1700358268385058000,7.17205810546875,0.0007635809597559273,-0.0001527161948615685,0.00022907429956831038
1700358268404018700,7.191018798828125,-0.0001527161948615685,-0.0001527161948615685,-0.00038179047987796366
1700358268422979300,7.209979248046875,0.0001527161948615685,0.0001527161948615685,-0.0006872228696011007
1700358268441940000,7.22893994140625,0.00045814859913662076,0.0001527161948615685,0.0011453714687377214
1700358268460900600,7.247900634765625,-0.0001527161948615685,0.0001527161948615685,0.0005345066892914474
1700358268479861200,7.266861328125,0.00045814859913662076,0.0001527161948615685,0.0005345066892914474
1700358268498822000,7.28582177734375,0.0001527161948615685,-0.00045814859913662076,-0.00038179047987796366
1700358268517782500,7.304782470703125,0.00045814859913662076,0.0001527161948615685,0.00022907429956831038
1700358268536743200,7.3237431640625,-0.0001527161948615685,-0.0001527161948615685,0.0005345066892914474
1700358268555703800,7.342703857421875,0.0007635809597559273,0.0001527161948615685,-0.0006872228696011007
1700358268574664400,7.36166455078125,0.00045814859913662076,-0.0001527161948615685,0.00022907429956831038
1700358268593625000,7.380625,0.0001527161948615685,0.0007635809597559273,0.0005345066892914474
1700358268612585700,7.399585693359375,0.0001527161948615685,-0.0001527161948615685,0.0005345066892914474
1700358268631546000,7.418546142578125,-0.0001527161948615685,-0.0001527161948615685,-0.0006872228696011007
1700358268650506800,7.4375068359375,0.0001527161948615685,0.0001527161948615685,-0.00007635809743078426
1700358268669467400,7.45646728515625,-0.0001527161948615685,-0.00045814859913662076,0.000839939049910754
1700358268688428000,7.475427978515625,-0.0001527161948615685,-0.0001527161948615685,-0.00007635809743078426
1700358268707388700,7.494388671875,0.00045814859913662076,0.0001527161948615685,-0.00038179047987796366
1700358268726349300,7.513349365234375,-0.0001527161948615685,0.0007635809597559273,0.0005345066892914474
1700358268745310000,7.53231005859375,-0.0007635809597559273,0.0001527161948615685,0.00022907429956831038
1700358268764270600,7.5512705078125,-0.0007635809597559273,-0.0001527161948615685,-0.00038179047987796366
1700358268783231200,7.570231201171875,0.00045814859913662076,0.0001527161948615685,-0.00038179047987796366
1700358268802192000,7.58919189453125,0.0001527161948615685,-0.0001527161948615685,0.000839939049910754
1700358268821152500,7.608152587890625,0.0007635809597559273,0.00045814859913662076,0.00022907429956831038
1700358268840113200,7.627113037109375,-0.0001527161948615685,0.0001527161948615685,-0.00038179047987796366
1700358268859073800,7.64607373046875,0.0001527161948615685,0.00045814859913662076,0.00022907429956831038
1700358268878034400,7.665034423828125,-0.0007635809597559273,0.0001527161948615685,0.00022907429956831038
1700358268896995000,7.6839951171875,0.0007635809597559273,-0.0001527161948615685,-0.00007635809743078426
1700358268915955700,7.702955810546875,0.00045814859913662076,-0.00045814859913662076,-0.00007635809743078426
1700358268934916400,7.721916259765625,-0.00045814859913662076,-0.00045814859913662076,0.00022907429956831038
1700358268953876700,7.740876708984375,0.0001527161948615685,-0.0001527161948615685,0.00022907429956831038
1700358268972837400,7.75983740234375,0.0001527161948615685,0.0001527161948615685,-0.0019089524867013097
1700358268991798000,7.778798095703125,-0.00045814859913662076,-0.00045814859913662076,-0.0006872228696011007
1700358269010758700,7.797758544921875,0.0001527161948615685,0.0001527161948615685,-0.0006872228696011007
1700358269029719300,7.81671923828125,-0.0001527161948615685,0.0007635809597559273,-0.00007635809743078426
1700358269048680000,7.835679931640625,0.00045814859913662076,0.00045814859913662076,0.0005345066892914474
1700358269067640600,7.854640625,0.0007635809597559273,0.0001527161948615685,-0.00007635809743078426
1700358269086601200,7.873601318359375,-0.0001527161948615685,0.0001527161948615685,0.000839939049910754
1700358269105561900,7.892561767578125,-0.0007635809597559273,-0.0001527161948615685,0.001450803829357028
1700358269124522500,7.9115224609375,-0.0001527161948615685,0.0001527161948615685,-0.0009926552884280682
1700358269143483100,7.930483154296875,-0.00045814859913662076,0.00045814859913662076,0.00022907429956831038
1700358269162443800,7.94944384765625,-0.00045814859913662076,0.0001527161948615685,0.0005345066892914474
1700358269181404400,7.968404296875,0.0010690133785828948,-0.0001527161948615685,0.00022907429956831038
1700358269200365000,7.987364990234375,-0.0001527161948615685,-0.0001527161948615685,-0.0009926552884280682
1700358269219325700,8.00632568359375,0.0001527161948615685,0.00045814859913662076,0.0005345066892914474
1700358269238286300,8.025286376953124,0.0001527161948615685,-0.0001527161948615685,0.000839939049910754
1700358269257247000,8.0442470703125,-0.0001527161948615685,0.0001527161948615685,0.0005345066892914474
1700358269276207400,8.063207275390624,0.0001527161948615685,-0.0001527161948615685,-0.00038179047987796366
1700358269295168000,8.08216796875,0.0001527161948615685,-0.0001527161948615685,0.0011453714687377214
1700358269314128600,8.101128662109375,0.0001527161948615685,-0.00045814859913662076,-0.00007635809743078426
1700358269333089300,8.12008935546875,0.0001527161948615685,0.0007635809597559273,-0.0012980876490473747
1700358269352050200,8.13905029296875,-0.00045814859913662076,-0.00045814859913662076,-0.00007635809743078426
1700358269371010800,8.1580107421875,0.00045814859913662076,-0.0001527161948615685,0.000839939049910754
1700358269389971500,8.176971435546875,0.0010690133785828948,0.00045814859913662076,-0.0009926552884280682
1700358269408931800,8.195931884765624,-0.0001527161948615685,0.0001527161948615685,0.0011453714687377214
1700358269427892500,8.214892578125,-0.00045814859913662076,0.0001527161948615685,-0.00007635809743078426
1700358269446853000,8.23385302734375,0.0001527161948615685,-0.0001527161948615685,-0.0012980876490473747
1700358269465813800,8.252813720703125,-0.00045814859913662076,-0.0001527161948615685,-0.00007635809743078426
1700358269484774400,8.2717744140625,0.00045814859913662076,0.00045814859913662076,-0.00038179047987796366
1700358269503735000,8.290735107421876,0.0001527161948615685,-0.0010690133785828948,0.0005345066892914474
1700358269522695700,8.30969580078125,0.0001527161948615685,-0.00045814859913662076,-0.00007635809743078426
1700358269541656300,8.32865625,-0.0001527161948615685,-0.0001527161948615685,-0.00007635809743078426
1700358269560617000,8.347616943359375,0.00045814859913662076,-0.0001527161948615685,0.00022907429956831038
1700358269579577600,8.36657763671875,0.00045814859913662076,-0.0001527161948615685,-0.0006872228696011007
1700358269598538200,8.385538330078125,0.00045814859913662076,0.00045814859913662076,0.0005345066892914474
1700358269617499000,8.404498779296874,-0.0007635809597559273,0.00045814859913662076,0.000839939049910754
1700358269636459500,8.42345947265625,-0.0001527161948615685,0.0001527161948615685,0.00022907429956831038
1700358269655420200,8.442420166015625,-0.00045814859913662076,-0.0001527161948615685,0.00022907429956831038
1700358269674380800,8.461380859375,-0.0001527161948615685,-0.00045814859913662076,0.0005345066892914474
1700358269693341400,8.480341552734375,0.0007635809597559273,0.0001527161948615685,-0.00007635809743078426
1700358269712302000,8.499302001953126,-0.0001527161948615685,0.0001527161948615685,-0.00038179047987796366
1700358269731262500,8.518262451171875,0.0001527161948615685,0.0001527161948615685,-0.00038179047987796366
1700358269750223000,8.53722314453125,0.00045814859913662076,-0.0001527161948615685,-0.00038179047987796366
1700358269769183700,8.556183837890625,0.00045814859913662076,-0.0007635809597559273,-0.00038179047987796366
1700358269788144400,8.575144287109374,0.0001527161948615685,-0.0007635809597559273,-0.00038179047987796366
1700358269807105000,8.59410498046875,0.00045814859913662076,-0.00045814859913662076,0.00022907429956831038
1700358269826065700,8.613065673828125,0.0001527161948615685,-0.0001527161948615685,-0.00007635809743078426
1700358269845026300,8.6320263671875,0.00045814859913662076,-0.00045814859913662076,-0.00038179047987796366
1700358269863987000,8.650987060546875,0.0001527161948615685,-0.00045814859913662076,-0.0006872228696011007
1700358269882947600,8.669947509765626,-0.0007635809597559273,-0.0001527161948615685,-0.0006872228696011007
1700358269901908200,8.688908203125,0.00045814859913662076,-0.00045814859913662076,-0.0006872228696011007
1700358269920868900,8.707868896484374,-0.0001527161948615685,0.0001527161948615685,-0.0009926552884280682
1700358269939829500,8.72682958984375,-0.0007635809597559273,0.0007635809597559273,-0.0012980876490473747
1700358269958790100,8.7457900390625,-0.0001527161948615685,-0.0001527161948615685,-0.00038179047987796366
1700358269977750800,8.764750732421875,-0.00045814859913662076,-0.0019853105768561363,-0.0012980876490473747
1700358269996711400,8.78371142578125,-0.0001527161948615685,-0.0001527161948615685,0.00022907429956831038
1700358270015672000,8.802672119140626,0.00045814859913662076,-0.00045814859913662076,-0.00007635809743078426
1700358270034632700,8.8216328125,0.0001527161948615685,-0.00045814859913662076,-0.00038179047987796366
1700358270053593300,8.84059326171875,0.00045814859913662076,0.0001527161948615685,-0.0006872228696011007
1700358270072554000,8.859553955078125,0.0001527161948615685,-0.0001527161948615685,0.0011453714687377214
1700358270091514600,8.8785146484375,0.00045814859913662076,-0.0001527161948615685,-0.0009926552884280682
1700358270110475300,8.897475341796875,0.0007635809597559273,0.0010690133785828948,-0.00007635809743078426
1700358270129436000,8.916435791015624,0.0007635809597559273,-0.0001527161948615685,-0.00007635809743078426
1700358270148396500,8.935396484375,0.0007635809597559273,0.0001527161948615685,-0.00038179047987796366
1700358270167357200,8.954357177734375,0.00045814859913662076,-0.00045814859913662076,0.00022907429956831038
1700358270186317600,8.973317626953126,0.00045814859913662076,0.0001527161948615685,0.0005345066892914474
1700358270205278200,8.9922783203125,-0.0001527161948615685,-0.00045814859913662076,0.0005345066892914474
1700358270224238800,9.01123876953125,0.0001527161948615685,-0.0001527161948615685,0.001450803829357028
1700358270243199700,9.03019970703125,0.0001527161948615685,-0.0001527161948615685,0.00022907429956831038
1700358270262160400,9.049160400390624,0.00045814859913662076,0.0001527161948615685,-0.0012980876490473747
1700358270281121000,9.06812109375,-0.0001527161948615685,0.00045814859913662076,0.00022907429956831038
1700358270300081700,9.08708154296875,-0.0001527161948615685,0.00045814859913662076,0.0005345066892914474
1700358270319042000,9.1060419921875,0.0007635809597559273,-0.0001527161948615685,-0.00038179047987796366
1700358270338002700,9.125002685546875,-0.0001527161948615685,-0.00045814859913662076,-0.0009926552884280682
1700358270356963300,9.14396337890625,0.0010690133785828948,-0.00045814859913662076,-0.00007635809743078426
1700358270375924000,9.162924072265625,0.0001527161948615685,0.0001527161948615685,-0.00007635809743078426
1700358270394884600,9.181884521484376,0.00045814859913662076,0.0001527161948615685,-0.00007635809743078426
1700358270413845200,9.20084521484375,-0.0001527161948615685,0.00045814859913662076,0.00022907429956831038
1700358270432806000,9.219805908203124,-0.0007635809597559273,0.00045814859913662076,0.00022907429956831038
1700358270451766500,9.2387666015625,-0.00045814859913662076,-0.0001527161948615685,0.000839939049910754
1700358270470727200,9.25772705078125,0.00045814859913662076,0.0001527161948615685,0.0005345066892914474
1700358270489687800,9.276687744140625,-0.0001527161948615685,-0.0007635809597559273,0.00022907429956831038
1700358270508648400,9.2956484375,0.0007635809597559273,-0.0001527161948615685,-0.00007635809743078426
1700358270527609000,9.314609130859376,-0.0001527161948615685,-0.0001527161948615685,-0.00038179047987796366
1700358270546569700,9.33356982421875,0.0001527161948615685,0.0007635809597559273,0.0005345066892914474
1700358270565530400,9.3525302734375,-0.00045814859913662076,-0.0001527161948615685,-0.00007635809743078426
1700358270584491000,9.371490966796875,-0.0001527161948615685,0.0001527161948615685,-0.00038179047987796366
1700358270603451600,9.39045166015625,0.0007635809597559273,-0.0001527161948615685,-0.00038179047987796366
1700358270622412300,9.409412353515625,-0.00045814859913662076,-0.0001527161948615685,-0.00007635809743078426
1700358270641373000,9.428373046875,0.0001527161948615685,0.0001527161948615685,0.00022907429956831038
1700358270660333600,9.44733349609375,0.0001527161948615685,0.00045814859913662076,0.0011453714687377214
1700358270679294200,9.466294189453125,-0.0001527161948615685,0.0001527161948615685,0.0005345066892914474
1700358270698254800,9.4852548828125,-0.0001527161948615685,0.0010690133785828948,-0.00038179047987796366
1700358270717215500,9.504215576171875,0.0001527161948615685,0.0001527161948615685,-0.00007635809743078426
1700358270736176000,9.523176025390624,0.0001527161948615685,-0.00045814859913662076,0.00022907429956831038
1700358270755136800,9.54213671875,0.00045814859913662076,-0.0001527161948615685,0.00022907429956831038
1700358270774097400,9.561097412109374,0.0001527161948615685,-0.00045814859913662076,0.0005345066892914474
1700358270793058000,9.58005810546875,0.00045814859913662076,-0.0001527161948615685,-0.00038179047987796366
1700358270812018700,9.599018798828125,-0.0007635809597559273,0.00045814859913662076,-0.00007635809743078426
1700358270830979300,9.617979248046876,-0.00045814859913662076,-0.0001527161948615685,0.0011453714687377214
1700358270849940000,9.63693994140625,0.0001527161948615685,0.00045814859913662076,0.00022907429956831038
1700358270868900600,9.655900634765626,0.00045814859913662076,0.0001527161948615685,-0.00038179047987796366
1700358270887861200,9.674861328125,-0.00045814859913662076,-0.0007635809597559273,0.00022907429956831038
1700358270906821600,9.693821533203124,-0.00045814859913662076,-0.0001527161948615685,-0.00007635809743078426
1700358270925782500,9.712782470703125,-0.0001527161948615685,-0.0001527161948615685,0.00022907429956831038
1700358270944743200,9.7317431640625,-0.00045814859913662076,-0.0001527161948615685,-0.00007635809743078426
1700358270963703800,9.750703857421875,0.00045814859913662076,0.0001527161948615685,-0.00038179047987796366
1700358270982664400,9.76966455078125,-0.0001527161948615685,0.00045814859913662076,0.0005345066892914474
1700358271001625000,9.788625,-0.00045814859913662076,0.00045814859913662076,-0.00038179047987796366
1700358271020585700,9.807585693359375,-0.00045814859913662076,-0.00045814859913662076,-0.00007635809743078426
1700358271039546000,9.826546142578126,-0.0001527161948615685,-0.001679878099821508,-0.00007635809743078426
1700358271058506800,9.8455068359375,-0.0001527161948615685,0.00045814859913662076,0.0005345066892914474
1700358271077467400,9.86446728515625,0.00045814859913662076,0.0001527161948615685,-0.00038179047987796366
1700358271096428000,9.883427978515625,0.0001527161948615685,-0.0001527161948615685,-0.0006872228696011007
1700358271115389000,9.902388916015624,0.0001527161948615685,0.0007635809597559273,-0.0012980876490473747
1700358271134349600,9.921349609375,0.0007635809597559273,-0.0001527161948615685,-0.0009926552884280682
1700358271153310200,9.940310302734375,0.0001527161948615685,-0.0001527161948615685,-0.0006872228696011007
1700358271172270600,9.9592705078125,-0.00045814859913662076,0.00045814859913662076,-0.00038179047987796366
1700358271191231200,9.978231201171875,0.00045814859913662076,0.0001527161948615685,0.00022907429956831038
1700358271210192000,9.99719189453125,0.0001527161948615685,0.0001527161948615685,0.00022907429956831038
1700358271229152500,10.016152587890625,-0.0007635809597559273,-0.0001527161948615685,-0.00007635809743078426
1700358271248113200,10.035113037109374,-0.0001527161948615685,0.0010690133785828948,0.0011453714687377214
1700358271267073800,10.05407373046875,-0.00045814859913662076,-0.0001527161948615685,0.00022907429956831038
1700358271286034400,10.073034423828124,0.0001527161948615685,0.00045814859913662076,-0.00007635809743078426
1700358271304995000,10.0919951171875,0.0001527161948615685,-0.0001527161948615685,0.00022907429956831038
1700358271323955700,10.110955810546875,-0.0001527161948615685,-0.0001527161948615685,0.00022907429956831038
1700358271342916400,10.129916259765626,0.0001527161948615685,-0.0001527161948615685,-0.00007635809743078426
1700358271361877000,10.148876953125,0.00045814859913662076,0.0013744457392022014,-0.0006872228696011007
1700358271380837600,10.167837646484376,0.0007635809597559273,0.0001527161948615685,-0.0006872228696011007
1700358271399798300,10.18679833984375,0.0001527161948615685,-0.0001527161948615685,-0.0006872228696011007
1700358271418759000,10.205759033203124,0.0007635809597559273,0.00045814859913662076,-0.00007635809743078426
1700358271437719600,10.224719482421875,0.0007635809597559273,0.0001527161948615685,-0.00038179047987796366
1700358271456680200,10.24368017578125,-0.0001527161948615685,-0.0001527161948615685,-0.00038179047987796366
1700358271475640800,10.262640869140625,0.00045814859913662076,-0.00045814859913662076,-0.00007635809743078426
1700358271494601500,10.2816015625,-0.0001527161948615685,-0.00045814859913662076,-0.00038179047987796366
1700358271513562000,10.30056201171875,0.0001527161948615685,0.0007635809597559273,-0.00007635809743078426
1700358271532522800,10.319522705078125,0.0010690133785828948,-0.0001527161948615685,0.00022907429956831038
1700358271551483400,10.3384833984375,-0.00045814859913662076,0.0001527161948615685,-0.00007635809743078426
1700358271570444000,10.357444091796875,0.00045814859913662076,-0.0001527161948615685,-0.0006872228696011007
1700358271589404700,10.37640478515625,-0.0001527161948615685,-0.0001527161948615685,-0.00007635809743078426
1700358271608365300,10.395365234375,0.0007635809597559273,0.0001527161948615685,-0.0006872228696011007
1700358271627326000,10.414325927734374,0.00045814859913662076,-0.0001527161948615685,0.00022907429956831038
1700358271646286600,10.43328662109375,-0.0001527161948615685,0.0001527161948615685,0.00022907429956831038
1700358271665247200,10.452247314453125,0.0001527161948615685,-0.0001527161948615685,-0.00007635809743078426
1700358271684207900,10.471207763671876,0.0001527161948615685,0.00045814859913662076,0.00022907429956831038
1700358271703168500,10.49016845703125,-0.00045814859913662076,-0.0001527161948615685,0.00022907429956831038
1700358271722129200,10.509129150390624,0.0007635809597559273,-0.0001527161948615685,0.0005345066892914474
1700358271741089800,10.52808984375,0.0001527161948615685,0.00045814859913662076,-0.00007635809743078426
1700358271760050400,10.547050537109374,-0.0007635809597559273,0.0001527161948615685,-0.00038179047987796366
1700358271779011000,10.566010986328125,0.00045814859913662076,0.0001527161948615685,-0.00038179047987796366
1700358271797971700,10.5849716796875,0.0007635809597559273,0.00045814859913662076,-0.00007635809743078426
1700358271816932400,10.603932373046876,-0.0001527161948615685,0.0001527161948615685,0.00022907429956831038
1700358271835893000,10.62289306640625,0.0001527161948615685,0.00045814859913662076,0.00022907429956831038
1700358271854853600,10.641853515625,-0.0001527161948615685,-0.0007635809597559273,-0.00038179047987796366
1700358271873814000,10.66081396484375,0.00045814859913662076,-0.00045814859913662076,0.000839939049910754
1700358271892774700,10.679774658203126,-0.0007635809597559273,-0.00045814859913662076,-0.0006872228696011007
1700358271911735300,10.6987353515625,0.0001527161948615685,0.0001527161948615685,-0.00007635809743078426
1700358271930696200,10.7176962890625,0.0001527161948615685,-0.0007635809597559273,-0.0006872228696011007
1700358271949656800,10.73665673828125,0.00045814859913662076,-0.00045814859913662076,-0.00007635809743078426
1700358271968617500,10.755617431640625,0.0001527161948615685,0.0001527161948615685,0.00022907429956831038
1700358271987578000,10.774578125,0.0001527161948615685,-0.00045814859913662076,-0.00038179047987796366
1700358272006538500,10.79353857421875,0.00045814859913662076,-0.0001527161948615685,0.00022907429956831038
1700358272025499100,10.8124990234375,0.00045814859913662076,0.0001527161948615685,0.000839939049910754
1700358272044459800,10.831459716796875,0.0001527161948615685,-0.0001527161948615685,-0.0006872228696011007
1700358272063420400,10.85042041015625,0.00045814859913662076,-0.0001527161948615685,-0.00038179047987796366
1700358272082381000,10.869381103515625,0.0007635809597559273,0.0010690133785828948,0.00022907429956831038
1700358272101341700,10.888341796875,-0.00045814859913662076,0.0001527161948615685,-0.00007635809743078426
1700358272120302300,10.90730224609375,0.0001527161948615685,-0.0001527161948615685,-0.00007635809743078426
1700358272139263000,10.926262939453125,0.0001527161948615685,0.0007635809597559273,-0.00038179047987796366
1700358272158223600,10.9452236328125,-0.0001527161948615685,0.0001527161948615685,0.00022907429956831038
1700358272177184300,10.964184326171875,0.0001527161948615685,-0.00045814859913662076,-0.0006872228696011007
1700358272196145000,10.983144775390626,0.0001527161948615685,-0.001679878099821508,-0.00007635809743078426
1700358272215105500,11.00210546875,-0.0007635809597559273,-0.0001527161948615685,-0.00007635809743078426
1700358272234066200,11.021066162109374,-0.00045814859913662076,-0.00045814859913662076,0.000839939049910754
1700358272253026800,11.04002685546875,0.0001527161948615685,-0.00045814859913662076,-0.0006872228696011007
1700358272271987500,11.058987548828124,0.0001527161948615685,0.00045814859913662076,0.00022907429956831038
1700358272290948000,11.077947998046875,-0.0001527161948615685,-0.0001527161948615685,0.0005345066892914474
1700358272309908700,11.09690869140625,0.0001527161948615685,0.0001527161948615685,-0.00038179047987796366
1700358272328869400,11.115869384765626,0.0001527161948615685,-0.0001527161948615685,-0.00038179047987796366
1700358272347830000,11.134830078125,0.00045814859913662076,-0.00045814859913662076,0.00022907429956831038
1700358272366790700,11.153790771484376,0.0001527161948615685,-0.00045814859913662076,-0.00007635809743078426
1700358272385751300,11.172751220703125,0.0001527161948615685,0.0001527161948615685,-0.00038179047987796366
1700358272404712000,11.1917119140625,0.00045814859913662076,-0.0001527161948615685,-0.00038179047987796366
1700358272423672600,11.210672607421875,-0.0001527161948615685,0.0001527161948615685,-0.0006872228696011007
1700358272442633200,11.22963330078125,0.0001527161948615685,-0.00045814859913662076,-0.00038179047987796366
1700358272461593600,11.248593505859375,0.00045814859913662076,-0.00045814859913662076,0.00022907429956831038
1700358272480554200,11.26755419921875,0.0001527161948615685,-0.0001527161948615685,-0.00007635809743078426
1700358272499515100,11.28651513671875,0.0001527161948615685,-0.0001527161948615685,-0.00038179047987796366
1700358272518475800,11.305475830078125,0.0001527161948615685,0.0007635809597559273,-0.00007635809743078426
1700358272537436400,11.3244365234375,0.00045814859913662076,0.0001527161948615685,-0.0009926552884280682
1700358272556397000,11.34339697265625,-0.0007635809597559273,0.00045814859913662076,-0.00007635809743078426
1700358272575357700,11.362357666015624,-0.0001527161948615685,-0.0007635809597559273,-0.00007635809743078426
1700358272594318000,11.381318115234375,-0.0001527161948615685,-0.0001527161948615685,0.0005345066892914474
1700358272613278700,11.40027880859375,0.0001527161948615685,-0.0001527161948615685,-0.00038179047987796366
1700358272632239400,11.4192392578125,-0.0001527161948615685,-0.0001527161948615685,-0.0006872228696011007
1700358272651200000,11.438199951171875,0.0001527161948615685,0.0001527161948615685,-0.00007635809743078426
1700358272670160600,11.45716064453125,0.0001527161948615685,-0.0001527161948615685,-0.0006872228696011007
1700358272689121300,11.476121337890625,-0.00045814859913662076,0.0007635809597559273,0.00022907429956831038
1700358272708082000,11.49508203125,-0.0001527161948615685,0.0001527161948615685,0.000839939049910754
1700358272727042600,11.51404248046875,0.0001527161948615685,0.0001527161948615685,-0.00007635809743078426
1700358272746003200,11.533003173828124,0.0001527161948615685,0.0001527161948615685,0.00022907429956831038
1700358272764963800,11.5519638671875,-0.0007635809597559273,0.0001527161948615685,-0.00038179047987796366
1700358272783924500,11.570924560546874,0.0007635809597559273,0.0001527161948615685,-0.0009926552884280682
1700358272802885000,11.589885009765625,0.0001527161948615685,0.0001527161948615685,-0.00038179047987796366
1700358272821845800,11.608845703125,0.0001527161948615685,0.00045814859913662076,0.0005345066892914474
1700358272840806400,11.627806396484376,0.0001527161948615685,-0.00045814859913662076,0.00022907429956831038
1700358272859767000,11.64676708984375,0.0001527161948615685,-0.00045814859913662076,0.00022907429956831038
1700358272878727700,11.665727783203126,-0.0001527161948615685,0.0001527161948615685,-0.00038179047987796366
1700358272897688300,11.684688232421875,-0.00045814859913662076,0.00045814859913662076,-0.00038179047987796366
1700358272916648700,11.703648681640624,-0.0001527161948615685,0.0001527161948615685,-0.00007635809743078426
1700358272935609300,11.722609375,0.0007635809597559273,0.0001527161948615685,-0.00007635809743078426
1700358272954570000,11.741570068359374,0.0001527161948615685,0.0007635809597559273,-0.00007635809743078426
1700358272973530600,11.760530517578125,0.00045814859913662076,-0.0007635809597559273,0.00022907429956831038
1700358272992491300,11.7794912109375,0.0007635809597559273,0.0001527161948615685,-0.00038179047987796366
1700358273011452000,11.798451904296876,0.0007635809597559273,-0.0001527161948615685,-0.00038179047987796366
1700358273030412500,11.81741259765625,-0.0001527161948615685,-0.0001527161948615685,-0.00038179047987796366
1700358273049373200,11.836373291015626,0.00045814859913662076,0.00045814859913662076,-0.00038179047987796366
1700358273068333800,11.855333740234375,0.00045814859913662076,-0.0001527161948615685,-0.0006872228696011007
1700358273087294500,11.87429443359375,-0.00045814859913662076,0.0001527161948615685,0.00022907429956831038
1700358273106255000,11.893255126953125,-0.0001527161948615685,0.0001527161948615685,0.0005345066892914474
1700358273125215700,11.9122158203125,0.0001527161948615685,-0.0013744457392022014,0.0005345066892914474
1700358273144176400,11.93117626953125,0.00045814859913662076,-0.0001527161948615685,-0.00038179047987796366
1700358273163137000,11.950136962890625,-0.00045814859913662076,-0.0010690133785828948,0.0005345066892914474
1700358273182097700,11.96909765625,0.0001527161948615685,-0.00045814859913662076,0.0011453714687377214
1700358273201058300,11.988058349609375,-0.00045814859913662076,0.0001527161948615685,0.0005345066892914474
1700358273220019000,12.00701904296875,0.0001527161948615685,-0.0010690133785828948,0.00022907429956831038
1700358273238979600,12.0259794921875,-0.0001527161948615685,0.0007635809597559273,-0.00007635809743078426
1700358273257940000,12.04493994140625,-0.00045814859913662076,0.00045814859913662076,-0.0006872228696011007
1700358273276900600,12.063900634765625,0.0001527161948615685,0.0001527161948615685,0.0005345066892914474
1700358273295861200,12.082861328125,-0.00045814859913662076,-0.0007635809597559273,-0.00007635809743078426
1700358273314822000,12.10182177734375,0.0001527161948615685,-0.0001527161948615685,-0.0006872228696011007
1700358273333782500,12.120782470703125,0.0001527161948615685,0.00045814859913662076,-0.00007635809743078426
1700358273352743200,12.1397431640625,0.0007635809597559273,-0.0001527161948615685,-0.0006872228696011007
1700358273371703800,12.158703857421875,-0.0001527161948615685,0.0001527161948615685,0.00022907429956831038
1700358273390664400,12.17766455078125,0.0001527161948615685,-0.0001527161948615685,-0.0006872228696011007
1700358273409625000,12.196625,0.0001527161948615685,0.0001527161948615685,0.000839939049910754
1700358273428585700,12.215585693359374,-0.00045814859913662076,0.00045814859913662076,-0.00007635809743078426
1700358273447546400,12.23454638671875,-0.0001527161948615685,0.0007635809597559273,-0.0006872228696011007
1700358273466507000,12.253507080078125,-0.0001527161948615685,-0.0001527161948615685,-0.00038179047987796366
1700358273485467400,12.27246728515625,0.0001527161948615685,-0.0001527161948615685,-0.00007635809743078426
1700358273504428000,12.291427978515625,0.00045814859913662076,0.0001527161948615685,-0.00007635809743078426
1700358273523388700,12.310388671875,-0.0001527161948615685,-0.00045814859913662076,0.0005345066892914474
1700358273542349300,12.329349365234375,-0.0001527161948615685,-0.0001527161948615685,0.00022907429956831038
1700358273561310000,12.34831005859375,-0.0001527161948615685,-0.00045814859913662076,0.00022907429956831038
1700358273580270600,12.3672705078125,0.0001527161948615685,-0.00045814859913662076,0.00022907429956831038
1700358273599231200,12.386231201171874,0.0001527161948615685,-0.00045814859913662076,0.00022907429956831038
1700358273618192000,12.40519189453125,0.0001527161948615685,0.00045814859913662076,-0.00038179047987796366
1700358273637152500,12.424152587890624,-0.00045814859913662076,-0.0001527161948615685,0.00022907429956831038
1700358273656113200,12.443113037109375,0.0001527161948615685,0.00045814859913662076,-0.00038179047987796366
1700358273675073800,12.46207373046875,0.0001527161948615685,-0.0007635809597559273,-0.00038179047987796366
1700358273694034400,12.481034423828126,-0.0001527161948615685,0.0001527161948615685,0.00022907429956831038
1700358273712995000,12.4999951171875,-0.0001527161948615685,0.0010690133785828948,0.00022907429956831038
1700358273731955500,12.51895556640625,0.00045814859913662076,0.00045814859913662076,-0.00007635809743078426
1700358273750916000,12.537916015625,0.00045814859913662076,-0.0001527161948615685,-0.00007635809743078426
1700358273769876700,12.556876708984374,0.0001527161948615685,0.00045814859913662076,-0.00007635809743078426
1700358273788837400,12.57583740234375,0.00045814859913662076,-0.00045814859913662076,-0.00038179047987796366
1700358273807798000,12.594798095703124,-0.0001527161948615685,-0.0001527161948615685,0.00022907429956831038
1700358273826758700,12.613758544921875,-0.00045814859913662076,0.0001527161948615685,-0.0006872228696011007
1700358273845719300,12.63271923828125,0.0007635809597559273,0.00045814859913662076,-0.00038179047987796366
1700358273864680000,12.651679931640626,-0.0001527161948615685,-0.00045814859913662076,-0.00038179047987796366
1700358273883640600,12.670640625,0.0001527161948615685,-0.00045814859913662076,0.000839939049910754
1700358273902601200,12.689601318359376,-0.0001527161948615685,-0.0001527161948615685,0.0005345066892914474
1700358273921561600,12.7085615234375,-0.00045814859913662076,0.00045814859913662076,0.00022907429956831038
1700358273940522200,12.727522216796874,0.0001527161948615685,-0.00045814859913662076,0.00022907429956831038
1700358273959483000,12.74648291015625,0.0001527161948615685,-0.00045814859913662076,0.00022907429956831038
1700358273978443500,12.765443603515624,0.0001527161948615685,0.0001527161948615685,-0.00007635809743078426
1700358273997404200,12.784404052734375,-0.0001527161948615685,-0.0001527161948615685,-0.00007635809743078426
1700358274016364800,12.80336474609375,-0.0001527161948615685,-0.00045814859913662076,-0.00007635809743078426
1700358274035325400,12.822325439453126,0.0007635809597559273,0.0001527161948615685,-0.0009926552884280682
1700358274054285800,12.841285888671875,-0.00045814859913662076,0.0001527161948615685,0.0011453714687377214
1700358274073246500,12.86024658203125,0.0001527161948615685,0.0001527161948615685,0.00022907429956831038
1700358274092207000,12.87920703125,-0.00045814859913662076,-0.00045814859913662076,-0.00038179047987796366
1700358274111167700,12.898167724609374,0.0001527161948615685,0.0001527161948615685,-0.00007635809743078426
1700358274130128400,12.91712841796875,0.0007635809597559273,0.00045814859913662076,-0.0009926552884280682
1700358274149089000,12.936089111328124,0.0001527161948615685,0.0001527161948615685,-0.0006872228696011007
1700358274168049700,12.955049560546875,0.0007635809597559273,-0.0001527161948615685,-0.0006872228696011007
1700358274187010300,12.97401025390625,0.0007635809597559273,-0.0001527161948615685,0.00022907429956831038
1700358274205970700,12.992970703125,0.0001527161948615685,-0.0001527161948615685,0.00022907429956831038
1700358274224931300,13.011931396484375,0.0001527161948615685,0.00045814859913662076,-0.0006872228696011007
1700358274243892000,13.03089208984375,0.0001527161948615685,0.0007635809597559273,0.00022907429956831038
1700358274262852600,13.0498525390625,0.00045814859913662076,-0.00045814859913662076,0.000839939049910754
1700358274281813200,13.068813232421874,0.0001527161948615685,0.0001527161948615685,-0.0009926552884280682
1700358274300774000,13.08777392578125,0.0007635809597559273,-0.0010690133785828948,0.0005345066892914474
1700358274319734500,13.106734619140624,-0.0001527161948615685,0.00045814859913662076,-0.0006872228696011007
1700358274338695200,13.125695068359375,-0.0007635809597559273,-0.00045814859913662076,0.00022907429956831038
1700358274357655800,13.14465576171875,0.0001527161948615685,-0.0007635809597559273,0.00022907429956831038
1700358274376616400,13.163616455078126,0.0001527161948615685,-0.0001527161948615685,-0.00038179047987796366
1700358274395576800,13.182576904296875,0.0001527161948615685,-0.00045814859913662076,-0.00007635809743078426
1700358274414537500,13.201537353515626,0.00045814859913662076,0.0001527161948615685,0.00022907429956831038
1700358274433498000,13.220498046875,0.00045814859913662076,0.0010690133785828948,-0.00007635809743078426
1700358274452458800,13.239458740234374,0.0001527161948615685,0.00045814859913662076,0.0005345066892914474
1700358274471419400,13.25841943359375,-0.0001527161948615685,0.00045814859913662076,-0.00007635809743078426
1700358274490380000,13.277380126953124,0.0001527161948615685,-0.0001527161948615685,-0.00007635809743078426
1700358274509340400,13.29634033203125,0.0001527161948615685,-0.0001527161948615685,-0.0006872228696011007
1700358274528301000,13.315301025390625,0.00045814859913662076,-0.0007635809597559273,0.00022907429956831038
1700358274547261700,13.33426171875,0.0010690133785828948,0.0001527161948615685,-0.00007635809743078426
1700358274566222300,13.353222412109375,-0.0001527161948615685,0.0001527161948615685,-0.00007635809743078426
1700358274585183000,13.372182861328126,-0.00045814859913662076,-0.0001527161948615685,-0.00007635809743078426
1700358274604143600,13.3911435546875,0.00045814859913662076,0.0007635809597559273,-0.00007635809743078426
1700358274623104300,13.410104248046874,0.00045814859913662076,-0.0001527161948615685,-0.00038179047987796366
1700358274642065000,13.42906494140625,0.0001527161948615685,-0.0007635809597559273,-0.00007635809743078426
1700358274661025300,13.448025390625,0.0007635809597559273,-0.0001527161948615685,0.0005345066892914474
1700358274679986000,13.46698583984375,0.0001527161948615685,0.0001527161948615685,-0.00038179047987796366
1700358274698946600,13.485946533203125,-0.0001527161948615685,-0.0001527161948615685,0.0005345066892914474
1700358274717907200,13.5049072265625,0.0001527161948615685,-0.0001527161948615685,-0.0009926552884280682
1700358274736867800,13.523867919921875,-0.0001527161948615685,-0.00045814859913662076,-0.0006872228696011007
1700358274755828200,13.542828125,-0.0001527161948615685,0.00045814859913662076,-0.00007635809743078426
1700358274774788900,13.561788818359375,-0.00045814859913662076,0.0001527161948615685,-0.0006872228696011007
1700358274793749500,13.58074951171875,0.00045814859913662076,-0.0001527161948615685,0.000839939049910754
1700358274812710100,13.599710205078125,-0.0001527161948615685,-0.0001527161948615685,0.0005345066892914474
1700358274831670800,13.6186708984375,-0.0001527161948615685,0.0001527161948615685,0.000839939049910754
1700358274850631400,13.63763134765625,0.00045814859913662076,0.0001527161948615685,-0.00038179047987796366
1700358274869592000,13.656592041015625,0.00045814859913662076,-0.0001527161948615685,0.00022907429956831038
1700358274888552700,13.675552734375,0.0001527161948615685,0.00045814859913662076,-0.0006872228696011007
1700358274907513000,13.69451318359375,0.0007635809597559273,-0.0001527161948615685,0.00022907429956831038
1700358274926473700,13.7134736328125,0.00045814859913662076,-0.0001527161948615685,0.00022907429956831038
1700358274945434400,13.732434326171875,0.00045814859913662076,-0.0001527161948615685,0.00022907429956831038
1700358274964395000,13.75139501953125,0.0001527161948615685,-0.0001527161948615685,-0.00007635809743078426
1700358274983355400,13.77035546875,-0.0001527161948615685,0.0001527161948615685,-0.00038179047987796366
1700358275002316000,13.78931591796875,-0.0007635809597559273,0.0001527161948615685,-0.0006872228696011007
1700358275021276700,13.808276611328125,-0.0001527161948615685,0.0007635809597559273,-0.00007635809743078426
1700358275040237300,13.8272373046875,-0.0001527161948615685,-0.00045814859913662076,0.000839939049910754
1700358275059198000,13.846197998046875,-0.0001527161948615685,0.0001527161948615685,-0.00038179047987796366
1700358275078158600,13.86515869140625,0.00045814859913662076,-0.00045814859913662076,-0.00007635809743078426
1700358275097119000,13.884118896484376,-0.0001527161948615685,0.0001527161948615685,0.0005345066892914474
1700358275116079600,13.90307958984375,0.0001527161948615685,-0.00045814859913662076,0.00022907429956831038
1700358275135040300,13.922040283203126,0.00045814859913662076,0.0001527161948615685,-0.00007635809743078426
1700358275154001000,13.9410009765625,-0.0001527161948615685,-0.0007635809597559273,0.0005345066892914474
1700358275172961500,13.95996142578125,-0.00045814859913662076,-0.0007635809597559273,-0.00038179047987796366
1700358275191922200,13.978922119140625,0.00045814859913662076,-0.00045814859913662076,0.00022907429956831038
1700358275210882600,13.997882568359374,0.0007635809597559273,-0.0001527161948615685,0.00022907429956831038
1700358275229843200,14.01684326171875,0.00045814859913662076,0.00045814859913662076,0.0005345066892914474
1700358275248803800,14.035803955078125,0.0001527161948615685,-0.00045814859913662076,0.00022907429956831038
1700358275267764500,14.054764404296876,0.00045814859913662076,-0.0007635809597559273,0.0005345066892914474
1700358275286724900,14.073724853515625,-0.00045814859913662076,0.00045814859913662076,-0.00007635809743078426
1700358275305685500,14.092685546875,-0.0001527161948615685,-0.0001527161948615685,-0.00007635809743078426
1700358275324646100,14.111646240234375,-0.0001527161948615685,-0.00045814859913662076,-0.00038179047987796366
1700358275343606800,14.130606689453124,-0.0001527161948615685,-0.0001527161948615685,-0.00007635809743078426
1700358275362567400,14.1495673828125,0.00045814859913662076,-0.00045814859913662076,-0.00007635809743078426
1700358275381528000,14.168528076171874,0.0001527161948615685,-0.00045814859913662076,0.00022907429956831038
1700358275400488400,14.187488525390625,0.0001527161948615685,-0.00045814859913662076,-0.0006872228696011007
1700358275419449000,14.206448974609375,-0.00045814859913662076,0.0007635809597559273,0.00022907429956831038
1700358275438409700,14.22540966796875,-0.0001527161948615685,0.0007635809597559273,-0.00007635809743078426
1700358275457370400,14.244370361328125,-0.0001527161948615685,-0.00045814859913662076,0.0011453714687377214
1700358275476331000,14.2633310546875,-0.0001527161948615685,-0.00045814859913662076,-0.00007635809743078426
1700358275495291400,14.28229150390625,-0.0001527161948615685,-0.0007635809597559273,-0.00038179047987796366
1700358275514252000,14.301251953125,0.0001527161948615685,0.0001527161948615685,-0.00007635809743078426
1700358275533212700,14.320212646484375,-0.0001527161948615685,0.00045814859913662076,-0.00007635809743078426
1700358275552173300,14.33917333984375,-0.0001527161948615685,-0.00045814859913662076,0.00022907429956831038
1700358275571134000,14.358134033203125,-0.00045814859913662076,0.0001527161948615685,0.0005345066892914474
1700358275590094300,14.37709423828125,0.0001527161948615685,-0.00045814859913662076,0.000839939049910754
1700358275609055000,14.396054931640625,-0.0007635809597559273,-0.0001527161948615685,-0.00007635809743078426
1700358275628015600,14.415015625,0.0001527161948615685,-0.00045814859913662076,0.00022907429956831038
1700358275646976000,14.43397607421875,-0.0007635809597559273,0.0001527161948615685,0.0005345066892914474
1700358275665936600,14.4529365234375,-0.0001527161948615685,-0.0001527161948615685,-0.00038179047987796366
1700358275684897300,14.471897216796876,0.0001527161948615685,-0.0001527161948615685,-0.0006872228696011007
1700358275703858000,14.49085791015625,-0.00045814859913662076,-0.00045814859913662076,-0.00007635809743078426
1700358275722818600,14.509818603515624,0.0001527161948615685,-0.00045814859913662076,-0.0006872228696011007
1700358275741779000,14.528779052734375,-0.0001527161948615685,-0.00045814859913662076,0.00022907429956831038
1700358275760739600,14.547739501953124,0.0001527161948615685,0.0001527161948615685,0.00022907429956831038
1700358275779700200,14.5667001953125,-0.0007635809597559273,-0.00045814859913662076,0.0005345066892914474
1700358275798660900,14.585660888671875,-0.0001527161948615685,-0.0001527161948615685,-0.00007635809743078426
1700358275817621500,14.60462158203125,0.00045814859913662076,0.0001527161948615685,-0.0006872228696011007
1700358275836582000,14.623581787109375,-0.0001527161948615685,0.00045814859913662076,0.000839939049910754
1700358275855542500,14.64254248046875,0.0001527161948615685,0.00045814859913662076,-0.00007635809743078426
1700358275874503200,14.661503173828125,-0.00045814859913662076,0.0001527161948615685,-0.00038179047987796366
1700358275893463800,14.6804638671875,0.00045814859913662076,-0.00045814859913662076,0.00022907429956831038
1700358275912424200,14.699424072265625,-0.0001527161948615685,-0.00045814859913662076,-0.00038179047987796366
1700358275931384800,14.718384765625,-0.0001527161948615685,-0.0001527161948615685,0.0005345066892914474
1700358275950345500,14.737345458984375,0.0001527161948615685,-0.00045814859913662076,0.0005345066892914474
1700358275969306000,14.75630615234375,-0.0007635809597559273,0.0001527161948615685,0.000839939049910754
1700358275988266800,14.775266845703126,0.0001527161948615685,0.0001527161948615685,0.0005345066892914474
1700358276007227100,14.79422705078125,-0.0007635809597559273,0.00045814859913662076,0.0005345066892914474
1700358276026187800,14.813187744140626,-0.00045814859913662076,-0.00045814859913662076,-0.00038179047987796366
1700358276045148400,14.8321484375,0.0001527161948615685,0.00045814859913662076,0.0011453714687377214
1700358276064109000,14.851109130859374,-0.0007635809597559273,0.0001527161948615685,-0.00038179047987796366
1700358276083069400,14.8700693359375,-0.0007635809597559273,-0.00045814859913662076,0.000839939049910754
1700358276102030000,14.889030029296874,0.00045814859913662076,0.00045814859913662076,0.00022907429956831038
1700358276120990700,14.90799072265625,-0.0001527161948615685,0.0001527161948615685,-0.00007635809743078426
1700358276139951000,14.926951171875,0.0007635809597559273,0.0007635809597559273,-0.00007635809743078426
1700358276158911700,14.945911865234375,0.00045814859913662076,-0.00045814859913662076,-0.00007635809743078426
1700358276177872400,14.964872314453125,0.00045814859913662076,-0.0001527161948615685,0.00022907429956831038
1700358276196832800,14.983832763671876,0.0001527161948615685,-0.0001527161948615685,-0.00038179047987796366
1700358276215793400,15.00279345703125,0.0001527161948615685,0.0001527161948615685,0.000839939049910754
1700358276234754000,15.021754150390626,-0.0001527161948615685,0.0001527161948615685,-0.0006872228696011007
1700358276253714700,15.040714599609375,-0.0007635809597559273,0.0001527161948615685,0.00022907429956831038
1700358276272675000,15.059675048828124,-0.00045814859913662076,-0.00045814859913662076,-0.00007635809743078426
1700358276291635700,15.0786357421875,-0.0001527161948615685,0.0001527161948615685,0.000839939049910754
1700358276310596400,15.097596435546874,-0.0001527161948615685,0.0010690133785828948,0.00022907429956831038
1700358276329557000,15.116556884765625,0.00045814859913662076,-0.0001527161948615685,-0.0009926552884280682
1700358276348517400,15.135517333984374,-0.0001527161948615685,-0.0001527161948615685,-0.00007635809743078426
1700358276367478000,15.15447802734375,-0.00045814859913662076,0.0001527161948615685,-0.00038179047987796366
1700358276386438700,15.173438720703125,-0.0001527161948615685,-0.0001527161948615685,0.00022907429956831038
1700358276405399300,15.1923994140625,0.00045814859913662076,0.0001527161948615685,-0.00007635809743078426
1700358276424359700,15.211359619140625,0.00045814859913662076,0.00045814859913662076,-0.00007635809743078426
1700358276443320300,15.2303203125,-0.0007635809597559273,-0.00045814859913662076,-0.00038179047987796366
1700358276462281000,15.249281005859375,0.0001527161948615685,0.0007635809597559273,-0.00007635809743078426
1700358276481241300,15.268241455078124,-0.0001527161948615685,-0.00045814859913662076,-0.00038179047987796366
1700358276500202000,15.287201904296875,-0.00045814859913662076,-0.0007635809597559273,0.0011453714687377214
1700358276519162600,15.30616259765625,-0.0001527161948615685,0.0001527161948615685,-0.00007635809743078426
1700358276538123300,15.325123291015625,-0.00045814859913662076,-0.0001527161948615685,-0.00007635809743078426
1700358276557083600,15.344083740234375,-0.0001527161948615685,0.0001527161948615685,-0.00007635809743078426
1700358276576044300,15.363044189453126,0.0001527161948615685,0.0010690133785828948,-0.00007635809743078426
1700358276595005000,15.3820048828125,-0.00045814859913662076,0.0001527161948615685,-0.00038179047987796366
1700358276613965300,15.40096533203125,0.0001527161948615685,0.00045814859913662076,0.0005345066892914474
1700358276632926000,15.419926025390625,0.0001527161948615685,-0.0001527161948615685,-0.00007635809743078426
1700358276651886600,15.438886474609374,-0.0001527161948615685,0.00045814859913662076,-0.0006872228696011007
1700358276670847200,15.45784716796875,0.00045814859913662076,-0.0001527161948615685,-0.00038179047987796366
1700358276689807600,15.4768076171875,-0.00045814859913662076,0.00045814859913662076,0.000839939049910754
1700358276708768300,15.495768310546875,-0.0001527161948615685,0.0001527161948615685,-0.00038179047987796366
1700358276727729000,15.51472900390625,0.0001527161948615685,0.0001527161948615685,-0.00007635809743078426
1700358276746689300,15.533689208984375,-0.0010690133785828948,-0.0001527161948615685,0.00022907429956831038
1700358276765650000,15.55264990234375,0.0001527161948615685,-0.0001527161948615685,0.000839939049910754
1700358276784610600,15.571610595703126,0.0001527161948615685,-0.0001527161948615685,0.0005345066892914474
1700358276803571000,15.590571044921875,0.0001527161948615685,-0.0001527161948615685,-0.00007635809743078426
1700358276822531600,15.609531494140626,-0.0001527161948615685,-0.0001527161948615685,-0.00038179047987796366
1700358276841492200,15.6284921875,0.0001527161948615685,-0.0010690133785828948,0.000839939049910754
1700358276860452900,15.647452880859374,-0.00045814859913662076,-0.0001527161948615685,-0.00007635809743078426
1700358276879413200,15.666413330078125,-0.0007635809597559273,-0.0001527161948615685,-0.0012980876490473747
1700358276898374000,15.685373779296874,0.00045814859913662076,0.0007635809597559273,0.00022907429956831038
1700358276917334500,15.70433447265625,0.0001527161948615685,-0.0001527161948615685,-0.00038179047987796366
1700358276936295000,15.723294921875,0.00045814859913662076,0.0007635809597559273,0.000839939049910754
1700358276955255600,15.742255615234376,0.00045814859913662076,0.00045814859913662076,-0.00007635809743078426
1700358276974216200,15.76121630859375,0.0001527161948615685,-0.0001527161948615685,0.00022907429956831038
1700358276993176600,15.780176513671876,0.00045814859913662076,0.0001527161948615685,-0.00007635809743078426
1700358277012137200,15.79913720703125,-0.0001527161948615685,-0.0001527161948615685,0.0011453714687377214
1700358277031097900,15.818097900390624,-0.0001527161948615685,-0.0001527161948615685,-0.00038179047987796366
1700358277050058200,15.837058349609375,0.0001527161948615685,-0.00045814859913662076,0.0005345066892914474
1700358277069019000,15.856018798828124,-0.0001527161948615685,-0.0007635809597559273,0.0005345066892914474
1700358277087979500,15.8749794921875,0.0007635809597559273,0.00045814859913662076,-0.00007635809743078426
1700358277106940000,15.89393994140625,0.00045814859913662076,-0.0001527161948615685,0.00022907429956831038
1700358277125900500,15.912900634765625,-0.0001527161948615685,0.0007635809597559273,0.00022907429956831038
1700358277144861200,15.931861083984375,0.0001527161948615685,0.0001527161948615685,0.00022907429956831038
1700358277163821600,15.950821533203126,-0.0001527161948615685,-0.0001527161948615685,-0.00007635809743078426
1700358277182782200,15.9697822265625,-0.0001527161948615685,-0.0001527161948615685,0.00022907429956831038
1700358277201742800,15.988742919921876,-0.0001527161948615685,0.0001527161948615685,0.0005345066892914474
1700358277220703200,16.007703125,-0.0001527161948615685,-0.0010690133785828948,0.0005345066892914474
1700358277239663900,16.026663818359374,-0.00045814859913662076,0.0007635809597559273,-0.00007635809743078426
1700358277258624500,16.04562451171875,0.00045814859913662076,0.00045814859913662076,0.00022907429956831038
1700358277277585000,16.0645849609375,-0.00045814859913662076,0.00045814859913662076,0.00022907429956831038
1700358277296545500,16.083545654296874,0.0001527161948615685,-0.0001527161948615685,0.0005345066892914474
1700358277315506200,16.102506103515626,0.00045814859913662076,-0.00045814859913662076,0.00022907429956831038
1700358277334466600,16.121466552734375,-0.0001527161948615685,0.0001527161948615685,-0.0006872228696011007
1700358277353427200,16.14042724609375,0.0001527161948615685,-0.0001527161948615685,0.0005345066892914474
1700358277372387600,16.1593876953125,0.00045814859913662076,-0.00045814859913662076,-0.0006872228696011007
1700358277391348200,16.17834814453125,-0.00045814859913662076,0.0001527161948615685,0.00022907429956831038
1700358277410308900,16.197308837890624,0.0007635809597559273,0.00045814859913662076,-0.00038179047987796366
1700358277429269200,16.216269287109377,0.0001527161948615685,-0.00045814859913662076,0.00022907429956831038
1700358277448230000,16.23522998046875,-0.0001527161948615685,-0.00045814859913662076,-0.0006872228696011007
1700358277467190500,16.2541904296875,0.0001527161948615685,-0.0001527161948615685,-0.00038179047987796366
1700358277486151000,16.27315087890625,0.00045814859913662076,-0.0007635809597559273,-0.0006872228696011007
1700358277505111600,16.292111572265625,0.0001527161948615685,-0.0001527161948615685,-0.00007635809743078426
1700358277524072000,16.311072021484375,0.0001527161948615685,-0.00045814859913662076,-0.00007635809743078426
1700358277543032600,16.330032470703124,0.00045814859913662076,-0.0001527161948615685,0.00022907429956831038
1700358277561993200,16.3489931640625,0.0001527161948615685,0.0001527161948615685,-0.00038179047987796366
1700358277580953600,16.36795361328125,0.0001527161948615685,0.0007635809597559273,0.00022907429956831038
1700358277599914200,16.386914306640627,0.0001527161948615685,0.0001527161948615685,0.0005345066892914474
1700358277618875000,16.405875,0.00045814859913662076,-0.00045814859913662076,-0.00038179047987796366
1700358277637835500,16.42483544921875,-0.0007635809597559273,0.0001527161948615685,0.0005345066892914474
1700358277656796000,16.4437958984375,-0.0001527161948615685,0.00045814859913662076,-0.00007635809743078426
1700358277675756500,16.462756591796875,-0.00045814859913662076,0.00045814859913662076,-0.00038179047987796366
1700358277694717200,16.48171728515625,-0.0007635809597559273,-0.00045814859913662076,0.00022907429956831038
1700358277713677600,16.500677490234374,-0.0001527161948615685,-0.0007635809597559273,0.0005345066892914474
1700358277732638200,16.51963818359375,0.00045814859913662076,-0.0001527161948615685,0.0005345066892914474
1700358277751598600,16.5385986328125,-0.0001527161948615685,0.0007635809597559273,0.00022907429956831038
1700358277770559200,16.557559326171877,-0.0013744457392022014,-0.00045814859913662076,-0.00007635809743078426
1700358277789520000,16.576519775390626,-0.00045814859913662076,-0.0001527161948615685,-0.00007635809743078426
1700358277808480300,16.595480224609375,0.0001527161948615685,0.0001527161948615685,0.00022907429956831038
1700358277827441000,16.61444091796875,0.0001527161948615685,0.00045814859913662076,0.00022907429956831038
1700358277846401300,16.6334013671875,-0.0001527161948615685,0.0001527161948615685,0.000839939049910754
1700358277865362000,16.65236181640625,-0.0001527161948615685,-0.0001527161948615685,-0.00007635809743078426
1700358277884322600,16.671322509765623,-0.00045814859913662076,0.0001527161948615685,0.00022907429956831038
1700358277903283000,16.690282958984376,0.0001527161948615685,-0.0001527161948615685,-0.0009926552884280682
1700358277922243600,16.70924365234375,0.0001527161948615685,0.00045814859913662076,0.00022907429956831038
1700358277941204000,16.728203857421875,-0.0001527161948615685,-0.0001527161948615685,-0.00038179047987796366
1700358277960164600,16.74716455078125,0.00045814859913662076,-0.0001527161948615685,-0.00038179047987796366
1700358277979125000,16.766125,-0.00045814859913662076,-0.0001527161948615685,-0.00038179047987796366
1700358277998085600,16.785085693359374,0.00045814859913662076,0.0010690133785828948,0.00022907429956831038
1700358278017046300,16.80404638671875,0.00045814859913662076,-0.00045814859913662076,-0.00007635809743078426
1700358278036006700,16.823006591796876,-0.00045814859913662076,-0.0001527161948615685,-0.0006872228696011007
1700358278054967300,16.84196728515625,0.00045814859913662076,0.0001527161948615685,0.0005345066892914474
1700358278073927700,16.860927734375,-0.0001527161948615685,0.00045814859913662076,0.00022907429956831038
1700358278092888300,16.879888427734375,0.00045814859913662076,-0.0001527161948615685,0.000839939049910754
1700358278111849000,16.898848876953124,0.0001527161948615685,0.0001527161948615685,0.001450803829357028
1700358278130809300,16.917809326171874,0.0001527161948615685,0.0001527161948615685,0.00022907429956831038
1700358278149770000,16.93677001953125,-0.0001527161948615685,0.00045814859913662076,0.00022907429956831038
1700358278168730600,16.955730712890624,-0.0001527161948615685,-0.0001527161948615685,0.000839939049910754
1700358278187691000,16.97469091796875,0.00045814859913662076,-0.0001527161948615685,-0.00007635809743078426
1700358278206651600,16.993651611328126,0.0001527161948615685,-0.0001527161948615685,0.0005345066892914474
1700358278225612000,17.012612060546875,-0.0001527161948615685,0.0010690133785828948,-0.00007635809743078426
1700358278244572700,17.03157275390625,-0.0001527161948615685,-0.00045814859913662076,0.000839939049910754
1700358278263533300,17.050533203125,-0.0001527161948615685,0.0007635809597559273,0.00022907429956831038
1700358278282493700,17.06949365234375,0.0007635809597559273,-0.0007635809597559273,-0.00038179047987796366
1700358278301454300,17.088454345703123,0.00045814859913662076,0.00045814859913662076,0.00022907429956831038
1700358278320414700,17.107414794921876,0.0007635809597559273,0.0001527161948615685,0.0005345066892914474
1700358278339375400,17.126375244140625,0.0001527161948615685,-0.0001527161948615685,0.0005345066892914474
1700358278358335700,17.145335693359375,-0.0001527161948615685,0.0001527161948615685,-0.00038179047987796366
1700358278377296400,17.16429638671875,0.0001527161948615685,0.0001527161948615685,0.00022907429956831038
1700358278396256800,17.1832568359375,0.00045814859913662076,-0.0001527161948615685,0.00022907429956831038
1700358278415217400,17.202217529296874,-0.0001527161948615685,-0.0001527161948615685,-0.00007635809743078426
1700358278434177800,17.221177734375,-0.0001527161948615685,-0.0001527161948615685,0.0005345066892914474
1700358278453138400,17.240138427734376,0.0001527161948615685,0.00045814859913662076,0.0011453714687377214
1700358278472099000,17.25909912109375,0.00045814859913662076,0.00045814859913662076,0.0005345066892914474
1700358278491059500,17.2780595703125,0.00045814859913662076,0.00045814859913662076,-0.00038179047987796366
1700358278510020000,17.29702001953125,0.0001527161948615685,-0.00045814859913662076,0.00022907429956831038
1700358278528980500,17.31598046875,-0.0007635809597559273,0.0001527161948615685,0.000839939049910754
1700358278547941000,17.334941162109374,-0.00045814859913662076,0.0007635809597559273,0.0005345066892914474
1700358278566901800,17.35390185546875,0.0001527161948615685,0.0001527161948615685,-0.00038179047987796366
1700358278585862100,17.372862060546876,0.0001527161948615685,-0.0001527161948615685,0.0005345066892914474
1700358278604822800,17.39182275390625,-0.0001527161948615685,0.0007635809597559273,-0.0012980876490473747
1700358278623783200,17.410783203125,0.00045814859913662076,-0.0007635809597559273,0.000839939049910754
1700358278642743800,17.429743896484375,-0.0007635809597559273,0.0001527161948615685,-0.0009926552884280682
1700358278661704200,17.4487041015625,-0.00045814859913662076,0.00045814859913662076,-0.00038179047987796366
1700358278680664800,17.467664794921873,0.00045814859913662076,0.0001527161948615685,-0.00038179047987796366
1700358278699625200,17.486625244140626,0.0001527161948615685,-0.0001527161948615685,-0.00007635809743078426
1700358278718585900,17.5055859375,0.0001527161948615685,0.0001527161948615685,0.0005345066892914474
1700358278737546200,17.524546142578124,0.0001527161948615685,0.0001527161948615685,0.000839939049910754
1700358278756507000,17.5435068359375,0.0001527161948615685,0.0001527161948615685,0.000839939049910754
1700358278775467300,17.56246728515625,-0.0007635809597559273,0.0007635809597559273,0.00022907429956831038
1700358278794428000,17.581427978515624,-0.0001527161948615685,0.00045814859913662076,0.0011453714687377214
1700358278813388300,17.60038818359375,-0.0001527161948615685,-0.0001527161948615685,-0.00038179047987796366
1700358278832349000,17.619348876953126,0.00045814859913662076,0.0001527161948615685,0.0005345066892914474
1700358278851309600,17.6383095703125,0.00045814859913662076,-0.0007635809597559273,0.000839939049910754
1700358278870270000,17.65727001953125,0.0001527161948615685,-0.00045814859913662076,0.000839939049910754
1700358278889230600,17.676230712890625,-0.0001527161948615685,-0.0001527161948615685,0.0017562361899763346
1700358278908191000,17.69519091796875,-0.0001527161948615685,-0.0001527161948615685,0.00022907429956831038
1700358278927151600,17.714151611328123,0.0001527161948615685,-0.0001527161948615685,0.00022907429956831038
1700358278946112000,17.733112060546876,0.00045814859913662076,-0.00045814859913662076,0.0005345066892914474
1700358278965072600,17.75207275390625,0.00045814859913662076,0.00045814859913662076,-0.00038179047987796366
1700358278984033000,17.771032958984375,-0.00045814859913662076,0.0001527161948615685,-0.00007635809743078426
1700358279002993700,17.78999365234375,-0.0007635809597559273,0.0001527161948615685,0.0005345066892914474
1700358279021954000,17.8089541015625,0.0007635809597559273,0.0010690133785828948,0.0005345066892914474
1700358279040914700,17.827914794921874,0.0001527161948615685,-0.0001527161948615685,0.00022907429956831038
1700358279059875000,17.846875,0.0007635809597559273,0.00045814859913662076,0.000839939049910754
1700358279078835700,17.865835693359376,-0.0001527161948615685,0.0001527161948615685,-0.00007635809743078426
1700358279097796400,17.88479638671875,-0.0007635809597559273,0.0001527161948615685,0.00022907429956831038
1700358279116756700,17.9037568359375,-0.0001527161948615685,-0.00045814859913662076,0.000839939049910754
1700358279135717400,17.92271728515625,-0.0001527161948615685,0.0001527161948615685,-0.00038179047987796366
1700358279154677800,17.941677734375,-0.0001527161948615685,0.0001527161948615685,-0.00007635809743078426
1700358279173638400,17.960638427734374,0.00045814859913662076,-0.0007635809597559273,-0.00038179047987796366
1700358279192598800,17.979598876953126,0.00045814859913662076,-0.0007635809597559273,-0.00007635809743078426
1700358279211559400,17.998559326171875,0.00045814859913662076,0.0001527161948615685,0.00022907429956831038
1700358279230519800,18.017519775390625,-0.0001527161948615685,-0.0007635809597559273,0.00022907429956831038
1700358279249480200,18.036480224609374,0.0001527161948615685,0.0007635809597559273,0.00022907429956831038
1700358279268440800,18.05544091796875,-0.0007635809597559273,-0.0001527161948615685,-0.00038179047987796366
1700358279287401200,18.074401123046876,-0.0007635809597559273,0.0007635809597559273,0.000839939049910754
1700358279306361900,18.09336181640625,-0.00045814859913662076,0.0010690133785828948,0.0005345066892914474
1700358279325322500,18.112322509765626,0.0007635809597559273,0.0007635809597559273,-0.00007635809743078426
1700358279344283000,18.131282958984375,0.00045814859913662076,0.0001527161948615685,0.0005345066892914474
1700358279363243500,18.150243408203124,-0.0007635809597559273,-0.00045814859913662076,-0.00007635809743078426
1700358279382204000,18.169203857421873,-0.0001527161948615685,-0.0001527161948615685,0.00022907429956831038
1700358279401164500,18.18816455078125,-0.0001527161948615685,-0.00045814859913662076,-0.00007635809743078426
1700358279420125000,18.207125,-0.00045814859913662076,0.00045814859913662076,0.0005345066892914474
1700358279439085600,18.22608544921875,-0.00045814859913662076,0.0001527161948615685,0.00022907429956831038
1700358279458046000,18.2450458984375,-0.00045814859913662076,-0.0001527161948615685,-0.00007635809743078426
1700358279477006300,18.26400634765625,-0.00045814859913662076,-0.0001527161948615685,-0.00007635809743078426
1700358279495967000,18.282967041015624,0.0001527161948615685,0.0001527161948615685,-0.00007635809743078426
1700358279514927400,18.30192724609375,-0.0001527161948615685,0.0007635809597559273,0.00022907429956831038
1700358279533888000,18.320887939453126,-0.00045814859913662076,-0.0001527161948615685,-0.00007635809743078426
1700358279552848600,18.3398486328125,-0.0007635809597559273,0.0001527161948615685,0.0005345066892914474
1700358279571809000,18.35880908203125,0.0007635809597559273,0.00045814859913662076,0.0005345066892914474
1700358279590769400,18.377769287109373,0.0001527161948615685,-0.0001527161948615685,0.00022907429956831038
1700358279609730000,18.39672998046875,-0.0001527161948615685,-0.0007635809597559273,0.000839939049910754
1700358279628690400,18.4156904296875,-0.00045814859913662076,-0.0001527161948615685,0.00022907429956831038
1700358279647651000,18.434651123046876,0.00045814859913662076,-0.00045814859913662076,-0.00007635809743078426
1700358279666611500,18.453611572265626,-0.0001527161948615685,0.00045814859913662076,0.00022907429956831038
1700358279685572000,18.472572021484375,-0.0001527161948615685,0.0001527161948615685,0.00022907429956831038
1700358279704532500,18.491532470703124,-0.00045814859913662076,-0.0007635809597559273,0.0011453714687377214
1700358279723493000,18.5104931640625,-0.00045814859913662076,0.0001527161948615685,0.00022907429956831038
1700358279742453500,18.52945361328125,0.0001527161948615685,0.00045814859913662076,0.0011453714687377214
1700358279761414100,18.5484140625,-0.0007635809597559273,-0.0007635809597559273,0.000839939049910754
1700358279780374500,18.56737451171875,-0.00045814859913662076,0.0001527161948615685,0.00022907429956831038
1700358279799335200,18.586335205078125,0.00045814859913662076,-0.0007635809597559273,0.0005345066892914474
1700358279818295600,18.605295654296874,0.00045814859913662076,-0.0001527161948615685,0.000839939049910754
1700358279837256000,18.624255859375,0.00045814859913662076,0.0001527161948615685,0.0005345066892914474
1700358279856216600,18.643216552734376,0.00045814859913662076,0.0007635809597559273,0.000839939049910754
1700358279875177000,18.662177001953125,-0.0001527161948615685,-0.0001527161948615685,0.00022907429956831038
1700358279894137600,18.6811376953125,0.0007635809597559273,0.0001527161948615685,-0.00007635809743078426
1700358279913098000,18.700097900390624,0.0001527161948615685,0.0001527161948615685,0.0005345066892914474
1700358279932058600,18.71905859375,0.0001527161948615685,0.00045814859913662076,-0.00007635809743078426
1700358279951019000,18.73801904296875,-0.0001527161948615685,-0.00045814859913662076,-0.00038179047987796366
1700358279969979600,18.756979736328127,-0.00045814859913662076,-0.0001527161948615685,-0.00007635809743078426
1700358279988940000,18.77593994140625,-0.00045814859913662076,0.0007635809597559273,-0.0006872228696011007
1700358280007900400,18.794900390625,0.00045814859913662076,0.0010690133785828948,-0.00038179047987796366
1700358280026861000,18.813861083984374,-0.0001527161948615685,-0.0001527161948615685,-0.00007635809743078426
1700358280045821400,18.832821533203123,0.0007635809597559273,0.0001527161948615685,-0.00007635809743078426
1700358280064782000,18.851781982421876,-0.0001527161948615685,0.00045814859913662076,0.000839939049910754
1700358280083742500,18.870742431640625,-0.0007635809597559273,0.0001527161948615685,0.00022907429956831038
1700358280102703000,18.889703125,0.00045814859913662076,-0.0001527161948615685,0.0011453714687377214
1700358280121663500,18.90866357421875,-0.0001527161948615685,0.00045814859913662076,0.000839939049910754
1700358280140624000,18.927623779296876,-0.0001527161948615685,0.0001527161948615685,0.00022907429956831038
1700358280159584500,18.94658447265625,0.00045814859913662076,-0.00045814859913662076,-0.00007635809743078426
1700358280178545000,18.965544921875,0.00045814859913662076,0.0007635809597559273,0.00022907429956831038
1700358280197505500,18.984505615234376,0.0001527161948615685,-0.0001527161948615685,-0.00038179047987796366
1700358280216466000,19.0034658203125,0.0001527161948615685,0.0001527161948615685,-0.00038179047987796366
1700358280235426600,19.022426513671874,-0.00045814859913662076,-0.0010690133785828948,0.00022907429956831038
1700358280254387000,19.041386962890623,-0.0001527161948615685,0.00045814859913662076,0.000839939049910754
1700358280273347300,19.060347412109376,0.0001527161948615685,0.0001527161948615685,-0.0009926552884280682
1700358280292308000,19.079307861328125,0.0001527161948615685,0.0001527161948615685,0.000839939049910754
1700358280311268400,19.098268310546874,0.0001527161948615685,0.0007635809597559273,0.0005345066892914474
1700358280330229000,19.11722900390625,-0.0001527161948615685,0.00045814859913662076,0.0005345066892914474
1700358280349189400,19.136189453125,-0.00045814859913662076,-0.00045814859913662076,-0.00007635809743078426
1700358280368149800,19.155149658203126,-0.0001527161948615685,0.00045814859913662076,-0.00007635809743078426
1700358280387110400,19.1741103515625,0.0001527161948615685,-0.00045814859913662076,0.0005345066892914474
1700358280406070800,19.19307080078125,-0.00045814859913662076,-0.0001527161948615685,0.0005345066892914474
1700358280425031400,19.212031494140625,0.00045814859913662076,0.00045814859913662076,0.00022907429956831038
1700358280443991800,19.23099169921875,-0.00045814859913662076,0.0001527161948615685,0.0005345066892914474
1700358280462952200,19.2499521484375,-0.0001527161948615685,-0.00045814859913662076,0.00022907429956831038
1700358280481912800,19.268912841796876,-0.0001527161948615685,-0.00045814859913662076,0.00022907429956831038
1700358280500873200,19.287873291015625,-0.0001527161948615685,-0.00045814859913662076,0.0005345066892914474
1700358280519833600,19.30683349609375,-0.0001527161948615685,0.0001527161948615685,0.00022907429956831038
1700358280538794200,19.325794189453124,0.0001527161948615685,0.0001527161948615685,0.0005345066892914474
1700358280557755000,19.3447548828125,0.0001527161948615685,-0.00045814859913662076,-0.00007635809743078426
1700358280576715300,19.36371533203125,0.00045814859913662076,0.00045814859913662076,-0.00007635809743078426
1700358280595675600,19.382675537109375,0.0001527161948615685,-0.0001527161948615685,-0.00038179047987796366
1700358280614636000,19.401635986328124,0.0001527161948615685,0.00045814859913662076,-0.0006872228696011007
1700358280633596700,19.4205966796875,-0.0001527161948615685,0.0001527161948615685,-0.00007635809743078426
1700358280652557000,19.43955712890625,-0.00045814859913662076,0.0001527161948615685,0.00022907429956831038
1700358280671517700,19.458517578125,-0.0001527161948615685,-0.0010690133785828948,0.00022907429956831038
1700358280690478000,19.47747802734375,-0.0001527161948615685,-0.0001527161948615685,0.000839939049910754
1700358280709438700,19.496438720703125,0.0001527161948615685,-0.0001527161948615685,0.0005345066892914474
1700358280728399000,19.515399169921874,-0.0001527161948615685,-0.00045814859913662076,0.00022907429956831038
1700358280747359500,19.534359375,0.0001527161948615685,-0.0001527161948615685,0.0005345066892914474
1700358280766319900,19.55331982421875,0.00045814859913662076,-0.00045814859913662076,0.00022907429956831038
1700358280785280500,19.572280517578125,-0.0001527161948615685,-0.0001527161948615685,0.00022907429956831038
1700358280804241000,19.591240966796875,-0.0001527161948615685,-0.00045814859913662076,-0.00007635809743078426
1700358280823201500,19.610201416015624,0.0001527161948615685,0.0001527161948615685,0.0005345066892914474
1700358280842162000,19.629161865234376,0.0007635809597559273,-0.00045814859913662076,0.0005345066892914474
1700358280861122300,19.648122314453126,0.00045814859913662076,-0.0001527161948615685,-0.00038179047987796366
1700358280880083000,19.6670830078125,-0.00045814859913662076,-0.0007635809597559273,0.0005345066892914474
1700358280899043300,19.686043212890624,0.00045814859913662076,-0.0007635809597559273,0.0005345066892914474
1700358280918003700,19.705003662109377,-0.0001527161948615685,-0.00045814859913662076,-0.00007635809743078426
1700358280936964400,19.72396435546875,0.00045814859913662076,0.0001527161948615685,0.00022907429956831038
1700358280955924700,19.7429248046875,-0.0001527161948615685,-0.0001527161948615685,-0.00007635809743078426
1700358280974885400,19.761885498046876,-0.0001527161948615685,-0.00045814859913662076,0.00022907429956831038
1700358280993845800,19.780845703125,-0.0001527161948615685,-0.00045814859913662076,-0.00007635809743078426
1700358281012806100,19.79980615234375,0.0001527161948615685,-0.00045814859913662076,0.0005345066892914474
1700358281031766500,19.8187666015625,-0.00045814859913662076,-0.0001527161948615685,0.00022907429956831038
1700358281050727200,19.83772705078125,-0.0001527161948615685,0.0001527161948615685,0.0005345066892914474
1700358281069687600,19.8566875,-0.0001527161948615685,0.0001527161948615685,-0.00038179047987796366
1700358281088648200,19.875648193359375,0.0007635809597559273,-0.0001527161948615685,0.00022907429956831038
1700358281107608600,19.894608642578124,-0.00045814859913662076,-0.00045814859913662076,-0.00007635809743078426
1700358281126569000,19.91356884765625,-0.00045814859913662076,0.0007635809597559273,0.0005345066892914474
1700358281145529600,19.932529541015626,0.0001527161948615685,0.00045814859913662076,0.0005345066892914474
1700358281164490000,19.951489990234375,0.0001527161948615685,-0.0001527161948615685,-0.00007635809743078426
1700358281183450600,19.97045068359375,-0.0007635809597559273,-0.00045814859913662076,0.000839939049910754
1700358281202411000,19.989410888671873,0.00045814859913662076,0.0001527161948615685,0.0005345066892914474
1700358281221371400,20.008371337890626,-0.0001527161948615685,-0.0001527161948615685,0.0005345066892914474
1700358281240331800,20.027331787109375,0.00045814859913662076,-0.0001527161948615685,0.0005345066892914474
1700358281259292400,20.04629248046875,-0.0001527161948615685,0.0001527161948615685,0.0005345066892914474
1700358281278252800,20.065252685546874,-0.0001527161948615685,0.0001527161948615685,0.0011453714687377214
1700358281297213200,20.084213134765626,-0.0001527161948615685,0.0001527161948615685,0.00022907429956831038
1700358281316173800,20.103173828125,0.0001527161948615685,-0.00045814859913662076,0.0011453714687377214
1700358281335134200,20.12213427734375,0.0001527161948615685,0.00045814859913662076,0.0005345066892914474
1700358281354094600,20.141094482421874,0.0001527161948615685,0.0007635809597559273,0.0005345066892914474
1700358281373055000,20.160054931640627,-0.0007635809597559273,0.0001527161948615685,0.000839939049910754
1700358281392015600,20.179015625,0.00045814859913662076,0.0001527161948615685,-0.00038179047987796366
1700358281410976000,20.19797607421875,-0.0010690133785828948,-0.0001527161948615685,0.0011453714687377214
1700358281429936600,20.2169365234375,0.0001527161948615685,-0.0001527161948615685,0.00022907429956831038
1700358281448897000,20.23589697265625,-0.0001527161948615685,0.0001527161948615685,0.0011453714687377214
1700358281467857400,20.254857421875,-0.0001527161948615685,-0.00045814859913662076,0.0005345066892914474
1700358281486817800,20.27381787109375,-0.0001527161948615685,-0.00045814859913662076,0.00022907429956831038
1700358281505778400,20.2927783203125,-0.0001527161948615685,-0.00045814859913662076,0.0005345066892914474
1700358281524738800,20.31173876953125,0.00045814859913662076,0.0007635809597559273,0.0011453714687377214
1700358281543699200,20.33069921875,-0.0001527161948615685,-0.00045814859913662076,0.0005345066892914474
1700358281562659800,20.349659912109374,-0.00045814859913662076,-0.0007635809597559273,0.00022907429956831038
1700358281581620200,20.3686201171875,-0.00045814859913662076,0.0001527161948615685,0.00022907429956831038
1700358281600580600,20.38758056640625,0.00045814859913662076,-0.0001527161948615685,0.0005345066892914474
1700358281619541200,20.406541259765625,-0.0001527161948615685,-0.0001527161948615685,-0.00007635809743078426
1700358281638501600,20.425501708984374,-0.00045814859913662076,-0.00045814859913662076,-0.00007635809743078426
1700358281657462000,20.4444619140625,-0.00045814859913662076,-0.0001527161948615685,0.00022907429956831038
1700358281676422400,20.46342236328125,0.0001527161948615685,0.00045814859913662076,-0.00007635809743078426
1700358281695383000,20.482383056640625,-0.00045814859913662076,0.0001527161948615685,0.0005345066892914474
1700358281714343400,20.501343505859374,-0.00045814859913662076,-0.0001527161948615685,0.0005345066892914474
1700358281733303800,20.5203037109375,-0.0007635809597559273,0.0001527161948615685,-0.00007635809743078426
1700358281752264400,20.539264404296876,-0.0007635809597559273,-0.0001527161948615685,-0.00007635809743078426
1700358281771224800,20.558224853515625,-0.0001527161948615685,0.00045814859913662076,0.00022907429956831038
1700358281790185200,20.577185302734375,0.0001527161948615685,0.00045814859913662076,0.0005345066892914474
1700358281809145600,20.5961455078125,-0.0001527161948615685,-0.0001527161948615685,0.0011453714687377214
1700358281828106200,20.615106201171876,0.0001527161948615685,0.0001527161948615685,-0.0012980876490473747
1700358281847066600,20.634066650390626,0.0001527161948615685,0.00045814859913662076,-0.00007635809743078426
1700358281866027000,20.653027099609375,-0.0001527161948615685,-0.0007635809597559273,0.000839939049910754
1700358281884987600,20.671987548828124,0.00045814859913662076,0.0001527161948615685,-0.00038179047987796366
1700358281903948000,20.690947998046877,-0.00045814859913662076,0.00045814859913662076,0.0005345066892914474
1700358281922908400,20.709908447265626,0.00045814859913662076,-0.00045814859913662076,-0.00038179047987796366
1700358281941869000,20.728869140625,-0.0001527161948615685,-0.0001527161948615685,0.00022907429956831038
1700358281960829400,20.747829345703124,-0.00045814859913662076,0.0001527161948615685,-0.0006872228696011007
1700358281979789800,20.766789794921873,-0.00045814859913662076,-0.0001527161948615685,0.0005345066892914474
1700358281998750200,20.785750244140626,-0.0001527161948615685,-0.00045814859913662076,-0.00038179047987796366
1700358282017710600,20.804710693359375,0.00045814859913662076,-0.0001527161948615685,0.0005345066892914474
1700358282036671200,20.823671142578124,0.0001527161948615685,-0.0001527161948615685,0.000839939049910754
1700358282055631600,20.842631591796874,-0.0001527161948615685,0.00045814859913662076,0.00022907429956831038
1700358282074592000,20.861592041015626,0.0001527161948615685,0.00045814859913662076,-0.00007635809743078426
1700358282093552400,20.880552490234376,0.0001527161948615685,-0.00045814859913662076,-0.00007635809743078426
1700358282112512800,20.8995126953125,-0.00045814859913662076,0.0010690133785828948,-0.00007635809743078426
1700358282131473400,20.918473388671874,-0.00045814859913662076,-0.00045814859913662076,0.0005345066892914474
1700358282150433800,20.937433837890627,-0.0001527161948615685,-0.0001527161948615685,-0.0006872228696011007
1700358282169394200,20.956394287109376,0.00045814859913662076,-0.0001527161948615685,-0.0009926552884280682
1700358282188354800,20.975354736328125,0.00045814859913662076,0.00045814859913662076,0.0005345066892914474
1700358282207315200,20.994315185546874,0.0001527161948615685,-0.0001527161948615685,0.0005345066892914474
1700358282226275600,21.013275634765623,-0.0001527161948615685,-0.0001527161948615685,0.000839939049910754
1700358282245236200,21.032236328125,0.0001527161948615685,0.00045814859913662076,-0.0006872228696011007
1700358282264196600,21.051196533203125,-0.0001527161948615685,0.0001527161948615685,0.0011453714687377214
1700358282283157000,21.070156982421874,-0.0001527161948615685,-0.0001527161948615685,-0.00038179047987796366
1700358282302117400,21.089117431640624,-0.00045814859913662076,0.00045814859913662076,-0.00007635809743078426
1700358282321078000,21.108078125,0.0001527161948615685,0.0001527161948615685,0.00022907429956831038
1700358282340038400,21.127038330078125,0.00045814859913662076,0.00045814859913662076,0.000839939049910754
1700358282358998800,21.145998779296875,-0.0001527161948615685,0.0001527161948615685,-0.00038179047987796366
1700358282377959200,21.164959228515624,0.00045814859913662076,-0.0007635809597559273,-0.0006872228696011007
1700358282396919600,21.18391943359375,-0.0007635809597559273,0.0001527161948615685,0.0005345066892914474
1700358282415880200,21.202880126953126,0.00045814859913662076,-0.0001527161948615685,-0.00038179047987796366
1700358282434840600,21.221840576171875,0.0001527161948615685,0.0001527161948615685,0.00022907429956831038
1700358282453801000,21.240801025390624,0.0007635809597559273,-0.00045814859913662076,-0.00007635809743078426
1700358282472761300,21.25976123046875,-0.00045814859913662076,0.0001527161948615685,-0.00007635809743078426
1700358282491721700,21.2787216796875,-0.0010690133785828948,0.0001527161948615685,0.00022907429956831038
1700358282510682400,21.297682373046875,-0.00045814859913662076,-0.00045814859913662076,-0.00007635809743078426
1700358282529642800,21.316642822265624,-0.0001527161948615685,0.0001527161948615685,0.000839939049910754
1700358282548603100,21.33560302734375,-0.00045814859913662076,0.0001527161948615685,0.000839939049910754
1700358282567563500,21.3545634765625,0.0001527161948615685,0.00045814859913662076,0.0005345066892914474
1700358282586524200,21.373524169921875,-0.0001527161948615685,0.00045814859913662076,0.00022907429956831038
1700358282605484500,21.392484619140625,-0.00045814859913662076,-0.0001527161948615685,-0.00038179047987796366
1700358282624445000,21.41144482421875,-0.0007635809597559273,0.0001527161948615685,0.00022907429956831038
1700358282643405300,21.4304052734375,0.0001527161948615685,0.00045814859913662076,0.000839939049910754
1700358282662365700,21.44936572265625,0.00045814859913662076,-0.0001527161948615685,0.0005345066892914474
1700358282681326300,21.468326416015625,-0.0001527161948615685,-0.0001527161948615685,0.00022907429956831038
1700358282700286700,21.48728662109375,0.0001527161948615685,0.0001527161948615685,0.00022907429956831038
1700358282719247000,21.5062470703125,-0.00045814859913662076,-0.0001527161948615685,0.00022907429956831038
1700358282738207500,21.52520751953125,-0.00045814859913662076,0.00045814859913662076,-0.00007635809743078426
1700358282757167900,21.54416796875,-0.0001527161948615685,-0.0007635809597559273,-0.00007635809743078426
1700358282776128500,21.56312841796875,-0.0001527161948615685,-0.00045814859913662076,-0.00007635809743078426
1700358282795089000,21.5820888671875,-0.00045814859913662076,-0.0001527161948615685,0.0005345066892914474
1700358282814049300,21.60104931640625,-0.00045814859913662076,0.0001527161948615685,0.0011453714687377214
1700358282833009700,21.620009765625,-0.0007635809597559273,0.0001527161948615685,0.0005345066892914474
1700358282851970300,21.63897021484375,0.0001527161948615685,-0.00045814859913662076,0.00022907429956831038
1700358282870930700,21.6579306640625,0.0007635809597559273,-0.00045814859913662076,-0.00007635809743078426
1700358282889891000,21.67689111328125,0.00045814859913662076,-0.00045814859913662076,0.0005345066892914474
1700358282908851500,21.6958515625,-0.0001527161948615685,-0.00045814859913662076,0.00022907429956831038
1700358282927811800,21.714811767578126,-0.00045814859913662076,0.0001527161948615685,0.0005345066892914474
1700358282946772500,21.7337724609375,0.0001527161948615685,0.0001527161948615685,-0.00038179047987796366
1700358282965732900,21.75273291015625,-0.0001527161948615685,0.0001527161948615685,0.0005345066892914474
1700358282984693200,21.771693359375,-0.0001527161948615685,-0.00045814859913662076,-0.00007635809743078426
1700358283003653600,21.790653564453127,-0.0001527161948615685,0.0001527161948615685,-0.00007635809743078426
1700358283022614000,21.809614013671876,0.0007635809597559273,-0.0007635809597559273,0.0005345066892914474
1700358283041574700,21.82857470703125,0.00045814859913662076,0.0001527161948615685,-0.00038179047987796366
