time,seconds_elapsed,z,y,x
1710891002786702600,0.04170263671875,0,0,0
1710891002805662200,0.060662109375,-0.18356108665466309,-0.008710861206054688,-0.07975053787231445
1710891002824621800,0.079621826171875,-0.36788320541381836,-0.007056236267089844,-0.036135196685791016
1710891002843581200,0.098581298828125,-0.3103184700012207,0.10277223587036133,-0.2941737174987793
1710891002862540800,0.117540771484375,-0.08780241012573242,0.1182703971862793,-0.6345233917236328
1710891002881500400,0.13650048828125,0.16372179985046387,0.10651874542236328,-0.5083951950073242
1710891002900460000,0.1554599609375,0.3289310932159424,0.02996540069580078,0.016221046447753906
1710891002919419600,0.174419677734375,0.2172706127166748,-0.01667928695678711,0.2447681427001953
1710891002938379300,0.193379150390625,0.20299386978149414,0.12104415893554688,0.18304920196533203
1710891002957339000,0.2123388671875,0.18246674537658691,0.13705062866210938,-0.019272804260253906
1710891002976298500,0.231298583984375,0.30501604080200195,0.05170869827270508,0.039960384368896484
1710891002995258000,0.250258056640625,0.13597798347473145,-0.05796480178833008,0.2624669075012207
1710891003014217700,0.2692177734375,-0.020367860794067383,-0.04476642608642578,0.23944854736328125
1710891003033177300,0.28817724609375,-0.03888058662414551,0.025563716888427734,-0.09009265899658203
1710891003052136700,0.30713671875,-0.026683807373046875,-0.0040035247802734375,-0.1777186393737793
1710891003071096300,0.326096435546875,-0.09395575523376465,-0.04893922805786133,-0.006771564483642578
1710891003090056000,0.345055908203125,-0.1767740249633789,-0.012095451354980469,-0.03212451934814453
1710891003109015600,0.364015625,0.08899068832397461,0.03860282897949219,-0.16469287872314453
1710891003127975200,0.38297509765625,0.20074129104614258,-0.10399246215820312,0.04032087326049805
1710891003146934800,0.401934814453125,-0.06298470497131348,0.007061004638671875,0.33702659606933594
1710891003165894400,0.420894287109375,-0.09065675735473633,0.09044504165649414,0.16946077346801758
1710891003184854000,0.43985400390625,0.2716526985168457,0.014020919799804688,-0.17697811126708984
1710891003203813600,0.458813720703125,0.2530989646911621,-0.16992759704589844,-0.08783721923828125
1710891003222773200,0.477773193359375,-0.1737809181213379,-0.0246124267578125,0.057756900787353516
1710891003241732900,0.49673291015625,-0.3767979145050049,0.12338495254516602,0.11651754379272461
1710891003260692200,0.515692138671875,-0.25586962699890137,-0.1052703857421875,-0.10934114456176758
1710891003279651800,0.53465185546875,0.07031393051147461,-0.15783071517944336,-0.5929136276245117
1710891003298611500,0.553611572265625,0.5978999137878418,0.28042078018188477,-0.9639081954956055
1710891003317571000,0.572571044921875,0.23808622360229492,0.017594337463378906,-0.18474292755126953
1710891003336530700,0.59153076171875,-0.34502243995666504,0.02018880844116211,0.568669319152832
1710891003355490300,0.610490234375,-0.39380407333374023,0.08886528015136719,0.19206476211547852
1710891003374450000,0.629449951171875,-0.2020561695098877,0.21205854415893555,-0.578852653503418
1710891003393409500,0.648409423828125,0.23093271255493164,0.345552921295166,-0.836575984954834
1710891003412369200,0.667369140625,0.4191262722015381,-0.10855293273925781,0.3561587333679199
1710891003431328800,0.686328857421875,0.3513915538787842,-0.36122846603393555,1.5200114250183105
1710891003450288400,0.705288330078125,0.35067319869995117,-0.09656190872192383,1.3648715019226074
1710891003469247700,0.724247802734375,0.38254213333129883,0.19391632080078125,0.8004665374755859
1710891003488207600,0.74320751953125,0.1543290615081787,0.022016525268554688,0.8601446151733398
1710891003507167200,0.762167236328125,-0.1372687816619873,-0.2501988410949707,0.8007903099060059
1710891003526126600,0.781126708984375,-0.24378347396850586,-0.2861475944519043,0.2765312194824219
1710891003545086200,0.800086181640625,-0.08177518844604492,-0.08264493942260742,-0.24210309982299805
1710891003564045800,0.8190458984375,-0.05292189121246338,-0.014208793640136719,-0.4064173698425293
1710891003583005400,0.83800537109375,-0.25402355194091797,-0.07467985153198242,-0.017022132873535156
1710891003601965000,0.856965087890625,-0.2326798439025879,-0.051424503326416016,0.14107179641723633
1710891003620924700,0.875924560546875,-0.04900920391082764,0.022968769073486328,-0.08660650253295898
1710891003639884300,0.89488427734375,0.07117080688476562,0.031287193298339844,-0.24263954162597656
1710891003658844000,0.913843994140625,0.15100455284118652,-0.06064558029174805,-0.26863622665405273
1710891003677803500,0.932803466796875,0.11071252822875977,-0.07890033721923828,-0.269381046295166
1710891003696763100,0.95176318359375,-0.015047907829284668,0.02443981170654297,-0.13991785049438477
1710891003715722800,0.97072265625,-0.0196608304977417,0.02406787872314453,-0.05840444564819336
1710891003734682400,0.989682373046875,0.1814342737197876,-0.05124521255493164,0.0672612190246582
1710891003753642000,1.00864208984375,0.23558306694030762,-0.19127893447875977,0.3358478546142578
1710891003772601600,1.0276015625,-0.01118624210357666,-0.11772871017456055,0.5229501724243164
1710891003791561200,1.046561279296875,-0.012180924415588379,-0.01949167251586914,0.652839183807373
1710891003810520800,1.065520751953125,0.07212364673614502,-0.08782434463500977,0.4732780456542969
1710891003829480400,1.08448046875,0.0208510160446167,-0.1836700439453125,0.3099832534790039
1710891003848440000,1.103440185546875,-0.0571441650390625,-0.08351659774780273,0.27758121490478516
1710891003867399700,1.122399658203125,-0.1789264678955078,0.20966386795043945,0.2956972122192383
1710891003886359300,1.141359375,-0.13063323497772217,0.22003507614135742,0.3278803825378418
1710891003905319000,1.16031884765625,-0.05054426193237305,0.1675586700439453,0.25020551681518555
1710891003924278500,1.179278564453125,-0.03090834617614746,0.16714191436767578,0.04038429260253906
1710891003943238100,1.198238037109375,-0.08965516090393066,0.19264650344848633,-0.20128726959228516
1710891003962197800,1.21719775390625,-0.02869546413421631,0.18372774124145508,-0.4150090217590332
1710891003981157400,1.236157470703125,-0.006296277046203613,0.1467294692993164,-0.5859279632568359
1710891004000117000,1.255116943359375,0.06931173801422119,0.04479789733886719,-0.6253447532653809
1710891004019076600,1.27407666015625,-0.010507464408874512,0.011935234069824219,-0.4616522789001465
1710891004038036200,1.2930361328125,-0.10565304756164551,0.07353019714355469,-0.08575963973999023
1710891004056995800,1.311995849609375,0.006843447685241699,0.025986671447753906,0.10231876373291016
1710891004075955500,1.33095556640625,0.22158503532409668,0.013936042785644531,-0.0017151832580566406
1710891004094915000,1.3499150390625,0.4209364652633667,-0.005851268768310547,0.061065673828125
1710891004113874700,1.368874755859375,0.36310672760009766,-0.12453031539916992,0.05835294723510742
1710891004132834300,1.387834228515625,0.19324934482574463,-0.20942449569702148,-0.13600778579711914
1710891004151794000,1.4067939453125,-0.018071293830871582,-0.16475725173950195,-0.3170161247253418
1710891004170753800,1.42575390625,-0.356223464012146,-0.21129608154296875,-0.13771581649780273
1710891004189713200,1.444713134765625,-0.8810083866119385,-0.13454532623291016,0.15497446060180664
1710891004208673000,1.463673095703125,-1.1084591150283813,-0.19457626342773438,0.48676300048828125
1710891004227632600,1.482632568359375,-1.1174098253250122,-0.25031137466430664,0.8636360168457031
1710891004246592300,1.50159228515625,-0.637801468372345,-0.5026884078979492,1.3133955001831055
1710891004265552000,1.5205517578125,-0.052416205406188965,-0.6107883453369141,1.255415439605713
1710891004284511500,1.539511474609375,0.36415088176727295,-0.5393891334533691,0.9134421348571777
1710891004303471000,1.55847119140625,0.5458604097366333,-0.3359355926513672,0.31592226028442383
1710891004322431000,1.577430908203125,0.5399068593978882,-0.026788711547851562,-0.049044132232666016
1710891004341390600,1.596390625,0.3353222608566284,0.19278764724731445,-0.28226518630981445
1710891004360350200,1.61535009765625,0.13072437047958374,0.3662590980529785,-0.7153129577636719
1710891004379309800,1.634309814453125,-0.017911851406097412,0.5982437133789062,-1.24656343460083
1710891004398269400,1.65326953125,-0.1541537642478943,0.7746567726135254,-1.2484474182128906
1710891004417229000,1.67222900390625,0.003468751907348633,0.3845815658569336,-0.7527060508728027
1710891004436188700,1.691188720703125,0.10834616422653198,-0.16643333435058594,0.012687206268310547
1710891004455148300,1.710148193359375,0.09894919395446777,-0.28914785385131836,0.3351774215698242
1710891004474108200,1.729108154296875,0.8022153377532959,-0.25472354888916016,0.23608922958374023
1710891004493067800,1.74806787109375,0.4404909610748291,-0.28771543502807617,-0.8408193588256836
1710891004512027400,1.76702734375,-0.15077537298202515,-0.30462074279785156,-0.5150132179260254
1710891004530987000,1.785987060546875,-0.2773512005805969,0.034605979919433594,0.6146678924560547
1710891004549946600,1.804946533203125,-0.3707294464111328,-0.0612645149230957,1.1471710205078125
1710891004568906500,1.823906494140625,-0.5948500633239746,0.19479656219482422,1.0649571418762207
1710891004587866000,1.8428662109375,-0.45905211567878723,0.45719432830810547,0.7539963722229004
1710891004606825700,1.86182568359375,0.042179644107818604,0.47476720809936523,0.06038475036621094
1710891004625785300,1.880785400390625,0.40263262391090393,0.5216398239135742,-0.4976024627685547
1710891004644745200,1.8997451171875,0.1859458088874817,0.5053534507751465,-0.40788936614990234
1710891004663704800,1.918704833984375,0.11758245527744293,0.6419687271118164,-0.19004058837890625
1710891004682664400,1.93766455078125,0.46598169207572937,0.7328705787658691,-0.20397663116455078
1710891004701624000,1.9566240234375,0.8416828513145447,0.6491403579711914,-0.42870092391967773
1710891004720583700,1.975583740234375,0.325825035572052,0.24860668182373047,-0.5048036575317383
1710891004739543600,1.99454345703125,-0.25601351261138916,-0.12483644485473633,-0.09981250762939453
1710891004758503200,2.013503173828125,0.09853547811508179,0.016923904418945312,0.16278886795043945
1710891004777462800,2.032462890625,0.34202197194099426,0.024567604064941406,-0.334564208984375
1710891004796422700,2.051422607421875,-0.337236613035202,-0.11606693267822266,-0.7069673538208008
1710891004815382300,2.07038232421875,-1.219367265701294,-0.30287694931030273,-0.8977508544921875
1710891004834342000,2.089341796875,-0.9408053159713745,0.5173320770263672,-0.631192684173584
1710891004853301500,2.108301513671875,-0.7236210107803345,1.0570034980773926,-0.7442073822021484
1710891004872261400,2.127261474609375,-0.6219595074653625,0.5762715339660645,-1.0894289016723633
1710891004891221000,2.146220947265625,-0.27931827306747437,-0.17126989364624023,-0.9480938911437988
1710891004910180600,2.1651806640625,0.696424126625061,-0.6509628295898438,-0.002361297607421875
1710891004929140500,2.184140380859375,1.553594946861267,-0.4264693260192871,0.7718286514282227
1710891004948100000,2.20310009765625,0.9694495797157288,0.3141942024230957,0.45826292037963867
1710891004967059700,2.222059814453125,0.036435022950172424,0.5160989761352539,-0.037494659423828125
1710891004986019300,2.241019287109375,-0.4611777663230896,0.024601459503173828,-0.5826730728149414
1710891005004979200,2.259979248046875,-0.77940833568573,-0.1471567153930664,-1.4388766288757324
1710891005023938800,2.278938720703125,-0.9027299284934998,0.11809682846069336,-1.438490867614746
1710891005042898700,2.297898681640625,-0.2979449927806854,0.07462358474731445,-0.3779926300048828
1710891005061858300,2.3168583984375,0.14493857324123383,-0.16907215118408203,0.8313655853271484
1710891005080818000,2.33581787109375,0.6059482097625732,-0.05278587341308594,1.4706015586853027
1710891005099777500,2.354777587890625,0.9854023456573486,0.7114644050598145,0.9000215530395508
1710891005118737400,2.3737373046875,0.7953928112983704,0.9188985824584961,0.3153085708618164
1710891005137697000,2.392697021484375,0.4114920198917389,0.3190736770629883,0.024739742279052734
1710891005156657000,2.411656982421875,0.0006488114595413208,-0.01764059066772461,-0.16412591934204102
1710891005175616500,2.430616455078125,-0.3055152893066406,0.21952438354492188,-0.713531494140625
1710891005194576100,2.449576171875,-0.5811891555786133,0.4709758758544922,-0.9729866981506348
1710891005213536000,2.468535888671875,-0.505202054977417,0.42837047576904297,-0.5505080223083496
1710891005232495600,2.48749560546875,-0.3148479461669922,0.19130849838256836,-0.07892847061157227
1710891005251455500,2.50645556640625,-0.1300051510334015,-0.06324481964111328,0.014887809753417969
1710891005270415000,2.5254150390625,-0.04805034399032593,-0.0922555923461914,0.14301204681396484
1710891005289374700,2.544374755859375,-0.18449541926383972,-0.2823514938354492,0.037242889404296875
1710891005308334600,2.56333447265625,-0.1832839399576187,-0.24449586868286133,-0.005891323089599609
1710891005327294200,2.582294189453125,-0.15666085481643677,-0.20558738708496094,0.33042430877685547
1710891005346254000,2.601254150390625,-0.1559714674949646,-0.2402048110961914,0.6556925773620605
1710891005365213700,2.620213623046875,-0.06989365816116333,-0.11673593521118164,0.6157755851745605
1710891005384173300,2.63917333984375,0.03448164463043213,-0.12733173370361328,0.269564151763916
1710891005403133200,2.65813330078125,0.12971436977386475,-0.1945643424987793,-0.004654407501220703
1710891005422092800,2.6770927734375,0.22781991958618164,-0.20320796966552734,0.10533857345581055
1710891005441052700,2.696052734375,0.1895313858985901,-0.02048969268798828,0.4794435501098633
1710891005460012300,2.71501220703125,0.15238791704177856,0.13254356384277344,0.606107234954834
1710891005478972000,2.733971923828125,0.13000714778900146,0.08235836029052734,0.33803844451904297
1710891005497931800,2.752931884765625,0.0521547794342041,-0.10538005828857422,0.0047283172607421875
1710891005516891400,2.771891357421875,-0.02843761444091797,-0.23319053649902344,-0.11481285095214844
1710891005535851300,2.790851318359375,-0.13947641849517822,-0.19204950332641602,0.15067338943481445
1710891005554811000,2.809810791015625,-0.15596067905426025,-0.14365577697753906,0.3807692527770996
1710891005573770800,2.828770751953125,-0.13690495491027832,0.010448455810546875,0.46056032180786133
1710891005592730400,2.84773046875,-0.039969682693481445,0.17611312866210938,0.4714226722717285
1710891005611690200,2.866690185546875,0.04668164253234863,0.05245780944824219,0.3353385925292969
1710891005630649900,2.88564990234375,0.07953488826751709,-0.1573953628540039,0.14963531494140625
1710891005649609700,2.904609619140625,0.1185523271560669,-0.2421722412109375,-0.12366676330566406
1710891005668569300,2.9235693359375,0.19636428356170654,-0.30330514907836914,-0.3060874938964844
1710891005687529200,2.942529296875,0.16015112400054932,-0.3570132255554199,-0.5242056846618652
1710891005706488800,2.96148876953125,0.06036221981048584,-0.2999897003173828,-0.6381950378417969
1710891005725448700,2.98044873046875,0.016304612159729004,-0.171173095703125,-0.7354493141174316
1710891005744408300,2.999408203125,0.005316257476806641,-0.06378555297851562,-0.7391290664672852
1710891005763368200,3.0183681640625,-0.0014986991882324219,-0.03864860534667969,-0.6748695373535156
1710891005782327800,3.037327880859375,0.06778097152709961,0.0063629150390625,-0.5422635078430176
1710891005801287400,3.056287353515625,0.11971080303192139,-0.01628589630126953,-0.3637089729309082
1710891005820247300,3.075247314453125,0.1566256284713745,-0.042733192443847656,-0.2205810546875
1710891005839207000,3.09420703125,0.2540147304534912,-0.12290763854980469,-0.038385868072509766
1710891005858166800,3.113166748046875,0.30697405338287354,-0.1411271095275879,0.036104679107666016
1710891005877126700,3.132126708984375,0.341044545173645,-0.26184844970703125,0.0590968132019043
1710891005896086300,3.151086181640625,0.35382330417633057,-0.3287820816040039,-0.020232200622558594
1710891005915046100,3.170046142578125,0.29933464527130127,-0.2292952537536621,-0.15806102752685547
1710891005934005800,3.189005859375,0.13266229629516602,-0.04859304428100586,-0.28713035583496094
1710891005952965600,3.207965576171875,0.03663671016693115,0.07024192810058594,-0.28478002548217773
1710891005971925200,3.22692529296875,-0.009044766426086426,-0.04497575759887695,-0.21723461151123047
1710891005990885000,3.245885009765625,-0.0027087926864624023,-0.11624288558959961,-0.27280712127685547
1710891006009844700,3.2648447265625,0.002766132354736328,-0.06539487838745117,-0.3341026306152344
1710891006028804600,3.2838046875,0.001643061637878418,0.03712177276611328,-0.28074073791503906
1710891006047764500,3.302764404296875,0.1272263526916504,0.010280132293701172,-0.0321650505065918
1710891006066724000,3.32172412109375,0.1683732271194458,-0.04961681365966797,0.24081754684448242
1710891006085684000,3.34068408203125,0.26123344898223877,-0.017899036407470703,0.3542518615722656
1710891006104643600,3.3596435546875,0.31851470470428467,-0.00004100799560546875,0.30469274520874023
1710891006123603500,3.378603515625,0.2835158109664917,-0.1435995101928711,0.32834482192993164
1710891006142563000,3.39756298828125,0.19392156600952148,-0.2050457000732422,0.28865766525268555
1710891006161523000,3.41652294921875,0.09859263896942139,-0.09888887405395508,0.25878047943115234
1710891006180482800,3.43548291015625,0.060173630714416504,0.08251285552978516,0.21204090118408203
1710891006199442400,3.4544423828125,0.034795165061950684,0.16664981842041016,0.11749887466430664
1710891006218402300,3.47340234375,-0.024616718292236328,0.005459785461425781,0.14107894897460938
1710891006237362000,3.49236181640625,-0.05882692337036133,-0.14023733139038086,0.17391681671142578
1710891006256321800,3.51132177734375,-0.08238875865936279,-0.1000056266784668,0.1547694206237793
1710891006275281400,3.530281494140625,-0.08342504501342773,0.09634876251220703,0.15194177627563477
1710891006294241300,3.5492412109375,-0.034938693046569824,0.1161346435546875,0.2313542366027832
1710891006313201200,3.568201171875,0.020759105682373047,-0.017640113830566406,0.2707076072692871
1710891006332160800,3.587160888671875,0.11464297771453857,-0.07836532592773438,0.24702739715576172
1710891006351120600,3.60612060546875,0.08361458778381348,-0.10518646240234375,0.16277742385864258
1710891006370080300,3.625080322265625,0.06617188453674316,-0.092529296875,0.19924545288085938
1710891006389040000,3.6440400390625,0.06342339515686035,-0.018894195556640625,0.2350907325744629
1710891006408000000,3.663,0.1300259828567505,-0.10736656188964844,0.24617338180541992
1710891006426959600,3.681959716796875,0.21694481372833252,-0.2593088150024414,0.23193597793579102
1710891006445919500,3.70091943359375,0.22234296798706055,-0.2406911849975586,0.16370201110839844
1710891006464879400,3.71987939453125,0.17762351036071777,-0.09250640869140625,0.05527019500732422
1710891006483839000,3.7388388671875,0.1978001594543457,0.07541465759277344,0.035622596740722656
1710891006502798800,3.757798828125,0.27602458000183105,-0.04815959930419922,0.14542388916015625
1710891006521758700,3.7767587890625,0.3726694583892822,-0.11977386474609375,0.10403919219970703
1710891006540718300,3.79571826171875,0.3814356327056885,-0.15646076202392578,0.046330928802490234
1710891006559678200,3.81467822265625,0.3225831985473633,-0.1952075958251953,0.014941692352294922
1710891006578638000,3.83363818359375,0.2761805057525635,-0.23679447174072266,0.06647634506225586
1710891006597597700,3.85259765625,0.24843192100524902,-0.22636985778808594,0.13069772720336914
1710891006616557600,3.8715576171875,0.21718502044677734,-0.3044719696044922,0.11131572723388672
1710891006635517200,3.89051708984375,0.18574213981628418,-0.3046541213989258,0.05734872817993164
1710891006654477000,3.90947705078125,0.09990525245666504,-0.31596899032592773,0.10260486602783203
1710891006673437000,3.92843701171875,0.06059074401855469,-0.30011844635009766,0.1939845085144043
1710891006692396500,3.947396484375,0.007491350173950195,-0.2437734603881836,0.28308725357055664
1710891006711356400,3.9663564453125,-0.033547163009643555,-0.15052413940429688,0.2792825698852539
1710891006730316300,3.98531640625,-0.015868186950683594,-0.2515602111816406,0.38770532608032227
1710891006749276000,4.00427587890625,0.007909297943115234,-0.41106510162353516,0.3646063804626465
1710891006768235800,4.02323583984375,0.016753077507019043,-0.44254112243652344,0.36734819412231445
1710891006787195600,4.042195556640625,-0.040300726890563965,-0.36322927474975586,0.5021548271179199
1710891006806155300,4.0611552734375,-0.031151413917541504,-0.3755016326904297,0.6271195411682129
1710891006825115100,4.080115234375,0.03664040565490723,-0.47739601135253906,0.5907440185546875
1710891006844075000,4.099074951171875,0.07849931716918945,-0.4584064483642578,0.418612003326416
1710891006863034600,4.11803466796875,0.06092548370361328,-0.4322237968444824,0.37014055252075195
1710891006881994500,4.136994384765625,0.05961728096008301,-0.42061805725097656,0.3939061164855957
1710891006900954400,4.155954345703125,0.0460054874420166,-0.38256072998046875,0.30246400833129883
1710891006919914200,4.174914306640625,0.026203155517578125,-0.36966705322265625,0.1254434585571289
1710891006938873900,4.193873779296875,0.026345252990722656,-0.3943347930908203,-0.057116031646728516
1710891006957833700,4.212833740234375,-0.013274192810058594,-0.41275978088378906,-0.0006551742553710938
1710891006976793600,4.231793701171875,-0.012256026268005371,-0.48873424530029297,0.13562726974487305
1710891006995753200,4.250753173828125,0.01934194564819336,-0.4475975036621094,0.19576215744018555
1710891007014713000,4.269713134765625,0.08688080310821533,-0.3491067886352539,0.2552146911621094
1710891007033673000,4.2886728515625,0.1570504903793335,-0.35984325408935547,0.3534526824951172
1710891007052632600,4.307632568359375,0.20959532260894775,-0.45636463165283203,0.4276094436645508
1710891007071592400,4.326592529296875,0.20105481147766113,-0.2932748794555664,0.4495115280151367
1710891007090552300,4.34555224609375,0.2076740264892578,-0.12323379516601562,0.43453025817871094
1710891007109512000,4.364511962890625,0.18932723999023438,-0.04364204406738281,0.46569108963012695
1710891007128471800,4.383471923828125,0.123291015625,0.32463741302490234,0.556795597076416
1710891007147431700,4.402431640625,0.04148578643798828,1.0306005477905273,0.8375945091247559
1710891007166391300,4.421391357421875,-0.018040895462036133,1.5317506790161133,1.0849485397338867
1710891007185351200,4.44035107421875,0.042714595794677734,1.288766860961914,1.0240025520324707
1710891007204311000,4.45931103515625,0.17097234725952148,0.4737081527709961,0.579132080078125
1710891007223270700,4.478270751953125,0.24904251098632812,-0.1553640365600586,0.04288053512573242
1710891007242230500,4.49723046875,0.13268685340881348,-0.32624340057373047,-0.4484720230102539
1710891007261190400,4.5161904296875,-0.12489688396453857,-0.008933067321777344,-0.8516619205474854
1710891007280150300,4.535150390625,-0.381641149520874,0.5429096221923828,-1.1222200393676758
1710891007299110000,4.55410986328125,-0.6049326658248901,1.2086076736450195,-1.3797454833984375
1710891007318069800,4.57306982421875,-0.790743350982666,1.674799919128418,-1.5107994079589844
1710891007337029600,4.592029541015625,-0.842890739440918,1.6114435195922852,-1.4462637901306152
1710891007355989500,4.610989501953125,-0.5898082256317139,1.171645164489746,-1.2851648330688477
1710891007374949000,4.62994921875,-0.2247781753540039,0.8302850723266602,-1.2147765159606934
1710891007393909000,4.648908935546875,0.034006476402282715,0.5787086486816406,-1.1121830940246582
1710891007412868900,4.667868896484375,0.2718898057937622,0.39079856872558594,-1.0557451248168945
1710891007431828500,4.686828369140625,0.4044531583786011,0.40602779388427734,-1.1093807220458984
1710891007450788400,4.705788330078125,0.4115025997161865,0.4778318405151367,-1.2963671684265137
1710891007469748200,4.724748291015625,0.26402556896209717,0.44377803802490234,-1.4882333278656006
1710891007488707800,4.743707763671875,-0.056572794914245605,0.5590572357177734,-1.684499740600586
1710891007507667700,4.762667724609375,-0.4599806070327759,0.757568359375,-1.7481565475463867
1710891007526627600,4.781627685546875,-0.71342933177948,0.8642158508300781,-1.5577352046966553
1710891007545587500,4.80058740234375,-0.6826731562614441,0.5801019668579102,-1.346034049987793
1710891007564547300,4.81954736328125,-0.561436653137207,0.17807674407958984,-1.2041289806365967
1710891007583507000,4.8385068359375,-0.5618070960044861,0.01726818084716797,-0.9044647216796875
1710891007602466800,4.857466796875,-0.6301660537719727,-0.07115364074707031,-0.5239911079406738
1710891007621426700,4.8764267578125,-0.5172296762466431,-0.19877243041992188,-0.18705964088439941
1710891007640386300,4.89538623046875,-0.31552696228027344,-0.3489952087402344,-0.11867284774780273
1710891007659346200,4.91434619140625,-0.15292644500732422,-0.4972219467163086,-0.30074381828308105
1710891007678306000,4.93330615234375,-0.0845499038696289,-0.46746826171875,-0.6457819938659668
1710891007697266000,4.952265869140625,-0.18934595584869385,-0.35591983795166016,-0.6752185821533203
1710891007716225800,4.971225830078125,-0.22821390628814697,-0.2127532958984375,-0.6304099559783936
1710891007735185400,4.990185302734375,-0.2187265157699585,-0.03313922882080078,-0.724146842956543
1710891007754145300,5.009145263671875,-0.2523154020309448,0.037743568420410156,-0.6922175884246826
1710891007773105200,5.028105224609375,-0.11901593208312988,0.1970195770263672,-0.5320796966552734
1710891007792064800,5.047064697265625,0.06957387924194336,0.18175220489501953,-0.3628718852996826
1710891007811024600,5.066024658203125,0.16135096549987793,0.04124927520751953,-0.3242762088775635
1710891007829984500,5.084984619140625,0.16904473304748535,-0.08797931671142578,-0.5071370601654053
1710891007848944400,5.1039443359375,0.1606125831604004,-0.06119823455810547,-0.6091747283935547
1710891007867904000,5.122904052734375,0.037731051445007324,0.10349273681640625,-0.6340065002441406
1710891007886864000,5.14186376953125,-0.09901392459869385,0.25002574920654297,-0.61922287940979
1710891007905823700,5.16082373046875,-0.36739736795425415,0.3446779251098633,-0.46680378913879395
1710891007924783600,5.17978369140625,-0.6095529794692993,0.43013572692871094,-0.20592975616455078
1710891007943743500,5.198743408203125,-0.8212926387786865,0.43802928924560547,-0.16551589965820312
1710891007962703000,5.217703125,-1.0103896856307983,0.4337730407714844,-0.2542240619659424
1710891007981663000,5.2366630859375,-1.141974925994873,0.43785667419433594,-0.295001745223999
1710891008000622800,5.255622802734375,-1.1961886882781982,0.3394451141357422,-0.27620363235473633
1710891008019582500,5.27458251953125,-1.1860496997833252,0.20525264739990234,-0.32645416259765625
1710891008038542300,5.293542236328125,-1.2138926982879639,0.02396869659423828,-0.3597147464752197
1710891008057502200,5.312502197265625,-1.2323170900344849,-0.009073257446289062,-0.23503398895263672
1710891008076462000,5.331462158203125,-1.2625441551208496,0.007576942443847656,-0.04123067855834961
1710891008095421700,5.350421630859375,-1.2112934589385986,0.03905010223388672,0.06104135513305664
1710891008114381600,5.369381591796875,-1.0354692935943604,0.16412639617919922,0.1697230339050293
1710891008133341400,5.388341552734375,-0.7531166672706604,0.14600372314453125,0.3099021911621094
1710891008152301300,5.40730126953125,-0.46259284019470215,0.049612998962402344,0.3509817123413086
1710891008171261200,5.42626123046875,-0.31805557012557983,0.04498481750488281,0.35413479804992676
1710891008190220800,5.445220703125,-0.28424179553985596,0.47922515869140625,0.5362038612365723
1710891008209180700,5.4641806640625,-0.12412291765213013,0.5096521377563477,0.9472854137420654
1710891008228140500,5.483140625,0.6329139471054077,0.02673625946044922,0.9145667552947998
1710891008247100200,5.50210009765625,0.841674268245697,-0.1321401596069336,0.5396759510040283
1710891008266060000,5.52106005859375,0.4252510070800781,-0.19968891143798828,0.3062598705291748
1710891008285020000,5.54002001953125,-0.2593039274215698,0.026287078857421875,0.0033974647521972656
1710891008303979800,5.558979736328125,-1.1166094541549683,0.4123201370239258,-0.4315943717956543
1710891008322939600,5.577939697265625,-1.7403717041015625,0.5558652877807617,-0.9314122200012207
1710891008341899300,5.596899169921875,-1.8427361249923706,0.49037647247314453,-1.4654147624969482
1710891008360859100,5.615859130859375,-1.712172031402588,0.3453187942504883,-1.7969489097595215
1710891008379819000,5.634819091796875,-1.629919171333313,0.46766090393066406,-1.6655014753341675
1710891008398779000,5.65377880859375,-1.4692715406417847,0.6022453308105469,-1.2000441551208496
1710891008417738500,5.672738525390625,-1.174460768699646,0.5767583847045898,-0.834813117980957
1710891008436698400,5.691698486328125,-0.9602301120758057,0.574376106262207,-0.6404435634613037
1710891008455658200,5.710658203125,-0.7718890905380249,0.6573572158813477,-0.3824295997619629
1710891008474618000,5.7296181640625,-0.421575665473938,0.5708847045898438,-0.03490138053894043
1710891008493578000,5.748577880859375,-0.06293368339538574,0.2590608596801758,0.31467580795288086
1710891008512537600,5.76753759765625,0.03200483322143555,0.30886173248291016,0.46208715438842773
1710891008531497500,5.78649755859375,-0.06588625907897949,0.5795822143554688,0.36805224418640137
1710891008550457300,5.805457275390625,-0.2145078182220459,0.49887657165527344,0.00511479377746582
1710891008569417200,5.824417236328125,-0.423459529876709,0.464019775390625,-0.4446690082550049
1710891008588376800,5.843376953125,-0.676385760307312,0.45490264892578125,-0.6319918632507324
1710891008607336700,5.862336669921875,-1.0001447200775146,0.5696678161621094,-0.6278948783874512
1710891008626296600,5.881296630859375,-1.1350793838500977,0.5647964477539062,-0.5192258358001709
1710891008645256400,5.90025634765625,-1.1595797538757324,0.5543050765991211,-0.5304791927337646
1710891008664216300,5.91921630859375,-1.0663471221923828,0.9469175338745117,-0.24964642524719238
1710891008683176200,5.93817626953125,-0.7691706418991089,1.603806495666504,0.18390250205993652
1710891008702135800,5.9571357421875,-0.301405668258667,2.1462278366088867,0.2737903594970703
1710891008721095700,5.976095703125,-0.004385709762573242,2.2382497787475586,0.23806262016296387
1710891008740055600,5.9950556640625,0.3107287883758545,2.1482772827148438,0.4505894184112549
1710891008759015400,6.014015380859375,0.6104211807250977,2.0103750228881836,0.26721644401550293
1710891008777975000,6.03297509765625,0.6580743789672852,1.799473762512207,0.06533575057983398
1710891008796935000,6.051934814453125,0.6843147277832031,1.3042278289794922,0.0016970634460449219
1710891008815894800,6.070894775390625,0.9057695865631104,0.9285993576049805,-0.20239830017089844
1710891008834854700,6.089854736328125,1.1465325355529785,0.8737888336181641,-0.8504340648651123
1710891008853814500,6.108814453125,1.2213008403778076,0.6919593811035156,-1.3283997774124146
1710891008872774400,6.1277744140625,1.3411993980407715,0.3031044006347656,-1.5877158641815186
1710891008891734000,6.146734130859375,1.3433504104614258,-0.2741708755493164,-1.8337188959121704
1710891008910694000,6.16569384765625,1.264540672302246,-0.7017431259155273,-2.026198387145996
1710891008929653800,6.18465380859375,1.1512160301208496,-0.8745346069335938,-2.247331142425537
1710891008948613600,6.203613525390625,0.8945145606994629,-1.0741400718688965,-2.1122264862060547
1710891008967573500,6.222573486328125,0.7834577560424805,-0.8273353576660156,-1.8763477802276611
1710891008986533400,6.241533447265625,0.5893838405609131,-0.38315868377685547,-1.786874532699585
1710891009005493200,6.2604931640625,0.5655701160430908,-0.18412113189697266,-1.4967799186706543
1710891009024452900,6.279452880859375,0.6903166770935059,-0.3812274932861328,-1.0184259414672852
1710891009043412700,6.298412841796875,0.7481281757354736,-0.4972076416015625,-0.5591087341308594
1710891009062372600,6.31737255859375,0.7799005508422852,-0.6940011978149414,-0.0691685676574707
1710891009081332500,6.33633251953125,0.9021856784820557,-1.0166411399841309,0.25944042205810547
1710891009100292400,6.355292236328125,0.9586434364318848,-1.0968613624572754,0.2587583065032959
1710891009119252200,6.374252197265625,0.7497687339782715,-0.8879451751708984,0.35807180404663086
1710891009138212000,6.393212158203125,0.5500531196594238,-0.8640060424804688,0.48095226287841797
1710891009157171700,6.412171630859375,0.4647197723388672,-1.0712757110595703,0.16768240928649902
1710891009176131800,6.4311318359375,0.40010738372802734,-1.1429786682128906,-0.354095458984375
1710891009195091500,6.450091552734375,0.19402837753295898,-0.9912815093994141,-0.9296610355377197
1710891009214051300,6.46905126953125,-0.16159534454345703,-0.9133706092834473,-1.1458123922348022
1710891009233011200,6.48801123046875,-0.2802140712738037,-0.9668350219726562,-0.9525153636932373
1710891009251971000,6.50697119140625,-0.20248699188232422,-1.1671695709228516,-0.7405247688293457
1710891009270931000,6.525930908203125,-0.15601038932800293,-1.4392986297607422,-0.8083465099334717
1710891009289890800,6.544890869140625,-0.2019660472869873,-1.4503068923950195,-0.8437466621398926
1710891009308850700,6.5638505859375,-0.22295475006103516,-1.0880556106567383,-0.4836585521697998
1710891009327810600,6.582810546875,-0.11543536186218262,-0.84210205078125,-0.090362548828125
1710891009346770400,6.6017705078125,-0.01865386962890625,-1.1043753623962402,0.049314260482788086
1710891009365730000,6.62072998046875,0.0055408477783203125,-1.3554377555847168,-0.035738468170166016
1710891009384690200,6.639690185546875,-0.15211176872253418,-1.3592605590820312,-0.15090012550354004
1710891009403649800,6.65864990234375,-0.2718989849090576,-1.2318229675292969,-0.07130551338195801
1710891009422609700,6.677609619140625,-0.17449188232421875,-1.024341106414795,0.000820159912109375
1710891009441569500,6.696569580078125,-0.047823429107666016,-0.7804908752441406,-0.29233264923095703
1710891009460529400,6.715529296875,-0.10116434097290039,-0.5273990631103516,-0.7061841487884521
1710891009479489300,6.7344892578125,-0.21921133995056152,-0.26783084869384766,-0.9307026863098145
1710891009498449200,6.75344921875,-0.16358041763305664,0.02530670166015625,-0.9990866184234619
1710891009517409000,6.772408935546875,-0.11027216911315918,0.4419527053833008,-1.0056781768798828
1710891009536369000,6.791368896484375,0.17522692680358887,0.558558464050293,-0.5792653560638428
1710891009555328800,6.810328857421875,0.49797606468200684,0.3106203079223633,-0.2272951602935791
1710891009574288600,6.82928857421875,0.5389864444732666,0.19538497924804688,-0.1444704532623291
1710891009593248500,6.84824853515625,0.45050787925720215,0.061107635498046875,0.37534499168395996
1710891009612208400,6.86720849609375,0.33911633491516113,-0.09283065795898438,0.9341573715209961
1710891009631168300,6.886168212890625,0.16108059883117676,-0.22669029235839844,1.3301823139190674
1710891009650128100,6.905128173828125,0.08448576927185059,-0.29120540618896484,1.8465118408203125
1710891009669088000,6.924087890625,0.20508527755737305,-0.3328123092651367,2.2654635906219482
1710891009688047900,6.9430478515625,0.24432682991027832,-0.012563705444335938,2.3719186782836914
1710891009707007700,6.9620078125,0.31948375701904297,0.24091148376464844,2.111703872680664
1710891009725967600,6.980967529296875,0.29856300354003906,-0.2990913391113281,1.371170997619629
1710891009744927500,6.999927490234375,0.14250445365905762,-0.9663476943969727,0.6284377574920654
1710891009763887400,7.018887451171875,-0.19441628456115723,-1.2148966789245605,-0.14403367042541504
1710891009782847200,7.03784716796875,-0.5930577516555786,-1.1162300109863281,-0.8645553588867188
1710891009801807000,7.05680712890625,-0.8826348781585693,-1.1582050323486328,-1.510394811630249
1710891009820767000,7.07576708984375,-1.0247046947479248,-1.308506965637207,-1.744318962097168
1710891009839726800,7.094726806640625,-1.1126676797866821,-0.9898548126220703,-1.4523446559906006
1710891009858686700,7.113686767578125,-0.9699287414550781,-0.2851848602294922,-0.8710336685180664
1710891009877646600,7.132646484375,-0.5075210332870483,-0.2172708511352539,-0.2627248764038086
1710891009896606500,7.1516064453125,0.19240403175354004,-0.4228992462158203,0.20596814155578613
1710891009915566300,7.17056640625,0.927098274230957,-0.1442403793334961,0.7111594676971436
1710891009934526200,7.189526123046875,1.3284988403320312,0.37868690490722656,1.412442684173584
1710891009953486000,7.208486083984375,1.3636085987091064,0.6656560897827148,1.9675397872924805
1710891009972446200,7.2274462890625,1.3111658096313477,0.6439609527587891,2.149604558944702
1710891009991406000,7.246406005859375,1.2294504642486572,0.5599374771118164,1.7401914596557617
1710891010010366000,7.265365966796875,1.1211793422698975,0.2550191879272461,0.9822430610656738
1710891010029325800,7.284325927734375,0.9609334468841553,-0.10295581817626953,0.19792842864990234
1710891010048285700,7.30328564453125,0.7430374622344971,-0.34131336212158203,-0.4838395118713379
1710891010067245600,7.32224560546875,0.4476199150085449,-0.5121517181396484,-1.0380374193191528
1710891010086205400,7.341205322265625,0.15281224250793457,-0.6587486267089844,-1.4501378536224365
1710891010105165300,7.360165283203125,-0.16767072677612305,-0.5712137222290039,-1.6986974477767944
1710891010124125200,7.379125244140625,-0.44707798957824707,-0.09109306335449219,-1.846134901046753
1710891010143085000,7.3980849609375,-0.5138347148895264,0.47096824645996094,-1.8302477598190308
1710891010162045000,7.417044921875,-0.3389817476272583,0.6651220321655273,-1.5673003196716309
1710891010181005000,7.436005126953125,-0.1301860809326172,0.5316019058227539,-0.9983845949172974
1710891010199965000,7.45496484375,0.09754037857055664,0.44226837158203125,-0.42369353771209717
1710891010218924800,7.4739248046875,0.30716753005981445,0.5089273452758789,0.09607934951782227
1710891010237884700,7.492884765625,0.567528247833252,0.5279417037963867,0.5077664852142334
1710891010256844500,7.511844482421875,0.696333646774292,0.34035491943359375,0.7697970867156982
1710891010275804400,7.530804443359375,0.7156616449356079,-0.022068023681640625,0.7119882106781006
1710891010294764500,7.5497646484375,0.5475641489028931,-0.2645082473754883,0.31906938552856445
1710891010313724400,7.568724365234375,0.21147823333740234,-0.36084461212158203,-0.15488052368164062
1710891010332684300,7.587684326171875,-0.1440446376800537,-0.45806217193603516,-0.634589433670044
1710891010351644200,7.60664404296875,-0.49349260330200195,-0.4554920196533203,-1.004936695098877
1710891010370604000,7.62560400390625,-0.7735269069671631,-0.2561225891113281,-1.2447047233581543
1710891010389564000,7.64456396484375,-0.9246572256088257,0.027466773986816406,-1.249965786933899
1710891010408523800,7.663523681640625,-0.9248652458190918,0.19829273223876953,-0.8744741678237915
1710891010427484000,7.68248388671875,-0.7014023065567017,0.2772941589355469,-0.5923675298690796
1710891010446443800,7.70144384765625,-0.4465705156326294,0.29181480407714844,-0.3951660394668579
1710891010465403600,7.720403564453125,-0.15845704078674316,0.2530221939086914,-0.28444790840148926
1710891010484363500,7.739363525390625,0.08458876609802246,0.25702381134033203,-0.21559154987335205
1710891010503323400,7.758323486328125,0.10694432258605957,0.2437610626220703,-0.15540552139282227
1710891010522283300,7.777283203125,0.06013846397399902,0.09370994567871094,0.0031371116638183594
1710891010541243400,7.796243408203125,-0.05905282497406006,0.2596168518066406,-0.21737360954284668
1710891010560203300,7.815203369140625,-0.27771127223968506,0.6360282897949219,-0.6132612228393555
1710891010579163100,7.8341630859375,-0.5029129981994629,0.7797212600708008,-0.8221718072891235
1710891010598123000,7.853123046875,-0.5763189792633057,0.7244997024536133,-0.6928590536117554
1710891010617083000,7.872082763671875,-0.4764827489852905,0.5848226547241211,-0.6424832344055176
1710891010636043000,7.89104296875,-0.344917893409729,0.4824638366699219,-0.7621454000473022
1710891010655003000,7.9100029296875,-0.2339160442352295,0.3266725540161133,-0.7710156440734863
1710891010673962800,7.928962646484375,-0.09971332550048828,0.13660812377929688,-0.4370168447494507
1710891010692923000,7.9479228515625,-0.01752924919128418,0.02832508087158203,-0.09274613857269287
1710891010711882800,7.9668828125,-0.026346683502197266,0.08024406433105469,0.07596790790557861
1710891010730842600,7.985842529296875,-0.10832929611206055,0.059749603271484375,0.04776132106781006
1710891010749802500,8.004802490234376,-0.17493140697479248,-0.24135303497314453,0.020845651626586914
1710891010768762400,8.023762451171875,-0.318583607673645,-0.4386606216430664,-0.1209341287612915
1710891010787722500,8.042722412109375,-0.4760284423828125,-0.29457855224609375,-0.24989604949951172
1710891010806682400,8.061682373046875,-0.5181611776351929,-0.032103538513183594,-0.28896868228912354
1710891010825642200,8.080642333984375,-0.4308147430419922,0.07186698913574219,-0.27763092517852783
1710891010844602000,8.09960205078125,-0.29052734375,0.19394969940185547,-0.1960843801498413
1710891010863562200,8.118562255859375,-0.11622047424316406,0.28620147705078125,-0.09195780754089355
1710891010882522000,8.137522216796874,0.17006933689117432,0.1495504379272461,-0.031341552734375
1710891010901482000,8.15648193359375,0.3951185941696167,-0.13824844360351562,0.02696526050567627
1710891010920441900,8.17544189453125,0.5303381681442261,-0.45331764221191406,-0.0194094181060791
1710891010939402000,8.194402099609375,0.5887140035629272,-0.7003240585327148,-0.1616281270980835
1710891010958361900,8.21336181640625,0.5209431648254395,-0.7794990539550781,-0.27584218978881836
1710891010977321700,8.23232177734375,0.38726985454559326,-0.668147087097168,-0.3816913366317749
1710891010996281600,8.251281494140626,0.272067666053772,-0.4809579849243164,-0.33797621726989746
1710891011015241700,8.27024169921875,0.1777130365371704,-0.3872385025024414,-0.20906925201416016
1710891011034201600,8.28920166015625,0.13867473602294922,-0.34311962127685547,-0.19964027404785156
1710891011053161700,8.30816162109375,0.21225333213806152,-0.2697639465332031,-0.11591541767120361
1710891011072121600,8.32712158203125,0.3530890941619873,-0.02312946319580078,-0.11218059062957764
1710891011091081500,8.34608154296875,0.37639129161834717,0.08306121826171875,-0.026641845703125
1710891011110041300,8.365041259765626,0.41457414627075195,0.2273273468017578,0.060729026794433594
1710891011129001500,8.38400146484375,0.45860469341278076,0.5147008895874023,0.1626272201538086
1710891011147961300,8.40296142578125,0.46955931186676025,0.7017478942871094,0.1938333511352539
1710891011166921200,8.421921142578125,0.4318230152130127,0.5841274261474609,0.20896291732788086
1710891011185881000,8.440881103515625,0.5000202655792236,0.4758739471435547,0.05352067947387695
1710891011204841200,8.45984130859375,0.6062846183776855,0.3027200698852539,-0.29203855991363525
1710891011223801000,8.478801025390625,0.5604898929595947,0.2014322280883789,-0.5750331878662109
1710891011242761200,8.49776123046875,0.3516836166381836,0.1575298309326172,-0.5903570652008057
1710891011261721000,8.51672119140625,0.11902964115142822,-0.030504226684570312,-0.5512683391571045
1710891011280681000,8.535680908203124,0.0055713653564453125,-0.20501232147216797,-0.6226334571838379
1710891011299640800,8.554640869140625,-0.032004475593566895,-0.31824779510498047,-0.6814819574356079
1710891011318601000,8.57360107421875,-0.08649730682373047,-0.35422515869140625,-0.7089495658874512
1710891011337560800,8.592560791015625,-0.14100468158721924,-0.4103717803955078,-0.5123773813247681
1710891011356520700,8.611520751953124,-0.13335108757019043,-0.4509553909301758,-0.22256052494049072
1710891011375480800,8.630480712890625,-0.09217321872711182,-0.37381744384765625,0.11009252071380615
1710891011394440700,8.649440673828124,-0.049691081047058105,-0.18224430084228516,0.2505737543106079
1710891011413400600,8.668400634765625,0.10600292682647705,-0.18662738800048828,0.34452056884765625
1710891011432360400,8.6873603515625,0.2163609266281128,-0.3288593292236328,0.30032598972320557
1710891011451320600,8.706320556640625,0.2912846803665161,-0.2994861602783203,0.2526586055755615
1710891011470280400,8.725280517578126,0.1288520097732544,-0.37981700897216797,0.27779412269592285
1710891011489240600,8.744240478515625,-0.07371366024017334,-0.3557777404785156,0.29437875747680664
1710891011508200400,8.763200439453126,-0.18639051914215088,-0.2145700454711914,0.26018476486206055
1710891011527160300,8.782160400390625,-0.2117786407470703,-0.14624977111816406,0.14068937301635742
1710891011546120400,8.801120361328126,-0.2313634157180786,-0.19861507415771484,-0.048274993896484375
1710891011565080300,8.820080322265625,-0.3198268413543701,-0.2892131805419922,-0.2285553216934204
1710891011584040200,8.839040283203126,-0.3127472400665283,-0.3945951461791992,-0.31767165660858154
1710891011603000000,8.858,-0.26956188678741455,-0.3895130157470703,-0.36163604259490967
1710891011621960200,8.876960205078126,-0.2865813970565796,-0.27162837982177734,-0.22258353233337402
1710891011640920000,8.895920166015625,-0.31319308280944824,0.06409931182861328,-0.10136055946350098
1710891011659880000,8.9148798828125,-0.30533891916275024,0.34250640869140625,0.08492183685302734
1710891011678840000,8.933840087890625,-0.2727169990539551,0.450042724609375,0.1768500804901123
1710891011697800000,8.952800048828125,-0.34215307235717773,0.42386627197265625,0.2218167781829834
1710891011716760000,8.971760009765624,-0.34525561332702637,0.30487632751464844,0.3238189220428467
1710891011735720000,8.990719970703125,-0.38170450925827026,0.32520580291748047,0.28315043449401855
1710891011754679800,9.0096796875,-0.46327948570251465,0.438201904296875,0.3369462490081787
1710891011773639700,9.0286396484375,-0.4479682445526123,0.35034751892089844,0.5081346035003662
1710891011792599800,9.047599853515624,-0.3591203987598419,0.142486572265625,0.6546821594238281
1710891011811559700,9.0665595703125,-0.30114805698394775,0.07501792907714844,0.7212023735046387
1710891011830519600,9.08551953125,-0.24118348956108093,0.08967781066894531,0.7551326751708984
1710891011849479700,9.104479736328125,-0.23217225074768066,0.042774200439453125,0.5444762706756592
1710891011868439600,9.123439453125,-0.28937411308288574,0.0732879638671875,0.28586387634277344
1710891011887399400,9.1423994140625,-0.34615275263786316,0.45220470428466797,0.04821348190307617
1710891011906359600,9.161359619140624,-0.45725035667419434,0.6787347793579102,-0.21305763721466064
1710891011925319400,9.1803193359375,-0.6207864880561829,0.5834646224975586,-0.2979869842529297
1710891011944279600,9.199279541015626,-0.6226720213890076,0.40032100677490234,-0.263752818107605
1710891011963239400,9.218239501953125,-0.6158438324928284,0.3072166442871094,-0.11985421180725098
1710891011982199300,9.23719921875,-0.6135008931159973,0.1427898406982422,0.14875376224517822
1710891012001159200,9.2561591796875,-0.5646649599075317,0.04405975341796875,0.3218555450439453
1710891012020119300,9.275119384765626,-0.44871091842651367,-0.020270347595214844,0.3218865394592285
1710891012039079200,9.2940791015625,-0.3583235442638397,0.004391670227050781,0.29897618293762207
1710891012058039000,9.3130390625,-0.2510446310043335,0.16932392120361328,0.30704283714294434
1710891012076999000,9.3319990234375,-0.07658622413873672,0.19552993774414062,0.273040771484375
1710891012095959000,9.350958984375,0.03923352062702179,0.11224555969238281,0.11792898178100586
1710891012114919000,9.3699189453125,0.04355388879776001,0.18164920806884766,-0.0797119140625
1710891012133878800,9.388878662109375,-0.005071461200714111,0.343475341796875,-0.21385729312896729
1710891012152839000,9.4078388671875,-0.10247187316417694,0.3387603759765625,-0.35511934757232666
1710891012171798800,9.426798828125,-0.25143906474113464,0.19150352478027344,-0.5866117477416992
1710891012190759000,9.445759033203124,-0.3817552328109741,0.009438514709472656,-0.6902728080749512
1710891012209718800,9.46471875,-0.4255819320678711,0.042572021484375,-0.7418725490570068
1710891012228678700,9.4836787109375,-0.39754074811935425,0.17762374877929688,-0.6699768304824829
1710891012247638500,9.502638427734375,-0.27246782183647156,0.13097763061523438,-0.4474015235900879
1710891012266598700,9.5215986328125,-0.11352196335792542,-0.043931007385253906,-0.25871169567108154
1710891012285558500,9.54055859375,-0.014238864183425903,-0.06873130798339844,-0.1632080078125
1710891012304518400,9.559518310546874,0.014618992805480957,0.07134723663330078,-0.06291592121124268
1710891012323478300,9.578478271484375,0.11965349316596985,0.07935714721679688,0.0027974843978881836
1710891012342438400,9.5974384765625,0.21078971028327942,-0.04510688781738281,0.180100679397583
1710891012361398300,9.616398193359375,0.1439255177974701,-0.09882259368896484,0.14433157444000244
1710891012380358400,9.6353583984375,0.04056352376937866,-0.06131458282470703,0.01770472526550293
1710891012399318300,9.654318359375,0.04022905230522156,-0.03475475311279297,-0.09659326076507568
1710891012418278100,9.673278076171876,0.04647967219352722,-0.14843463897705078,-0.14029359817504883
1710891012437238300,9.69223828125,0.03313598036766052,-0.12703704833984375,-0.1338655948638916
1710891012456198100,9.7111982421875,0.024421513080596924,-0.011851310729980469,-0.19702327251434326
1710891012475158000,9.730157958984375,0.061438798904418945,-0.0545654296875,-0.27151399850845337
1710891012494118000,9.749117919921876,0.08989500999450684,-0.20952796936035156,-0.33593082427978516
1710891012513078000,9.768078125,0.055712997913360596,-0.038376808166503906,-0.4465145468711853
1710891012532038000,9.787037841796876,-0.15434977412223816,0.11061382293701172,-0.3958526849746704
1710891012550997800,9.805997802734375,-0.35817497968673706,0.07072639465332031,-0.3246551752090454
1710891012569957600,9.82495751953125,-0.663907527923584,0.21286296844482422,-0.46368682384490967
1710891012588917800,9.843917724609375,-1.044372797012329,0.38200950622558594,-0.5306999683380127
1710891012607877600,9.862877685546875,-1.2182950973510742,0.4558897018432617,-0.26178956031799316
1710891012626837800,9.881837646484374,-0.9681645631790161,0.45963287353515625,0.2891571521759033
1710891012645797600,9.900797607421875,-0.29021066427230835,0.32238006591796875,0.8464064598083496
1710891012664757500,9.919757568359374,0.4116770625114441,0.04538249969482422,1.310829520225525
1710891012683717400,9.93871728515625,0.9084770083427429,-0.13526153564453125,1.7220686674118042
1710891012702677200,9.95767724609375,1.166853427886963,-0.14826583862304688,1.9768481254577637
1710891012721637400,9.976637451171875,1.2202749252319336,-0.26966381072998047,1.9518752098083496
1710891012740597200,9.99559716796875,1.033069372177124,-0.3186912536621094,1.362354040145874
1710891012759557000,10.01455712890625,0.6348845362663269,-0.2729043960571289,0.6660038828849792
1710891012778517200,10.033517333984374,0.04158884286880493,-0.15098094940185547,-0.03764986991882324
1710891012797477000,10.05247705078125,-0.4703419804573059,-0.17019271850585938,-0.6611310243606567
1710891012816437000,10.07143701171875,-0.7716659903526306,-0.19832706451416016,-1.27001953125
1710891012835397000,10.090397216796875,-0.8535270094871521,-0.1836528778076172,-1.7033746242523193
1710891012854357000,10.10935693359375,-0.8419827818870544,-0.12032222747802734,-1.782859206199646
1710891012873316900,10.12831689453125,-0.7788519859313965,0.06062030792236328,-1.6240184307098389
1710891012892276700,10.14727685546875,-0.5931001305580139,0.3123445510864258,-1.2042548656463623
1710891012911236600,10.166236572265625,-0.23502767086029053,0.3748178482055664,-0.8544032573699951
1710891012930196700,10.18519677734375,0.09740597009658813,0.4124488830566406,-0.3629760146141052
1710891012949156600,10.204156494140625,0.22148972749710083,0.4822235107421875,0.19235384464263916
1710891012968116700,10.22311669921875,0.2834993004798889,0.4424266815185547,0.6596736311912537
1710891012987076600,10.24207666015625,0.4088439643383026,0.3184499740600586,0.8976370692253113
1710891013006036500,10.261036376953125,0.5415735840797424,0.02541065216064453,1.0523216724395752
1710891013024996400,10.279996337890625,0.6548044085502625,-0.23627471923828125,1.1147682666778564
1710891013043956200,10.298956298828125,0.683590829372406,-0.2833671569824219,0.9841788411140442
1710891013062916400,10.317916259765624,0.5321007370948792,-0.28023719787597656,0.683020293712616
1710891013081876200,10.336876220703125,0.3536405861377716,-0.2723207473754883,0.38265013694763184
1710891013100836000,10.355836181640624,0.23015223443508148,-0.34259796142578125,0.12715548276901245
1710891013119796000,10.3747958984375,0.1484518051147461,-0.19904327392578125,-0.19138103723526
1710891013138756000,10.393756103515624,0.05630114674568176,-0.13028430938720703,-0.5318614840507507
1710891013157716000,10.412716064453125,-0.04567071795463562,-0.08576202392578125,-0.7317020893096924
1710891013176675800,10.43167578125,-0.14692145586013794,-0.13420867919921875,-0.6932806968688965
1710891013195635700,10.4506357421875,-0.18689244985580444,-0.061763763427734375,-0.49342191219329834
1710891013214595800,10.469595947265624,-0.11276283860206604,-0.008799552917480469,-0.36623892188072205
1710891013233555700,10.4885556640625,-0.005243897438049316,-0.022829055786132812,-0.19255435466766357
1710891013252515600,10.507515625,0.04965066909790039,-0.05197334289550781,0.04283374547958374
1710891013271475500,10.526475341796875,0.044798344373703,0.025236129760742188,0.3155285716056824
1710891013290435600,10.545435546875,0.07032349705696106,0.13749313354492188,0.474415123462677
1710891013309395500,10.5643955078125,0.13634610176086426,0.21181011199951172,0.5459375977516174
1710891013328355300,10.583355224609376,0.20547285676002502,0.14835739135742188,0.691700279712677
1710891013347315200,10.602315185546875,0.277565062046051,0.023067474365234375,0.7087158560752869
1710891013366275000,10.621275146484376,0.27149608731269836,-0.08386039733886719,0.3948797583580017
1710891013385235200,10.640235107421875,0.16078364849090576,-0.14397621154785156,0.07071119546890259
1710891013404195000,10.659195068359375,0.017751067876815796,-0.1304302215576172,-0.13291096687316895
1710891013423155000,10.678155029296875,-0.08174341917037964,-0.1757335662841797,-0.17928099632263184
1710891013442115000,10.697114990234375,-0.12715479731559753,-0.28668880462646484,-0.17909103631973267
1710891013461075000,10.716074951171874,-0.23526355624198914,-0.24991607666015625,-0.2356499433517456
1710891013480034800,10.735034912109375,-0.3582003712654114,-0.09812355041503906,-0.2235279083251953
1710891013498994700,10.75399462890625,-0.26316389441490173,-0.11431026458740234,-0.12055933475494385
1710891013517954600,10.77295458984375,-0.07271277904510498,-0.2237405776977539,-0.06034296751022339
1710891013536914400,10.79191455078125,0.08176882565021515,-0.21138858795166016,-0.01878809928894043
1710891013555874600,10.81087451171875,0.16910195350646973,-0.1283283233642578,0.08642041683197021
1710891013574834400,10.82983447265625,0.17240002751350403,-0.017518043518066406,0.1304149627685547
1710891013593794300,10.848794189453125,0.1827562004327774,0.11552238464355469,0.0007152557373046875
1710891013612754400,10.86775439453125,0.20726048946380615,0.3426342010498047,-0.15281176567077637
1710891013631714300,10.88671435546875,0.18619504570960999,0.39491844177246094,-0.20683294534683228
1710891013650674200,10.905674072265626,0.17749108374118805,0.28364086151123047,-0.08919763565063477
1710891013669634000,10.924634033203125,0.1424255669116974,0.2437582015991211,-0.09783315658569336
1710891013688594000,10.943593994140626,0.13805446028709412,0.30531787872314453,-0.19819945096969604
1710891013707553800,10.9625537109375,0.19495199620723724,0.23615074157714844,-0.17043530941009521
1710891013726514000,10.981513916015626,0.24025830626487732,-0.057763099670410156,0.010606050491333008
1710891013745473800,11.000473876953125,0.26264387369155884,-0.23155784606933594,0.09019047021865845
1710891013764433700,11.01943359375,0.2012810856103897,-0.17117595672607422,0.005942285060882568
1710891013783393800,11.038393798828125,0.18748891353607178,-0.09133529663085938,-0.04486370086669922
1710891013802353700,11.057353759765626,0.16333521902561188,-0.06498241424560547,-0.06834179162979126
1710891013821313500,11.0763134765625,0.14286653697490692,-0.0737752914428711,-0.027120471000671387
1710891013840273400,11.0952734375,0.13279758393764496,-0.03506755828857422,0.08275216817855835
1710891013859233300,11.1142333984375,0.07527254521846771,0.05543231964111328,0.05016684532165527
1710891013878193200,11.133193115234375,0.04121585190296173,0.1976766586303711,-0.003772258758544922
1710891013897153300,11.1521533203125,0.10256734490394592,0.18330001831054688,0.0625307559967041
1710891013916113200,11.171113037109375,0.1760796457529068,0.09111213684082031,0.12554800510406494
1710891013935073000,11.190072998046874,0.23413416743278503,-0.05525493621826172,0.21784090995788574
1710891013954033200,11.209033203125,0.25469735264778137,-0.17304134368896484,0.26630449295043945
1710891013972993000,11.227992919921874,0.18944542109966278,-0.11892986297607422,0.1644115447998047
1710891013991953000,11.246952880859375,0.08455993235111237,-0.07391071319580078,0.09599900245666504
1710891014010912800,11.265912841796874,-0.010038629174232483,-0.12271404266357422,0.07679402828216553
1710891014029872600,11.28487255859375,-0.06116238981485367,-0.14637279510498047,0.033539533615112305
1710891014048832800,11.303832763671876,-0.06561630964279175,-0.13004398345947266,0.0038764476776123047
1710891014067792600,11.322792724609375,-0.024739451706409454,-0.1270618438720703,-0.11781740188598633
1710891014086752500,11.34175244140625,-0.010040834546089172,-0.21941280364990234,-0.16346698999404907
1710891014105712600,11.360712646484375,-0.02190815657377243,-0.10890769958496094,-0.16539955139160156
1710891014124672500,11.379672607421876,-0.0031156688928604126,0.011688232421875,-0.16634124517440796
1710891014143632400,11.39863232421875,0.08230698108673096,0.07413673400878906,-0.1629631519317627
1710891014162592300,11.41759228515625,0.14838317036628723,-0.09969806671142578,-0.10291600227355957
1710891014181552000,11.43655224609375,0.15024733543395996,-0.09679889678955078,-0.09302717447280884
1710891014200512300,11.45551220703125,0.08321818709373474,0.03284931182861328,-0.12128138542175293
1710891014219472100,11.47447216796875,0.01192552037537098,0.033158302307128906,-0.07751286029815674
1710891014238432300,11.493432373046875,-0.017310433089733124,0.005724906921386719,-0.02450239658355713
1710891014257392000,11.51239208984375,0.009670082479715347,0.012060165405273438,0.010870099067687988
1710891014276352000,11.53135205078125,0.024059485644102097,0.02115345001220703,-0.034628987312316895
1710891014295312000,11.550311767578124,0.020814569666981697,0.0034618377685546875,-0.02458357810974121
1710891014314272000,11.56927197265625,0.015965623781085014,-0.0829610824584961,0.04739081859588623
1710891014333231900,11.58823193359375,-0.006503887474536896,-0.1177663803100586,0.0887373685836792
1710891014352191700,11.607191650390625,-0.012262020260095596,-0.02778339385986328,0.1039876937866211
1710891014371151600,11.626151611328124,-0.05431773513555527,0.06026744842529297,0.07093417644500732
1710891014390111500,11.645111572265625,-0.03599431738257408,0.07296085357666016,0.0726773738861084
1710891014409071600,11.664071533203124,-0.05269189551472664,0.08496665954589844,0.06750667095184326
1710891014428031500,11.683031494140625,-0.05334418639540672,0.023504257202148438,0.07458889484405518
1710891014446991600,11.70199169921875,-0.06693930923938751,0.025636672973632812,0.16626691818237305
1710891014465951500,11.720951416015625,-0.05831994116306305,0.03834819793701172,0.17233026027679443
1710891014484911400,11.739911376953126,-0.05067841708660126,0.04834270477294922,0.10691499710083008
1710891014503871200,11.758871337890625,-0.05018210783600807,0.016763687133789062,0.0707627534866333
1710891014522831400,11.777831298828126,-0.04746673256158829,-0.015700340270996094,0.07647037506103516
1710891014541791200,11.796791259765625,-0.052929945290088654,-0.047245025634765625,0.10134518146514893
1710891014560751000,11.815751220703126,-0.03176012262701988,-0.040615081787109375,0.060886502265930176
1710891014579711200,11.834711181640625,-0.038595668971538544,-0.006125450134277344,0.058068275451660156
1710891014598671000,11.853671142578126,-0.06558069586753845,-0.0014104843139648438,0.045488595962524414
1710891014617631000,11.872630859375,-0.07374763488769531,0.08105754852294922,-0.0018373727798461914
1710891014636591000,11.891591064453126,-0.04769201576709747,0.09758949279785156,-0.02875649929046631
1710891014655551000,11.910551025390625,0.0058171190321445465,-0.0390777587890625,0.0231553316116333
1710891014674510800,11.9295107421875,0.041939765214920044,-0.06568336486816406,0.05935084819793701
1710891014693471000,11.948470947265625,0.04688078537583351,-0.016054153442382812,0.09926331043243408
1710891014712430800,11.967430908203125,0.10461413115262985,-0.07750797271728516,0.09407937526702881
1710891014731390700,11.986390625,0.07323964685201645,-0.07624626159667969,0.05886185169219971
1710891014750350800,12.005350830078125,0.06795918941497803,-0.06831073760986328,0.12865519523620605
1710891014769310700,12.024310791015624,0.01666680909693241,0.00049591064453125,0.03481876850128174
1710891014788270600,12.0432705078125,0.037644535303115845,0.030801773071289062,-0.06064927577972412
1710891014807230700,12.062230712890624,0.0683709904551506,0.03875160217285156,-0.13483387231826782
1710891014826190600,12.081190673828125,0.09036464989185333,-0.07645034790039062,-0.0688740611076355
1710891014845150500,12.100150390625,0.06896954774856567,-0.010541915893554688,-0.026078343391418457
1710891014864110600,12.119110595703125,0.028318781405687332,0.0717763900756836,-0.07394152879714966
1710891014883070500,12.138070556640624,-0.009971484541893005,0.10019302368164062,-0.15024065971374512
1710891014902030600,12.157030517578125,0.028415987268090248,0.07873058319091797,-0.11298573017120361
1710891014920990500,12.175990478515626,0.0438721664249897,-0.027321815490722656,-0.008650422096252441
1710891014939950300,12.194950439453125,0.04354009032249451,-0.032624244689941406,0.04199337959289551
1710891014958910500,12.213910400390626,0.030545581132173538,0.025282859802246094,-0.022585153579711914
1710891014977870300,12.232870361328125,0.02351025864481926,0.03993034362792969,-0.02814173698425293
1710891014996830200,12.251830322265626,0.03326348215341568,0.010777473449707031,0.06625282764434814
1710891015015790300,12.270790283203125,0.050648581236600876,-0.06598186492919922,0.13733255863189697
1710891015034750200,12.289750244140626,0.061314113438129425,-0.05231475830078125,0.11714756488800049
1710891015053710000,12.3087099609375,0.0047204867005348206,0.011771202087402344,0.026491284370422363
1710891015072670200,12.327670166015626,-0.010320227593183517,0.027935028076171875,-0.054865241050720215
1710891015091630000,12.346630126953125,0.009000111371278763,0.004797935485839844,-0.10415089130401611
1710891015110590200,12.365590087890626,0.02469276450574398,-0.050896644592285156,-0.06515979766845703
1710891015129550000,12.384550048828125,0.0019461661577224731,0.022727012634277344,-0.0631098747253418
1710891015148510000,12.403510009765625,0.00773252546787262,0.081756591796875,-0.035678744316101074
1710891015167470000,12.422469970703125,0.06779369711875916,0.03548431396484375,-0.018232107162475586
1710891015186430000,12.441429931640625,0.12182918936014175,-0.07143688201904297,0.06082022190093994
1710891015205389800,12.460389892578124,0.10271011292934418,-0.03242778778076172,0.039868712425231934
1710891015224350000,12.479349853515625,0.06820361316204071,-0.029999732971191406,0.0035409927368164062
1710891015243309800,12.498309814453124,0.062117282301187515,-0.017058372497558594,-0.001245737075805664
1710891015262270000,12.51727001953125,0.05502502620220184,-0.03583717346191406,-0.007673859596252441
1710891015281229800,12.536229736328124,0.047740448266267776,-0.023668289184570312,-0.034749507904052734
1710891015300190000,12.55518994140625,0.03132183849811554,0.019298553466796875,-0.06976485252380371
1710891015319149800,12.57414990234375,0.04225001111626625,0.0007658004760742188,-0.01264500617980957
1710891015338110000,12.59310986328125,0.07531270384788513,0.018586158752441406,0.005923032760620117
1710891015357069800,12.61206982421875,0.10925900191068649,0.005459785461425781,-0.0025633573532104492
1710891015376030000,12.631030029296875,0.073663130402565,-0.016556739807128906,-0.0453413724899292
1710891015394989800,12.64998974609375,0.0019436553120613098,0.007060050964355469,0.023041844367980957
1710891015413950000,12.668949951171875,-0.04729992151260376,0.08399105072021484,0.12763094902038574
1710891015432909800,12.687909912109374,0.039712388068437576,0.09411811828613281,0.1060861349105835
1710891015451869700,12.70686962890625,0.07685518264770508,0.1142892837524414,0.010622739791870117
1710891015470829800,12.725829833984376,0.06775113195180893,-0.014306068420410156,0.05055069923400879
1710891015489789700,12.744789794921875,0.04270812124013901,-0.025116920471191406,0.06403398513793945
1710891015508749800,12.763749755859376,-0.023594744503498077,0.0866851806640625,-0.0031583309173583984
1710891015527709700,12.782709716796875,-0.0010672807693481445,0.1516427993774414,-0.08465588092803955
1710891015546669800,12.801669921875,0.05999608337879181,0.10680389404296875,-0.06547367572784424
1710891015565629700,12.820629638671875,0.06729025393724442,-0.01168060302734375,0.008352160453796387
1710891015584589800,12.83958984375,0.026727724820375443,-0.0282745361328125,0.021369338035583496
1710891015603549700,12.8585498046875,-0.03952741250395775,-0.02019214630126953,0.029394984245300293
1710891015622509600,12.877509521484376,-0.06815269589424133,0.024806976318359375,0.036345481872558594
1710891015641469700,12.8964697265625,-0.05694631487131119,0.038125038146972656,0.11321985721588135
1710891015660429600,12.9154296875,-0.026891369372606277,0.016262054443359375,0.13196229934692383
1710891015679389700,12.9343896484375,-0.030628763139247894,0.00916290283203125,0.06955814361572266
1710891015698349600,12.953349609375,-0.07363526523113251,0.010312080383300781,0.019687414169311523
1710891015717309700,12.972309814453125,-0.10400090366601944,0.039404869079589844,0.007996797561645508
1710891015736269600,12.99126953125,-0.11739949882030487,0.039345741271972656,0.044005393981933594
1710891015755229700,13.010229736328125,-0.08092958480119705,0.015865325927734375,0.07197892665863037
1710891015774189600,13.029189453125,-0.04825654253363609,-0.01825714111328125,0.08452749252319336
1710891015793149700,13.048149658203124,-0.07113473862409592,-0.009166717529296875,0.06362903118133545
1710891015812109600,13.067109619140625,-0.0718376487493515,0.013363838195800781,0.08606541156768799
1710891015831069700,13.086069580078124,-0.06820701062679291,0.01613330841064453,0.0527188777923584
1710891015850029600,13.105029541015625,-0.017868686467409134,-0.010104179382324219,0.03789186477661133
1710891015868989700,13.12398974609375,0.004561662673950195,0.009976387023925781,-0.04421842098236084
1710891015887949600,13.142949462890625,-0.01586560159921646,0.019861221313476562,-0.03801071643829346
1710891015906909700,13.16190966796875,-0.005048386752605438,-0.048328399658203125,-0.012711048126220703
1710891015925869600,13.18086962890625,-0.03404255956411362,-0.020574569702148438,-0.03581094741821289
1710891015944829700,13.19982958984375,-0.13151915371418,0.08549976348876953,-0.024193286895751953
1710891015963789600,13.21878955078125,-0.21161451935768127,0.16067218780517578,0.06653368473052979
1710891015982749700,13.237749755859374,-0.21717283129692078,0.17171573638916016,0.18374383449554443
1710891016001709600,13.25670947265625,-0.24601788818836212,0.1775684356689453,0.24765896797180176
1710891016020669700,13.275669677734374,-0.28117936849594116,0.2785158157348633,0.39472460746765137
1710891016039629600,13.294629638671875,-0.31819528341293335,0.26239967346191406,0.5427613258361816
1710891016058589700,13.313589599609376,-0.26421305537223816,0.17667102813720703,0.5527241230010986
1710891016077549800,13.3325498046875,-0.21869249641895294,0.13898181915283203,0.37122488021850586
1710891016096509700,13.351509765625,-0.23294369876384735,0.08235359191894531,0.20228374004364014
1710891016115469800,13.3704697265625,-0.2871634066104889,0.0795440673828125,0.1654973030090332
1710891016134429700,13.3894296875,-0.2971581220626831,0.054732322692871094,0.19054996967315674
1710891016153389800,13.408389892578125,-0.25522327423095703,0.027090072631835938,0.13504230976104736
1710891016172349700,13.427349609375,-0.23117193579673767,0.0043582916259765625,-0.017213940620422363
1710891016191309800,13.446309814453125,-0.1895916759967804,0.000141143798828125,-0.13782942295074463
1710891016210269700,13.465269775390626,-0.15244928002357483,-0.038437843322753906,-0.14396882057189941
1710891016229229800,13.484229736328125,-0.1115814745426178,-0.06552982330322266,-0.05323183536529541
1710891016248189700,13.503189697265626,-0.07663074135780334,-0.03870391845703125,0.014437198638916016
1710891016267149800,13.52214990234375,-0.058405280113220215,0.013749122619628906,0.047222137451171875
1710891016286109700,13.541109619140625,-0.07380402088165283,0.06805992126464844,0.01996004581451416
1710891016305069800,13.56006982421875,-0.05182826519012451,-0.044791221618652344,0.05932891368865967
1710891016324030000,13.579030029296876,0.03185391426086426,-0.13288593292236328,0.006805300712585449
1710891016342989800,13.59798974609375,0.03380328416824341,-0.09372711181640625,-0.09909379482269287
1710891016361950000,13.616949951171875,-0.040489912033081055,-0.08382129669189453,-0.171983003616333
1710891016380909800,13.635909912109375,-0.02792125940322876,-0.165191650390625,-0.1596430540084839
1710891016399870000,13.654869873046875,-0.0339813232421875,-0.25891780853271484,-0.20831120014190674
1710891016418829800,13.673829833984374,-0.027424931526184082,-0.302215576171875,-0.18466484546661377
1710891016437790000,13.6927900390625,-0.04984545707702637,-0.2343463897705078,-0.17946898937225342
1710891016456749800,13.711749755859374,-0.09190678596496582,-0.20169353485107422,-0.08567595481872559
1710891016475710000,13.7307099609375,-0.05966174602508545,-0.13917255401611328,0.031385183334350586
1710891016494669800,13.749669921875,0.038559913635253906,0.0017614364624023438,0.07157003879547119
1710891016513630000,13.7686298828125,0.1484851837158203,0.009342193603515625,0.12008929252624512
1710891016532589800,13.78758984375,0.17954933643341064,-0.08684349060058594,0.10993510484695435
1710891016551550000,13.806550048828125,0.11366283893585205,-0.09332084655761719,0.05120950937271118
1710891016570509800,13.825509765625,0.099753737449646,-0.006012916564941406,-0.06714552640914917
1710891016589470000,13.844469970703125,0.10697197914123535,-0.05156517028808594,-0.1665419340133667
1710891016608429800,13.863429931640624,0.11501538753509521,-0.16851329803466797,-0.25274163484573364
1710891016627390000,13.882389892578125,0.12967360019683838,-0.14039230346679688,-0.3454039990901947
1710891016646350000,13.90135009765625,0.11488664150238037,-0.2072162628173828,-0.38655799627304077
1710891016665310000,13.92031005859375,0.06974577903747559,-0.24773788452148438,-0.43911653757095337
1710891016684270000,13.93927001953125,0.06826484203338623,-0.2485828399658203,-0.4161246418952942
1710891016703230000,13.95822998046875,0.09217429161071777,-0.18831253051757812,-0.32965970039367676
1710891016722190000,13.977190185546876,0.18068981170654297,-0.1879405975341797,-0.2623521387577057
1710891016741150000,13.99614990234375,0.21928393840789795,-0.22058773040771484,-0.1945241391658783
1710891016760110000,14.015110107421876,0.2697460651397705,-0.21755599975585938,-0.10379254817962646
1710891016779070000,14.034070068359375,0.24882125854492188,-0.12922000885009766,-0.051459670066833496
1710891016798030000,14.053030029296876,0.22850561141967773,-0.10668087005615234,-0.04622310400009155
1710891016816990000,14.071989990234375,0.21959137916564941,-0.11860847473144531,-0.12963706254959106
1710891016835950000,14.0909501953125,0.2550504207611084,-0.10357284545898438,-0.15691238641738892
1710891016854910200,14.10991015625,0.2534034252166748,-0.0465545654296875,-0.1712464690208435
1710891016873870000,14.1288701171875,0.23886966705322266,-0.010119438171386719,-0.21108418703079224
1710891016892830200,14.147830322265625,0.19920682907104492,-0.008289337158203125,-0.3369741141796112
1710891016911790000,14.1667900390625,0.13666820526123047,-0.00995635986328125,-0.4452141523361206
1710891016930750200,14.185750244140625,0.1680755615234375,-0.032703399658203125,-0.39165160059928894
1710891016949710000,14.2047099609375,0.2116835117340088,-0.08331298828125,-0.3003990650177002
1710891016968670200,14.223670166015625,0.19668841361999512,-0.11441898345947266,-0.3374459743499756
1710891016987630000,14.242630126953125,0.19124245643615723,-0.09754085540771484,-0.3109005391597748
1710891017006590200,14.261590087890625,0.17346572875976562,-0.05470561981201172,-0.2186484932899475
1710891017025550000,14.280550048828125,0.14965581893920898,0.014474868774414062,-0.1046561598777771
1710891017044510200,14.29951025390625,0.14653229713439941,0.062310218811035156,-0.05620330572128296
1710891017063470300,14.31847021484375,0.16185784339904785,0.051827430725097656,-0.0005748271942138672
1710891017082430200,14.33743017578125,0.14773988723754883,-0.02032470703125,0.03271794319152832
1710891017101390300,14.356390380859375,0.1175990104675293,-0.034171104431152344,-0.0663406252861023
1710891017120350200,14.37535009765625,0.10194778442382812,-0.028743743896484375,-0.1408175826072693
1710891017139310300,14.394310302734375,0.11615610122680664,-0.017914772033691406,-0.08865174651145935
1710891017158270200,14.413270263671874,0.11649942398071289,-0.055098533630371094,-0.032346248626708984
1710891017177230300,14.432230224609375,0.07372963428497314,-0.05271339416503906,-0.09767824411392212
1710891017196190200,14.451190185546874,0.0391310453414917,0.06429576873779297,-0.12518802285194397
1710891017215150300,14.470150390625,0.06022214889526367,0.10033702850341797,-0.05695652961730957
1710891017234110200,14.489110107421874,0.09337198734283447,0.05492877960205078,0.01147925853729248
1710891017253070300,14.5080703125,0.05899941921234131,0.07629680633544922,0.01169508695602417
1710891017272030200,14.5270302734375,-0.01548314094543457,0.14459896087646484,0.03312176465988159
1710891017290990300,14.545990234375,0.0030312538146972656,0.05214118957519531,0.08375370502471924
1710891017309950200,14.5649501953125,0.06006789207458496,-0.0072498321533203125,0.06819474697113037
1710891017328910300,14.583910400390625,0.016960740089416504,0.04704093933105469,0.09980267286300659
1710891017347870200,14.6028701171875,-0.06415808200836182,0.1402873992919922,0.12954598665237427
1710891017366830300,14.621830322265625,-0.0616002082824707,0.11740493774414062,0.09424442052841187
1710891017385790200,14.640790283203126,-0.04458951950073242,0.02317523956298828,0.028265774250030518
1710891017404750300,14.659750244140625,-0.033772826194763184,-0.019089698791503906,0.02007150650024414
1710891017423710200,14.678710205078126,-0.11233997344970703,0.021608352661132812,0.04325687885284424
1710891017442670300,14.69767041015625,-0.14263594150543213,0.11140632629394531,0.026463627815246582
1710891017461630200,14.716630126953126,-0.11178123950958252,0.11612129211425781,0.06731909513473511
1710891017480590300,14.73559033203125,-0.02772808074951172,0.06968975067138672,0.05077564716339111
1710891017499550200,14.75455029296875,-0.029587388038635254,0.02015399932861328,-0.008073627948760986
1710891017518510300,14.77351025390625,-0.014763951301574707,0.012243270874023438,-0.03638565540313721
1710891017537470200,14.79247021484375,-0.03398120403289795,0.017702102661132812,-0.024863779544830322
1710891017556430300,14.811430419921875,-0.0654754638671875,0.06333446502685547,0.05084240436553955
1710891017575390200,14.83039013671875,-0.12286293506622314,0.16672515869140625,0.026664912700653076
1710891017594350300,14.849350341796875,-0.14097702503204346,0.21074962615966797,0.008478820323944092
1710891017613310200,14.868310302734375,-0.09694719314575195,0.20712661743164062,-0.05047726631164551
1710891017632270300,14.887270263671875,-0.09391546249389648,0.12652301788330078,0.0022945404052734375
1710891017651230200,14.906230224609375,-0.14115774631500244,0.03892230987548828,0.08481711149215698
1710891017670190300,14.9251904296875,-0.1410503387451172,0.052944183349609375,0.10150140523910522
1710891017689150200,14.944150146484375,-0.12863671779632568,0.07626152038574219,0.07693040370941162
1710891017708110300,14.9631103515625,-0.10090649127960205,0.07782173156738281,0.14382582902908325
1710891017727070200,14.9820703125,-0.08355402946472168,-0.022068023681640625,0.25124824047088623
1710891017746030300,15.0010302734375,-0.11032319068908691,-0.09428787231445312,0.2661336660385132
1710891017764990200,15.019990234375,-0.11046671867370605,-0.042903900146484375,0.2120823860168457
1710891017783950300,15.038950439453124,-0.12649130821228027,-0.006171226501464844,0.17841410636901855
1710891017802910200,15.05791015625,-0.06463146209716797,0.0009164810180664062,0.20378196239471436
1710891017821870000,15.0768701171875,-0.00008690357208251953,-0.020509719848632812,0.23978132009506226
1710891017840830200,15.095830322265625,-0.009009480476379395,-0.03779029846191406,0.23118728399276733
1710891017859790000,15.1147900390625,-0.0502854585647583,0.007213592529296875,0.17299437522888184
1710891017878750200,15.133750244140625,-0.06446945667266846,0.11842727661132812,0.06499612331390381
1710891017897710000,15.1527099609375,-0.02558577060699463,0.05930805206298828,0.009406864643096924
1710891017916670200,15.171670166015625,-0.03142678737640381,-0.0118255615234375,-0.09326726198196411
1710891017935630000,15.190630126953126,-0.07979559898376465,-0.0731954574584961,-0.09225106239318848
1710891017954590200,15.209590087890625,-0.10694992542266846,-0.04805564880371094,-0.08254659175872803
1710891017973550000,15.228550048828126,-0.04223465919494629,-0.059352874755859375,-0.08803856372833252
1710891017992510000,15.247510009765625,0.0030679702758789062,-0.02184772491455078,-0.1040421724319458
1710891018011470000,15.266469970703126,0.032829880714416504,-0.027313232421875,-0.021095871925354004
1710891018030430000,15.285429931640625,-0.017739295959472656,0.025725364685058594,-0.049465835094451904
1710891018049390000,15.30439013671875,-0.021911025047302246,0.03393268585205078,-0.015283465385437012
1710891018068350000,15.323349853515625,-0.02427828311920166,0.06253719329833984,-0.009378492832183838
1710891018087310000,15.34231005859375,0.007912158966064453,0.057682037353515625,-0.04298591613769531
1710891018106270000,15.36127001953125,-0.001896977424621582,0.05030632019042969,-0.09627532958984375
1710891018125229800,15.380229736328126,0.012256145477294922,0.03980731964111328,-0.09145450592041016
1710891018144190000,15.39918994140625,-0.029120326042175293,0.03666496276855469,-0.09569704532623291
1710891018163149800,15.41814990234375,-0.08037960529327393,0.0767660140991211,-0.09824293851852417
1710891018182110000,15.43710986328125,-0.06807494163513184,0.08058834075927734,-0.12288963794708252
1710891018201069800,15.45606982421875,-0.02713954448699951,0.0059795379638671875,-0.14749443531036377
1710891018220030000,15.475030029296875,-0.011730790138244629,-0.0378875732421875,-0.07418185472488403
1710891018238989800,15.49398974609375,-0.0212399959564209,-0.0033721923828125,-0.04943060874938965
1710891018257950000,15.512949951171874,0.02565455436706543,0.055581092834472656,-0.02771824598312378
1710891018276909800,15.531909912109375,0.06227278709411621,0.048666954040527344,-0.03127199411392212
1710891018295870000,15.550869873046874,0.0649106502532959,0.032745361328125,0.07417714595794678
1710891018314829800,15.569829833984375,0.0520787239074707,0.043677330017089844,0.010447561740875244
1710891018333789700,15.588789794921874,0.03089439868927002,-0.024672508239746094,-0.14494657516479492
1710891018352749800,15.607749755859375,0.051463961601257324,-0.13617324829101562,-0.2516278028488159
1710891018371709700,15.626709716796874,0.02649402618408203,-0.18408775329589844,-0.33382338285446167
1710891018390669800,15.645669921875,0.06844222545623779,-0.17818260192871094,-0.4355636239051819
1710891018409629700,15.664629638671874,0.06772744655609131,-0.19756698608398438,-0.44859325885772705
1710891018428589600,15.683589599609375,0.15785205364227295,-0.1420145034790039,-0.48001018166542053
1710891018447549700,15.7025498046875,0.24276280403137207,-0.030580520629882812,-0.47988373041152954
1710891018466509600,15.721509521484375,0.3870251178741455,0.009030342102050781,-0.427824467420578
1710891018485469700,15.7404697265625,0.43219947814941406,-0.038372039794921875,-0.3908124566078186
1710891018504429600,15.7594296875,0.3711127042770386,-0.04021930694580078,-0.4594598710536957
1710891018523389400,15.778389404296876,0.3094756603240967,-0.060455322265625,-0.539222002029419
1710891018542349600,15.797349609375,0.29081153869628906,-0.14969444274902344,-0.5270569324493408
1710891018561309400,15.816309326171876,0.20357906818389893,-0.20789051055908203,-0.45810040831565857
1710891018580269300,15.835269287109375,0.09347653388977051,-0.1539306640625,-0.4108028709888458
1710891018599229400,15.8542294921875,0.0474238395690918,-0.16377544403076172,-0.4476497173309326
1710891018618189300,15.873189208984375,-0.00285184383392334,-0.22511959075927734,-0.44806772470474243
1710891018637149400,15.8921494140625,-0.045699238777160645,-0.11735916137695312,-0.2647159695625305
1710891018656109300,15.911109375,-0.059317946434020996,0.05715656280517578,-0.12003076076507568
1710891018675069400,15.9300693359375,-0.04037821292877197,0.10155296325683594,-0.07171714305877686
1710891018694029300,15.949029296875,-0.04397022724151611,0.09573936462402344,-0.07708221673965454
1710891018712989400,15.967989501953125,-0.054300665855407715,0.15039539337158203,0.0019375085830688477
1710891018731949300,15.98694921875,-0.05225169658660889,0.23817157745361328,0.05471283197402954
1710891018750909200,16.0059091796875,-0.12488269805908203,0.1407766342163086,0.16476905345916748
1710891018769869300,16.024869384765626,-0.18657386302947998,0.007521629333496094,0.19804751873016357
1710891018788829200,16.0438291015625,-0.2508583068847656,-0.03250312805175781,0.15101605653762817
1710891018807789000,16.0627890625,-0.3463541865348816,-0.012906074523925781,0.09326678514480591
1710891018826749200,16.081749267578125,-0.38721513748168945,0.01895427703857422,0.062400996685028076
1710891018845709000,16.100708984375,-0.39432770013809204,-0.02594470977783203,0.07242423295974731
1710891018864669200,16.119669189453123,-0.3928123712539673,-0.11108970642089844,0.18178868293762207
1710891018883629000,16.138629150390624,-0.4289391040802002,-0.06612682342529297,0.221710205078125
1710891018902589000,16.1575888671875,-0.45260798931121826,0.015620231628417969,0.3603612184524536
1710891018921549000,16.176549072265626,-0.3988304138183594,0.10012626647949219,0.5467279553413391
1710891018940509000,16.195509033203123,-0.33468449115753174,0.07666015625,0.6309999227523804
1710891018959469000,16.214468994140624,-0.2563488483428955,0.014508247375488281,0.6656945943832397
1710891018978429000,16.233428955078125,-0.22687005996704102,0.03361320495605469,0.6738857626914978
1710891018997388800,16.252388916015626,-0.30315738916397095,0.08217811584472656,0.7388012409210205
1710891019016349000,16.271348876953127,-0.3380986452102661,0.11180973052978516,0.7208867073059082
1710891019035308800,16.290308837890624,-0.31507712602615356,0.10599231719970703,0.6506885886192322
1710891019054269000,16.30926904296875,-0.27867186069488525,0.019643783569335938,0.6216557025909424
1710891019073228800,16.328228759765626,-0.26650577783584595,-0.029571533203125,0.5766136646270752
1710891019092188700,16.347188720703127,-0.30576545000076294,0.030068397521972656,0.4467979669570923
1710891019111148800,16.366148681640624,-0.2779149115085602,0.016633987426757812,0.3824993968009949
1710891019130109000,16.38510888671875,-0.2233794927597046,-0.08022022247314453,0.31117957830429077
1710891019149068800,16.40406884765625,-0.19671988487243652,-0.13387393951416016,0.24341654777526855
1710891019168028700,16.423028564453126,-0.1488325595855713,-0.051491737365722656,0.18842583894729614
1710891019186988800,16.44198876953125,-0.17093110084533691,-0.024530410766601562,0.15701818466186523
1710891019205948700,16.46094873046875,-0.1717478632926941,-0.03189563751220703,0.15511980652809143
1710891019224908800,16.47990869140625,-0.1708611249923706,-0.00069427490234375,0.08042621612548828
1710891019243868700,16.49886865234375,-0.18642812967300415,-0.026459693908691406,0.03753140568733215
1710891019262828500,16.51782861328125,-0.23953038454055786,-0.03706073760986328,0.01935136318206787
1710891019281788700,16.53678857421875,-0.2670307457447052,-0.02527618408203125,0.10210701823234558
1710891019300748500,16.55574853515625,-0.22031164169311523,0.040129661560058594,0.1714594066143036
1710891019319708700,16.574708740234374,-0.16206669807434082,-0.0032205581665039062,0.17356795072555542
1710891019338668500,16.59366845703125,-0.11187362670898438,0.0055999755859375,0.07413329184055328
1710891019357628700,16.612628662109376,-0.11743873357772827,-0.0038738250732421875,0.07686182856559753
1710891019376588500,16.631588623046873,-0.10139220952987671,0.023354530334472656,0.07152538001537323
1710891019395548700,16.650548583984374,-0.08200275897979736,0.007929801940917969,0.09064824879169464
1710891019414508500,16.669508544921875,-0.04546326398849487,0.0008325576782226562,0.03682558983564377
1710891019433468400,16.688468505859376,-0.06584358215332031,-0.08839893341064453,0.02778501808643341
1710891019452428500,16.707428466796873,-0.08165085315704346,-0.11971092224121094,0.03396313637495041
1710891019471388400,16.726388427734374,-0.0723382830619812,-0.14992523193359375,0.03682445362210274
1710891019490348500,16.7453486328125,-0.052036941051483154,-0.17894458770751953,0.019752025604248047
1710891019509308400,16.764308349609376,-0.04332190752029419,-0.24054336547851562,0.07916810363531113
1710891019528268500,16.7832685546875,-0.05977240204811096,-0.26375865936279297,0.10970994830131531
1710891019547228400,16.802228515625,-0.033406615257263184,-0.27785682678222656,0.10117214918136597
1710891019566188500,16.8211884765625,0.04835909605026245,-0.23233795166015625,0.02204030752182007
1710891019585148400,16.8401484375,0.03351694345474243,-0.2958993911743164,0.023274630308151245
1710891019604108500,16.859108642578125,-0.02110731601715088,-0.2787446975708008,0.06330573558807373
1710891019623068400,16.878068359375,-0.05405065417289734,-0.2210226058959961,0.04284965991973877
1710891019642028300,16.8970283203125,-0.026967793703079224,-0.14710330963134766,-0.046953797340393066
1710891019660988400,16.915988525390624,-0.05972850322723389,-0.17422103881835938,-0.0776599645614624
1710891019679948300,16.9349482421875,-0.10287371277809143,-0.19605636596679688,-0.03479814529418945
1710891019698908400,16.953908447265626,-0.13934674859046936,-0.14078330993652344,-0.01631784439086914
1710891019717868300,16.972868408203126,-0.06633275747299194,-0.11237144470214844,0.0178186297416687
1710891019736828400,16.991828369140624,0.04716786742210388,-0.08741092681884766,-0.061177968978881836
1710891019755788300,17.010788330078125,0.11677202582359314,-0.046962738037109375,-0.12325948476791382
1710891019774748400,17.02974853515625,0.09901836514472961,0.03259468078613281,-0.1502060890197754
1710891019793708300,17.048708251953126,0.10054120421409607,0.09616470336914062,-0.18921244144439697
1710891019812668400,17.06766845703125,0.17089012265205383,0.1406545639038086,-0.2829606533050537
1710891019831628300,17.086628173828124,0.1724224090576172,0.14676189422607422,-0.36776959896087646
1710891019850588400,17.10558837890625,0.15610772371292114,0.1552906036376953,-0.4326378107070923
1710891019869548500,17.124548583984375,0.09138581156730652,0.3053398132324219,-0.5024765729904175
1710891019888508400,17.14350830078125,0.035867393016815186,0.4920616149902344,-0.6463009119033813
1710891019907468500,17.162468505859376,-0.03168708086013794,0.4047527313232422,-0.6722028255462646
1710891019926428400,17.181428466796874,-0.04306292533874512,0.33177757263183594,-0.6153067350387573
1710891019945388500,17.200388427734374,-0.012562662363052368,0.3280019760131836,-0.5574485063552856
1710891019964348400,17.219348388671875,-0.0059486329555511475,0.352783203125,-0.5185993909835815
1710891019983308500,17.23830859375,-0.03343811631202698,0.2842273712158203,-0.3050689697265625
1710891020002268400,17.257268310546873,-0.050406038761138916,0.35262203216552734,-0.10259199142456055
1710891020021228500,17.276228515625,0.04333093762397766,0.48002147674560547,-0.06620025634765625
1710891020040188400,17.2951884765625,0.14533758163452148,0.3970012664794922,-0.15939199924468994
1710891020059148500,17.3141484375,0.12579429149627686,0.3190269470214844,-0.07644641399383545
1710891020078108400,17.3331083984375,0.08319468796253204,0.36782073974609375,-0.05040168762207031
1710891020097068500,17.352068603515626,0.050848737359046936,0.4328908920288086,-0.15981388092041016
1710891020116028400,17.3710283203125,0.013306424021720886,0.28765392303466797,-0.27284765243530273
1710891020134988500,17.389988525390624,-0.03107495605945587,0.1742849349975586,-0.294938325881958
1710891020153948700,17.40894873046875,-0.08670331537723541,0.17756938934326172,-0.3152790069580078
1710891020172908500,17.427908447265626,-0.02128947526216507,0.16988086700439453,-0.3135645389556885
1710891020191868700,17.44686865234375,0.034950874745845795,0.14733219146728516,-0.317014217376709
1710891020210828500,17.46582861328125,-0.015366822481155396,0.046184539794921875,-0.289731502532959
1710891020229788700,17.48478857421875,-0.06428281962871552,0.08273887634277344,-0.20803165435791016
1710891020248748500,17.50374853515625,-0.031626928597688675,0.1781015396118164,-0.10607314109802246
1710891020267708700,17.522708740234375,0.06107278913259506,0.06587505340576172,-0.005252361297607422
1710891020286668800,17.541668701171876,0.11836554110050201,-0.04638862609863281,0.03638434410095215
1710891020305628700,17.560628662109377,0.12848688662052155,0.04673194885253906,0.0332949161529541
1710891020324588800,17.5795888671875,0.10273975133895874,0.18733692169189453,0.03784322738647461
1710891020343548700,17.598548583984375,0.11104965955018997,0.2154541015625,0.03747892379760742
1710891020362508800,17.6175087890625,0.15303237736225128,0.1524219512939453,0.04531359672546387
1710891020381468700,17.63646875,0.1251014769077301,0.19623088836669922,0.0013856887817382812
1710891020400428800,17.6554287109375,0.12605854868888855,0.21692562103271484,0.008169174194335938
1710891020419389000,17.674388916015626,0.18232694268226624,0.20386981964111328,0.024892568588256836
1710891020438348800,17.693348876953124,0.17813074588775635,0.16372203826904297,-0.029001951217651367
1710891020457309000,17.712308837890625,0.15205448865890503,0.06171989440917969,-0.0388948917388916
1710891020476268800,17.731268798828125,0.12288545072078705,0.06896400451660156,-0.05225801467895508
1710891020495229000,17.75022900390625,0.17119866609573364,0.10413932800292969,-0.07846522331237793
1710891020514188800,17.769188720703124,0.2108435332775116,0.04388618469238281,-0.07456374168395996
1710891020533149000,17.78814892578125,0.16303396224975586,-0.050445556640625,-0.0848996639251709
1710891020552109000,17.807109130859374,0.07174015045166016,-0.055548667907714844,-0.0837247371673584
1710891020571069000,17.82606884765625,0.05992419645190239,0.008213043212890625,-0.04680681228637695
1710891020590029000,17.845029052734375,0.10476785898208618,0.006816864013671875,-0.062047719955444336
1710891020608989200,17.8639892578125,0.1236690878868103,-0.0838155746459961,-0.015120267868041992
1710891020627949000,17.882948974609373,0.10667569935321808,-0.13437461853027344,0.006010293960571289
1710891020646909200,17.9019091796875,0.08735202252864838,-0.10745620727539062,0.03830742835998535
1710891020665869300,17.920869384765624,0.05190620571374893,-0.051125526428222656,0.0012135505676269531
1710891020684829200,17.9398291015625,0.08040743321180344,0.03484916687011719,-0.032358407974243164
1710891020703789300,17.958789306640625,0.07196839898824692,0.051751136779785156,-0.039273738861083984
1710891020722749400,17.97774951171875,0.04395192489027977,-0.017026901245117188,-0.023454904556274414
1710891020741709300,17.996709228515623,-0.01261097565293312,-0.04515361785888672,-0.014784574508666992
1710891020760669400,18.01566943359375,-0.051917701959609985,-0.06307029724121094,-0.022934436798095703
1710891020779629300,18.03462939453125,-0.0651019737124443,-0.09979915618896484,-0.024922847747802734
1710891020798589400,18.05358935546875,-0.07207401096820831,-0.04114818572998047,-0.06663703918457031
1710891020817549300,18.07254931640625,-0.04650779068470001,-0.00673675537109375,-0.01627516746520996
1710891020836509400,18.091509521484376,-0.025669649243354797,-0.04094982147216797,-0.014349222183227539
1710891020855469600,18.110469482421873,-0.022028382867574692,-0.11824512481689453,-0.019545793533325195
1710891020874429400,18.129429443359374,-0.054364919662475586,-0.13683414459228516,-0.022750377655029297
1710891020893389600,18.1483896484375,-0.036553818732500076,-0.1148977279663086,-0.018412113189697266
1710891020912349700,18.167349609375,-0.03294675052165985,-0.0465545654296875,-0.04000234603881836
1710891020931309800,18.186309814453125,-0.012570051476359367,-0.055167198181152344,-0.01856398582458496
1710891020950269700,18.205269775390626,0.03806234523653984,-0.12590503692626953,0.10260987281799316
1710891020969229800,18.224229736328127,0.0011992305517196655,-0.08192634582519531,0.13408279418945312
1710891020988190000,18.24318994140625,-0.05981956422328949,-0.011646270751953125,0.10154438018798828
1710891021007149800,18.26214990234375,-0.022680267691612244,0.03080272674560547,0.06363534927368164
1710891021026110000,18.28110986328125,0.054397039115428925,-0.044791221618652344,0.07173609733581543
1710891021045069800,18.30006982421875,0.04858224838972092,-0.14077472686767578,0.03127741813659668
1710891021064030000,18.319030029296876,-0.03332138806581497,-0.1100921630859375,-0.03785228729248047
1710891021082990000,18.337989990234377,-0.078908771276474,-0.04153728485107422,-0.11630725860595703
1710891021101950000,18.356949951171874,-0.03291486203670502,-0.017107009887695312,-0.10770606994628906
1710891021120910000,18.37591015625,-0.013265043497085571,-0.04664897918701172,-0.05427861213684082
1710891021139870200,18.3948701171875,-0.022789470851421356,0.01320648193359375,-0.05863451957702637
1710891021158830300,18.413830322265625,-0.021937929093837738,0.07984352111816406,-0.055912017822265625
1710891021177790200,18.432790283203126,0.003924183547496796,0.009267807006835938,-0.03772687911987305
1710891021196750300,18.451750244140626,-0.023047633469104767,-0.011630058288574219,0.013402462005615234
1710891021215710500,18.47071044921875,-0.01635891944169998,0.10516643524169922,0.04540824890136719
1710891021234670300,18.48967041015625,0.0633840262889862,0.12227821350097656,-0.005721569061279297
1710891021253630500,18.50863037109375,0.06583686918020248,-0.024161338806152344,0.00689387321472168
1710891021272590600,18.527590576171875,-0.0029929056763648987,-0.08719635009765625,-0.02271294593811035
1710891021291550500,18.546550537109376,-0.013934753835201263,-0.02023029327392578,-0.07910585403442383
1710891021310510600,18.565510498046876,-0.03737404942512512,0.011434555053710938,-0.10957813262939453
1710891021329470700,18.584470703125,-0.06522253155708313,-0.023359298706054688,-0.10340046882629395
1710891021348430600,18.6034306640625,-0.06446146965026855,-0.0065860748291015625,0.004881381988525391
1710891021367390700,18.622390625,-0.05055241286754608,0.013963699340820312,-0.010225057601928711
1710891021386350800,18.641350830078125,0.022306807339191437,0.02109527587890625,0.0030794143676757812
1710891021405311000,18.66031103515625,0.058942005038261414,-0.029003143310546875,-0.0007193088531494141
1710891021424270800,18.679270751953126,0.010178439319133759,-0.05887794494628906,-0.00451207160949707
1710891021443231000,18.69823095703125,-0.014010921120643616,-0.05282020568847656,0.006267547607421875
1710891021462191000,18.717191162109376,-0.015568450093269348,-0.027132034301757812,-0.006432533264160156
1710891021481151000,18.73615087890625,-0.017221108078956604,-0.003952980041503906,-0.07430720329284668
1710891021500111000,18.755111083984374,0.008436053991317749,-0.02299213409423828,-0.07978343963623047
1710891021519071200,18.7740712890625,-0.049260661005973816,0.0002765655517578125,-0.10872673988342285
1710891021538031000,18.793031005859376,-0.06906251609325409,0.037787437438964844,-0.039215087890625
1710891021556991200,18.8119912109375,-0.07338517904281616,0.03234386444091797,-0.01809239387512207
1710891021575951400,18.830951416015626,-0.014370441436767578,0.0176239013671875,0.03491950035095215
1710891021594911200,18.8499111328125,0.05965998023748398,0.008228302001953125,0.07909512519836426
1710891021613871400,18.868871337890624,0.06902524828910828,-0.017467498779296875,0.0057239532470703125
1710891021632831500,18.88783154296875,-0.030888497829437256,-0.001667022705078125,-0.01742839813232422
1710891021651791600,18.90679150390625,-0.06920984387397766,-0.00045490264892578125,-0.03969717025756836
1710891021670751500,18.92575146484375,-0.027080729603767395,-0.014254570007324219,-0.012050867080688477
1710891021689711600,18.944711669921876,0.011179342865943909,-0.03575420379638672,-0.035340070724487305
1710891021708671500,18.96367138671875,0.03295789659023285,-0.05995750427246094,-0.06475114822387695
1710891021727631600,18.982631591796874,-0.01792854070663452,-0.040495872497558594,-0.13956260681152344
1710891021746591700,19.001591796875,-0.02424144744873047,-0.018639564514160156,-0.05070972442626953
1710891021765551900,19.0205517578125,0.01017838716506958,-0.03652763366699219,0.049083709716796875
1710891021784511700,19.03951171875,-0.000980272889137268,-0.034699440002441406,0.0409388542175293
1710891021803472000,19.058471923828126,0.00976322591304779,0.0017452239990234375,0.011820793151855469
1710891021822432000,19.077431884765623,0.047123298048973083,-0.010731697082519531,-0.04535961151123047
1710891021841391900,19.096391845703124,0.07318480312824249,-0.0848703384399414,-0.00289154052734375
1710891021860352000,19.11535205078125,-0.00018933415412902832,-0.14247512817382812,0.060150146484375
1710891021879312100,19.13431201171875,-0.0567062646150589,-0.01461029052734375,0.054764747619628906
1710891021898272300,19.153272216796875,-0.04141853749752045,0.09824275970458984,0.0027534961700439453
1710891021917232000,19.172232177734376,0.05848108232021332,0.027252197265625,-0.03873324394226074
1710891021936192300,19.191192138671877,0.07382535189390182,-0.07963371276855469,-0.009804725646972656
1710891021955152100,19.210152099609374,0.03484968841075897,-0.048714637756347656,0.0053136348724365234
1710891021974112300,19.2291123046875,-0.014758318662643433,0.026430130004882812,-0.04996538162231445
1710891021993072400,19.248072265625,-0.0033004581928253174,0.08362197875976562,-0.0721895694732666
1710891022012032300,19.2670322265625,0.03567110002040863,0.06318187713623047,-0.05877327919006348
1710891022030992400,19.285992431640626,0.01647898554801941,0.0632944107055664,-0.058730363845825195
1710891022049952500,19.304952392578127,-0.029482677578926086,0.07224464416503906,-0.06395864486694336
1710891022068912400,19.323912353515624,-0.04193456470966339,0.0761728286743164,-0.07230830192565918
1710891022087872500,19.34287255859375,-0.05423273146152496,0.05527019500732422,-0.03843522071838379
1710891022106832600,19.36183251953125,-0.04608997702598572,0.07850837707519531,-0.0342249870300293
1710891022125792800,19.380792724609375,-0.03234057128429413,0.034641265869140625,-0.02567887306213379
1710891022144752600,19.399752685546876,-0.046396881341934204,-0.016063690185546875,0.013907194137573242
1710891022163712800,19.418712646484376,-0.05280372500419617,0.044205665588378906,-0.0020263195037841797
1710891022182672600,19.437672607421874,-0.05376090109348297,0.13377761840820312,-0.03659248352050781
1710891022201632800,19.4566328125,-0.04257878661155701,0.12260246276855469,-0.0674903392791748
1710891022220593000,19.475593017578124,-0.012777626514434814,0.09531402587890625,-0.011492252349853516
1710891022239552800,19.494552734375,-0.03527155518531799,0.08838748931884766,0.07472586631774902
1710891022258513000,19.513512939453125,-0.02197347581386566,0.1443958282470703,0.0804142951965332
1710891022277473000,19.53247314453125,0.008367791771888733,0.11316776275634766,0.030269980430603027
1710891022296433000,19.551432861328124,-0.01086476445198059,0.05129528045654297,-0.017978429794311523
1710891022315393000,19.57039306640625,-0.06602540612220764,0.059650421142578125,-0.004735589027404785
1710891022334353200,19.589353271484374,-0.08021955192089081,0.05835533142089844,0.04929006099700928
1710891022353313000,19.60831298828125,-0.0817466527223587,0.0722188949584961,0.02274346351623535
1710891022372273200,19.627273193359375,-0.0936664491891861,0.06277751922607422,-0.06900155544281006
1710891022391233300,19.6462333984375,-0.03588347136974335,-0.0027341842651367188,-0.06744909286499023
1710891022410193200,19.665193115234374,-0.045892730355262756,-0.026633262634277344,0.0035898685455322266
1710891022429153300,19.6841533203125,-0.04373355209827423,-0.014879226684570312,0.06619477272033691
1710891022448113200,19.703113037109375,-0.05318644642829895,0.03339862823486328,0.026484251022338867
1710891022467073300,19.7220732421875,-0.04942150413990021,0.0612640380859375,-0.0519106388092041
1710891022486033200,19.741033203125,0.0036056935787200928,-0.05091571807861328,0.01194143295288086
1710891022504993300,19.7599931640625,0.035222649574279785,-0.07404613494873047,0.05259895324707031
1710891022523953400,19.778953369140623,-0.007501468062400818,-0.0774078369140625,0.04096364974975586
1710891022542913300,19.797913330078124,-0.05810651183128357,-0.11021804809570312,0.0020346641540527344
1710891022561873400,19.816873291015625,0.0635322779417038,-0.2175731658935547,0.04298973083496094
1710891022580833500,19.83583349609375,0.12425549328327179,-0.2228679656982422,0.007570147514343262
1710891022599793400,19.85479345703125,0.059094443917274475,-0.007330894470214844,-0.04902207851409912
1710891022618753500,19.87375341796875,-0.03350771963596344,0.19777297973632812,-0.0737992525100708
1710891022637713700,19.892713623046873,-0.06144542992115021,0.2923927307128906,-0.09977257251739502
1710891022656673500,19.911673583984374,-0.0031411051750183105,0.23601627349853516,-0.09051704406738281
1710891022675633700,19.930633544921875,0.05444534122943878,0.18919086456298828,-0.04969775676727295
1710891022694593800,19.94959375,0.03247569501399994,0.18774032592773438,-0.03343832492828369
1710891022713553700,19.9685537109375,-0.020228087902069092,0.15699481964111328,0.011533260345458984
1710891022732513800,19.987513671875,-0.05400826036930084,0.09945201873779297,0.01572597026824951
1710891022751473700,20.0064736328125,-0.09164310991764069,0.017312049865722656,-0.0021120309829711914
1710891022770433800,20.025433837890624,-0.08735528588294983,-0.012081146240234375,-0.025864362716674805
1710891022789394000,20.044393798828125,-0.06103996932506561,-0.0193634033203125,0.011525988578796387
1710891022808353800,20.063353759765626,-0.020061686635017395,0.014577865600585938,0.022662639617919922
1710891022827314000,20.08231396484375,-0.017824381589889526,0.0636739730834961,0.06871891021728516
1710891022846273800,20.101273681640624,-0.009770050644874573,0.08670234680175781,0.1335139274597168
1710891022865234000,20.12023388671875,0.025646045804023743,0.055324554443359375,0.11399614810943604
1710891022884193800,20.13919384765625,0.09146162867546082,0.057557106018066406,0.06225991249084473
1710891022903154000,20.15815380859375,0.11027462035417557,0.05272483825683594,0.09091401100158691
1710891022922113800,20.17711376953125,0.0726451501250267,0.009370803833007812,0.16148263216018677
1710891022941074000,20.196073974609376,0.07470524311065674,0.009446144104003906,0.2313530445098877
1710891022960034000,20.215033935546874,0.03794434666633606,-0.014674186706542969,0.20049607753753662
1710891022978994000,20.233993896484375,0.00807693600654602,0.01681041717529297,0.15485703945159912
1710891022997954000,20.2529541015625,-0.023638412356376648,0.07863044738769531,0.10411322116851807
1710891023016914000,20.271913818359376,-0.05958831310272217,0.01913166046142578,0.12420648336410522
1710891023035874000,20.2908740234375,-0.08620460331439972,0.04359722137451172,0.13101118803024292
1710891023054834200,20.309834228515626,-0.113549143075943,0.09200286865234375,0.1704310178756714
1710891023073794000,20.3287939453125,-0.1430349498987198,0.13539981842041016,0.19296014308929443
1710891023092754200,20.347754150390625,-0.10646460950374603,0.1026773452758789,0.21479591727256775
1710891023111714000,20.366714111328125,-0.00886988639831543,-0.039465904235839844,0.2232600450515747
1710891023130674200,20.385674072265626,0.053513072431087494,-0.1289834976196289,0.19326043128967285
1710891023149634000,20.404634033203124,0.019028864800930023,-0.15200328826904297,0.1894627809524536
1710891023168594200,20.42359423828125,-0.03954286128282547,-0.14499664306640625,0.16674038767814636
1710891023187554300,20.44255419921875,-0.08294052630662918,-0.12134552001953125,0.14696753025054932
1710891023206514200,20.46151416015625,-0.044324882328510284,-0.11542892456054688,0.11487863957881927
1710891023225474300,20.480474365234375,-0.011721484363079071,-0.200286865234375,0.11394406855106354
1710891023244434200,20.49943408203125,0.014528101310133934,-0.23873519897460938,0.06442182511091232
1710891023263394300,20.518394287109373,0.011060826480388641,-0.1847085952758789,-0.014574885368347168
1710891023282354200,20.537354248046874,-0.01348288357257843,-0.2420663833618164,-0.05378160625696182
1710891023301314300,20.556314208984375,-0.01577955111861229,-0.3272275924682617,-0.06756473332643509
1710891023320274200,20.575274169921876,0.016494223847985268,-0.4109668731689453,-0.0802716538310051
1710891023339234300,20.594234375,0.036058686673641205,-0.3646354675292969,-0.15589113533496857
1710891023358194400,20.6131943359375,0.02940554916858673,-0.27875328063964844,-0.2690001428127289
1710891023377154300,20.632154296875,0.05326719954609871,-0.1351480484008789,-0.29330816864967346
1710891023396114400,20.651114501953124,0.027570247650146484,-0.13876819610595703,-0.24637053906917572
1710891023415074300,20.67007421875,0.04257658123970032,-0.1434621810913086,-0.20900560915470123
1710891023434034400,20.689034423828126,-0.015126727521419525,-0.014011383056640625,-0.3128616213798523
1710891023452994300,20.707994384765627,-0.04612327367067337,0.08398056030273438,-0.38215452432632446
1710891023471954400,20.726954345703124,-0.03657127544283867,0.02605915069580078,-0.32525092363357544
1710891023490914300,20.745914306640625,0.003295913338661194,-0.07402515411376953,-0.23648974299430847
1710891023509874400,20.76487451171875,0.02247883379459381,-0.04028892517089844,-0.20321393013000488
1710891023528834300,20.783834228515627,0.009278744459152222,0.01693439483642578,-0.20839443802833557
1710891023547794400,20.80279443359375,-0.003907188773155212,0.032532691955566406,-0.20988887548446655
1710891023566754300,20.82175439453125,0.017902247607707977,0.05864143371582031,-0.1889958381652832
1710891023585714400,20.84071435546875,0.059447646141052246,0.011515617370605469,-0.09369403123855591
1710891023604674300,20.85967431640625,0.09908290207386017,-0.08086776733398438,-0.11783498525619507
1710891023623634400,20.878634521484376,0.09397491067647934,-0.05935382843017578,-0.22397354245185852
1710891023642594300,20.89759423828125,0.1329641193151474,0.054574012756347656,-0.2762864828109741
1710891023661554400,20.916554443359374,0.1703205108642578,0.062084197998046875,-0.26185593008995056
1710891023680514300,20.935514404296875,0.17220544815063477,-0.07915878295898438,-0.23906251788139343
1710891023699474400,20.954474365234375,0.17354510724544525,-0.23432350158691406,-0.20954328775405884
1710891023718434300,20.973434326171876,0.1232994794845581,-0.2907867431640625,-0.22750014066696167
1710891023737394400,20.99239453125,0.07069971412420273,-0.27433013916015625,-0.23762333393096924
1710891023756354300,21.011354248046874,0.023963339626789093,-0.13862228393554688,-0.24699658155441284
1710891023775314400,21.030314453125,-0.015381500124931335,-0.07284164428710938,-0.16336512565612793
1710891023794274300,21.0492744140625,-0.03575776517391205,-0.14950275421142578,-0.04804658889770508
1710891023813234400,21.068234375,0.02472413331270218,-0.19984912872314453,0.06152242422103882
1710891023832194300,21.0871943359375,0.09286053478717804,-0.09683895111083984,0.06894093751907349
1710891023851154400,21.106154541015623,0.11863687634468079,0.06551647186279297,0.0392264723777771
1710891023870114300,21.1251142578125,0.10281223058700562,0.2431011199951172,0.09695291519165039
1710891023889074400,21.144074462890625,0.13742825388908386,0.1567068099975586,0.19979500770568848
1710891023908034300,21.163034423828126,0.2070225179195404,0.10280704498291016,0.19725948572158813
1710891023926994400,21.181994384765623,0.16382534801959991,0.24102210998535156,0.1434432864189148
1710891023945954300,21.200954345703124,0.09243129193782806,0.33931922912597656,0.14152777194976807
1710891023964914400,21.21991455078125,0.12144123017787933,0.31508445739746094,0.17645323276519775
1710891023983874300,21.238874267578126,0.1304626613855362,0.2196331024169922,0.19344377517700195
1710891024002834400,21.25783447265625,0.11324356496334076,0.13579082489013672,0.16723626852035522
1710891024021794300,21.276794189453124,0.08794954419136047,0.14106082916259766,0.18929851055145264
1710891024040754400,21.29575439453125,0.04234465956687927,0.10764598846435547,0.2131778597831726
1710891024059714300,21.31471435546875,0.04921841621398926,0.016130447387695312,0.19554221630096436
1710891024078674400,21.33367431640625,0.011500895023345947,-0.01800060272216797,0.19789469242095947
1710891024097634300,21.35263427734375,-0.04900924861431122,-0.0030994415283203125,0.17877310514450073
1710891024116594400,21.371594482421877,-0.0832243412733078,0.014103889465332031,0.155938982963562
1710891024135554300,21.39055419921875,-0.09737758338451385,0.012231826782226562,0.09576451778411865
1710891024154514400,21.409514404296875,-0.09891584515571594,-0.11162090301513672,0.00431668758392334
1710891024173474300,21.428474365234376,-0.12397752702236176,-0.0859365463256836,-0.04928278923034668
1710891024192434400,21.447434326171877,-0.1117594838142395,-0.04025554656982422,-0.06975632905960083
1710891024211394300,21.466394287109374,-0.050861746072769165,-0.0525970458984375,-0.036137938499450684
1710891024230354400,21.4853544921875,-0.0426768958568573,-0.00475311279296875,-0.07255542278289795
1710891024249314300,21.504314208984376,-0.02835872769355774,0.04286384582519531,-0.06839394569396973
1710891024268274400,21.5232744140625,0.027621954679489136,0.07956600189208984,-0.049830079078674316
1710891024287234300,21.542234375,0.03672030568122864,0.059227943420410156,-0.022908687591552734
1710891024306194400,21.5611943359375,0.0662166178226471,-0.02997875213623047,0.07204258441925049
1710891024325154300,21.580154296875,0.08556890487670898,-0.08562183380126953,0.18559598922729492
1710891024344114400,21.599114501953125,0.054849982261657715,-0.10528087615966797,0.26034796237945557
1710891024363074300,21.61807421875,0.03509211540222168,-0.0721578598022461,0.2465195655822754
1710891024382034400,21.637034423828126,0.03556734323501587,-0.0903167724609375,0.22904908657073975
1710891024400994300,21.655994384765624,0.052626073360443115,-0.1088247299194336,0.22457611560821533
1710891024419954400,21.674954345703124,0.06719619035720825,-0.09516620635986328,0.2297736406326294
1710891024438914600,21.69391455078125,0.11757552623748779,-0.05998802185058594,0.1635730266571045
1710891024457874400,21.71287451171875,0.12490832805633545,-0.020659446716308594,-0.006853222846984863
1710891024476834600,21.73183447265625,0.14082121849060059,-0.030498504638671875,-0.16441690921783447
1710891024495794400,21.75079443359375,0.08146035671234131,-0.08708953857421875,-0.30027830600738525
1710891024514754600,21.769754638671873,0.08772289752960205,-0.13230037689208984,-0.3929469585418701
1710891024533714400,21.78871435546875,0.13710451126098633,-0.1452350616455078,-0.4584108591079712
1710891024552674600,21.807674560546875,0.14922285079956055,-0.10376548767089844,-0.5392090082168579
1710891024571634400,21.826634521484376,0.08281868696212769,-0.10474014282226562,-0.5320858955383301
1710891024590594600,21.845594482421873,0.050365149974823,-0.06022834777832031,-0.45382237434387207
1710891024609554700,21.8645546875,0.03146272897720337,-0.05690574645996094,-0.3974801301956177
1710891024628514600,21.8835146484375,-0.005057632923126221,-0.022184371948242188,-0.30213963985443115
1710891024647474700,21.902474609375,0.03720146417617798,-0.02082061767578125,-0.12930238246917725
1710891024666434600,21.9214345703125,0.10106372833251953,0.01700305938720703,-0.08971452713012695
1710891024685394700,21.940394775390626,0.14761453866958618,0.004023551940917969,0.018495559692382812
1710891024704354800,21.959354736328127,0.09831470251083374,0.025176048278808594,0.10241711139678955
1710891024723314700,21.978314697265624,0.053285837173461914,0.05190753936767578,0.16689622402191162
1710891024742274800,21.99727490234375,0.025039970874786377,0.038725852966308594,0.14940142631530762
1710891024761234700,22.016234619140626,0.054978132247924805,-0.02481842041015625,0.07074296474456787
1710891024780194800,22.03519482421875,0.004072308540344238,-0.09971904754638672,-0.030439019203186035
1710891024799154700,22.05415478515625,-0.03190004825592041,-0.13693904876708984,-0.09185183048248291
1710891024818114800,22.07311474609375,-0.11197799444198608,0.017091751098632812,-0.0997234582901001
1710891024837075000,22.092074951171874,-0.06373810768127441,0.06646728515625,-0.04784715175628662
1710891024856034800,22.111034912109375,-0.07391583919525146,0.06718158721923828,-0.0333024263381958
1710891024874995000,22.129994873046876,-0.12536895275115967,0.1063690185546875,0.07294964790344238
1710891024893955000,22.148955078125,-0.10669857263565063,0.1014242172241211,0.11620509624481201
1710891024912915000,22.1679150390625,-0.048143625259399414,0.061577796936035156,0.06930398941040039
1710891024931875000,22.186875,-0.0073664188385009766,0.07366466522216797,0.09409582614898682
1710891024950835000,22.2058349609375,0.019164860248565674,0.10896110534667969,0.19697022438049316
1710891024969795000,22.224795166015625,-0.019317924976348877,0.09273719787597656,0.27431511878967285
1710891024988755000,22.2437548828125,-0.038657963275909424,0.07590675354003906,0.24881088733673096
1710891025007715000,22.262715087890626,-0.0558430552482605,0.16101932525634766,0.21626579761505127
1710891025026675000,22.281675048828124,-0.05637311935424805,0.29576873779296875,0.22172439098358154
1710891025045635000,22.300635009765625,-0.03907203674316406,0.15059852600097656,0.2286543846130371
1710891025064595200,22.31959521484375,0.024085283279418945,0.03682708740234375,0.17848289012908936
1710891025083555000,22.33855517578125,0.09245306253433228,-0.009879112243652344,0.061654090881347656
1710891025102515200,22.35751513671875,0.07710009813308716,-0.00251007080078125,-0.08271360397338867
1710891025121475300,22.376475341796876,-0.023028969764709473,0.03386688232421875,-0.09895837306976318
1710891025140435200,22.395435302734374,-0.1552693247795105,0.06803131103515625,0.00021314620971679688
1710891025159395300,22.414395263671874,-0.14970767498016357,0.07570362091064453,0.139540433883667
1710891025178355500,22.43335546875,-0.034576237201690674,0.06478023529052734,0.19088327884674072
1710891025197315300,22.4523154296875,0.04345136880874634,0.0291748046875,0.22827446460723877
1710891025216275500,22.471275390625,0.03909951448440552,-0.04696464538574219,0.3083287477493286
1710891025235235600,22.490235595703126,0.027159452438354492,-0.12684249877929688,0.277851939201355
1710891025254195500,22.509195556640623,0.04011577367782593,-0.08464336395263672,0.1811847686767578
1710891025273155600,22.528155517578124,0.012343525886535645,-0.09259223937988281,0.16358506679534912
1710891025292115500,22.547115478515625,-0.06486541032791138,-0.048926353454589844,0.12045979499816895
1710891025311075600,22.56607568359375,-0.11704427003860474,-0.02859783172607422,0.13520455360412598
1710891025330035700,22.58503564453125,-0.08476817607879639,-0.0320587158203125,0.10427320003509521
1710891025348995600,22.60399560546875,0.02371460199356079,-0.17878437042236328,0.13401687145233154
1710891025367955700,22.622955810546873,0.04908192157745361,-0.2337942123413086,0.2604086399078369
1710891025386915800,22.641915771484374,-0.010852515697479248,-0.1712779998779297,0.3099520206451416
1710891025405875700,22.660875732421875,-0.07176804542541504,-0.12592411041259766,0.3017313480377197
1710891025424835800,22.6798359375,-0.006399095058441162,-0.17839622497558594,0.21027255058288574
1710891025443796000,22.6987958984375,0.06046736240386963,-0.2034759521484375,0.14295363426208496
1710891025462755800,22.717755859375,0.08829790353775024,-0.1220693588256836,0.14011812210083008
1710891025481716000,22.736716064453127,0.08069932460784912,-0.0655059814453125,0.09839963912963867
1710891025500676000,22.755676025390624,0.1229669451713562,-0.026755332946777344,-0.009552001953125
1710891025519636000,22.774635986328125,0.08625423908233643,0.060550689697265625,-0.05500173568725586
1710891025538596000,22.79359619140625,0.07347238063812256,0.14507675170898438,0.028224706649780273
1710891025557556200,22.81255615234375,0.12807905673980713,0.10550403594970703,0.01412343978881836
1710891025576516000,22.83151611328125,0.28256142139434814,0.01969623565673828,-0.11316168308258057
1710891025595476200,22.850476318359377,0.29040414094924927,0.020540237426757812,-0.11780762672424316
1710891025614436400,22.869436279296874,0.25197696685791016,0.03796100616455078,-0.04913830757141113
1710891025633396200,22.888396240234375,0.2796948552131653,0.18174076080322266,-0.11180925369262695
1710891025652356400,22.9073564453125,0.2618209719657898,0.19855880737304688,-0.2622556686401367
1710891025671316500,22.92631640625,0.3155311346054077,0.031147003173828125,-0.46273207664489746
1710891025690276600,22.945276611328126,0.2804023027420044,-0.05656242370605469,-0.6274775266647339
1710891025709236500,22.964236572265627,0.13143569231033325,0.03687477111816406,-0.5986495018005371
1710891025728196600,22.983196533203124,-0.019765257835388184,0.12140560150146484,-0.49069201946258545
1710891025747156700,23.00215673828125,-0.16596263647079468,0.1563558578491211,-0.4111078977584839
1710891025766116600,23.02111669921875,-0.2321065068244934,0.052069664001464844,-0.23543429374694824
1710891025785076700,23.04007666015625,-0.2530503273010254,-0.0995330810546875,-0.04357421398162842
1710891025804036900,23.059036865234376,-0.2787633240222931,-0.09852790832519531,0.2116842269897461
1710891025822997000,23.0779970703125,-0.2930350601673126,-0.009844779968261719,0.4328911304473877
1710891025841956900,23.096956787109374,-0.19426989555358887,-0.15104103088378906,0.46285533905029297
