time,seconds_elapsed,z,y,x
1711549388842979300,0.133979248046875,4.569094657897949,7.867600917816162,5.520241737365723
1711549388861936000,0.15293603515625,4.475774765014648,6.957131862640381,5.831308841705322
1711549388880893200,0.17189306640625,4.080958843231201,7.70967435836792,6.376872539520264
1711549388899850200,0.190850341796875,3.518645763397217,8.226524353027344,6.492924213409424
1711549388918807000,0.20980712890625,3.345165967941284,7.3639116287231445,6.736992359161377
1711549388937764000,0.22876416015625,3.576073408126831,6.068198204040527,6.861418724060059
1711549388956721200,0.24772119140625,3.483949661254883,5.710471153259277,6.783652305603027
1711549388975678200,0.26667822265625,3.095116138458252,6.087340831756592,6.393621921539307
1711549388994635300,0.28563525390625,2.2444677352905273,6.711867332458496,5.698507308959961
1711549389013592000,0.304592041015625,1.3280165195465088,7.115057945251465,5.84446907043457
1711549389032549000,0.323549072265625,1.4811571836471558,6.6006011962890625,6.836294174194336
1711549389051506200,0.342506103515625,1.9776679277420044,5.955735683441162,7.402196884155273
1711549389070463000,0.361462890625,2.6356940269470215,5.3970112800598145,7.987242221832275
1711549389089420000,0.380419921875,2.8462624549865723,5.052444934844971,8.536395072937012
1711549389108377000,0.399377197265625,2.6811578273773193,5.400600910186768,8.482556343078613
1711549389127334000,0.418333984375,2.475374937057495,5.820540904998779,8.47896671295166
1711549389146291200,0.437291259765625,2.0518453121185303,6.08614444732666,7.761120319366455
1711549389165248000,0.456248046875,1.817348837852478,6.515655994415283,7.417750358581543
1711549389184205000,0.475205078125,2.3222343921661377,6.569494724273682,7.204789161682129
1711549389203162000,0.494162109375,2.4335005283355713,6.428318023681641,7.069594383239746
1711549389222119000,0.513118896484375,2.251646041870117,6.153143405914307,7.454838752746582
1711549389241076000,0.532075927734375,2.9515466690063477,6.051448345184326,8.244470596313477
1711549389260033000,0.551032958984375,3.346362352371216,6.233303070068359,8.051848411560059
1711549389278989800,0.56998974609375,3.012563705444336,6.7178497314453125,8.193024635314941
1711549389297947000,0.58894677734375,2.9551360607147217,6.364908218383789,8.160721778869629
1711549389316904000,0.607904052734375,2.5387847423553467,5.867201328277588,7.037291526794434
1711549389335861000,0.626861083984375,2.348555326461792,5.918646812438965,6.424728870391846
1711549389354818000,0.645818115234375,2.390429735183716,5.986842155456543,6.33499813079834
1711549389373774800,0.66477490234375,3.152543783187866,5.913861274719238,6.602993965148926
1711549389392732000,0.68373193359375,2.4335005283355713,6.1399827003479,7.258627414703369
1711549389411689000,0.70268896484375,2.4526431560516357,5.948556900024414,7.229913711547852
1711549389430645800,0.721645751953125,1.7228323221206665,6.067001819610596,7.050451755523682
1711549389449603000,0.74060302734375,1.5086746215820312,6.119643688201904,6.472585201263428
1711549389468560000,0.759559814453125,1.4799607992172241,6.144768714904785,6.387639999389648
1711549389487517000,0.778516845703125,1.7623138427734375,6.157928943634033,7.100701332092285
1711549389506474000,0.797473876953125,1.9010975360870361,6.3601226806640625,7.9728851318359375
1711549389525430800,0.8164306640625,2.0398812294006348,6.372086524963379,8.373682975769043
1711549389544387800,0.835387939453125,2.0793628692626953,6.2297139167785645,8.453842163085938
1711549389563345000,0.854344970703125,1.9968105554580688,6.098108291625977,8.285148620605469
1711549389582302000,0.873302001953125,1.7611174583435059,6.010770320892334,8.237292289733887
1711549389601259000,0.892259033203125,1.5337992906570435,5.921039581298828,8.447860717773438
1711549389620215800,0.9112158203125,1.3782658576965332,5.787041664123535,8.132007598876953
1711549389639172900,0.9301728515625,1.389033555984497,5.737988471984863,7.913064479827881
1711549389658130000,0.9491298828125,1.290927767753601,5.6925249099731445,8.221738815307617
1711549389677087000,0.9680869140625,1.1473584175109863,5.608776092529297,8.293522834777832
1711549389696043800,0.987043701171875,0.9678967595100403,5.3312087059021,8.206185340881348
1711549389715000800,1.006000732421875,0.8877372145652771,5.241477966308594,8.087740898132324
1711549389733958000,1.0249580078125,0.8327022790908813,5.318048477172852,7.799405574798584
1711549389752915000,1.0439150390625,0.9655039310455322,5.270191669464111,7.9489569664001465
1711549389771872000,1.0628720703125,1.074377417564392,5.309673309326172,8.207381248474121
1711549389790828800,1.081828857421875,0.8303094506263733,5.298905849456787,8.120043754577637
1711549389809785900,1.100785888671875,0.7740781307220459,5.4795637130737305,7.915457248687744
1711549389828743000,1.119742919921875,0.6089733839035034,5.255835056304932,7.8041911125183105
1711549389847700000,1.138699951171875,0.7082754969596863,5.01296329498291,7.800601959228516
1711549389866657000,1.157656982421875,0.851844847202301,5.053641319274902,7.761120319366455
1711549389885614000,1.176614013671875,0.8350951075553894,5.243870735168457,7.99083137512207
1711549389904571000,1.19557080078125,1.0863415002822876,5.630311489105225,7.672585964202881
1711549389923528200,1.214528076171875,1.545763373374939,5.72123908996582,7.759923934936523
1711549389942485000,1.233485107421875,1.332802176475525,5.755934715270996,8.578269004821777
1711549389961442000,1.252442138671875,1.3962119817733765,6.045466423034668,8.95394229888916
1711549389980399000,1.271399169921875,1.196411371231079,5.79063081741333,8.557929992675781
1711549389999356200,1.290356201171875,1.0707881450653076,5.5142598152160645,8.11525821685791
1711549390018313200,1.309313232421875,0.8386843204498291,5.113461971282959,7.81974458694458
1711549390037270300,1.328270263671875,0.46061834692955017,5.125426292419434,7.271788120269775
1711549390056227000,1.34722705078125,0.5910272002220154,5.669793128967285,6.729813575744629
1711549390075184000,1.36618408203125,1.184447169303894,5.7164530754089355,7.110272407531738
1711549390094141200,1.38514111328125,1.2275179624557495,4.868197441101074,7.64865779876709
1711549390113098200,1.40409814453125,0.9320043921470642,5.140979290008545,8.389236450195312
1711549390132055300,1.42305517578125,0.9391828775405884,5.9198431968688965,8.179863929748535
1711549390151012400,1.442012451171875,0.9308080077171326,5.704489231109619,7.789834022521973
1711549390169969400,1.460969482421875,0.9128618240356445,5.578866004943848,8.208578109741211
1711549390188926500,1.479926513671875,1.0121639966964722,6.14835786819458,8.398807525634766
1711549390207883500,1.498883544921875,1.389033555984497,6.285944938659668,8.477770805358887
1711549390226840600,1.517840576171875,1.0791629552841187,6.011966705322266,8.316255569458008
1711549390245797600,1.536797607421875,0.8793623447418213,6.013163089752197,8.000402450561523
1711549390264754400,1.55575439453125,1.0887342691421509,6.197410583496094,7.130611419677734
1711549390283711500,1.57471142578125,1.1186445951461792,6.221338748931885,6.930810928344727
1711549390302668500,1.59366845703125,0.7489534616470337,6.368497371673584,7.338787078857422
1711549390321625600,1.61262548828125,1.0911271572113037,6.391229152679443,7.1270222663879395
1711549390340582700,1.631582763671875,0.9248259663581848,6.186643123626709,7.259823799133301
1711549390359539700,1.650539794921875,1.2143574953079224,6.068198204040527,7.348358154296875
1711549390378496800,1.669496826171875,1.2526426315307617,6.2105712890625,7.4847493171691895
1711549390397453800,1.688453857421875,1.1377872228622437,6.460621356964111,7.8388872146606445
1711549390416411000,1.707410888671875,1.3244273662567139,6.467799663543701,7.911868095397949
1711549390435368000,1.726367919921875,1.1976077556610107,6.308676719665527,7.4739813804626465
1711549390454325000,1.745324951171875,0.05383851006627083,6.394818305969238,7.9142608642578125
1711549390473282000,1.764281982421875,0.8171489238739014,6.364908218383789,7.982456207275391
1711549390492239000,1.783239013671875,1.0995019674301147,6.150750637054443,7.817351341247559
1711549390511196200,1.802196044921875,0.9044869542121887,6.358926296234131,8.154739379882812
1711549390530153200,1.8211533203125,0.8889335989952087,6.284748554229736,7.342376232147217
1711549390549110300,1.8401103515625,1.9262222051620483,6.267998695373535,7.825726509094238
1711549390568067300,1.8590673828125,0.6281159520149231,6.406782627105713,6.799205780029297
1711549390587024400,1.8780244140625,1.4321043491363525,6.39721155166626,7.6043901443481445
1711549390605981400,1.8969814453125,2.021935224533081,6.3254265785217285,8.541180610656738
1711549390624938500,1.9159384765625,4.514060020446777,6.226124286651611,9.081958770751953
1711549390643895600,1.9348955078125,2.001596212387085,6.376872539520264,9.541379928588867
1711549390662852600,1.9538525390625,7.256234645843506,6.945167541503906,8.668000221252441
1711549390681809700,1.9728095703125,2.262413740158081,6.557530403137207,10.728219985961914
1711549390700766700,1.9917666015625,2.6632115840911865,6.713063716888428,9.041280746459961
1711549390719723800,2.010723876953125,1.3866406679153442,6.178267955780029,6.267998695373535
1711549390738681000,2.02968115234375,0.2273181527853012,5.747560024261475,4.009174346923828
1711549390757638100,2.04863818359375,1.0133603811264038,5.298905849456787,3.7328033447265625
1711549390776595000,2.067594970703125,2.097309112548828,5.450850009918213,5.133800983428955
1711549390795552300,2.08655224609375,3.906282901763916,6.08614444732666,6.941578388214111
1711549390814509300,2.10550927734375,4.767699241638184,6.131608009338379,7.156932353973389
1711549390833466400,2.12446630859375,5.0225348472595215,5.613562107086182,7.037291526794434
1711549390852423400,2.14342333984375,4.931607246398926,5.552545070648193,7.3052873611450195
1711549390871380500,2.16238037109375,4.624129772186279,5.724828243255615,7.028916358947754
1711549390890337500,2.181337646484375,4.503292083740234,5.979663848876953,6.1675004959106445
1711549390909294600,2.200294677734375,4.543970108032227,5.836094379425049,6.367300987243652
1711549390928251600,2.219251708984375,5.08355188369751,5.483152866363525,6.9344000816345215
1711549390947208700,2.238208740234375,5.318048477172852,5.339583873748779,6.768098831176758
1711549390966165800,2.257165771484375,4.835894584655762,5.516652584075928,6.488138675689697
1711549390985123000,2.276123046875,4.579862594604492,5.468796253204346,5.7032928466796875
1711549391004080000,2.295080078125,4.9531426429748535,5.552545070648193,6.38883638381958
1711549391023037200,2.314037109375,5.355136871337891,5.233103275299072,6.453442573547363
1711549391041994200,2.332994140625,4.753342151641846,5.1876397132873535,5.472385406494141
1711549391060951300,2.351951416015625,4.974678039550781,5.3347978591918945,6.354140758514404
1711549391079908400,2.370908447265625,4.791627407073975,5.091926574707031,5.942574977874756
1711549391098865400,2.389865478515625,4.510470867156982,5.248656272888184,5.227120876312256
1711549391117822500,2.408822509765625,4.543970108032227,5.123033046722412,5.442475318908691
1711549391136779500,2.427779541015625,5.357530117034912,4.872983455657959,6.10169792175293
1711549391155736800,2.44673681640625,5.320441246032715,5.024927616119385,6.728617191314697
1711549391174694000,2.46569384765625,5.138586521148682,5.149354457855225,6.671189308166504
1711549391193651000,2.48465087890625,4.923232555389404,4.890929698944092,6.6352972984313965
1711549391212608000,2.50360791015625,3.975674867630005,4.7234320640563965,5.259424209594727
1711549391231565000,2.52256494140625,3.1417760848999023,4.8538408279418945,4.701896667480469
1711549391250522000,2.541522216796875,2.6536402702331543,4.837090969085693,4.920839786529541
1711549391269479400,2.5604794921875,3.0652058124542236,4.82751989364624,6.270391941070557
1711549391288436500,2.5794365234375,4.018745422363281,4.924428939819336,7.8664045333862305
1711549391307393500,2.5983935546875,4.53200626373291,5.002195835113525,8.670392990112305
1711549391326350600,2.6173505859375,4.778466701507568,5.084748268127441,9.168100357055664
1711549391345307600,2.6363076171875,4.721039295196533,5.072783946990967,9.620343208312988
1711549391364265000,2.655264892578125,4.444668292999268,5.00578498840332,9.463613510131836
1711549391383222000,2.674221923828125,3.5054850578308105,4.983053207397461,8.445467948913574
1711549391402179000,2.693178955078125,2.4885356426239014,4.945964336395264,7.69531774520874
1711549391421136100,2.71213623046875,3.053241729736328,4.82751989364624,8.109275817871094
1711549391440093200,2.73109326171875,3.6993038654327393,4.9435715675354,8.331808090209961
1711549391459050200,2.75005029296875,4.60857629776001,6.07896614074707,8.309076309204102
1711549391478007300,2.76900732421875,5.033302307128906,6.185446739196777,9.92423152923584
1711549391496964600,2.787964599609375,3.1657042503356934,4.638486862182617,10.401599884033203
1711549391515921700,2.806921630859375,1.9166508913040161,4.64805793762207,7.984848976135254
1711549391534878700,2.825878662109375,1.6019947528839111,4.566701889038086,6.362515449523926
1711549391553835800,2.844835693359375,1.2717852592468262,4.24367094039917,6.595815658569336
1711549391572792800,2.863792724609375,0.7848458290100098,4.147958278656006,7.039684295654297
1711549391591750100,2.882750244140625,0.9822536706924438,3.9912281036376953,7.499105930328369
1711549391610707200,2.901707275390625,1.4799607992172241,3.7507495880126953,7.931010723114014
1711549391629664300,2.920664306640625,1.9489539861679077,4.3310089111328125,8.376075744628906
1711549391648621300,2.939621337890625,1.5397813320159912,4.522434711456299,9.05563735961914
1711549391667578400,2.958578369140625,1.3423734903335571,4.698307037353516,9.213563919067383
1711549391686535700,2.97753564453125,1.2346965074539185,4.3178486824035645,8.922835350036621
1711549391705492700,2.99649267578125,1.231107234954834,4.07258415222168,8.863015174865723
1711549391724449800,3.01544970703125,1.0815558433532715,4.443471431732178,8.723034858703613
1711549391743406800,3.03440673828125,0.7800601720809937,4.8227338790893555,8.592626571655273
1711549391762364000,3.053364013671875,-0.02751746028661728,4.4482574462890625,8.592626571655273
1711549391781321000,3.072321044921875,0.17108681797981262,4.273581027984619,8.758927345275879
1711549391800278300,3.0912783203125,0.4833501875400543,4.372883319854736,8.81396198272705
1711549391819235300,3.1102353515625,0.5491527915000916,4.557130813598633,9.270991325378418
1711549391838192400,3.1291923828125,0.39840495586395264,4.707878589630127,9.361918449401855
1711549391857149400,3.1481494140625,0.07776673883199692,4.768895626068115,8.965906143188477
1711549391876106500,3.1671064453125,-0.18544375896453857,4.849055290222168,8.047062873840332
1711549391895063800,3.186063720703125,-0.5623133182525635,4.791627407073975,7.53140926361084
1711549391914020900,3.205020751953125,-0.4989035129547119,4.543970108032227,7.713263988494873
1711549391932978000,3.22397802734375,-0.137587308883667,5.230710506439209,8.330612182617188
1711549391951935000,3.24293505859375,2.5399811267852783,6.240481376647949,7.623532772064209
1711549391970892300,3.261892333984375,2.544766902923584,6.74656343460083,11.416156768798828
1711549391989849300,3.280849365234375,-1.5960127115249634,6.539584159851074,11.075180053710938
1711549392008806400,3.299806396484375,-1.042074203491211,5.822933673858643,7.085147857666016
1711549392027763700,3.318763671875,-1.0372886657714844,5.552545070648193,5.089533805847168
1711549392046720800,3.337720703125,-0.849452018737793,5.60399055480957,5.458028316497803
1711549392065677800,3.356677734375,-0.09451649338006973,5.670989513397217,7.774280548095703
1711549392084635000,3.375634765625,-0.040677983313798904,6.080162525177002,10.555936813354492
1711549392103592000,3.394592041015625,-1.2729816436767578,5.760720729827881,10.273584365844727
1711549392122549000,3.413549072265625,-1.6031911373138428,5.144568920135498,8.58185863494873
1711549392141506300,3.43250634765625,-1.6199408769607544,5.052444934844971,5.955735683441162
1711549392160463400,3.45146337890625,-2.2169501781463623,5.015356063842773,4.785645484924316
1711549392179420400,3.47042041015625,-2.871387243270874,5.267798900604248,6.7417778968811035
1711549392198377700,3.489377685546875,-2.5878376960754395,5.578866004943848,8.782855987548828
1711549392217334800,3.508334716796875,-1.3112667798995972,5.55015230178833,10.6025972366333
1711549392236291800,3.527291748046875,-0.6329016089439392,4.878965377807617,10.825129508972168
1711549392255249000,3.546248779296875,-1.1054840087890625,5.06082010269165,9.215956687927246
1711549392274206200,3.565206298828125,-1.9800606966018677,5.685346603393555,8.172685623168945
1711549392293163300,3.584163330078125,-2.8342983722686768,5.68893575668335,7.377072334289551
1711549392312120300,3.603120361328125,-2.794816732406616,5.4041900634765625,7.190432071685791
1711549392331077400,3.622077392578125,-1.8735800981521606,5.554937839508057,7.810173034667969
1711549392350034700,3.64103466796875,-1.5948163270950317,6.011966705322266,8.13081169128418
1711549392368991700,3.65999169921875,-1.604387640953064,5.976074695587158,6.86261510848999
1711549392387948800,3.67894873046875,-1.3411771059036255,6.0502519607543945,5.901896953582764
1711549392406905900,3.69790576171875,-1.94297194480896,6.524031162261963,6.63769006729126
1711549392425863200,3.71686328125,-1.8436698913574219,6.68435001373291,6.999006271362305
1711549392444820200,3.7358203125,-0.7537391185760498,6.733402729034424,7.392625331878662
1711549392463777300,3.75477734375,-0.745364248752594,6.984649181365967,6.6352972984313965
1711549392482734300,3.773734375,-0.9200403094291687,6.728617191314697,6.10169792175293
1711549392501691600,3.792691650390625,-1.3304094076156616,6.236892223358154,6.463014125823975
1711549392520648700,3.811648681640625,-1.2837493419647217,6.15553617477417,7.598408222198486
1711549392539605800,3.830605712890625,-1.1066805124282837,6.107679843902588,8.524430274963379
1711549392558563000,3.84956298828125,-1.3040883541107178,6.571887493133545,7.628318786621094
1711549392577520000,3.86852001953125,-1.872383713722229,6.853044033050537,6.820741176605225
1711549392596477200,3.887477294921875,-1.8400806188583374,6.619743824005127,6.697510719299316
1711549392615434200,3.906434326171875,-1.466800332069397,6.716653347015381,7.601997375488281
1711549392634391600,3.9253916015625,-1.4141582250595093,6.719046115875244,7.520641803741455
1711549392653348600,3.9443486328125,-0.9655039310455322,6.427121639251709,7.588837146759033
1711549392672305700,3.9633056640625,-1.3591232299804688,6.300302028656006,6.5252275466918945
1711549392691263000,3.982262939453125,-1.4943177700042725,6.2428741455078125,5.617151260375977
1711549392710220000,4.001219970703125,-0.9224331378936768,6.238088607788086,7.022934436798096
1711549392729177000,4.020177001953125,-0.5790630578994751,6.105287075042725,7.618747234344482
1711549392748134100,4.039134033203125,-0.6329016089439392,6.134000778198242,7.544569969177246
1711549392767091500,4.058091552734375,-0.9116654396057129,6.303891181945801,7.070790767669678
1711549392786048500,4.077048583984375,-1.1473584175109863,6.812366008758545,7.288537979125977
1711549392805005600,4.096005615234375,-1.0707881450653076,7.1820573806762695,7.727620601654053
1711549392823963000,4.114962890625,-1.160519003868103,7.083951473236084,8.267202377319336
1711549392842920000,4.133919921875,-1.0887342691421509,6.374479293823242,8.421539306640625
1711549392861877000,4.152876953125,-0.9906286001205444,6.260820388793945,8.048258781433105
1711549392880834000,4.171833984375,-0.3326023519039154,6.656832695007324,7.319644451141357
1711549392899791400,4.190791259765625,0.010767702013254166,7.824530124664307,6.631708145141602
1711549392918748400,4.20974853515625,-0.6161518096923828,8.903693199157715,5.144568920135498
1711549392937705500,4.22870556640625,-1.6606189012527466,8.891729354858398,1.9848463535308838
1711549392956662500,4.24766259765625,-1.32921302318573,7.99083137512207,3.346362352371216
1711549392975619800,4.266619873046875,-0.503689169883728,7.447660446166992,5.175675392150879
1711549392994577000,4.285576904296875,0.2763710021972656,7.599604606628418,6.7932233810424805
1711549393013534000,4.304533935546875,0.7525427341461182,7.704888820648193,7.864011764526367
1711549393032491300,4.3234912109375,0.7716853022575378,7.561319351196289,8.401200294494629
1711549393051448300,4.3424482421875,0.4103690981864929,7.5086774826049805,7.584051132202148
1711549393070405400,4.3614052734375,0.14715859293937683,7.770691394805908,6.076572895050049
1711549393089362400,4.380362548828125,0.2225325107574463,7.588837146759033,5.306084156036377
1711549393108319700,4.39931982421875,-0.16151553392410278,7.668996810913086,4.856233596801758
1711549393127276800,4.41827685546875,-0.38285163044929504,7.939385414123535,4.669593334197998
1711549393146234000,4.437234130859375,-0.4175475537776947,8.227720260620117,4.78803825378418
1711549393165191200,4.456191162109375,-0.3732803463935852,8.274380683898926,5.042873859405518
1711549393184148200,4.475148193359375,-0.19262222945690155,8.209774017333984,5.2043890953063965
1711549393203105300,4.494105224609375,0.08255238085985184,8.453842163085938,5.30847692489624
1711549393222062600,4.5130625,0.2584248483181,8.95394229888916,5.3216376304626465
1711549393241019600,4.53201953125,0.34576287865638733,9.111868858337402,5.240281581878662
1711549393259976700,4.550976806640625,0.3756731450557709,9.2255277633667,5.056034088134766
1711549393278934000,4.56993408203125,0.37088751792907715,9.390632629394531,4.944767951965332
1711549393297891000,4.58889111328125,0.47617170214653015,9.369096755981445,5.036891460418701
1711549393316848000,4.60784814453125,0.8530412912368774,8.687142372131348,4.548755645751953
1711549393335805200,4.62680517578125,0.5862415432929993,8.310273170471191,3.6610186100006104
1711549393354762500,4.645762451171875,0.33499518036842346,8.062616348266602,3.297309637069702
1711549393373719600,4.664719482421875,0.7130611538887024,7.989634990692139,3.3918261528015137
1711549393392676600,4.683676513671875,0.9415757060050964,8.188239097595215,3.6634113788604736
1711549393411634000,4.702634033203125,1.1581261157989502,8.635697364807129,4.376472473144531
1711549393430591000,4.721591064453125,1.5254244804382324,8.992227554321289,4.913661479949951
1711549393449548000,4.740548095703125,1.6977076530456543,9.312865257263184,5.126622676849365
1711549393468505300,4.75950537109375,2.0171494483947754,9.21834945678711,5.010570526123047
1711549393487462400,4.77846240234375,1.7623138427734375,9.010173797607422,4.453042984008789
1711549393506419500,4.79741943359375,1.5397813320159912,8.951549530029297,4.322634220123291
1711549393525376500,4.81637646484375,1.6139588356018066,8.965906143188477,4.364508628845215
1711549393544333800,4.835333740234375,1.6402798891067505,8.82951545715332,4.675575256347656
1711549393563291000,4.854290771484375,1.3758729696273804,8.523234367370605,5.016552448272705
1711549393582248000,4.873248046875,1.3639088869094849,8.23848819732666,5.544169902801514
1711549393601205200,4.892205322265625,1.3818551301956177,8.049455642700195,5.61954402923584
1711549393620162300,4.911162353515625,1.1330015659332275,7.822137355804443,5.801398277282715
1711549393639119400,4.930119384765625,1.038485050201416,7.738388538360596,5.976074695587158
1711549393658076400,4.949076416015625,1.1054840087890625,7.743174076080322,6.409175395965576
1711549393677033700,4.96803369140625,1.262213945388794,7.759923934936523,6.617351055145264
1711549393695990800,4.98699072265625,1.0061819553375244,7.624729156494141,6.881757736206055
1711549393714947800,5.00594775390625,0.8757730722427368,7.496713161468506,7.098308563232422
1711549393733905200,5.0249052734375,1.0636097192764282,7.203592777252197,7.115057945251465
1711549393752862200,5.0438623046875,0.8973084688186646,6.978667259216309,7.35314416885376
1711549393771819300,5.0628193359375,0.6317051649093628,6.662814617156982,7.46201753616333
1711549393790776600,5.081776611328125,0.5754738450050354,6.436692714691162,7.386643409729004
1711549393809733600,5.100733642578125,0.3517449200153351,6.2536420822143555,7.441678524017334
1711549393828690700,5.119690673828125,0.03349951654672623,6.021538257598877,7.512266635894775
1711549393847647700,5.138647705078125,-0.15074782073497772,5.972485542297363,7.445267677307129
1711549393866605000,5.15760498046875,-0.20578274130821228,5.84566593170166,7.395018577575684
1711549393885562000,5.17656201171875,-0.16390834748744965,5.722435474395752,7.4261250495910645
1711549393904519200,5.195519287109375,-0.2991028428077698,5.536991596221924,7.616354465484619
1711549393923476500,5.2144765625,-0.20099709928035736,5.251049518585205,7.947760581970215
1711549393942433500,5.23343359375,-0.09690931439399719,5.278566837310791,8.359326362609863
1711549393961390600,5.252390625,0.33020952343940735,5.303691387176514,8.409575462341309
1711549393980347600,5.27134765625,0.4737788736820221,5.036891460418701,8.263612747192383
1711549393999305000,5.290304931640625,0.8685946464538574,5.5142598152160645,7.926225185394287
1711549394018262000,5.309261962890625,0.7417750358581543,5.614758491516113,7.408178806304932
1711549394037219300,5.32821923828125,-0.07657032459974289,5.271388053894043,7.22871732711792
1711549394056176400,5.34717626953125,-0.7680960893630981,4.864608287811279,7.490731239318848
1711549394075133400,5.366133544921875,-0.9846464991569519,4.961517810821533,8.360522270202637
1711549394094090500,5.385090576171875,0.029910283163189888,5.438885688781738,9.694520950317383
1711549394113047600,5.404047607421875,1.0863415002822876,5.623133182525635,10.496116638183594
1711549394132004900,5.4230048828125,1.6845471858978271,5.540580749511719,10.208977699279785
1711549394150962000,5.4419619140625,1.4428720474243164,4.934000492095947,9.035298347473145
1711549394169919200,5.460919189453125,0.381655216217041,4.3070807456970215,7.908278942108154
1711549394188876300,5.479876220703125,-0.31345975399017334,4.179064750671387,7.501499176025391
1711549394207833300,5.498833251953125,-0.24406790733337402,4.1730828285217285,7.70967435836792
1711549394226790400,5.517790283203125,-0.14835500717163086,4.344169616699219,7.964509963989258
1711549394245747700,5.536747802734375,-0.7046862840652466,4.256831645965576,7.7491559982299805
1711549394264704800,5.555704833984375,-0.6376872062683105,4.118047714233398,7.53140926361084
1711549394283661800,5.574661865234375,-0.364905446767807,4.089334011077881,7.579265594482422
1711549394302619000,5.593618896484375,-0.06580262631177902,4.201796531677246,8.15234661102295
1711549394321576200,5.612576171875,0.017946170642971992,4.265206336975098,8.609375953674316
1711549394340533200,5.631533203125,-0.02273181453347206,4.151547431945801,9.275776863098145
1711549394359490300,5.650490234375,0.14356936514377594,4.1144585609436035,9.824930191040039
1711549394378447600,5.669447509765625,0.3577269911766052,4.124029636383057,9.803394317626953
1711549394397404700,5.68840478515625,0.24047867953777313,4.1419758796691895,9.383454322814941
1711549394416361700,5.70736181640625,-0.020338991656899452,4.095315933227539,8.896514892578125
1711549394435318800,5.72631884765625,-0.13160525262355804,4.027120590209961,8.85942554473877
1711549394454276000,5.745276123046875,0.0729810893535614,4.078566074371338,9.473184585571289
1711549394473233200,5.764233154296875,0.035892341285943985,4.380061626434326,9.66939640045166
1711549394492190200,5.783190185546875,-0.137587308883667,4.435096740722656,9.091529846191406
1711549394511147500,5.8021474609375,0.0323031060397625,4.155136585235596,8.154739379882812
1711549394530104600,5.8211044921875,0.4127618968486786,4.455435752868652,8.365307807922363
1711549394549061600,5.8400615234375,0.7645068168640137,4.569094657897949,8.877371788024902
1711549394568018700,5.859018798828125,0.885344386100769,4.627718925476074,9.081958770751953
1711549394586976000,5.87797607421875,0.7932206988334656,4.71744966506958,8.941978454589844
1711549394605933000,5.89693310546875,0.397208571434021,4.6301116943359375,8.910871505737305
1711549394624890400,5.915890380859375,0.3924229145050049,4.656432628631592,8.973084449768066
1711549394643847400,5.934847412109375,0.48813581466674805,4.675575256347656,9.081958770751953
1711549394662804500,5.953804443359375,0.5587241053581238,4.600201606750488,9.014959335327148
1711549394681761500,5.972761474609375,0.2392822653055191,4.459024906158447,8.538787841796875
1711549394700718600,5.991718505859375,0.1256231814622879,4.706682205200195,7.9381890296936035
1711549394719676000,6.010676025390625,0.005982056725770235,4.447061061859131,7.651050567626953
1711549394738633000,6.029633056640625,0.11246266216039658,4.321437835693359,7.940581798553467
1711549394757590300,6.04859033203125,0.19740787148475647,4.353740692138672,8.35573673248291
1711549394776547300,6.06754736328125,0.4426721930503845,4.4135613441467285,8.58185863494873
1711549394795504400,6.08650439453125,0.36610186100006104,4.645665168762207,8.71226692199707
1711549394814461400,6.10546142578125,0.49292147159576416,4.587040901184082,8.950352668762207
1711549394833418800,6.124418701171875,0.7441678643226624,4.4650068283081055,8.877371788024902
1711549394852375800,6.143375732421875,0.747757077217102,4.5391845703125,8.755337715148926
1711549394871332900,6.162332763671875,0.641276478767395,4.72582483291626,8.586644172668457
1711549394890290000,6.1812900390625,0.4366901218891144,4.835894584655762,8.47178840637207
1711549394909247200,6.200247314453125,0.39601215720176697,5.030909538269043,8.691927909851074
1711549394928204800,6.219204833984375,0.5946164131164551,5.017749309539795,8.872586250305176
1711549394947161600,6.23816162109375,0.6376872062683105,4.931607246398926,8.890532493591309
1711549394966119000,6.257118896484375,0.5443671345710754,4.731806755065918,8.913264274597168
1711549394985076000,6.276075927734375,0.46779683232307434,4.493721008300781,8.864211082458496
1711549395004033000,6.295032958984375,0.3314059376716614,4.511667251586914,8.898907661437988
1711549395022990300,6.313990234375,0.15912270545959473,4.626522541046143,8.980263710021973
1711549395041947400,6.332947509765625,-0.11126625537872314,4.618147850036621,9.129815101623535
1711549395060904400,6.351904541015625,-0.0849452018737793,4.47697114944458,9.139386177062988
1711549395079861800,6.37086181640625,0.31345975399017334,4.479363918304443,9.232706069946289
1711549395098818800,6.38981884765625,0.5575276613235474,4.25084924697876,9.611968994140625
1711549395117776000,6.40877587890625,0.7417750358581543,4.146761417388916,9.383454322814941
1711549395136733200,6.427733154296875,0.4175475537776947,4.30588436126709,8.82951545715332
1711549395155690200,6.446690185546875,0.10408778488636017,4.4410786628723145,8.402397155761719
1711549395174647300,6.465647216796875,0.2835494875907898,4.348955154418945,8.361719131469727
1711549395193604600,6.4846044921875,0.6795616149902344,4.299902439117432,8.694320678710938
1711549395212561700,6.503561767578125,1.0133603811264038,4.303491592407227,8.97667407989502
1711549395231519000,6.52251904296875,1.1174482107162476,4.316651821136475,9.113064765930176
1711549395250476000,6.54147607421875,1.0767701864242554,4.327419757843018,9.072386741638184
1711549395269433000,6.56043310546875,1.210768222808838,4.408775806427002,9.200403213500977
1711549395288390400,6.579390380859375,1.2203395366668701,4.358526229858398,8.538787841796875
1711549395307347500,6.598347412109375,0.8063812255859375,4.163511276245117,7.544569969177246
1711549395326304800,6.6173046875,0.5659025311470032,3.8464624881744385,7.436892986297607
1711549395345261800,6.63626171875,0.8506484627723694,3.7543387413024902,8.228917121887207
1711549395364219000,6.655218994140625,1.140179991722107,3.8009986877441406,9.090332984924316
1711549395383176200,6.67417626953125,1.2131611108779907,3.735196113586426,9.694520950317383
1711549395402133200,6.69313330078125,1.2059825658798218,3.7256247997283936,9.638289451599121
1711549395421090600,6.712090576171875,1.0360921621322632,3.9038901329040527,9.400203704833984
1711549395440047600,6.731047607421875,0.8590233325958252,3.865604877471924,9.269794464111328
1711549395459005000,6.7500048828125,0.7896314859390259,3.717249870300293,9.146564483642578
1711549395477962000,6.7689619140625,0.8422735929489136,3.656233072280884,8.934800148010254
1711549395496919300,6.787919189453125,0.7968099117279053,3.680161237716675,8.920442581176758
1711549395515876400,6.80687646484375,0.6089733839035034,3.658625841140747,8.998209953308105
1711549395534833400,6.82583349609375,0.6699903607368469,3.5712878704071045,9.029315948486328
1711549395553790700,6.844790771484375,0.6305087804794312,3.3655049800872803,8.812766075134277
1711549395572747800,6.863747802734375,0.5407779216766357,3.324826955795288,8.635697364807129
1711549395591705000,6.882705078125,0.6352944374084473,3.493520975112915,8.828319549560547
1711549395610662100,6.901662109375,1.0193424224853516,3.493520975112915,9.049654960632324
1711549395629619500,6.920619384765625,1.1018948554992676,3.4169507026672363,9.212367057800293
1711549395648576500,6.939576416015625,1.0253244638442993,3.5856447219848633,9.512666702270508
1711549395667533600,6.958533447265625,0.8267202377319336,3.6119658946990967,9.366703987121582
1711549395686491000,6.977490966796875,0.6999006271362305,3.3332018852233887,8.903693199157715
1711549395705448000,6.996447998046875,0.6436693072319031,3.229114055633545,8.806783676147461
1711549395724405200,7.0154052734375,0.6436693072319031,3.372683525085449,9.095118522644043
1711549395743362300,7.0343623046875,0.5312066078186035,3.5222349166870117,9.168100357055664
1711549395762319600,7.053319580078125,0.5790630578994751,3.5341989994049072,9.087940216064453
1711549395781276700,7.072276611328125,0.7010970115661621,3.345165967941284,8.998209953308105
1711549395800234000,7.09123388671875,0.6759724020957947,3.0723843574523926,9.174081802368164
1711549395819191300,7.11019140625,0.38285163044929504,3.043670415878296,9.442078590393066
1711549395838148400,7.1291484375,0.29431718587875366,3.249453067779541,9.573683738708496
1711549395857105700,7.148105712890625,0.32183465361595154,3.0592236518859863,9.473184585571289
1711549395876062700,7.167062744140625,0.12323036789894104,2.7146573066711426,9.625128746032715
1711549395895020000,7.18602001953125,-0.08015955984592438,2.6213371753692627,9.870393753051758
1711549395913977000,7.20497705078125,-0.2907279431819916,2.2265214920043945,9.737591743469238
1711549395932934400,7.223934326171875,-0.7465606927871704,2.056631088256836,9.34875774383545
1711549395951891500,7.242891357421875,-0.5778666734695435,3.0520453453063965,9.196813583374023
1711549395970848800,7.261848876953125,-0.1986042857170105,3.460021495819092,9.31047248840332
1711549395989805800,7.280805908203125,0.19740787148475647,3.0281169414520264,9.640682220458984
1711549396008763100,7.29976318359375,0.41994038224220276,2.7661030292510986,10.021141052246094
1711549396027720400,7.318720458984375,0.5670989751815796,2.779263496398926,10.323833465576172
1711549396046677500,7.337677490234375,0.2727817893028259,3.0340991020202637,10.205389022827148
1711549396065634800,7.356634765625,0.2356930375099182,3.372683525085449,9.949356079101562
1711549396084591900,7.375591796875,0.4211367964744568,3.1489546298980713,9.882357597351074
1711549396103549200,7.394549072265625,0.45224347710609436,2.7553353309631348,9.671789169311523
1711549396122506200,7.41350634765625,0.16031911969184875,2.737389087677002,10.04985523223877
1711549396141463600,7.432463623046875,0.5144568681716919,2.5459632873535156,10.238887786865234
1711549396160420900,7.4514208984375,-0.19142581522464752,2.306680917739868,9.787840843200684
1711549396179378000,7.4703779296875,-0.5910272002220154,2.4047868251800537,8.520841598510742
1711549396198335200,7.489335205078125,0.003589233849197626,2.561516523361206,8.014759063720703
1711549396217292300,7.508292236328125,0.29431718587875366,2.926422119140625,8.678768157958984
1711549396236249600,7.52724951171875,0.7585247755050659,3.266202926635742,9.584450721740723
1711549396255207000,7.54620703125,1.0097711086273193,2.8773691654205322,9.942177772521973
1711549396274164000,7.5651640625,1.306481122970581,2.6560330390930176,9.601201057434082
1711549396293121300,7.584121337890625,1.0863415002822876,3.0352954864501953,8.992227554321289
1711549396312078300,7.603078369140625,1.0193424224853516,3.208775281906128,8.739784240722656
1711549396331035600,7.62203564453125,1.054038405418396,3.208775281906128,8.999405860900879
1711549396349993000,7.640992919921875,1.430907964706421,3.1489546298980713,9.621540069580078
1711549396368950000,7.659949951171875,1.5182459354400635,3.0005996227264404,9.980463027954102
1711549396387907300,7.6789072265625,1.2167502641677856,2.864208698272705,9.789037704467773
1711549396406864400,7.697864501953125,0.9678967595100403,2.8965117931365967,9.30449104309082
1711549396425821700,7.71682177734375,0.8961120843887329,2.8941190242767334,8.898907661437988
1711549396444779000,7.735779052734375,0.9667003750801086,3.014956474304199,8.670392990112305
1711549396463736000,7.754736083984375,1.207179069519043,3.1070802211761475,8.662017822265625
1711549396482693400,7.773693359375,1.3663017749786377,2.967100143432617,8.824729919433594
1711549396501650700,7.792650634765625,1.566102385520935,2.8905298709869385,9.065208435058594
1711549396520607700,7.811607666015625,1.9130617380142212,2.963510751724243,9.650253295898438
1711549396539565000,7.83056494140625,2.0518453121185303,3.1202406883239746,9.986445426940918
1711549396558522400,7.8495224609375,2.228914260864258,3.3056845664978027,9.962516784667969
1711549396577479700,7.868479736328125,2.0817556381225586,3.3068809509277344,9.781859397888184
1711549396596436700,7.887436767578125,2.0578274726867676,3.012563705444336,9.56770133972168
1711549396615394000,7.90639404296875,1.5696916580200195,2.500499725341797,9.369096755981445
1711549396634351400,7.925351318359375,1.1341979503631592,2.0099709033966064,9.282955169677734
1711549396653308400,7.944308349609375,0.7058826684951782,1.643869161605835,9.57607650756836
1711549396672265700,7.963265625,0.3732803463935852,1.4871392250061035,9.66102123260498
1711549396691223000,7.98222314453125,0.1052841991186142,1.4847464561462402,9.072386741638184
1711549396710180400,8.001180419921875,0.3720839321613312,1.552941918373108,8.267202377319336
1711549396729137400,8.020137451171875,0.14835500717163086,1.6462619304656982,7.992027759552002
1711549396748094700,8.0390947265625,0.5240281820297241,2.3617160320281982,8.498109817504883
1711549396767051800,8.0580517578125,0.4211367964744568,2.495713949203491,9.226723670959473
1711549396786009000,8.077009033203124,-0.13878370821475983,2.0997018814086914,9.248259544372559
1711549396804966400,8.09596630859375,-0.4378865361213684,2.4741785526275635,8.784051895141602
1711549396823923700,8.114923828125,0.12921242415905,3.601198196411133,8.798408508300781
1711549396842881000,8.133881103515625,0.9690931439399719,4.432703971862793,9.395418167114258
1711549396861838000,8.152838134765625,1.832902193069458,4.767699241638184,10.285548210144043
1711549396880795400,8.17179541015625,2.7254250049591064,5.218746185302734,11.3180513381958
1711549396899752700,8.190752685546874,2.9802606105804443,5.407779216766357,11.388639450073242
1711549396918710000,8.2097099609375,2.6739792823791504,5.1050872802734375,10.581061363220215
1711549396937667300,8.228667236328125,2.108076810836792,4.466203689575195,10.051051139831543
1711549396956624400,8.247624267578125,1.3196417093276978,3.84765887260437,9.482755661010742
1711549396975581700,8.266581787109375,0.3074777126312256,3.6047873497009277,8.927620887756348
1711549396994538800,8.285538818359376,-0.32542386651039124,3.2267212867736816,8.427521705627441
1711549397013496000,8.30449609375,-0.5096712112426758,2.778067111968994,8.154739379882812
1711549397032453400,8.323453369140625,-0.5024927258491516,2.6943182945251465,8.221738815307617
1711549397051410700,8.34241064453125,-0.18544375896453857,2.8354947566986084,8.4562349319458
1711549397070368000,8.361367919921875,0.3002992272377014,3.0412776470184326,8.650053977966309
1711549397089325300,8.3803251953125,0.576670229434967,3.212364435195923,8.897710800170898
1711549397108282600,8.39928271484375,0.8422735929489136,3.48993182182312,8.827122688293457
1711549397127239700,8.41823974609375,1.054038405418396,3.7423746585845947,8.740981101989746
1711549397146197000,8.437197021484375,1.4632110595703125,3.851248025894165,8.719446182250977
1711549397165154300,8.456154296875,1.2239288091659546,4.053441524505615,8.96949577331543
1711549397184111400,8.475111328125,0.8877372145652771,4.314259052276611,9.107083320617676
1711549397203068700,8.494068603515625,0.9631111025810242,3.9732820987701416,8.889336585998535
1711549397222026000,8.51302587890625,1.6295121908187866,3.326023578643799,8.405985832214355
1711549397240983300,8.5319833984375,1.4488540887832642,3.31884503364563,8.213363647460938
1711549397259940600,8.550940673828125,1.1988041400909424,3.954139471054077,7.9657063484191895
1711549397278898000,8.56989794921875,1.2717852592468262,4.037888050079346,7.9860453605651855
1711549397297855200,8.588855224609375,1.7838492393493652,3.693321704864502,8.405985832214355
1711549397316812300,8.607812255859375,2.2085752487182617,3.5533416271209717,9.235098838806152
1711549397335769600,8.62676953125,2.6847469806671143,3.8775691986083984,9.388239860534668
1711549397354727000,8.645726806640624,3.451646566390991,3.94815731048584,8.85344409942627
1711549397373684200,8.664684326171875,3.2135608196258545,3.656233072280884,8.181060791015625
1711549397392641300,8.683641357421875,2.726621389389038,3.8739798069000244,7.4572319984436035
1711549397411598600,8.7025986328125,2.4430718421936035,4.048655986785889,7.259823799133301
1711549397430556000,8.721555908203126,2.575873613357544,3.649054527282715,7.53858757019043
1711549397449513200,8.74051318359375,3.184846878051758,3.463610887527466,8.054241180419922
1711549397468470500,8.759470458984374,3.8333017826080322,3.3918261528015137,9.498309135437012
1711549397487427800,8.778427734375,3.6287155151367188,3.7088751792907715,10.080962181091309
1711549397506385000,8.797385009765625,3.6526436805725098,4.658825874328613,9.781859397888184
1711549397525342200,8.81634228515625,4.015156269073486,5.162514686584473,9.183652877807617
1711549397544299500,8.835299560546876,4.667200565338135,4.7605204582214355,8.319844245910645
1711549397563256800,8.8542568359375,4.701896667480469,4.326223373413086,7.433303356170654
1711549397582214100,8.873214111328124,4.985445976257324,4.508078098297119,6.21774959564209
1711549397601171500,8.89217138671875,4.861019134521484,4.666004180908203,6.113661766052246
1711549397620128800,8.911128662109375,5.175675392150879,4.401597023010254,6.98704195022583
1711549397639086000,8.930086181640625,5.662614822387695,4.588237285614014,7.3639116287231445
1711549397658043100,8.949043212890626,5.736792087554932,5.357530117034912,7.3292155265808105
1711549397677000400,8.96800048828125,5.508277893066406,5.606383323669434,7.770691394805908
1711549397695957800,8.986957763671874,5.051248550415039,6.214160442352295,8.091329574584961
1711549397714915000,9.0059150390625,4.8502516746521,6.185446739196777,7.887939929962158
1711549397733872400,9.024872314453125,4.807180881500244,5.535795211791992,8.292326927185059
1711549397752829400,9.043829345703125,4.59421968460083,5.42572546005249,8.38684368133545
1711549397771786800,9.062786865234376,4.18863582611084,5.473581790924072,8.46341323852539
1711549397790744000,9.081744140625,3.8488552570343018,5.343173027038574,7.794619560241699
1711549397809701400,9.100701416015625,3.6526436805725098,4.890929698944092,7.080362319946289
1711549397828658700,9.11965869140625,3.291327476501465,4.542773723602295,7.070790767669678
1711549397847615700,9.13861572265625,3.297309637069702,4.212564468383789,7.295716285705566
1711549397866573000,9.157572998046875,3.2004003524780273,4.482953071594238,7.609176158905029
1711549397885530400,9.1765302734375,2.785245656967163,5.413761138916016,7.865208148956299
1711549397904487700,9.19548779296875,2.7565317153930664,5.986842155456543,7.946564197540283
1711549397923445000,9.214445068359375,2.449054002761841,6.025127410888672,8.288737297058105
1711549397942402300,9.23340234375,2.7361927032470703,5.824130535125732,8.71226692199707
1711549397961359600,9.252359619140625,2.606980323791504,5.44845724105835,9.035298347473145
1711549397980316700,9.271316650390625,2.774477958679199,4.999803066253662,8.82114028930664
1711549397999274000,9.29027392578125,2.520838737487793,4.716253280639648,8.519644737243652
1711549398018231300,9.309231201171874,2.0961127281188965,4.60139799118042,8.374878883361816
1711549398037188600,9.328188720703125,1.5840486288070679,4.610969066619873,8.23848819732666
1711549398056146000,9.34714599609375,1.3746765851974487,4.536791801452637,8.305487632751465
1711549398075103200,9.366103271484375,1.3794622421264648,4.542773723602295,8.311469078063965
1711549398094060300,9.385060302734376,1.534995675086975,4.371686935424805,8.141578674316406
1711549398113017600,9.404017578125,1.6474584341049194,4.151547431945801,7.769495010375977
1711549398131975000,9.422974853515624,1.1485549211502075,4.388436794281006,7.502695560455322
1711549398150932200,9.44193212890625,0.7932206988334656,4.756931304931641,7.509873867034912
1711549398169889300,9.46088916015625,1.093519926071167,4.595416069030762,7.931010723114014
1711549398188846600,9.4798466796875,1.825723648071289,4.186243057250977,8.166703224182129
1711549398207804000,9.498803955078126,1.7001005411148071,3.864408493041992,8.397610664367676
1711549398226761200,9.51776123046875,1.1066805124282837,4.2556352615356445,8.443074226379395
1711549398245718500,9.536718505859374,0.5730810165405273,4.743771076202393,8.597412109375
1711549398264675800,9.55567578125,0.9332008361816406,4.621737003326416,8.854640007019043
1711549398283633200,9.574633056640625,0.885344386100769,4.517649173736572,9.095118522644043
1711549398302590200,9.593590087890625,0.4426721930503845,4.900500774383545,9.237491607666016
1711549398321547500,9.612547607421876,-0.20817556977272034,5.219942569732666,9.462417602539062
1711549398340504800,9.6315048828125,-0.42711883783340454,5.1876397132873535,9.627521514892578
1711549398359462100,9.650462158203124,-0.08614161610603333,4.845465660095215,9.66819953918457
1711549398378419200,9.669419189453125,0.08853443711996078,4.642076015472412,9.337990760803223
1711549398397376500,9.68837646484375,-0.23808585107326508,4.910071849822998,8.975478172302246
1711549398416333800,9.707333740234375,-0.3206382393836975,5.158925533294678,8.872586250305176
1711549398435291100,9.726291015625,-0.2763710021972656,5.270191669464111,8.628518104553223
1711549398454248400,9.74524853515625,-0.02871387079358101,5.381458282470703,8.849854469299316
1711549398473205800,9.764205810546875,0.9511470198631287,5.150550842285156,9.019744873046875
1711549398492162800,9.783162841796875,1.552941918373108,4.924428939819336,9.034101486206055
1711549398511120100,9.8021201171875,1.9106688499450684,4.884947299957275,8.58784008026123
1711549398530077400,9.821077392578125,2.2612173557281494,4.870590686798096,8.183453559875488
1711549398549034800,9.84003466796875,2.3676979541778564,4.204189300537109,7.768298625946045
1711549398567992000,9.858991943359374,2.5710878372192383,3.5270206928253174,7.659425258636475
1711549398586949000,9.87794921875,2.1750757694244385,3.2374889850616455,7.915457248687744
1711549398605906400,9.896906494140625,1.6869399547576904,3.45882511138916,8.926424980163574
1711549398624863700,9.91586376953125,1.95852530002594,3.3308091163635254,9.796216011047363
1711549398643821000,9.934821044921875,2.4717857837677,2.6979074478149414,9.56889820098877
1711549398662778400,9.9537783203125,2.6452653408050537,2.562713146209717,8.96829891204834
1711549398681735400,9.9727353515625,2.458625316619873,2.754138946533203,8.474181175231934
1711549398700692700,9.991692626953125,2.4287149906158447,2.981456995010376,8.053044319152832
1711549398719650000,10.010650146484375,2.702693223953247,3.2279176712036133,7.700103282928467
1711549398738607000,10.029607177734375,3.014956474304199,3.4504501819610596,7.4739813804626465
1711549398757564400,10.048564453125,2.9419753551483154,3.6921253204345703,7.5433735847473145
1711549398776521700,10.067521728515626,2.8007988929748535,4.028316974639893,7.6869425773620605
1711549398795479000,10.08647900390625,2.579462766647339,4.1036906242370605,7.945367813110352
1711549398814436400,10.105436279296875,2.2408783435821533,4.327419757843018,8.663214683532715
1711549398833393700,10.1243935546875,2.0542383193969727,4.5583271980285645,9.548559188842773
1711549398852350700,10.143350830078125,2.169093608856201,4.42193603515625,9.452845573425293
1711549398871308000,10.16230810546875,2.231307029724121,4.232903480529785,8.980263710021973
1711549398890265300,10.181265380859376,2.1068804264068604,4.192225456237793,8.773283958435059
1711549398909222400,10.200222412109374,2.1236300468444824,4.088137626647949,8.530412673950195
1711549398928179700,10.2191796875,2.063809633255005,4.019941806793213,8.404789924621582
1711549398947137000,10.238136962890625,2.1439690589904785,4.016352653503418,8.318648338317871
1711549398966094300,10.25709423828125,2.1475582122802734,4.018745422363281,8.210970878601074
1711549398985051400,10.276051513671876,2.1092731952667236,4.054637908935547,8.384450912475586
1711549399004008700,10.2950087890625,2.0267207622528076,4.054637908935547,8.534002304077148
1711549399022966000,10.313966064453124,2.007578134536743,4.015156269073486,8.498109817504883
1711549399041923300,10.33292333984375,2.1511476039886475,4.095315933227539,8.512466430664062
1711549399060880600,10.351880615234375,2.3365912437438965,4.226921081542969,8.819944381713867
1711549399079837700,10.370837646484375,2.420340061187744,4.303491592407227,8.930013656616211
1711549399098795000,10.389794921875,2.4574289321899414,4.254438877105713,8.848658561706543
1711549399117752300,10.40875244140625,2.3736801147460938,4.192225456237793,8.81515884399414
1711549399136709400,10.42770947265625,2.444268226623535,4.281956195831299,8.80798053741455
1711549399155666700,10.446666748046875,2.4095723628997803,4.232903480529785,8.7505521774292
1711549399174624000,10.4656240234375,2.3461625576019287,4.098905086517334,8.677571296691895
1711549399193581300,10.484581298828125,2.231307029724121,3.923032760620117,8.660821914672852
1711549399212538400,10.503538330078126,2.0446670055389404,3.810570001602173,8.738588333129883
1711549399231495700,10.52249560546875,1.9010975360870361,3.7950167655944824,8.786444664001465
1711549399250453000,10.541452880859374,1.805384635925293,3.924229145050049,8.675178527832031
1711549399269410300,10.560410400390625,1.7419748306274414,4.115654945373535,8.513663291931152
1711549399288367400,10.579367431640625,1.7730815410614014,4.372883319854736,8.715856552124023
1711549399307324700,10.59832470703125,1.8041882514953613,4.347758769989014,9.251849174499512
1711549399326282000,10.617281982421876,2.0542383193969727,4.037888050079346,8.94676399230957
1711549399345239300,10.6362392578125,2.2408783435821533,3.8739798069000244,8.535198211669922
1711549399364196400,10.6551962890625,2.495713949203491,3.8632121086120605,8.409575462341309
1711549399383153700,10.674153564453125,2.7625136375427246,3.741178274154663,8.47178840637207
1711549399402111000,10.693111083984375,2.4370899200439453,3.964907169342041,8.514859199523926
1711549399421068000,10.712068115234375,2.504088878631592,4.267599105834961,8.25523853302002
1711549399440025300,10.731025390625,2.449054002761841,4.098905086517334,7.953742504119873
1711549399458982700,10.749982666015624,2.3473589420318604,3.9696927070617676,8.176275253295898
1711549399477939700,10.768939697265624,2.2468605041503906,3.82373046875,8.523234367370605
1711549399496897000,10.78789697265625,2.1511476039886475,3.6885361671447754,8.257631301879883
1711549399515854300,10.806854248046875,2.0303099155426025,3.954139471054077,8.388039588928223
1711549399534811600,10.825811767578125,1.786242127418518,4.4374895095825195,9.17886734008789
1711549399553768700,10.844768798828126,1.9334007501602173,4.510470867156982,9.355937004089355
1711549399572726000,10.86372607421875,1.9932212829589844,4.303491592407227,8.98385238647461
1711549399591683300,10.882683349609374,2.0757737159729004,4.351347923278809,8.707481384277344
1711549399610640600,10.901640625,2.2169501781463623,4.383651256561279,8.707481384277344
1711549399629597700,10.92059765625,2.5878376960754395,4.095315933227539,8.563912391662598
1711549399648555000,10.939554931640625,2.7074787616729736,3.731606960296631,7.9860453605651855
1711549399667512300,10.95851220703125,2.3437697887420654,3.913461446762085,7.724031448364258
1711549399686469400,10.977469482421874,1.934597134590149,4.596612453460693,8.147561073303223
1711549399705426700,10.9964267578125,1.6295121908187866,4.468596458435059,8.439485549926758
1711549399724384000,11.015384033203125,1.566102385520935,3.9876389503479004,8.595019340515137
1711549399743341000,11.034341064453125,1.373480200767517,4.074976921081543,8.842676162719727
1711549399762298400,11.05329833984375,1.2693923711776733,4.657629489898682,9.312865257263184
1711549399781255700,11.072255615234376,1.5984054803848267,4.828716278076172,9.69930648803711
1711549399800212700,11.091212646484376,1.9573289155960083,4.560719966888428,9.257830619812012
1711549399819170000,11.110170166015624,1.9836499691009521,4.339384078979492,8.784051895141602
1711549399838127400,11.12912744140625,1.911865234375,4.411168575286865,8.85344409942627
1711549399857084700,11.148084716796875,1.8640087842941284,4.508078098297119,9.024530410766602
1711549399876041700,11.167041748046875,1.8975083827972412,4.369294166564941,8.834300994873047
1711549399894999000,11.1859990234375,1.9250258207321167,4.285545349121094,8.579465866088867
1711549399913956400,11.204956298828124,1.7766708135604858,4.325026988983154,8.592626571655273
1711549399932913700,11.22391357421875,1.6498512029647827,4.4410786628723145,8.885746955871582
1711549399951871000,11.24287109375,1.568495273590088,4.438685894012451,9.147761344909668
1711549399970828000,11.261828125,1.6163517236709595,4.4374895095825195,9.236295700073242
1711549399989785300,11.280785400390625,1.7048860788345337,4.457828521728516,9.142974853515625
1711549400008742400,11.299742431640626,1.8113667964935303,3.970889091491699,9.028120040893555
1711549400027699700,11.31869970703125,1.7539390325546265,3.2817561626434326,8.632107734680176
1711549400046657000,11.337656982421874,1.5206388235092163,3.3439695835113525,8.543573379516602
1711549400065614300,11.3566142578125,1.6223337650299072,4.004388809204102,8.579465866088867
1711549400084571400,11.3755712890625,1.8508483171463013,4.258028030395508,8.47298526763916
1711549400103528700,11.39452880859375,1.6618152856826782,4.3549370765686035,8.360522270202637
1711549400122486000,11.413486083984376,1.7120646238327026,4.5236310958862305,8.70628547668457
1711549400141443300,11.432443359375,1.9692929983139038,4.514060020446777,8.907281875610352
1711549400160400600,11.451400634765625,2.2719850540161133,4.400400638580322,8.749356269836426
1711549400179358000,11.47035791015625,2.091326951980591,4.159922122955322,8.553144454956055
1711549400198315000,11.48931494140625,1.7982062101364136,4.078566074371338,8.415556907653809
1711549400217272300,11.508272216796875,1.4057832956314087,4.218546390533447,8.23848819732666
1711549400236229400,11.5272294921875,1.196411371231079,4.419543266296387,8.185846328735352
1711549400255186700,11.546186767578124,1.1210373640060425,4.504488468170166,8.009973526000977
1711549400274144000,11.56514404296875,1.1724830865859985,4.60857629776001,7.869993686676025
1711549400293101300,11.584101318359375,1.1653046607971191,4.782055854797363,8.330612182617188
1711549400312058600,11.60305859375,1.32921302318573,4.918447017669678,8.801998138427734
1711549400331016000,11.622015869140625,1.557727575302124,4.867001056671143,8.839086532592773
1711549400349973000,11.640972900390626,1.597209095954895,4.77248477935791,8.894122123718262
1711549400368930300,11.659930419921874,1.4883357286453247,4.73300313949585,9.312865257263184
1711549400387887600,11.6788876953125,1.25144624710083,4.667200565338135,9.549755096435547
1711549400406845000,11.697844970703125,1.1114661693572998,4.8538408279418945,9.438488960266113
1711549400425802000,11.716802001953125,1.1461620330810547,5.050052165985107,8.901300430297852
1711549400444759300,11.73575927734375,1.3435698747634888,4.968696117401123,8.469395637512207
1711549400463716600,11.754716552734376,1.3986048698425293,4.782055854797363,8.316255569458008
1711549400482674000,11.773673828125,1.3519448041915894,4.770092010498047,8.520841598510742
1711549400501631200,11.79263134765625,1.4991034269332886,4.466203689575195,8.597412109375
1711549400520588500,11.811588623046875,1.5936198234558105,4.185046672821045,8.50289535522461
1711549400539545900,11.8305458984375,1.5146567821502686,4.199403762817383,8.57468032836914
1711549400558503200,11.849503173828126,1.397408366203308,4.1623148918151855,8.57348346710205
1711549400577460200,11.868460205078126,1.2705888748168945,4.132404804229736,8.39282512664795
1711549400596417500,11.88741748046875,1.2179467678070068,4.218546390533447,8.422736167907715
1711549400615374800,11.906374755859375,1.306481122970581,4.000799655914307,8.35453987121582
1711549400634332200,11.925332275390625,1.3519448041915894,3.772284984588623,8.321041107177734
1711549400653289500,11.94428955078125,1.26699960231781,3.864408493041992,8.48016357421875
1711549400672246800,11.963246826171876,1.0600204467773438,4.168296813964844,8.803194046020508
1711549400691204000,11.9822041015625,0.9355936646461487,4.291527271270752,9.309276580810547
1711549400710161200,12.0011611328125,1.1521440744400024,3.8847475051879883,9.473184585571289
1711549400729118500,12.020118408203125,1.4380863904953003,3.5569307804107666,9.31166934967041
1711549400748075800,12.03907568359375,1.7120646238327026,3.610769271850586,9.113064765930176
1711549400767033000,12.058033203125,1.8855443000793457,3.724428415298462,8.885746955871582
1711549400785990400,12.076990478515626,1.908276081085205,3.665804386138916,8.657232284545898
1711549400804947700,12.09594775390625,1.8628123998641968,3.686143398284912,8.557929992675781
1711549400823905000,12.114905029296875,1.4847464561462402,3.9397823810577393,8.46461009979248
1711549400842862300,12.1338623046875,0.9547362327575684,4.497310161590576,8.693124771118164
1711549400861819400,12.1528193359375,0.5240281820297241,4.783252239227295,8.83071231842041
1711549400880776700,12.171776611328125,0.1495514214038849,4.899304389953613,8.959924697875977
1711549400899734300,12.190734375,-0.1423729509115219,5.163711071014404,9.317651748657227
1711549400918691600,12.209691650390624,-0.017946170642971992,5.154139995574951,9.598808288574219
1711549400937649000,12.22864892578125,0.5730810165405273,4.508078098297119,9.339186668395996
1711549400956606000,12.24760595703125,0.97148597240448,3.9110686779022217,8.943174362182617
1711549400975563300,12.266563232421875,0.9332008361816406,3.8524444103240967,8.96949577331543
1711549400994520600,12.2855205078125,0.5611169338226318,4.080958843231201,8.956335067749023
1711549401013478000,12.304477783203126,0.6819544434547424,4.164707660675049,8.921639442443848
1711549401032435200,12.323435302734374,0.6185446381568909,4.040280818939209,8.989834785461426
1711549401051392500,12.342392578125,0.4043870270252228,4.157529354095459,9.046066284179688
1711549401070349800,12.361349853515625,0.43190449476242065,4.278367042541504,9.467203140258789
1711549401089307100,12.38030712890625,0.833898663520813,3.970889091491699,9.340383529663086
1711549401108264400,12.399264404296876,1.1497513055801392,3.513859987258911,8.774480819702148
1711549401127221800,12.4182216796875,1.0097711086273193,3.6981074810028076,8.785248756408691
1711549401146179000,12.437178955078124,0.9367900490760803,4.260420799255371,8.941978454589844
1711549401165136400,12.456136474609375,1.191625714302063,4.23649263381958,8.549555778503418
1711549401184093700,12.47509375,1.3722838163375854,3.841676712036133,8.128418922424316
1711549401203051000,12.494051025390625,1.2430713176727295,3.840480327606201,8.327022552490234
1711549401222008300,12.51300830078125,1.046859860420227,3.9493536949157715,8.595019340515137
1711549401240965600,12.531965576171874,0.9750752449035645,3.9050865173339844,8.636893272399902
1711549401259923000,12.5509228515625,0.7429714202880859,4.004388809204102,8.758927345275879
1711549401278880300,12.56988037109375,0.7094719409942627,4.275974273681641,8.797212600708008
1711549401297837600,12.588837646484375,0.7920243144035339,4.485345840454102,8.483752250671387
1711549401316795000,12.607794921875,0.8135597109794617,4.475774765014648,8.358129501342773
1711549401335752200,12.626752197265626,0.6855437159538269,4.370490550994873,8.481359481811523
1711549401354709500,12.64570947265625,0.8279166221618652,4.266402721405029,8.6033935546875
1711549401373666800,12.664666748046875,1.074377417564392,4.232903480529785,8.396414756774902
1711549401392624000,12.6836240234375,1.2837493419647217,4.143172264099121,8.086544036865234
1711549401411581400,12.70258154296875,1.317248821258545,3.944568157196045,7.9489569664001465
1711549401430538800,12.721538818359376,1.0839486122131348,3.923032760620117,8.116454124450684
1711549401449496000,12.74049609375,0.8769695162773132,4.046263217926025,8.295916557312012
1711549401468453400,12.759453369140624,0.6807580590248108,4.1659040451049805,8.244470596313477
1711549401487411000,12.778410888671875,0.5168496966362,4.396811485290527,8.474181175231934
1711549401506368300,12.7973681640625,0.6041877269744873,4.6408796310424805,8.82951545715332
1711549401525325300,12.8163251953125,0.7489534616470337,4.748556613922119,8.930013656616211
1711549401544283000,12.835282958984376,0.8817551732063293,4.612165451049805,8.915657043457031
1711549401563240200,12.854240234375,0.6161518096923828,4.561916351318359,8.793622970581055
1711549401582197500,12.873197509765625,0.16271193325519562,4.894518852233887,8.927620887756348
1711549401601154800,12.89215478515625,0.02153540402650833,5.1529436111450195,9.002995491027832
1711549401620112100,12.911112060546875,0.17587246000766754,4.911268711090088,8.796015739440918
1711549401639069400,12.9300693359375,0.3326023519039154,4.6887359619140625,8.693124771118164
1711549401658026800,12.94902685546875,0.09212367236614227,4.813162803649902,8.72064208984375
1711549401676984000,12.967984130859374,-0.44745782017707825,5.233103275299072,8.738588333129883
1711549401695941400,12.98694140625,-0.3170489966869354,5.493920803070068,8.767302513122559
1711549401714899000,13.00589892578125,0.1052841991186142,5.267798900604248,8.37727165222168
1711549401733856300,13.024856201171875,0.41156548261642456,5.044070243835449,7.844869136810303
1711549401752813600,13.0438134765625,0.25363919138908386,5.584847927093506,7.761120319366455
1711549401771771000,13.06277099609375,-0.2679961323738098,6.270391941070557,8.105687141418457
1711549401790728200,13.081728271484375,-1.1054840087890625,6.206982135772705,8.636893272399902
1711549401809685500,13.100685546875,-1.6163517236709595,5.741578102111816,9.519845008850098
1711549401828642800,13.119642822265625,-1.3543375730514526,5.589633464813232,9.964909553527832
1711549401847600000,13.13860009765625,-0.22492532432079315,5.877968788146973,8.666803359985352
1711549401866557700,13.1575576171875,0.44027936458587646,5.947360515594482,7.690532207489014
1711549401885515000,13.176514892578124,-0.13878370821475983,5.942574977874756,7.345965385437012
1711549401904472300,13.195472412109375,-0.4295116662979126,5.697310924530029,7.624729156494141
1711549401923429600,13.2144296875,-0.3242274820804596,5.112265586853027,7.929814338684082
1711549401942387000,13.233386962890625,0.07417750358581543,4.626522541046143,7.58644437789917
1711549401961344500,13.252344482421876,-0.0526420995593071,4.743771076202393,7.487142086029053
1711549401980301800,13.2713017578125,-0.7154539823532104,5.276174068450928,7.87358283996582
1711549401999259100,13.290259033203125,-1.5086746215820312,5.995217323303223,8.23011302947998
1711549402018216400,13.309216552734375,-1.820937991142273,6.361319065093994,8.623732566833496
1711549402037173800,13.328173828125,-1.3351950645446777,6.029912948608398,8.700303077697754
1711549402056131000,13.347131103515625,-0.900897741317749,5.62672233581543,8.301898002624512
1711549402075088600,13.366088623046876,-0.8709874153137207,5.802595138549805,7.941778182983398
1711549402094046000,13.3850458984375,-0.9128618240356445,6.161518096923828,7.7252278327941895
1711549402113003300,13.404003173828125,-0.7860422134399414,6.350551128387451,7.471588611602783
1711549402131960600,13.422960693359375,-0.7034898400306702,6.346961975097656,7.083951473236084
1711549402150918000,13.44191796875,-0.7728816866874695,6.3493547439575195,6.80159854888916
1711549402169875500,13.46087548828125,-1.1377872228622437,6.468996047973633,7.11146879196167
1711549402188832800,13.479832763671874,-1.4057832956314087,6.643671989440918,7.871190071105957
1711549402207790000,13.4987900390625,-1.3160524368286133,6.473781585693359,8.556734085083008
1711549402226747400,13.517747314453125,-1.1868400573730469,6.177071571350098,8.663214683532715
1711549402245704700,13.53670458984375,-1.3040883541107178,6.130411624908447,8.58784008026123
1711549402264662000,13.555662109375,-1.5302101373672485,6.0466628074646,8.49452018737793
1711549402283619600,13.57461962890625,-1.397408366203308,5.856433391571045,8.279166221618652
1711549402302577000,13.593576904296874,-1.5014961957931519,5.941378593444824,7.82692289352417
1711549402321534200,13.6125341796875,-1.8616160154342651,6.380461692810059,7.921439170837402
1711549402340491500,13.631491455078125,-1.5385849475860596,6.482156753540039,8.080561637878418
1711549402359449000,13.650448974609375,-1.0169496536254883,6.391229152679443,7.848458290100098
1711549402378406400,13.669406494140626,-0.8374879360198975,6.478567123413086,7.636693477630615
1711549402397363700,13.68836376953125,-0.7046862840652466,6.701099872589111,7.69531774520874
1711549402416321000,13.707321044921875,-0.5539384484291077,6.905686378479004,7.7180495262146
1711549402435278300,13.7262783203125,-0.45104706287384033,6.742974281311035,7.726424217224121
1711549402454236000,13.74523583984375,-0.3613162338733673,6.468996047973633,7.6666035652160645
1711549402473193200,13.764193115234375,-0.2715853750705719,6.015556335449219,7.502695560455322
1711549402492150500,13.783150634765626,-0.259621262550354,5.581258773803711,7.2813591957092285
1711549402511107800,13.80210791015625,-0.41994038224220276,5.489135265350342,7.241877555847168
1711549402530065200,13.821065185546875,-0.729810893535614,5.6793646812438965,7.435696601867676
1711549402549022700,13.840022705078125,-0.9128618240356445,5.904289722442627,7.692924976348877
1711549402567980000,13.85897998046875,-0.778863787651062,6.029912948608398,7.714460372924805
1711549402586937300,13.877937255859376,-0.6029912829399109,5.976074695587158,7.616354465484619
1711549402605894700,13.896894775390624,-0.39122650027275085,5.889933109283447,7.653443336486816
1711549402624852200,13.915852294921875,-0.2883351147174835,5.838487148284912,7.569694519042969
1711549402643809500,13.9348095703125,-0.24885354936122894,5.803791522979736,7.323233604431152
1711549402662766800,13.953766845703125,-0.2021935135126114,5.7032928466796875,7.178467750549316
1711549402681724200,13.97272412109375,-0.059820566326379776,5.630311489105225,7.262216567993164
1711549402700681500,13.991681396484376,0.10169496387243271,5.598008632659912,7.412964344024658
1711549402719639000,14.01063916015625,0.11964113265275955,5.60399055480957,7.533802032470703
1711549402738596400,14.029596435546875,0.1698904037475586,5.686542987823486,7.762316703796387
1711549402757553700,14.0485537109375,0.31345975399017334,5.685346603393555,8.105687141418457
1711549402776511000,14.067510986328125,0.5443671345710754,5.552545070648193,8.292326927185059
1711549402795468500,14.086468505859376,0.7034898400306702,5.252245903015137,8.190631866455078
1711549402814425900,14.10542578125,0.5300102233886719,5.120640277862549,8.252845764160156
1711549402833383200,14.124383056640625,0.2560320198535919,5.19960355758667,8.597412109375
1711549402852340500,14.143340576171875,-0.014356935396790504,5.155336380004883,8.865407943725586
1711549402871298000,14.162298095703125,-0.1902294009923935,5.084748268127441,8.95394229888916
1711549402890255000,14.181255126953126,-0.22612173855304718,4.975874900817871,8.864211082458496
1711549402909212700,14.200212646484376,-0.19980068504810333,4.869394302368164,8.685946464538574
1711549402928170000,14.219169921875,-0.12203395366668701,4.874179840087891,8.508877754211426
1711549402947127300,14.238127197265625,-0.21176479756832123,4.907679080963135,8.422736167907715
1711549402966084600,14.257084716796875,-0.24646073579788208,5.01296329498291,8.553144454956055
1711549402985042200,14.276042236328125,-0.19621145725250244,5.203192710876465,8.81515884399414
1711549403003999500,14.29499951171875,0.1579262912273407,5.197210788726807,9.023334503173828
1711549403022956800,14.313956787109374,0.5084748268127441,5.002195835113525,8.782855987548828
1711549403041914000,14.3329140625,0.7501499056816101,4.8574299812316895,8.572287559509277
1711549403060871700,14.35187158203125,0.8614161610603333,4.72582483291626,8.388039588928223
1711549403079829000,14.3708291015625,0.7070791125297546,4.697110652923584,8.342576026916504
1711549403098786300,14.389786376953126,0.6652047038078308,4.738985061645508,8.526823043823242
1711549403117743600,14.40874365234375,0.7202396392822266,4.627718925476074,8.48853874206543
1711549403136701200,14.427701171875,0.641276478767395,4.406383037567139,8.481359481811523
1711549403155658200,14.446658203125,0.5527420043945312,4.204189300537109,8.46461009979248
1711549403174615800,14.46561572265625,0.6209374666213989,4.07258415222168,8.475378036499023
1711549403193573000,14.484572998046875,0.6604190468788147,4.0558342933654785,8.590232849121094
1711549403212530400,14.503530517578126,0.6472585201263428,4.202992916107178,8.81515884399414
1711549403231487700,14.52248779296875,0.5994020700454712,4.320241451263428,9.08554744720459
1711549403250445300,14.5414453125,0.6903293132781982,4.180261135101318,9.213563919067383
1711549403269402600,14.560402587890625,0.9583254456520081,3.9086756706237793,9.084351539611816
1711549403288360000,14.57935986328125,1.293320655822754,3.8081772327423096,8.837890625
1711549403307317200,14.598317138671876,1.397408366203308,3.9792640209198,8.874979019165039
1711549403326274600,14.617274658203126,1.5206388235092163,4.234099864959717,9.221938133239746
1711549403345232100,14.636232177734374,1.781456470489502,4.182653903961182,9.401400566101074
1711549403364189400,14.655189453125,2.0315065383911133,3.8763725757598877,9.243474006652832
1711549403383146800,14.674146728515625,2.2480568885803223,3.6167514324188232,9.290133476257324
1711549403402104000,14.69310400390625,2.3126630783081055,3.594019651412964,9.517452239990234
1711549403421061400,14.712061279296876,2.032702922821045,3.5808591842651367,9.761520385742188
1711549403440018700,14.731018798828124,1.7802600860595703,3.1585259437561035,9.745966911315918
1711549403458976300,14.749976318359375,1.4428720474243164,2.6703901290893555,9.352347373962402
1711549403477933600,14.76893359375,1.2873386144638062,2.528017044067383,9.028120040893555
1711549403496891000,14.787890869140625,0.9966106414794922,2.7146573066711426,8.894122123718262
1711549403515848200,14.80684814453125,0.9487541913986206,2.6668007373809814,8.724231719970703
1711549403534805500,14.825805419921876,0.9966106414794922,2.4083759784698486,8.380861282348633
1711549403553762800,14.8447626953125,1.1341979503631592,2.128415822982788,8.153543472290039
1711549403572720400,14.863720458984375,1.2406785488128662,2.038684844970703,8.163114547729492
1711549403591677700,14.882677734375,1.4141582250595093,2.0745773315429688,8.218149185180664
1711549403610635000,14.901635009765625,1.592423439025879,2.225325107574463,8.517251968383789
1711549403629592300,14.92059228515625,1.7491533756256104,2.3988046646118164,8.82951545715332
1711549403648549600,14.939549560546874,2.0267207622528076,2.6356940269470215,9.067601203918457
1711549403667507200,14.958507080078125,2.6261229515075684,2.988635540008545,10.085747718811035
1711549403686464500,14.977464599609375,2.8893332481384277,2.5423741340637207,11.01296615600586
1711549403705421800,14.996421875,1.8783657550811768,2.4047868251800537,10.789237022399902
1711549403724379100,15.015379150390626,1.0887342691421509,3.0388846397399902,9.828518867492676
1711549403743336400,15.03433642578125,1.26699960231781,3.840480327606201,8.608179092407227
1711549403762293800,15.053293701171874,2.2671995162963867,4.296313285827637,8.562715530395508
1711549403781251000,15.0722509765625,2.5639095306396484,4.299902439117432,8.975478172302246
1711549403800208400,15.09120849609375,2.6739792823791504,4.657629489898682,8.62612533569336
1711549403819166000,15.110166015625,2.2612173557281494,5.004588603973389,7.934599876403809
1711549403838123300,15.129123291015626,2.2301106452941895,4.721039295196533,7.712067604064941
1711549403857080600,15.14808056640625,2.3270199298858643,4.169493675231934,8.088936805725098
1711549403876038000,15.167037841796875,1.7491533756256104,3.9086756706237793,8.669196128845215
1711549403894995200,15.1859951171875,1.511067509651184,4.019941806793213,8.897710800170898
1711549403913952500,15.204952392578125,1.456032633781433,4.271188259124756,8.847461700439453
1711549403932909800,15.223909912109375,0.9882357716560364,4.638486862182617,8.756534576416016
1711549403951867400,15.242867431640626,0.7106683254241943,4.870590686798096,8.34855842590332
1711549403970824700,15.26182470703125,0.592223584651947,4.895715236663818,8.011170387268066
1711549403989782000,15.280781982421875,0.5335994362831116,4.875376224517822,8.258827209472656
1711549404008739300,15.2997392578125,0.47258245944976807,4.832305431365967,8.892925262451172
1711549404027696600,15.318696533203125,0.4366901218891144,4.990231513977051,9.452845573425293
1711549404046654000,15.337654052734376,0.3924229145050049,5.197210788726807,9.772287368774414
1711549404065611300,15.356611328125,0.30987054109573364,4.901697158813477,9.659825325012207
1711549404084568600,15.375568603515624,0.2560320198535919,4.4135613441467285,9.357132911682129
1711549404103526100,15.394526123046875,0.16390834748744965,4.187439441680908,9.042476654052734
1711549404122483500,15.4134833984375,0.20338992774486542,4.212564468383789,9.111868858337402
1711549404141440800,15.432440673828125,0.2715853750705719,3.9732820987701416,8.879764556884766
1711549404160398000,15.451398193359376,0.24287149310112,3.8536407947540283,8.617751121520996
1711549404179355400,15.47035546875,0.014356935396790504,3.9314076900482178,8.648857116699219
1711549404198312700,15.489312744140625,-0.15672987699508667,3.9840497970581055,8.85224723815918
1711549404217270000,15.50827001953125,-0.5335994362831116,3.5988051891326904,8.94676399230957
1711549404236227300,15.527227294921875,-0.7513462901115417,3.0556344985961914,8.62014389038086
1711549404255184600,15.5461845703125,-0.8817551732063293,2.520838737487793,8.038687705993652
1711549404274142200,15.56514208984375,-0.6747759580612183,2.0889341831207275,7.798209190368652
1711549404293099500,15.584099609375,-0.48095735907554626,1.978864312171936,8.666803359985352
1711549404312056800,15.603056884765625,-0.18305093050003052,1.9573289155960083,10.04148006439209
1711549404331014100,15.62201416015625,0.8350951075553894,1.633101463317871,10.583454132080078
1711549404349971500,15.640971435546875,1.0061819553375244,1.597209095954895,9.389435768127441
1711549404368928800,15.6599287109375,0.9930213689804077,2.465803623199463,7.674978733062744
1711549404387886000,15.678885986328124,0.9499505758285522,2.5974090099334717,6.6352972984313965
1711549404406843400,15.697843505859375,1.4500504732131958,2.678765058517456,6.6915283203125
1711549404425800700,15.71680078125,3.3894333839416504,3.5988051891326904,7.389036178588867
1711549404444758000,15.735758056640625,2.675175666809082,5.296513080596924,9.268598556518555
1711549404463715300,15.75471533203125,2.042274236679077,5.4867424964904785,10.77129077911377
1711549404482672600,15.773672607421876,2.4287149906158447,3.8668015003204346,9.644271850585938
1711549404501630200,15.792630126953124,2.359323024749756,3.321237802505493,8.221738815307617
1711549404520587500,15.81158740234375,1.9836499691009521,3.9182469844818115,7.347161769866943
1711549404539544800,15.830544921875,2.2815563678741455,4.1144585609436035,7.055237770080566
1711549404558502100,15.849502197265625,3.9050865173339844,3.6323046684265137,6.976274490356445
1711549404577459500,15.86845947265625,3.9912281036376953,3.0867412090301514,8.12961483001709
1711549404596416800,15.887416748046874,3.737588882446289,2.8247270584106445,8.196614265441895
1711549404615374000,15.9063740234375,3.8045880794525146,2.504088878631592,6.750152587890625
1711549404634331400,15.925331298828125,3.67657208442688,2.6799614429473877,5.4556355476379395
1711549404653288700,15.944288818359375,4.512863636016846,2.9551360607147217,6.0502519607543945
1711549404672246000,15.96324609375,5.1182475090026855,2.985046148300171,5.941378593444824
1711549404691203300,15.982203369140626,6.315855503082275,3.651447296142578,7.903493404388428
1711549404710160600,16.00116064453125,5.8959150314331055,4.363312244415283,8.260024070739746
1711549404729118000,16.020117919921876,6.620940208435059,4.247260093688965,8.002795219421387
1711549404748075300,16.0390751953125,6.484549522399902,4.097708702087402,8.330612182617188
1711549404767032800,16.05803271484375,7.032505512237549,4.534399032592773,8.380861282348633
1711549404785990100,16.076990234375,7.201199531555176,4.5391845703125,8.441878318786621
1711549404804947500,16.095947509765626,7.676175117492676,4.150351047515869,7.779066562652588
1711549404823904800,16.11490478515625,7.354340553283691,4.015156269073486,7.519444942474365
1711549404842862000,16.133862060546875,7.264609336853027,3.8333017826080322,7.622336387634277
1711549404861819400,16.1528193359375,7.103094100952148,3.5150563716888428,7.694121360778809
1711549404880776700,16.171776611328124,7.0683979988098145,3.0209386348724365,7.824530124664307
1711549404899734000,16.190734130859376,6.729813575744629,2.89890456199646,8.072187423706055
1711549404918691300,16.20969140625,6.370890140533447,3.16331148147583,8.210970878601074
1711549404937648600,16.228648681640625,6.27996301651001,3.4301111698150635,8.304290771484375
1711549404956606000,16.24760595703125,6.400800704956055,3.273381471633911,7.878368377685547
1711549404975563300,16.266563232421873,6.401997089385986,2.583052158355713,7.0755767822265625
1711549404994520600,16.2855205078125,6.716653347015381,2.0243279933929443,5.810969829559326
1711549405013478100,16.30447802734375,6.936792850494385,2.4047868251800537,5.431707382202148
1711549405032435500,16.323435546875,6.4701924324035645,2.7661030292510986,6.179464340209961
1711549405051392500,16.342392578125,5.799005508422852,3.243471145629883,7.417750358581543
1711549405070350000,16.36135009765625,5.200799942016602,4.088137626647949,8.828319549560547
1711549405089307400,16.380307373046875,5.051248550415039,4.278367042541504,9.505488395690918
1711549405108264700,16.3992646484375,4.961517810821533,3.9864425659179688,9.308079719543457
1711549405127222000,16.418221923828124,4.537988185882568,3.2027931213378906,8.055437088012695
1711549405146179300,16.437179443359376,4.151547431945801,2.7361927032470703,7.144968509674072
1711549405165136600,16.45613671875,4.0833516120910645,3.2925238609313965,7.33759069442749
1711549405184094000,16.475093994140625,4.433900356292725,4.053441524505615,8.37727165222168
1711549405203051300,16.49405126953125,4.803591251373291,4.716253280639648,9.351150512695312
1711549405222008600,16.513008544921874,4.996213912963867,4.869394302368164,9.163313865661621
1711549405240966000,16.5319658203125,5.282155990600586,4.9878387451171875,8.46341323852539
1711549405259923500,16.55092333984375,5.3934221267700195,5.222335338592529,7.8388872146606445
1711549405278880800,16.569880859375,5.584847927093506,5.420939922332764,7.51585578918457
1711549405297837800,16.588837890625,5.693721294403076,5.966503143310547,7.668996810913086
1711549405316795400,16.60779541015625,5.7547383308410645,6.391229152679443,7.410571575164795
1711549405335752700,16.626752685546876,5.948556900024414,6.744170665740967,7.091129779815674
1711549405354710000,16.6457099609375,6.175875186920166,7.165307521820068,6.905686378479004
1711549405373667300,16.664667236328125,5.8133625984191895,7.77188777923584,6.318248271942139
1711549405392624600,16.683624755859373,5.531009674072266,7.651050567626953,5.931807518005371
1711549405411582000,16.70258203125,4.887340068817139,7.5673017501831055,5.9509501457214355
1711549405430539300,16.721539306640626,4.533202648162842,7.551748275756836,6.534798622131348
1711549405449496600,16.74049658203125,3.978067636489868,7.874779224395752,6.668796539306641
1711549405468454000,16.759453857421875,3.87876558303833,7.2681989669799805,6.409175395965576
1711549405487411500,16.778411376953127,3.786641836166382,7.069594383239746,5.72841739654541
1711549405506368800,16.79736865234375,3.7435710430145264,6.764509677886963,5.5728840827941895
1711549405525326000,16.816326171875,3.4576287269592285,6.703492641448975,5.736792087554932
1711549405544283400,16.835283447265624,2.8869404792785645,6.87816858291626,5.764309883117676
1711549405563240700,16.85424072265625,3.150151014328003,6.887740135192871,5.588437080383301
1711549405582198000,16.873197998046876,3.2231321334838867,6.954739093780518,5.175675392150879
1711549405601155300,16.8921552734375,3.376272678375244,6.690331935882568,5.014159679412842
1711549405620112600,16.911112548828125,3.579662561416626,7.923832416534424,5.881557941436768
1711549405639070200,16.9300703125,2.8115665912628174,9.473184585571289,5.6685967445373535
1711549405658027500,16.949027587890626,2.8689942359924316,9.57607650756836,5.4795637130737305
1711549405676984800,16.96798486328125,2.816352367401123,9.519845008850098,5.010570526123047
1711549405695942100,16.986942138671875,2.730210542678833,8.96949577331543,4.707878589630127
1711549405714899500,17.0058994140625,2.9204399585723877,8.624929428100586,4.809573650360107
1711549405733856800,17.024856689453124,2.8115665912628174,8.60459041595459,4.254438877105713
1711549405752814000,17.04381396484375,2.066202402114868,8.214560508728027,4.041477680206299
1711549405771771400,17.062771484375,1.5852450132369995,7.7455668449401855,3.975674867630005
1711549405790729000,17.08172900390625,1.545763373374939,7.716853141784668,3.7806596755981445
1711549405809686300,17.100686279296873,1.8029918670654297,8.126026153564453,3.4791641235351562
1711549405828643600,17.1196435546875,1.770688772201538,7.598408222198486,2.8223342895507812
1711549405847601000,17.138600830078126,1.7647067308425903,6.616154670715332,3.2171499729156494
1711549405866558200,17.15755810546875,1.6031911373138428,6.6352972984313965,3.432504177093506
1711549405885515500,17.176515625,2.1619153022766113,7.10429048538208,3.321237802505493
1711549405904472800,17.195472900390627,2.445464849472046,7.891529083251953,3.239881753921509
1711549405923430400,17.214430419921875,2.4909284114837646,8.142775535583496,2.857030153274536
1711549405942387700,17.2333876953125,2.825923442840576,8.22413158416748,2.6117658615112305
1711549405961345000,17.252344970703124,2.9001009464263916,8.204988479614258,2.586641311645508
1711549405980302300,17.27130224609375,3.1238300800323486,8.132007598876953,2.551945447921753
1711549405999259600,17.290259765625,2.902493953704834,8.311469078063965,2.6141586303710938
1711549406018217200,17.30921728515625,2.706282377243042,8.683553695678711,2.7768707275390625
1711549406037174300,17.32817431640625,2.6775684356689453,8.35453987121582,2.5878376960754395
1711549406056131800,17.3471318359375,2.606980323791504,7.987242221832275,2.5591237545013428
1711549406075089200,17.366089111328126,2.5387847423553467,7.520641803741455,2.4921247959136963
1711549406094046500,17.38504638671875,2.623729944229126,7.404589653015137,2.4849462509155273
1711549406113003800,17.404003662109375,2.5387847423553467,7.8077802658081055,2.5914268493652344
1711549406131961300,17.42296142578125,2.496910333633423,8.061419486999512,2.932404041290283
1711549406150918700,17.441918701171875,2.940778970718384,8.199007034301758,2.8677978515625
1711549406169876000,17.4608759765625,3.0975089073181152,8.74337387084961,2.7074787616729736
1711549406188833300,17.479833251953124,2.6273193359375,9.751948356628418,2.9180471897125244
1711549406207790600,17.49879052734375,2.2600209712982178,10.14437198638916,3.0628130435943604
1711549406226748200,17.517748046875,2.038684844970703,9.89551830291748,3.2781670093536377
1711549406245705500,17.53670556640625,1.765903115272522,9.719645500183105,2.9694929122924805
1711549406264662800,17.555662841796874,1.6223337650299072,9.30329418182373,3.4085757732391357
1711549406283620000,17.5746201171875,2.5088746547698975,8.900103569030762,3.913461446762085
1711549406302577400,17.593577392578126,2.5567309856414795,9.138189315795898,3.8668015003204346
1711549406321534700,17.61253466796875,2.3054845333099365,9.262616157531738,3.957728624343872
1711549406340492300,17.6314921875,2.0578274726867676,9.517452239990234,4.208974838256836
1711549406359449600,17.65044970703125,2.2025933265686035,9.54377269744873,4.394418716430664
1711549406378407000,17.669406982421876,2.423929452896118,8.876175880432129,4.336990833282471
1711549406397364200,17.6883642578125,2.56510591506958,8.117650985717773,4.04985237121582
1711549406416321800,17.70732177734375,2.231307029724121,7.945367813110352,4.070191383361816
1711549406435279000,17.726279052734377,2.4909284114837646,8.319844245910645,4.4410786628723145
1711549406454236400,17.745236328125,2.985046148300171,8.880961418151855,4.348955154418945
1711549406473193700,17.76419384765625,3.043670415878296,8.952746391296387,3.845266103744507
1711549406492151300,17.7831513671875,2.8654050827026367,8.670392990112305,4.778466701507568
1711549406511108400,17.8021083984375,2.9012975692749023,8.147561073303223,5.08355188369751
1711549406530066000,17.82106591796875,3.3379876613616943,7.823333740234375,4.989035129547119
1711549406549023200,17.840023193359375,3.9948174953460693,8.153543472290039,4.6372904777526855
1711549406567980500,17.85898046875,3.6909289360046387,8.989834785461426,4.931607246398926
1711549406586937900,17.877937744140624,3.3032915592193604,9.250652313232422,5.325226783752441
1711549406605895400,17.8968955078125,3.2721848487854004,8.717052459716797,5.076373100280762
1711549406624852700,17.915852783203125,3.174079179763794,8.34855842590332,4.794020175933838
1711549406643810000,17.93481005859375,2.6799614429473877,8.851051330566406,5.30129861831665
1711549406662767600,17.953767578125,2.166700839996338,9.524630546569824,5.606383323669434
1711549406681725000,17.972724853515626,2.2337000370025635,9.024530410766602,5.191228866577148
1711549406700682200,17.99168212890625,2.902493953704834,8.093722343444824,4.863411903381348
1711549406719639600,18.0106396484375,3.2099716663360596,7.7563347816467285,4.928018093109131
1711549406738597000,18.02959716796875,3.2745778560638428,8.025527000427246,5.627918720245361
1711549406757554400,18.048554443359375,3.404986619949341,8.555537223815918,6.220142364501953
1711549406776511700,18.06751171875,3.28773832321167,8.400003433227539,5.842076301574707
1711549406795469000,18.086468994140624,3.786641836166382,7.872386455535889,5.485546112060547
1711549406814426400,18.10542626953125,4.101297855377197,7.88076114654541,5.258227825164795
1711549406833384000,18.124384033203125,4.406383037567139,8.427521705627441,5.353940486907959
1711549406852341200,18.14334130859375,4.443471431732178,8.872586250305176,5.5932230949401855
1711549406871298600,18.162298583984374,4.816751956939697,9.133403778076172,5.781059741973877
1711549406890256100,18.181256103515626,5.218746185302734,8.653642654418945,5.408975601196289
1711549406909213400,18.20021337890625,4.7712883949279785,7.978867053985596,5.014159679412842
1711549406928170800,18.219170654296875,4.211368083953857,8.039883613586426,5.400600910186768
1711549406947128000,18.238128173828127,3.946960926055908,8.132007598876953,5.72841739654541
1711549406966085600,18.257085693359375,3.867997884750366,7.9585280418396,5.912664890289307
1711549406985043000,18.27604296875,3.3690943717956543,7.451249599456787,5.318048477172852
1711549407004000300,18.295000244140624,2.8833513259887695,6.928418159484863,4.920839786529541
1711549407022957800,18.313957763671876,2.9551360607147217,6.439085960388184,5.172086238861084
1711549407041915100,18.3329150390625,2.7661030292510986,6.156732559204102,5.497509956359863
1711549407060872400,18.35187255859375,2.932404041290283,6.119643688201904,5.656632900238037
1711549407079829800,18.370829833984374,3.0891339778900146,5.3694939613342285,5.054837703704834
1711549407098787300,18.389787353515626,2.8893332481384277,5.0811591148376465,4.537988185882568
1711549407117744600,18.40874462890625,2.737389087677002,5.588437080383301,5.082355499267578
1711549407136702000,18.427701904296875,3.2853455543518066,5.589633464813232,5.161318302154541
1711549407155659500,18.446659423828127,3.345165967941284,5.900700569152832,5.125426292419434
1711549407174616800,18.465616943359375,3.2757742404937744,6.454638957977295,5.3455657958984375
1711549407193574100,18.48457421875,3.294916868209839,6.698707103729248,5.501099109649658
1711549407212531700,18.50353173828125,3.236292600631714,7.106683254241943,5.588437080383301
1711549407231488800,18.52248876953125,3.2554352283477783,7.526623725891113,5.429314613342285
1711549407250446300,18.5414462890625,3.6885361671447754,7.539783954620361,5.554937839508057
1711549407269403600,18.560403564453125,3.906282901763916,7.506284713745117,5.971288681030273
1711549407288361000,18.57936083984375,3.9589250087738037,7.564908981323242,5.795416355133057
1711549407307318500,18.598318603515626,3.6335012912750244,7.989634990692139,5.66620397567749
1711549407326275800,18.61727587890625,3.513859987258911,8.161917686462402,6.014359951019287
1711549407345233200,18.636233154296875,4.205385684967041,7.5673017501831055,5.441278457641602
1711549407364190700,18.655190673828123,4.5547380447387695,7.082755088806152,5.213960647583008
1711549407383148000,18.67414794921875,4.423132419586182,6.91765022277832,4.960321426391602
1711549407402105300,18.693105224609376,4.1036906242370605,7.149754047393799,4.742574691772461
1711549407421062700,18.712062744140624,3.9912281036376953,6.897311210632324,4.527220249176025
1711549407440020200,18.731020263671876,3.6705899238586426,6.927221775054932,4.4243292808532715
1711549407458977500,18.7499775390625,3.3176486492156982,6.921239376068115,4.577469825744629
1711549407477934800,18.768934814453125,2.9204399585723877,7.194021224975586,4.761716842651367
1711549407496892400,18.787892333984374,2.4885356426239014,7.683353424072266,4.851448059082031
1711549407515849700,18.806849609375,2.1439690589904785,7.947760581970215,4.986642360687256
1711549407534807000,18.82580712890625,1.7982062101364136,8.100900650024414,5.249852657318115
1711549407553764600,18.8447646484375,1.4943177700042725,7.992027759552002,5.31685209274292
1711549407572722000,18.863721923828123,1.683350682258606,7.585247993469238,5.023731231689453
1711549407591679200,18.88267919921875,2.2755744457244873,7.135396957397461,4.835894584655762
1711549407610636500,18.901636474609376,2.7972097396850586,6.294320106506348,4.78803825378418
1711549407629593900,18.92059375,2.5184457302093506,7.026523590087891,4.811966419219971
1711549407648551400,18.939551513671876,2.568695068359375,8.384450912475586,5.095515727996826
1711549407667508700,18.9585087890625,3.3822548389434814,7.64865779876709,6.198606967926025
1711549407686466000,18.977466064453125,3.5150563716888428,7.159325122833252,6.8554368019104
1711549407705423600,18.996423583984374,3.397808074951172,7.448856830596924,7.377072334289551
1711549407724381000,19.015380859375,3.8213376998901367,7.421339511871338,7.874779224395752
1711549407743338200,19.034338134765626,3.757927894592285,7.171289443969727,7.45364236831665
1711549407762295600,19.053295654296875,3.4959139823913574,7.149754047393799,7.501499176025391
1711549407781253000,19.072253173828123,2.8582265377044678,6.671189308166504,7.355536937713623
1711549407800210400,19.09121044921875,2.724228620529175,5.873183250427246,6.945167541503906
1711549407819167700,19.110167724609376,2.9383862018585205,6.370890140533447,6.175875186920166
1711549407838125000,19.129125,3.032902717590332,6.482156753540039,6.704689025878906
1711549407857082600,19.14808251953125,3.135794162750244,6.514459609985352,7.140182971954346
1711549407876040000,19.1670400390625,3.1585259437561035,6.233303070068359,7.3292155265808105
1711549407894997200,19.185997314453125,3.1334011554718018,6.190232276916504,6.814758777618408
1711549407913954800,19.204954833984374,3.056830883026123,6.100501537322998,7.0923261642456055
1711549407932912000,19.223912109375,3.0376882553100586,5.6925249099731445,7.211967468261719
1711549407951869400,19.242869384765626,2.902493953704834,5.831308841705322,6.480959892272949
1711549407970826800,19.26182666015625,2.7661030292510986,5.554937839508057,6.6592254638671875
1711549407989784000,19.2807841796875,2.609373092651367,5.143372058868408,6.558726787567139
1711549408008741600,19.29974169921875,2.56510591506958,4.923232555389404,6.321837425231934
1711549408027699000,19.318698974609376,2.6368906497955322,5.052444934844971,6.4701924324035645
1711549408046656300,19.33765625,2.6189444065093994,6.003592014312744,6.25723123550415
1711549408065613600,19.356613525390625,2.8737800121307373,6.278766632080078,6.75374174118042
1711549408084571100,19.375571044921877,2.641676187515259,5.843272686004639,6.678368091583252
1711549408103528400,19.394528564453125,2.6668007373809814,6.100501537322998,6.367300987243652
1711549408122485800,19.41348583984375,2.4717857837677,6.251249313354492,6.647261142730713
1711549408141443000,19.432443115234374,2.063809633255005,6.929614543914795,5.812166213989258
1711549408160400600,19.451400634765626,4.098905086517334,8.353343963623047,7.025327205657959
1711549408179358000,19.47035791015625,5.670989513397217,7.229913711547852,8.066205024719238
1711549408198315300,19.489315185546875,4.275974273681641,7.3986077308654785,5.891129493713379
1711549408217272600,19.5082724609375,4.158725738525391,7.241877555847168,5.465207099914551
1711549408236230100,19.527230224609376,4.3310089111328125,7.359126091003418,5.767899036407471
1711549408255187200,19.546187255859376,4.54636287689209,7.335197925567627,6.705885410308838
1711549408274144800,19.565144775390625,4.260420799255371,7.130611419677734,6.826723098754883
1711549408293102000,19.58410205078125,3.342773199081421,7.113861560821533,6.044270038604736
1711549408312059400,19.603059326171874,2.9180471897125244,6.930810928344727,5.964110374450684
1711549408331016700,19.6220166015625,2.8283164501190186,6.80877685546875,6.16271448135376
1711549408349974300,19.640974365234374,3.2745778560638428,6.374479293823242,6.096911907196045
1711549408368931600,19.659931640625,3.3379876613616943,6.308676719665527,6.1675004959106445
1711549408387889000,19.678888916015627,3.032902717590332,6.954739093780518,5.826523303985596
1711549408406846200,19.69784619140625,2.709871530532837,7.584051132202148,5.607579708099365
1711549408425803500,19.716803466796875,2.857030153274536,7.465606689453125,5.684150218963623
1711549408444761000,19.735760986328124,2.8486554622650146,7.609176158905029,5.4173502922058105
1711549408463718400,19.754718505859376,3.2315070629119873,7.606783390045166,5.5932230949401855
1711549408482675700,19.77367578125,3.517449378967285,7.385447025299072,5.669793128967285
1711549408501633000,19.792633056640625,3.504288673400879,7.375875949859619,5.670989513397217
1711549408520590300,19.81159033203125,3.046063184738159,7.393822193145752,5.374279499053955
1711549408539547600,19.830547607421874,2.781656265258789,7.489534854888916,5.340780258178711
1711549408558505200,19.849505126953126,2.8809585571289062,7.475177764892578,5.0907301902771
1711549408577462500,19.868462646484375,2.695514678955078,7.424928665161133,4.835894584655762
1711549408596419800,19.887419921875,2.3509483337402344,7.539783954620361,5.00578498840332
1711549408615377200,19.906377197265623,2.2648067474365234,7.940581798553467,5.026124000549316
1711549408634334500,19.92533447265625,2.444268226623535,8.100900650024414,5.123033046722412
1711549408653291800,19.944291748046876,2.5914268493652344,8.050651550292969,5.149354457855225
1711549408672249000,19.9632490234375,2.6739792823791504,8.310273170471191,4.898108005523682
1711549408691206700,19.98220654296875,2.953939437866211,8.422736167907715,5.056034088134766
1711549408710164000,20.0011640625,3.0963125228881836,8.810373306274414,5.265406131744385
1711549408729121300,20.020121337890625,3.2027931213378906,9.083154678344727,5.290530681610107
1711549408748078600,20.03907861328125,3.3547372817993164,9.026923179626465,5.270191669464111
1711549408767036000,20.058035888671874,3.404986619949341,8.82114028930664,5.072783946990967
1711549408785993500,20.076993408203126,3.276970624923706,8.537590980529785,4.693521499633789
1711549408804950500,20.095950439453127,2.9204399585723877,8.191828727722168,4.7030930519104
1711549408823908000,20.114908203125,2.8342983722686768,8.061419486999512,4.5391845703125
1711549408842865400,20.133865478515624,2.8689942359924316,8.14397144317627,4.596612453460693
1711549408861822700,20.15282275390625,2.7984061241149902,8.057829856872559,4.845465660095215
1711549408880780000,20.171780029296876,2.6392834186553955,8.001599311828613,4.7126641273498535
1711549408899737300,20.1907373046875,2.4011974334716797,8.173882484436035,4.412364959716797
1711549408918694700,20.209694580078125,2.4670002460479736,8.024331092834473,4.336990833282471
1711549408937652200,20.22865234375,2.572284460067749,7.679764270782471,4.419543266296387
1711549408956609300,20.247609375,2.4131617546081543,7.582854747772217,4.089334011077881
1711549408975566800,20.26656689453125,1.8831514120101929,7.848458290100098,4.269991874694824
1711549408994524200,20.285524169921874,2.118844509124756,7.989634990692139,4.340580463409424
1711549409013481500,20.3044814453125,2.7625136375427246,7.750352382659912,4.859822750091553
1711549409032438800,20.323438720703123,3.050848960876465,7.584051132202148,5.071587562561035
1711549409051396000,20.34239599609375,2.9934210777282715,7.676175117492676,4.84187650680542
1711549409070353400,20.361353515625,2.8283164501190186,8.181060791015625,4.71027135848999
1711549409089310700,20.380310791015624,2.6488547325134277,8.508877754211426,4.882554531097412
1711549409108268000,20.39926806640625,2.999403238296509,8.258827209472656,5.027320384979248
1711549409127225300,20.418225341796877,3.239881753921509,8.256434440612793,5.521438121795654
1711549409146183000,20.437182861328125,3.205185890197754,8.46580696105957,5.676971912384033
1711549409165140200,20.45614013671875,3.105883836746216,8.400003433227539,5.614758491516113
1711549409184097500,20.47509765625,3.1417760848999023,7.926225185394287,5.209175109863281
1711549409203054800,20.494054931640626,3.1585259437561035,7.630711555480957,5.050052165985107
1711549409222012200,20.51301220703125,3.1310083866119385,7.6869425773620605,5.069194793701172
1711549409240969500,20.531969482421875,3.142972469329834,7.897511005401611,4.945964336395264
1711549409259926800,20.5509267578125,3.166900873184204,7.823333740234375,4.887340068817139
1711549409278884000,20.569884033203124,3.2961132526397705,7.867600917816162,4.917250633239746
1711549409297841400,20.58884130859375,3.2410783767700195,7.939385414123535,5.113461971282959
1711549409316798700,20.607798828125,3.19441819190979,8.015955924987793,5.1182475090026855
1711549409335756300,20.62675634765625,3.1178479194641113,7.940581798553467,5.55733060836792
1711549409354713300,20.64571337890625,3.0867412090301514,7.706085205078125,5.916254043579102
1711549409373670700,20.664670654296874,2.963510751724243,7.2059855461120605,6.100501537322998
1711549409392628200,20.683628173828126,2.819941520690918,6.869793891906738,6.14835786819458
1711549409411585500,20.70258544921875,2.7122645378112793,6.865008354187012,6.151947021484375
1711549409430542800,20.72154296875,2.5603201389312744,6.802794933319092,6.120840549468994
1711549409449500200,20.740500244140627,2.68953275680542,6.496513366699219,6.339783668518066
1711549409468457500,20.75945751953125,2.7433712482452393,6.413960933685303,6.49770975112915
1711549409487414800,20.778414794921876,2.7936203479766846,6.599404811859131,6.636493682861328
1711549409506372000,20.7973720703125,2.92283296585083,6.546762943267822,6.689135551452637
1711549409525329400,20.816329345703124,2.9754750728607178,6.276373863220215,6.759724140167236
1711549409544286700,20.83528662109375,2.7864420413970947,6.289534091949463,6.708278179168701
1711549409563244000,20.854244140625,2.974278450012207,6.567101955413818,6.932007312774658
1711549409582201300,20.873201416015625,3.190829038619995,6.5527448654174805,7.168896675109863
1711549409601158700,20.89215869140625,3.3379876613616943,6.588637351989746,7.1988067626953125
1711549409620116000,20.911115966796874,3.2482566833496094,6.62213659286499,6.922435760498047
1711549409639073300,20.9300732421875,3.152543783187866,6.545566558837891,6.926024913787842
1711549409658030600,20.949030517578127,2.9958138465881348,6.362515449523926,6.892525672912598
1711549409676988000,20.96798779296875,2.812762975692749,6.4079790115356445,7.074379920959473
1711549409695945200,20.9869453125,2.6045875549316406,6.57547664642334,7.225128173828125
1711549409714902500,21.005902587890624,2.4502503871917725,6.340980052947998,7.210771083831787
1711549409733859800,21.02485986328125,2.3820550441741943,6.056233882904053,6.953542709350586
1711549409752817200,21.043817138671876,2.4646072387695312,5.8097734451293945,6.820741176605225
1711549409771774500,21.0627744140625,2.5603201389312744,5.842076301574707,6.92482852935791
1711549409790731800,21.081731689453125,2.633301258087158,6.058627128601074,6.951149940490723
1711549409809689000,21.100689208984374,2.726621389389038,6.186643123626709,6.9236321449279785
1711549409828646400,21.119646484375,2.871387243270874,6.233303070068359,7.109076023101807
1711549409847603700,21.138603759765626,3.073580741882324,6.236892223358154,7.1820573806762695
1711549409866561000,21.15756103515625,3.098705291748047,6.1950178146362305,7.1162543296813965
1711549409885518300,21.176518310546875,3.1274192333221436,6.309873104095459,7.093522548675537
1711549409904475600,21.1954755859375,3.139383316040039,6.55992317199707,6.929614543914795
1711549409923433000,21.214432861328124,3.029313564300537,6.498906135559082,6.936792850494385
1711549409942390300,21.233390380859376,2.999403238296509,6.564708709716797,6.818347930908203
1711549409961347600,21.25234765625,2.919243574142456,6.672386169433594,6.847062110900879
1711549409980305000,21.271304931640625,2.8115665912628174,6.678368091583252,6.752545356750488
1711549409999262200,21.29026220703125,2.7110681533813477,6.711867332458496,6.8554368019104
1711549410018219500,21.309219482421874,2.7421748638153076,6.649653911590576,6.754938125610352
1711549410037176800,21.3281767578125,2.7672994136810303,6.56829833984375,6.5252275466918945
1711549410056134400,21.347134521484374,2.6297121047973633,6.492924213409424,6.486942291259766
1711549410075091700,21.366091796875,2.6428725719451904,6.530013084411621,6.4354963302612305
1711549410094048800,21.385048828125,2.726621389389038,6.723831653594971,6.187839508056641
1711549410113006000,21.404006103515623,2.8319056034088135,7.070790767669678,5.96889591217041
1711549410131963600,21.422963623046876,2.9204399585723877,7.324429988861084,6.07896614074707
1711549410150921000,21.4419208984375,3.1238300800323486,7.4739813804626465,6.051448345184326
1711549410169878300,21.460878173828124,3.1728827953338623,7.631907939910889,5.996413707733154
1711549410188835300,21.47983544921875,3.1334011554718018,7.683353424072266,5.897111415863037
1711549410207793000,21.49879296875,3.0185458660125732,7.674978733062744,5.615954875946045
1711549410226750200,21.517750244140625,3.3056845664978027,7.629515171051025,5.251049518585205
1711549410245707500,21.53670751953125,3.352344512939453,7.825726509094238,5.024927616119385
1711549410264664800,21.555664794921874,3.115455150604248,8.042277336120605,4.967499732971191
1711549410283622100,21.5746220703125,2.9970104694366455,8.0291166305542,5.063212871551514
1711549410302579500,21.593579345703127,3.1238300800323486,7.99800968170166,5.115854740142822
1711549410321536800,21.612536865234375,3.1477582454681396,7.954938888549805,4.95912504196167
1711549410340494000,21.631494140625,3.135794162750244,7.786244869232178,4.8538408279418945
1711549410359451400,21.650451416015624,3.1274192333221436,7.652246952056885,4.71744966506958
1711549410378408700,21.66940869140625,3.0664021968841553,7.740781307220459,4.737788677215576
1711549410397366000,21.688365966796876,3.0245277881622314,7.932207107543945,4.8227338790893555
1711549410416323300,21.7073232421875,3.0592236518859863,7.992027759552002,4.811966419219971
1711549410435280600,21.72628076171875,3.0652058124542236,7.858029365539551,4.711467742919922
1711549410454238000,21.745238037109374,2.9048867225646973,7.641479015350342,4.674378871917725
1711549410473195300,21.7641953125,2.7984061241149902,7.572087287902832,4.7365922927856445
1711549410492152600,21.783152587890626,2.7218358516693115,7.512266635894775,4.541577339172363
1711549410511110000,21.80210986328125,2.524427890777588,7.46201753616333,4.438685894012451
1711549410530067200,21.821067138671875,2.1846470832824707,7.549355506896973,4.615755081176758
1711549410549024500,21.8400244140625,2.2408783435821533,7.8388872146606445,5.194818019866943
1711549410567981800,21.85898193359375,2.306680917739868,8.001599311828613,5.60399055480957
1711549410586939400,21.877939453125,2.3617160320281982,7.939385414123535,5.769095420837402
1711549410605896700,21.896896728515625,2.612962245941162,7.957331657409668,5.793023586273193
1711549410624853800,21.915853759765625,2.9180471897125244,7.82692289352417,6.015556335449219
1711549410643811300,21.934811279296873,2.9288148880004883,7.715656757354736,6.0741801261901855
1711549410662768600,21.9537685546875,2.772084951400757,7.824530124664307,6.072983741760254
1711549410681726000,21.972725830078126,2.6273193359375,7.917850017547607,6.092126369476318
1711549410700683300,21.991683349609374,2.7637102603912354,7.858029365539551,6.032305717468262
1711549410719640600,22.010640625,2.8582265377044678,7.813762187957764,6.258427619934082
1711549410738598000,22.029597900390623,2.744567632675171,7.813762187957764,6.234499454498291
1711549410757555200,22.04855517578125,2.475374937057495,7.775477409362793,6.000002861022949
1711549410776512500,22.067512451171876,2.344966173171997,7.557730197906494,5.952146530151367
1711549410795469800,22.0864697265625,2.256431818008423,7.467999458312988,6.154339790344238
1711549410814427100,22.10542724609375,2.1056840419769287,7.402196884155273,6.282355785369873
1711549410833384400,22.124384521484377,1.9908283948898315,7.231110095977783,6.16271448135376
1711549410852342000,22.143342041015625,1.9860427379608154,7.128218650817871,6.0741801261901855
1711549410871299000,22.162299072265625,1.9956140518188477,7.044469833374023,6.216553211212158
1711549410890256600,22.181256591796874,2.0482561588287354,7.082755088806152,6.283552169799805
1711549410909214000,22.2002138671875,2.1786649227142334,7.156932353973389,6.454638957977295
1711549410928171300,22.219171142578126,2.163111686706543,7.10429048538208,6.757331371307373
1711549410947128600,22.238128662109375,2.159522533416748,6.772884368896484,7.1748785972595215
1711549410966086000,22.2570859375,1.9872392416000366,6.6245293617248535,7.135396957397461
1711549410985043200,22.276043212890624,2.139183521270752,6.468996047973633,6.86381196975708
1711549411004000500,22.29500048828125,2.4741785526275635,6.5180487632751465,6.86381196975708
1711549411022957800,22.313957763671876,2.6979074478149414,6.788437843322754,6.951149940490723
1711549411041915100,22.3329150390625,2.493321180343628,7.004988193511963,6.687939167022705
1711549411060872700,22.351872802734373,2.2576282024383545,7.1234331130981445,6.4510498046875
1711549411079830000,22.370830078125,1.9896320104599,6.830312252044678,6.555137634277344
1711549411098787300,22.389787353515626,1.8436698913574219,6.661618232727051,6.809973239898682
1711549411117744600,22.40874462890625,1.8448662757873535,6.547959327697754,6.813562393188477
1711549411136702000,22.427701904296875,1.9836499691009521,6.390032768249512,7.129415035247803
1711549411155659300,22.4466591796875,2.1571295261383057,6.309873104095459,7.326822757720947
1711549411174616600,22.465616455078123,2.39401912689209,6.343372821807861,7.201199531555176
1711549411193574000,22.484573974609376,2.5184457302093506,6.519245147705078,7.115057945251465
1711549411212531500,22.503531494140624,2.5435705184936523,6.758527755737305,6.966702938079834
1711549411231488800,22.52248876953125,2.592623233795166,6.891329288482666,6.725028038024902
1711549411250446000,22.541446044921877,2.630908489227295,7.054041385650635,6.601797580718994
1711549411269403400,22.5604033203125,2.4191436767578125,7.325626373291016,6.592226505279541
1711549411288360700,22.579360595703125,2.251646041870117,7.405786037445068,6.485745906829834
1711549411307318000,22.598318115234374,2.3222343921661377,7.3399834632873535,6.370890140533447
1711549411326275300,22.617275390625,2.3126630783081055,7.192824840545654,6.295516490936279
1711549411345232600,22.636232666015626,2.256431818008423,7.192824840545654,6.25723123550415
1711549411364190200,22.655190185546875,2.1104695796966553,7.210771083831787,6.32662296295166
1711549411383147500,22.6741474609375,2.170290231704712,7.043273448944092,6.437889099121094
1711549411402104800,22.693104736328124,2.458625316619873,6.825526714324951,6.333801746368408
1711549411421062100,22.712062255859376,2.6739792823791504,6.884150981903076,6.017949104309082
1711549411440019500,22.73101953125,2.4885356426239014,7.216753005981445,5.850451469421387
1711549411458977000,22.74997705078125,2.183450698852539,7.619943618774414,5.654240131378174
1711549411477934300,22.768934326171873,2.163111686706543,7.8041911125183105,5.542973518371582
1711549411496891600,22.7878916015625,2.341377019882202,7.70967435836792,5.590830326080322
1711549411515849000,22.806848876953126,2.513660192489624,7.734799385070801,5.8372907638549805
1711549411534806300,22.82580615234375,2.551945447921753,7.606783390045166,6.055037498474121
1711549411553763600,22.844763671875,2.5938198566436768,7.368697166442871,6.087340831756592
1711549411572721200,22.86372119140625,2.6009981632232666,7.164111137390137,5.956932067871094
1711549411591678500,22.882678466796875,2.610569477081299,7.135396957397461,5.8372907638549805
1711549411610635800,22.9016357421875,2.5495524406433105,7.247859954833984,5.766702651977539
1711549411629593000,22.920593017578124,2.5531418323516846,7.448856830596924,5.670989513397217
1711549411648550700,22.939550537109376,2.537588357925415,7.610372543334961,5.712863922119141
1711549411667507700,22.9585078125,2.403590440750122,7.652246952056885,5.690132141113281
1711549411686465300,22.97746533203125,2.3330020904541016,7.610372543334961,5.678168296813965
1711549411705422600,22.996422607421874,2.266003131866455,7.4847493171691895,5.770291805267334
1711549411724380000,23.0153798828125,2.0470597743988037,7.343572616577148,5.928217887878418
1711549411743337200,23.034337158203126,2.001596212387085,7.250252723693848,6.008377552032471
1711549411762294800,23.053294677734375,1.9812572002410889,7.22034215927124,6.1328043937683105
1711549411781252000,23.072252197265627,1.9836499691009521,7.140182971954346,6.282355785369873
1711549411800209400,23.09120947265625,2.1104695796966553,7.008577346801758,6.295516490936279
1711549411819167000,23.1101669921875,2.280359983444214,7.008577346801758,6.300302028656006
1711549411838124300,23.129124267578124,2.338984251022339,7.251449108123779,6.2500529289245605
1711549411857081600,23.14808154296875,2.2576282024383545,7.451249599456787,6.1710896492004395
1711549411876039000,23.167038818359377,2.2636101245880127,7.606783390045166,6.113661766052246
1711549411894996500,23.18599658203125,2.282752752304077,7.659425258636475,6.107679843902588
1711549411913953800,23.204953857421874,2.214557409286499,7.590033531188965,6.311069488525391
1711549411932911000,23.2239111328125,2.181057929992676,7.502695560455322,6.378068923950195
1711549411951868400,23.242868408203126,2.038684844970703,7.467999458312988,6.343372821807861
1711549411970825700,23.26182568359375,1.9669002294540405,7.349554538726807,6.240481376647949
1711549411989783300,23.280783203125,1.9860427379608154,7.141379356384277,6.150750637054443
1711549412008740600,23.29974072265625,1.8652052879333496,7.144968509674072,6.017949104309082
1711549412027698000,23.318697998046876,1.836491346359253,7.227520942687988,6.0849480628967285
1711549412046655500,23.337655517578124,1.8317056894302368,7.1988067626953125,6.099305152893066
1711549412065612800,23.35661279296875,1.867598056793213,7.176074981689453,6.183053493499756
1711549412084570000,23.375570068359377,1.994417667388916,7.203592777252197,6.092126369476318
1711549412103527400,23.39452734375,2.108076810836792,7.29093074798584,6.047859191894531
1711549412122485000,23.413485107421874,2.11405873298645,7.4739813804626465,6.105287075042725
1711549412141442300,23.4324423828125,2.1894326210021973,7.628318786621094,6.177071571350098
1711549412160399600,23.451399658203126,2.344966173171997,7.689335346221924,6.116054534912109
1711549412179357200,23.470357177734375,2.410768747329712,7.680960655212402,6.065805435180664
1711549412198314500,23.489314453125,2.293520450592041,7.60080099105835,6.087340831756592
1711549412217271800,23.508271728515624,2.159522533416748,7.58644437789917,6.165107727050781
1711549412236229400,23.5272294921875,2.187039852142334,7.596015453338623,6.092126369476318
1711549412255186700,23.546186767578124,2.0925233364105225,7.555337429046631,6.033502101898193
1711549412274144000,23.56514404296875,1.9250258207321167,7.525427341461182,5.980860233306885
1711549412293101600,23.5841015625,1.7742780447006226,7.533802032470703,6.096911907196045
1711549412312059000,23.603058837890625,1.6821542978286743,7.479963779449463,6.20219612121582
1711549412331016200,23.62201611328125,1.6929219961166382,7.365108013153076,6.228517532348633
1711549412349973800,23.640973876953126,1.7204394340515137,7.177271366119385,6.102894306182861
1711549412368931000,23.65993115234375,1.7419748306274414,7.11984395980835,5.960521221160889
1711549412387888400,23.678888427734375,1.8185452222824097,7.186842918395996,5.964110374450684
1711549412406846000,23.697845947265623,1.9262222051620483,7.318448066711426,5.988038539886475
1711549412425803300,23.71680322265625,2.076970100402832,7.421339511871338,5.949753284454346
1711549412444760600,23.735760498046876,2.214557409286499,7.529016494750977,5.91505765914917
1711549412463718100,23.75471826171875,2.214557409286499,7.611568927764893,6.045466423034668
1711549412482675500,23.773675537109376,2.266003131866455,7.572087287902832,6.067001819610596
1711549412501632800,23.7926328125,2.2301106452941895,7.514659404754639,5.995217323303223
1711549412520590300,23.81159033203125,2.1678972244262695,7.487142086029053,6.110072612762451
1711549412539547600,23.830547607421874,2.2372891902923584,7.338787078857422,6.0502519607543945
1711549412558505000,23.8495048828125,2.242074728012085,7.256234645843506,6.047859191894531
1711549412577462500,23.868462646484375,2.204986095428467,7.274180889129639,6.041877269744873
1711549412596419800,23.887419921875,2.1308085918426514,7.378268718719482,5.962913990020752
1711549412615377200,23.906377197265623,2.135594129562378,7.527820110321045,5.956932067871094
1711549412634334700,23.925334716796876,2.1954147815704346,7.585247993469238,5.8719868659973145
1711549412653292000,23.9442919921875,2.2265214920043945,7.478767395019531,5.820540904998779
1711549412672249300,23.963249267578124,2.172683000564575,7.433303356170654,5.849255084991455
1711549412691207000,23.98220703125,2.121237277984619,7.381857872009277,5.864808082580566
1711549412710164200,24.001164306640625,2.0506489276885986,7.3052873611450195,5.886343479156494
1711549412729121500,24.02012158203125,2.018345832824707,7.307680130004883,5.976074695587158
1711549412748079000,24.0390791015625,2.0135602951049805,7.3399834632873535,6.010770320892334
1711549412767036400,24.058036376953126,2.042274236679077,7.386643409729004,6.035895347595215
1711549412785993700,24.07699365234375,2.042274236679077,7.378268718719482,6.150750637054443
1711549412804951000,24.095950927734375,2.1678972244262695,7.384250640869141,6.1914286613464355
1711549412823908600,24.11490869140625,2.3497519493103027,7.396214962005615,6.135197162628174
1711549412842866200,24.1338662109375,2.4502503871917725,7.440482139587402,6.064609050750732
1711549412861823500,24.152823486328124,2.414358139038086,7.534998416900635,5.985645771026611
1711549412880780800,24.17178076171875,2.3820550441741943,7.616354465484619,5.8612189292907715
1711549412899738400,24.19073828125,2.4047868251800537,7.634300708770752,5.827719688415527
1711549412918695700,24.20969580078125,2.3808584213256836,7.594819068908691,5.839683532714844
1711549412937653000,24.228653076171874,2.337787628173828,7.495516777038574,5.788238048553467
1711549412956610600,24.247610595703126,2.2133610248565674,7.393822193145752,5.776273727416992
1711549412975568000,24.26656787109375,2.1930220127105713,7.424928665161133,5.846862316131592
1711549412994525200,24.285525146484375,2.231307029724121,7.491927623748779,5.7786664962768555
1711549413013482800,24.304482666015623,2.183450698852539,7.737192153930664,5.924628734588623
1711549413032440000,24.323440185546875,2.17627215385437,7.774280548095703,6.021538257598877
1711549413051397400,24.3423974609375,2.3186452388763428,7.680960655212402,6.025127410888672
1711549413070354700,24.361354736328124,2.383251428604126,7.552944660186768,6.0502519607543945
1711549413089312300,24.380312255859376,2.304288148880005,7.432106971740723,5.862415313720703
1711549413108269600,24.39926953125,2.0793628692626953,7.420143127441406,5.760720729827881
1711549413127227000,24.418226806640625,1.923829436302185,7.493124008178711,5.804987907409668
1711549413146184400,24.437184326171874,1.8843477964401245,7.568498134613037,5.698507308959961
1711549413165141800,24.456141845703126,1.8388842344284058,7.552944660186768,5.820540904998779
1711549413184099000,24.47509912109375,1.7599210739135742,7.465606689453125,5.933003902435303
1711549413203056600,24.494056640625,1.7527425289154053,7.323233604431152,6.041877269744873
1711549413222014000,24.513013916015623,1.939382791519165,7.23589563369751,6.283552169799805
1711549413240971300,24.53197119140625,2.169093608856201,7.1748785972595215,6.22492790222168
1711549413259928800,24.5509287109375,2.121237277984619,7.172485828399658,6.180660724639893
1711549413278886100,24.56988623046875,2.187039852142334,7.207181930541992,6.083751678466797
1711549413297843500,24.588843505859376,2.5351955890655518,7.299305438995361,5.893522262573242
1711549413316801000,24.607801025390625,2.702693223953247,7.511070251464844,5.8372907638549805
1711549413335758300,24.62675830078125,2.5603201389312744,7.7455668449401855,5.843272686004639
1711549413354715600,24.645715576171874,2.5399811267852783,7.808976650238037,5.8097734451293945
1711549413373673200,24.664673095703126,2.6536402702331543,7.6977105140686035,5.568098068237305
1711549413392630500,24.683630615234375,2.5603201389312744,7.641479015350342,5.592026710510254
