time,seconds_elapsed,z,y,x
1711549388794479600,0.085479736328125,-0.05192350596189499,-1.8282419443130493,-0.2871828079223633
1711549388813436700,0.104436767578125,-0.36132651567459106,-1.860617756843567,-0.5736783742904663
1711549388832393700,0.123393798828125,-0.3442223072052002,-1.7754020690917969,-0.8803325295448303
1711549388851350800,0.142350830078125,-0.5045742988586426,-1.7989203929901123,-1.0477094650268555
1711549388870307600,0.1613076171875,-0.5965094566345215,-1.803501844406128,-1.1576651334762573
1711549388889264600,0.1802646484375,-0.5201513767242432,-1.7549381256103516,-1.349782109260559
1711549388908221700,0.1992216796875,-0.5418370366096497,-1.7497458457946777,-1.4789799451828003
1711549388927178800,0.2181787109375,-0.5781835317611694,-1.7485240697860718,-1.5247948169708252
1711549388946135600,0.237135498046875,-0.5952877402305603,-1.5655701160430908,-1.5318198204040527
1711549388965092600,0.256092529296875,-0.6249146461486816,-1.4452297687530518,-1.4753148555755615
1711549388984049700,0.275049560546875,-0.6603448390960693,-1.4308743476867676,-1.37482750415802
1711549389003006700,0.2940068359375,-0.6114756464958191,-1.5771764516830444,-1.2703696489334106
1711549389021963500,0.312963623046875,-0.4523453712463379,-1.7833433151245117,-1.2636501789093018
1711549389040920600,0.331920654296875,-0.3949240744113922,-1.9901211261749268,-1.180877923965454
1711549389059877600,0.350877685546875,-0.40714138746261597,-1.9693516492843628,-1.0776418447494507
1711549389078834700,0.369834716796875,-0.4062250852584839,-1.760435938835144,-0.9646318554878235
1711549389097791500,0.38879150390625,-0.2981020212173462,-1.4073561429977417,-0.867504358291626
1711549389116748500,0.40774853515625,-0.20280711352825165,-1.046640396118164,-0.8336013555526733
1711549389135705600,0.42670556640625,-0.18325942754745483,-0.899727463722229,-0.7810669541358948
1711549389154662700,0.44566259765625,-0.15790854394435883,-0.8380300998687744,-0.7499128580093384
1711549389173619500,0.464619384765625,-0.07910698652267456,-0.8587995171546936,-0.7358629703521729
1711549389192576500,0.483576416015625,0.0015271619195118546,-0.9565379023551941,-0.6396517753601074
1711549389211533600,0.502533447265625,0.05192350596189499,-0.9809724688529968,-0.5364156365394592
1711549389230490600,0.52149072265625,0.08613193035125732,-0.9342412948608398,-0.48937904834747314
1711549389249447400,0.540447509765625,0.10903936624526978,-0.7861065864562988,-0.40171995759010315
1711549389268404500,0.559404541015625,0.15302163362503052,-0.5081631541252136,-0.3082576394081116
1711549389287361500,0.578361572265625,0.0925460159778595,-0.2519053518772125,-0.27404922246932983
1711549389306318600,0.597318603515625,0.03787361457943916,-0.16730059683322906,-0.2398407906293869
1711549389325275400,0.616275390625,0.04214967042207718,-0.25007277727127075,-0.20105087757110596
1711549389344232400,0.635232421875,0.013744457624852657,-0.37835437059402466,-0.12896881997585297
1711549389363189500,0.654189453125,-0.011300998739898205,-0.3753000497817993,-0.08284853398799896
1711549389382146600,0.673146484375,0.03909534588456154,-0.18318307399749756,0.010613775812089443
1711549389401103400,0.692103271484375,0.03543015569448471,-0.28214317560195923,0.09582941234111786
1711549389420060400,0.711060302734375,0.049480047076940536,-0.20609050989151,0.0781143307685852
1711549389439017500,0.730017578125,0.06047561392188072,-0.4492146968841553,0.0631481483578682
1711549389457974500,0.748974609375,0.06627883017063141,-0.7570905089378357,0.0035888305865228176
1711549389476931300,0.767931396484375,0.08582650125026703,-0.9959386587142944,-0.06879864633083344
1711549389495888400,0.786888427734375,0.09590577334165573,-1.0472513437271118,-0.09903645515441895
1711549389514845400,0.805845458984375,0.06444623321294785,-1.0255656242370605,-0.08407026529312134
1711549389533802500,0.824802490234375,0.043982263654470444,-0.9156099557876587,-0.08926261961460114
1711549389552759300,0.84375927734375,0.0769689604640007,-0.7671698331832886,-0.10850485414266586
1711549389571716400,0.86271630859375,0.14049890637397766,-0.6871465444564819,-0.12286017835140228
1711549389590673400,0.88167333984375,0.1945604383945465,-0.6165916323661804,-0.18211406469345093
1711549389609630500,0.90063037109375,0.23487751185894012,-0.5875755548477173,-0.24869832396507263
1711549389628587500,0.91958740234375,0.32070401310920715,-0.6330850124359131,-0.28260132670402527
1711549389647544300,0.93854443359375,0.39797839522361755,-0.6010146141052246,-0.2914588451385498
1711549389666501400,0.95750146484375,0.4016436040401459,-0.5087739825248718,-0.3158934414386749
1711549389685458400,0.97645849609375,0.3842339515686035,-0.4382191300392151,-0.3161988854408264
1711549389704415500,0.99541552734375,0.3500255048274994,-0.39454227685928345,-0.32933247089385986
1711549389723372500,1.01437255859375,0.31551164388656616,-0.36796966195106506,-0.33941173553466797
1711549389742329300,1.033329345703125,0.2889390289783478,-0.3652207851409912,-0.31375542283058167
1711549389761286400,1.052286376953125,0.2574795186519623,-0.247629314661026,-0.2648862302303314
1711549389780243500,1.071243408203125,0.18906265497207642,-0.11110103130340576,-0.18180863559246063
1711549389799200500,1.090200439453125,0.08979712426662445,-0.06498073786497116,-0.10911571979522705
1711549389818157600,1.109157470703125,-0.013133592903614044,-0.037491824477910995,-0.018402300775051117
1711549389837114600,1.128114501953125,-0.09804379940032959,-0.030466880649328232,0.03627009689807892
1711549389856071400,1.147071533203125,-0.13255766034126282,-0.05154171586036682,0.09338594973087311
1711549389875028500,1.166028564453125,-0.1334739476442337,-0.06772962957620621,0.13767364621162415
1711549389893985500,1.184985595703125,-0.13958260416984558,-0.09002619981765747,0.15661045908927917
1711549389912942600,1.203942626953125,-0.1185077652335167,-0.15661045908927917,0.16974404454231262
1711549389931899600,1.222899658203125,-0.1026252806186676,-0.22319471836090088,0.13095413148403168
1711549389950856700,1.241856689453125,-0.06505709886550903,-0.1141553521156311,0.06436987966299057
1711549389969813500,1.2608134765625,-0.09315688163042068,0.09170607477426529,-0.008628465235233307
1711549389988770600,1.2797705078125,-0.12431098520755768,0.23403756320476532,-0.106366828083992
1711549390007727600,1.2987275390625,-0.18173226714134216,0.3433823585510254,-0.1424078494310379
1711549390026684700,1.3176845703125,-0.2813032269477844,0.3898080885410309,-0.14057525992393494
1711549390045641700,1.336641845703125,-0.38820457458496094,0.1833357959985733,-0.1222493126988411
1711549390064598800,1.355598876953125,-0.44409868121147156,-0.08575014024972916,-0.055970486253499985
1711549390083555800,1.374555908203125,-0.4871646761894226,-0.01672242395579815,0.00022907429956831038
1711549390102512600,1.3935126953125,-0.4615083336830139,0.11400263756513596,0.0628427118062973
1711549390121470000,1.412469970703125,-0.45875945687294006,0.2047160565853119,0.1761581301689148
1711549390140426800,1.4314267578125,-0.4969384968280792,0.2719111740589142,0.29588761925697327
1711549390159383800,1.4503837890625,-0.4465421438217163,0.343993216753006,0.35361436009407043
1711549390178340900,1.4693408203125,-0.33139413595199585,0.38125598430633545,0.3453676700592041
1711549390197298000,1.4882978515625,-0.21502439677715302,0.36201372742652893,0.31177011132240295
1711549390216255000,1.5072548828125,-0.13041962683200836,0.385532021522522,0.30230170488357544
1711549390235212000,1.5262119140625,-0.10751219838857651,0.3733147382736206,0.2625955045223236
1711549390254169000,1.545169189453125,-0.12553271651268005,0.3021489977836609,0.23052509129047394
1711549390273126100,1.564126220703125,-0.09193515032529831,0.20288346707820892,0.24365869164466858
1711549390292083200,1.583083251953125,-0.05222893878817558,0.05169443041086197,0.25465425848960876
1711549390311040300,1.602040283203125,-0.08032871782779694,-0.05306887626647949,0.23602287471294403
1711549390329997300,1.620997314453125,-0.12553271651268005,-0.09002619981765747,0.23938263952732086
1711549390348954400,1.639954345703125,-0.13011419773101807,-0.1963166743516922,0.21952952444553375
1711549390367911200,1.6589111328125,-0.08826996386051178,-0.1657734364271164,0.18501566350460052
1711549390386868500,1.677868408203125,-0.032681263983249664,-0.15874847769737244,0.15722131729125977
1711549390405825500,1.696825439453125,-0.009773836471140385,-0.11629338562488556,0.12637265026569366
1711549390424782300,1.7157822265625,0.012522728182375431,0.029703300446271896,0.11018473654985428
1711549390443739600,1.73473974609375,0.05406153202056885,-0.014584396965801716,0.11018473654985428
1711549390462696700,1.75369677734375,0.07910698652267456,-0.21830779314041138,-0.01107192412018776
1711549390481653500,1.772653564453125,0.13652828335762024,-0.05520690605044365,-0.106366828083992
1711549390500610600,1.791610595703125,0.18906265497207642,0.02023489587008953,-0.11491893976926804
1711549390519568000,1.81056787109375,0.17195843160152435,0.11980585753917694,-0.1265253722667694
1711549390538525000,1.82952490234375,0.1740964651107788,0.0550541877746582,-0.09842558950185776
1711549390557481700,1.848481689453125,0.20158538222312927,0.2554178237915039,-0.13080142438411713
1711549390576438800,1.867438720703125,0.189673513174057,-0.22838707268238068,-0.10392337292432785
1711549390595396000,1.88639599609375,0.205861434340477,0.034895651042461395,-0.1527925580739975
1711549390614353200,1.905353271484375,0.2254091054201126,0.7092903852462769,-0.21143557131290436
1711549390633310000,1.92431005859375,0.25411975383758545,1.451796531677246,-0.18028147518634796
1711549390652267000,1.94326708984375,0.24220788478851318,1.8155665397644043,-0.23587016761302948
1711549390671224300,1.962224365234375,0.3998109996318817,3.7633087635040283,-0.3110065162181854
1711549390690181400,1.981181396484375,0.26511532068252563,3.8619635105133057,-0.1628718227148056
1711549390709138400,2.000138427734375,0.015271619893610477,3.7269623279571533,-0.08651372790336609
1711549390728095500,2.019095458984375,-0.014049889519810677,3.200702428817749,-0.07857248187065125
1711549390747052500,2.038052490234375,0.003665188793092966,2.113668441772461,-0.1842520833015442
1711549390766009600,2.057009521484375,0.09376774728298187,0.997618556022644,-0.2926805913448334
1711549390784966700,2.075966552734375,0.1539379209280014,0.2749654948711395,-0.3058141767978668
1711549390803923700,2.094923828125,0.13744457066059113,0.09812015295028687,-0.2954294681549072
1711549390822880800,2.113880859375,0.16340632736682892,0.18791727721691132,-0.2966512143611908
1711549390841837800,2.132837890625,0.1432477980852127,0.40721774101257324,-0.24258968234062195
1711549390860795000,2.151794921875,0.11698060482740402,0.6326268315315247,-0.21723878383636475
1711549390879752000,2.170751953125,0.08582650125026703,0.6934078931808472,-0.22090397775173187
1711549390898709000,2.189708984375,0.07391463965177536,0.5950586795806885,-0.21296273171901703
1711549390917666300,2.208666259765625,0.057726722210645676,0.47838348150253296,-0.21021384000778198
1711549390936623400,2.227623291015625,0.05711585655808449,0.5474112033843994,-0.1839466542005539
1711549390955580400,2.246580322265625,0.07391463965177536,0.7044034600257874,-0.14698933064937592
1711549390974537500,2.265537353515625,0.037262752652168274,0.69096440076828,-0.13660463690757751
1711549390993494500,2.28449462890625,0.01435532234609127,0.5651262998580933,-0.1268308013677597
1711549391012451600,2.30345166015625,0.029932374134659767,0.5886445641517639,-0.11827868968248367
1711549391031408600,2.32240869140625,0.029016077518463135,0.58039790391922,-0.11888955533504486
1711549391050365700,2.34136572265625,0.04825831577181816,0.41790786385536194,-0.12713623046875
1711549391069322800,2.36032275390625,0.056199558079242706,0.41118836402893066,-0.08315397053956985
1711549391088280000,2.379280029296875,0.061391908675432205,0.27282747626304626,-0.10881029069423676
1711549391107237000,2.398237060546875,0.1078176349401474,0.02023489587008953,-0.15034909546375275
1711549391126194200,2.417194091796875,0.1078176349401474,-0.35361436009407043,-0.18608468770980835
1711549391145151200,2.436151123046875,0.09865466505289078,-0.45501789450645447,-0.12896881997585297
1711549391164108300,2.4551083984375,0.08613193035125732,-0.40034550428390503,-0.10270164161920547
1711549391183065300,2.4740654296875,0.06963858753442764,-0.26626068353652954,-0.06391172856092453
1711549391202022700,2.493022705078125,0.06841685622930527,-0.2320522516965866,-0.00679587060585618
1711549391220979700,2.511979736328125,0.143553227186203,-0.5610029697418213,0.010613775812089443
1711549391239936800,2.530936767578125,0.24862197041511536,-1.225318431854248,0.0035888305865228176
1711549391258893800,2.549893798828125,0.3338375985622406,-2.0053927898406982,-0.04894553869962692
1711549391277851000,2.568850830078125,0.39828383922576904,-2.4891977310180664,-0.07399099320173264
1711549391296808000,2.587807861328125,0.4474584460258484,-2.5234060287475586,-0.022983787581324577
1711549391315765000,2.606764892578125,0.45020735263824463,-2.306854486465454,0.06620246917009354
1711549391334722000,2.62572216796875,0.42974337935447693,-1.9220097064971924,0.19814926385879517
1711549391353679400,2.644679443359375,0.416304349899292,-1.3871976137161255,0.30688318610191345
1711549391372636400,2.663636474609375,0.38698282837867737,-0.9049198031425476,0.41408994793891907
1711549391391593500,2.682593505859375,0.34086254239082336,-0.715246319770813,0.47670361399650574
1711549391410550500,2.701550537109375,0.360410213470459,-0.7015018463134766,0.4174497127532959
1711549391429507600,2.720507568359375,0.38301220536231995,-0.6853139400482178,0.35941755771636963
1711549391448464600,2.739464599609375,0.38331764936447144,-0.6022363305091858,0.38324129581451416
1711549391467421700,2.758421630859375,0.4224129915237427,-0.30718863010406494,0.4318050444126129
1711549391486379000,2.77737890625,0.411722868680954,0.09292780607938766,0.2015090137720108
1711549391505336000,2.796336181640625,0.37629270553588867,0.10789398849010468,-0.08895718306303024
1711549391524293000,2.815293212890625,0.3023780584335327,-0.21403174102306366,-0.2346484363079071
1711549391543250200,2.834250244140625,0.3222311735153198,-0.5778017044067383,-0.2920697331428528
1711549391562207200,2.853207275390625,0.3170388340950012,-0.8994220495223999,-0.147905632853508
1711549391581164500,2.87216455078125,0.25350889563560486,-1.105283498764038,-0.019929463043808937
1711549391600121600,2.89112158203125,0.17562362551689148,-1.2088249921798706,0.06498073786497116
1711549391619078700,2.91007861328125,0.10842850059270859,-1.2641083002090454,0.13553562760353088
1711549391638035700,2.92903564453125,0.04062250629067421,-1.222264051437378,0.18959715962409973
1711549391656992800,2.94799267578125,-0.02779434807598591,-1.1171953678131104,0.17493639886379242
1711549391675950000,2.9669501953125,-0.11698060482740402,-0.9678388833999634,0.16760602593421936
1711549391694907100,2.9859072265625,-0.17043127119541168,-0.7506764531135559,0.14133884012699127
1711549391713864200,3.0048642578125,-0.20341797173023224,-0.5784125924110413,0.13858994841575623
1711549391732821200,3.0238212890625,-0.2458730787038803,-0.5099957585334778,0.16913318634033203
1711549391751778600,3.042778564453125,-0.2938259541988373,-0.4883100390434265,0.19478951394557953
1711549391770735600,3.061735595703125,-0.3433060050010681,-0.5927678942680359,0.19509494304656982
1711549391789692700,3.080692626953125,-0.3903425931930542,-0.5481747984886169,0.2586248815059662
1711549391808649700,3.099649658203125,-0.39797839522361755,-0.36827510595321655,0.3239873945713043
1711549391827607000,3.11860693359375,-0.38179048895835876,-0.15630502998828888,0.3807978332042694
1711549391846564000,3.137564208984375,-0.42791077494621277,0.03245219215750694,0.4638754427433014
1711549391865521200,3.156521240234375,-0.47525280714035034,0.17631085216999054,0.5616137981414795
1711549391884478200,3.175478271484375,-0.4535670876502991,0.059635672718286514,0.7042507529258728
1711549391903435300,3.194435302734375,-0.4871646761894226,-0.09674570709466934,0.7268527150154114
1711549391922392300,3.213392333984375,-0.4712821841239929,-0.2473238706588745,0.752203643321991
1711549391941349600,3.232349609375,-0.49541133642196655,-0.34353506565093994,0.788550078868866
1711549391960306700,3.251306640625,-0.4731147587299347,0.152487114071846,0.8392518758773804
1711549391979263700,3.270263671875,-0.3646862804889679,0.5660426020622253,0.7567850947380066
1711549391998220800,3.289220703125,-0.42943793535232544,-0.07414371520280838,0.4492146968841553
1711549392017178000,3.30817822265625,-0.45051276683807373,-0.46143198013305664,0.13614648580551147
1711549392036135200,3.32713525390625,-0.3191768527030945,-1.2002729177474976,-0.07826705276966095
1711549392055092200,3.34609228515625,-0.1542433500289917,-1.5997785329818726,-0.2590830326080322
1711549392074049500,3.365049560546875,-0.05589412897825241,-1.233565092086792,-0.3427715003490448
1711549392093006600,3.384006591796875,-0.04214967042207718,-0.6007091403007507,-0.24839289486408234
1711549392111963600,3.402963623046875,-0.16187916696071625,-0.5408443808555603,-0.05230529606342316
1711549392130920700,3.421920654296875,-0.3961458206176758,-0.9953277707099915,0.14775292575359344
1711549392149877800,3.440877685546875,-0.5396990180015564,-1.4986803531646729,0.28672465682029724
1711549392168834800,3.459834716796875,-0.4526508152484894,-1.6181044578552246,0.22930335998535156
1711549392187792100,3.478792236328125,-0.2715294063091278,-1.371925950050354,0.05612320080399513
1711549392206749200,3.497749267578125,-0.12278381735086441,-1.011515736579895,-0.0012980876490473747
1711549392225706200,3.516706298828125,-0.21899501979351044,-0.23083053529262543,0.08116865903139114
1711549392244663600,3.53566357421875,-0.2919933497905731,0.4347066581249237,0.15355613827705383
1711549392263620600,3.55462060546875,-0.2614501118659973,1.088026523590088,0.23846633732318878
1711549392282577700,3.57357763671875,-0.16584978997707367,1.2395210266113281,0.3600284159183502
1711549392301534700,3.59253466796875,-0.03543015569448471,1.1112394332885742,0.4177551567554474
1711549392320492000,3.611491943359375,0.05955931544303894,0.877278208732605,0.4339430630207062
1711549392339449000,3.630448974609375,-0.008246674202382565,1.0244965553283691,0.5035816431045532
1711549392358406100,3.64940625,-0.26480987668037415,1.2581523656845093,0.5069414377212524
1711549392377363200,3.66836328125,-0.3952295184135437,1.211421251296997,0.4116465151309967
1711549392396320500,3.687320556640625,-0.3610210716724396,0.8962149620056152,0.4156171381473541
1711549392415277600,3.706277587890625,-0.29993459582328796,0.49487683176994324,0.4180605709552765
1711549392434234600,3.725234619140625,-0.3338375985622406,0.17539454996585846,0.30169084668159485
1711549392453192000,3.74419189453125,-0.42455101013183594,0.2404516488313675,0.3136027157306671
1711549392472149000,3.76314892578125,-0.4456258714199066,0.09170607477426529,0.27084216475486755
1711549392491106000,3.78210595703125,-0.5189296007156372,0.03581194952130318,0.212504580616951
1711549392510063000,3.80106298828125,-0.4868592321872711,-0.028634287416934967,0.20883940160274506
1711549392529020200,3.820020263671875,-0.3023780584335327,-0.08513928204774857,0.09308052062988281
1711549392547977500,3.8389775390625,-0.2260199636220932,-0.14286600053310394,0.03260490670800209
1711549392566934500,3.8579345703125,-0.20952661335468292,-0.2699258625507355,0.1043815165758133
1711549392585891600,3.8768916015625,-0.1954767256975174,-0.46204283833503723,0.004505127668380737
1711549392604849000,3.895848876953125,-0.10659590363502502,-0.6208676695823669,-0.081015944480896
1711549392623806000,3.914805908203125,-0.10690133273601532,-0.3701077103614807,-0.0910952091217041
1711549392642763000,3.933762939453125,-0.05497783049941063,-0.47059494256973267,-0.095982126891613
1711549392661720000,3.952719970703125,-0.11881320178508759,-0.48036879301071167,-0.03061959706246853
1711549392680677400,3.971677490234375,-0.18631376326084137,-0.4840339720249176,0.042684175074100494
1711549392699634400,3.990634521484375,-0.18753549456596375,-0.5619192123413086,0.01183550525456667
1711549392718591500,4.009591552734375,-0.3130682110786438,-0.35361436009407043,-0.013209951110184193
1711549392737548800,4.028548828125,-0.3451386094093323,-0.09460768103599548,-0.02848157100379467
1711549392756505900,4.047505859375,-0.35735589265823364,0.19646938145160675,-0.02848157100379467
1711549392775463000,4.066462890625,-0.3555232882499695,0.4658607542514801,0.002672533504664898
1711549392794420000,4.085419921875,-0.39736753702163696,0.7996983528137207,0.04543306678533554
1711549392813377300,4.104377197265625,-0.47036588191986084,1.193095326423645,0.09155336022377014
1711549392832334300,4.123334228515625,-0.5436696410179138,1.6869794130325317,0.06498073786497116
1711549392851291400,4.14229150390625,-0.5876519083976746,2.104810953140259,0.07108938694000244
1711549392870248700,4.161248779296875,-0.565049946308136,2.392833709716797,0.03474293276667595
1711549392889205800,4.180205810546875,-0.46547895669937134,2.675053119659424,-0.0031306820455938578
1711549392908162800,4.199162841796875,-0.3964512348175049,2.650618553161621,-0.04528035223484039
1711549392927120000,4.218119873046875,-0.39186975359916687,1.8433607816696167,-0.07338013499975204
1711549392946077200,4.2370771484375,-0.24251331388950348,0.06635518372058868,-0.08529199659824371
1711549392965034200,4.2560341796875,-0.29626941680908203,-1.0020473003387451,-0.24381139874458313
1711549392983991300,4.2749912109375,-0.19089524447917938,-1.3450478315353394,-0.4252382516860962
1711549393002948600,4.293948486328125,-0.08979712426662445,-1.3532946109771729,-0.5709294676780701
1711549393021905700,4.31290576171875,-0.06994401663541794,-1.1156681776046753,-0.6347648501396179
1711549393040862700,4.33186279296875,-0.1902843713760376,-0.7057778835296631,-0.720285952091217
1711549393059820000,4.350820068359375,-0.2932150959968567,-0.41958773136138916,-0.8216894865036011
1711549393078777000,4.369777099609375,-0.43371400237083435,-0.41439539194107056,-0.9148463606834412
1711549393097734100,4.388734130859375,-0.6017017960548401,-0.41500625014305115,-0.9912044405937195
1711549393116691200,4.407691162109375,-0.7617483735084534,-0.5661953091621399,-1.0495420694351196
1711549393135648300,4.426648193359375,-0.9071341753005981,-0.7592285871505737,-1.099632978439331
1711549393154605600,4.44560546875,-1.0580178499221802,-0.945847749710083,-1.162246584892273
1711549393173562600,4.464562744140625,-1.21287202835083,-1.0982584953308105,-1.2239439487457275
1711549393192520000,4.48352001953125,-1.3454296588897705,-1.1758383512496948,-1.2764782905578613
1711549393211477000,4.50247705078125,-1.4401136636734009,-1.1419353485107422,-1.2914445400238037
1711549393230434000,4.52143408203125,-1.5201369524002075,-1.0237330198287964,-1.2667044401168823
1711549393249391000,4.54039111328125,-1.6004657745361328,-0.8875101804733276,-1.216613531112671
1711549393268348400,4.559348388671875,-1.6707152128219604,-0.7118865251541138,-1.170798659324646
1711549393287305500,4.578305419921875,-1.7360776662826538,-0.4953349828720093,-1.1255947351455688
1711549393306262500,4.597262451171875,-1.820376992225647,-0.3969857394695282,-1.0263291597366333
1711549393325219800,4.6162197265625,-1.7739512920379639,-0.4067595899105072,-0.8595631122589111
1711549393344177000,4.635177001953125,-1.588248372077942,-0.5597811937332153,-0.7315869331359863
1711549393363134000,4.654134033203125,-1.237612009048462,-0.7409026026725769,-0.6549233794212341
1711549393382091300,4.67309130859375,-0.8206968307495117,-0.8361974954605103,-0.5654317140579224
1711549393401048300,4.69204833984375,-0.37843072414398193,-0.7919098138809204,-0.4979311525821686
1711549393420005400,4.71100537109375,0.006414080038666725,-0.7518981695175171,-0.4362338185310364
1711549393438962400,4.72996240234375,0.30634868144989014,-0.6932551860809326,-0.3931678533554077
1711549393457919700,4.748919677734375,0.5219839811325073,-0.5640572905540466,-0.37117671966552734
1711549393476876800,4.767876708984375,0.6976075768470764,-0.4901426136493683,-0.2853502035140991
1711549393495833900,4.786833740234375,0.8973603844642639,-0.5124391913414001,-0.24381139874458313
1711549393514791200,4.805791259765625,1.083979606628418,-0.5961276888847351,-0.23831361532211304
1711549393533748200,4.824748291015625,1.2415826320648193,-0.7066941857337952,-0.21723878383636475
1711549393552705300,4.843705322265625,1.3912445306777954,-0.8487202525138855,-0.14668390154838562
1711549393571662300,4.862662353515625,1.5494585037231445,-0.9586759209632874,-0.13385574519634247
1711549393590619600,4.88161962890625,1.6887357234954834,-1.0399209260940552,-0.12133301794528961
1711549393609576700,4.90057666015625,1.8191553354263306,-1.0457241535186768,-0.07399099320173264
1711549393628534000,4.919533935546875,1.9343032836914062,-1.0625228881835938,-0.019929463043808937
1711549393647491000,4.938490966796875,2.009134292602539,-1.0518327951431274,0.01672242395579815
1711549393666448100,4.9574482421875,2.0305144786834717,-1.0472513437271118,0.09980003535747528
1711549393685405200,4.9764052734375,2.0045528411865234,-0.9623411297798157,0.2534325122833252
1711549393704362500,4.995362548828125,1.9401065111160278,-0.8316160440444946,0.3725511431694031
1711549393723319600,5.014319580078125,1.8530583381652832,-0.7262418866157532,0.43974629044532776
1711549393742276600,5.033276611328125,1.7745622396469116,-0.520380437374115,0.5115228891372681
1711549393761234000,5.05223388671875,1.6581923961639404,-0.29680392146110535,0.583910346031189
1711549393780191000,5.07119091796875,1.5296053886413574,-0.16332997381687164,0.6376664638519287
1711549393799148000,5.09014794921875,1.4297289848327637,-0.0423787422478199,0.6883682608604431
1711549393818105000,5.10910498046875,1.3206896781921387,0.13599377870559692,0.7192169427871704
1711549393837062400,5.1280625,1.1866048574447632,0.24320054054260254,0.7344885468482971
1711549393856019500,5.14701953125,1.043662428855896,0.24136795103549957,0.7354048490524292
1711549393874976500,5.1659765625,0.9251546859741211,0.19677481055259705,0.722882091999054
1711549393893933600,5.18493359375,0.8206968307495117,0.1738673895597458,0.686535656452179
1711549393912891000,5.203890869140625,0.7003564834594727,0.14515674114227295,0.5784125924110413
1711549393931848000,5.222847900390625,0.5845975875854492,0.14515674114227295,0.44616037607192993
1711549393950805200,5.24180517578125,0.49082985520362854,0.17967060208320618,0.28550294041633606
1711549393969762300,5.26076220703125,0.42088583111763,0.25877758860588074,0.13828451931476593
1711549393988719400,5.27971923828125,0.4682278633117676,0.29848378896713257,-0.027259841561317444
1711549394007676400,5.298676513671875,0.2965748608112335,0.41668614745140076,-0.27771440148353577
1711549394026633500,5.317633544921875,0.060781046748161316,0.39561131596565247,-0.31436628103256226
1711549394045590800,5.3365908203125,-0.008246674202382565,0.2566395699977875,-0.12438733875751495
1711549394064547800,5.3555478515625,0.1288924664258957,-0.01611155830323696,0.040546149015426636
1711549394083505200,5.374505126953125,0.28985533118247986,-0.3456731140613556,0.017027854919433594
1711549394102462200,5.393462158203125,0.29993459582328796,-0.3698022663593292,-0.09262236952781677
1711549394121419300,5.412419189453125,0.2861901521682739,-0.12362375855445862,-0.22884522378444672
1711549394140376300,5.431376220703125,0.26939135789871216,0.21479532122612,-0.27832525968551636
1711549394159333600,5.450333740234375,0.2522871494293213,0.47838348150253296,-0.23800818622112274
1711549394178290700,5.469290771484375,0.29962918162345886,0.4563923478126526,-0.26305365562438965
1711549394197247700,5.488247802734375,0.3338375985622406,0.2202931046485901,-0.3232238292694092
1711549394216205000,5.507205078125,0.34147340059280396,0.02390008419752121,-0.32994332909584045
1711549394235162000,5.526162109375,0.2715294063091278,-0.012140937149524689,-0.22640176117420197
1711549394254119200,5.545119140625,0.15577052533626556,-0.124845489859581,-0.18058690428733826
1711549394273076200,5.564076171875,0.05864302068948746,-0.3658316433429718,-0.19769111275672913
1711549394292033500,5.583033447265625,-0.021380268037319183,-0.520380437374115,-0.2303723841905594
1711549394310990600,5.601990478515625,-0.06414080411195755,-0.6236165761947632,-0.26396992802619934
1711549394329947600,5.62094775390625,-0.05711585655808449,-0.6214785575866699,-0.3079521954059601
1711549394348905000,5.639905029296875,-0.044898562133312225,-0.5090794563293457,-0.3210858106613159
1711549394367862000,5.658862060546875,-0.029016077518463135,-0.3548360764980316,-0.312228262424469
1711549394386819000,5.677819091796875,-0.022907428443431854,-0.14286600053310394,-0.25877758860588074
1711549394405776100,5.696776123046875,-0.05528326332569122,0.04130972921848297,-0.15859577059745789
1711549394424733400,5.7157333984375,-0.08002328872680664,0.05352702736854553,-0.10911571979522705
1711549394443690500,5.7346904296875,-0.022296564653515816,0.00954476185142994,-0.09812015295028687
1711549394462647600,5.7536474609375,0.013439024798572063,0.11278090626001358,0.010919207707047462
1711549394481604600,5.7726044921875,-0.019853105768561363,0.2514472007751465,0.14133884012699127
1711549394500562000,5.79156201171875,-0.08765909820795059,0.21784965693950653,0.15722131729125977
1711549394519519000,5.81051904296875,-0.044898562133312225,0.04192059487104416,0.07444914430379868
1711549394538476000,5.82947607421875,0.017104214057326317,-0.03871355578303337,-0.03672824427485466
1711549394557433300,5.848433349609375,0.013133592903614044,0.004046979360282421,-0.11308634281158447
1711549394576390400,5.867390380859375,-0.025045456364750862,0.0709366723895073,-0.10545053333044052
1711549394595347500,5.886347412109375,-0.021380268037319183,0.12499820441007614,-0.08407026529312134
1711549394614304500,5.905304443359375,0.01282816007733345,0.13477204740047455,-0.08834631741046906
1711549394633261800,5.92426171875,0.03848448023200035,0.13629920780658722,-0.10972658544778824
1711549394652219000,5.943218994140625,0.03298669680953026,0.21174100041389465,-0.09750928729772568
1711549394671176200,5.96217626953125,-0.01649334840476513,0.30306529998779297,-0.0550541877746582
1711549394690133200,5.98113330078125,-0.08093958348035812,0.3128391206264496,-0.0397825688123703
1711549394709090300,6.00009033203125,-0.1484401375055313,0.2248746007680893,-0.061162836849689484
1711549394728047400,6.01904736328125,-0.19394956529140472,0.0910952091217041,-0.10453423857688904
1711549394747004700,6.038004638671875,-0.20341797173023224,-0.03138317912817001,-0.12133301794528961
1711549394765961700,6.056961669921875,-0.22327107191085815,-0.11507165431976318,-0.08804088830947876
1711549394784918800,6.075918701171875,-0.22876885533332825,-0.14928008615970612,-0.02756527252495289
1711549394803876000,6.0948759765625,-0.23426663875579834,-0.1291215419769287,-0.014431680552661419
1711549394822833200,6.113833251953125,-0.24281874299049377,-0.10468695312738419,-0.03733910992741585
1711549394841790200,6.132790283203125,-0.21960589289665222,-0.06406444311141968,-0.0703258067369461
1711549394860747500,6.15174755859375,-0.1957821547985077,-0.01672242395579815,-0.11461350321769714
1711549394879704600,6.17070458984375,-0.19761475920677185,-0.02893971838057041,-0.18730641901493073
1711549394898661600,6.18966162109375,-0.18723005056381226,-0.10193806141614914,-0.27863070368766785
1711549394917618700,6.20861865234375,-0.14477495849132538,-0.18532110750675201,-0.3690386712551117
1711549394936576300,6.227576171875,-0.09865466505289078,-0.20853395760059357,-0.4292088747024536
1711549394955533300,6.246533203125,-0.07635809481143951,-0.17432554066181183,-0.4808269441127777
1711549394974490400,6.265490478515625,-0.08032871782779694,-0.10743584483861923,-0.5049561262130737
1711549394993447400,6.284447509765625,-0.08460476994514465,-0.0527634471654892,-0.48937904834747314
1711549395012404700,6.30340478515625,-0.05436696484684944,0.00923932995647192,-0.44875654578208923
1711549395031361800,6.32236181640625,-0.009162971749901772,0.06391172856092453,-0.3736201822757721
1711549395050319000,6.341319091796875,0.03543015569448471,0.043142326176166534,-0.31039565801620483
1711549395069276200,6.360276123046875,0.11667517572641373,-0.05826122686266899,-0.3018435537815094
1711549395088233200,6.379233154296875,0.25045454502105713,-0.07933606207370758,-0.31894776225090027
1711549395107190500,6.3981904296875,0.30634868144989014,0.03733910992741585,-0.24808746576309204
1711549395126147600,6.417147705078125,0.32100942730903625,0.1983019858598709,-0.13996438682079315
1711549395145104600,6.436104736328125,0.282524973154068,0.27404922246932983,-0.014737112447619438
1711549395164062000,6.45506201171875,0.28527384996414185,0.14973822236061096,0.03810269013047218
1711549395183019000,6.47401904296875,0.3436114490032196,-0.026801692321896553,0.05978839099407196
1711549395201976000,6.49297607421875,0.40805765986442566,-0.09338594973087311,0.08483384549617767
1711549395220933400,6.511933349609375,0.44898560643196106,-0.03413207083940506,0.12301289290189743
1711549395239890400,6.530890380859375,0.4511236250400543,0.06238456442952156,0.14714205265045166
1711549395258847700,6.54984765625,0.4679224193096161,0.17172935605049133,0.1404225379228592
1711549395277804800,6.5688046875,0.4770853817462921,0.23098324239253998,0.14133884012699127
1711549395296762000,6.58776220703125,0.38179048895835876,0.2697731554508209,0.15630502998828888
1711549395315719200,6.60671923828125,0.2370155304670334,0.15004366636276245,0.1556941568851471
1711549395334676200,6.62567626953125,0.2055560052394867,-0.11812597513198853,0.16791145503520966
1711549395353633500,6.644633544921875,0.29138249158859253,-0.29741477966308594,0.18868085741996765
1711549395372590600,6.663590576171875,0.40225446224212646,-0.3355938494205475,0.23541201651096344
1711549395391547600,6.682547607421875,0.4459312856197357,-0.19784383475780487,0.3093266487121582
1711549395410505000,6.7015048828125,0.4410443603992462,-0.022220205515623093,0.35269805788993835
1711549395429462000,6.7204619140625,0.4013381600379944,0.10942115634679794,0.3511708974838257
1711549395448419300,6.73941943359375,0.3845393657684326,0.14576761424541473,0.35819584131240845
1711549395467376400,6.75837646484375,0.40744680166244507,0.0962875634431839,0.36216646432876587
1711549395486333400,6.77733349609375,0.4465421438217163,0.05413788929581642,0.345062255859375
1711549395505290800,6.796290771484375,0.4453204274177551,0.024510949850082397,0.3358992636203766
1711549395524248000,6.815248046875,0.40225446224212646,0.02848157100379467,0.3493382930755615
1711549395543205000,6.834205078125,0.34147340059280396,0.00954476185142994,0.3878227770328522
1711549395562162200,6.853162109375,0.27977606654167175,-0.001450803829357028,0.4376082420349121
1711549395581119500,6.872119384765625,0.2562577724456787,-0.05001455545425415,0.41928231716156006
1711549395600076500,6.89107666015625,0.2415970265865326,-0.12759438157081604,0.3493382930755615
1711549395619033900,6.910033935546875,0.20677772164344788,-0.1547778695821762,0.2888626754283905
1711549395637991000,6.928990966796875,0.18387030065059662,-0.07506000995635986,0.27114760875701904
1711549395656948200,6.9479482421875,0.12583814561367035,0.03917170315980911,0.2570977210998535
1711549395675905300,6.9669052734375,0.056199558079242706,0.06727148592472076,0.22808164358139038
1711549395694862600,6.985862548828125,0.03481929376721382,0.018096869811415672,0.17768529057502747
1711549395713819600,7.004819580078125,0.05100720748305321,-0.030466880649328232,0.1245400533080101
1711549395732777000,7.02377685546875,0.04001164436340332,-0.048792824149131775,0.07628174126148224
1711549395751734000,7.042734130859375,-0.007024944759905338,-0.07506000995635986,0.003894262947142124
1711549395770691000,7.061691162109375,-0.06291907280683517,-0.10102175921201706,-0.09353867173194885
1711549395789648400,7.0806484375,-0.1026252806186676,-0.10621411353349686,-0.1726456582546234
1711549395808605400,7.09960546875,-0.13622283935546875,-0.029245151206851006,-0.1995237022638321
1711549395827562800,7.118562744140625,-0.16676609218120575,0.049861837178468704,-0.21113014221191406
1711549395846519800,7.137519775390625,-0.1853974610567093,0.08529199659824371,-0.23128867149353027
1711549395865477000,7.15647705078125,-0.17226386070251465,0.14637847244739532,-0.21540619432926178
1711549395884434400,7.175434326171875,-0.16187916696071625,0.2560287117958069,-0.1634826809167862
1711549395903391500,7.1943916015625,-0.14996729791164398,0.32078036665916443,-0.03245219215750694
1711549395922348800,7.213348876953125,-0.1594357043504715,0.3833940029144287,0.20547963678836823
1711549395941305900,7.232305908203125,-0.08979712426662445,0.2514472007751465,0.38324129581451416
1711549395960263200,7.25126318359375,0.038789913058280945,-0.007864884100854397,0.4467712342739105
1711549395979220200,7.27022021484375,0.056199558079242706,-0.1141553521156311,0.42508551478385925
1711549395998177500,7.289177490234375,0.060781046748161316,-0.1300378441810608,0.36919140815734863
1711549396017134600,7.308134521484375,0.1230892539024353,-0.034437503665685654,0.31848961114883423
1711549396036092000,7.327091796875,0.16249002516269684,0.1631772518157959,0.33742642402648926
1711549396055049000,7.346049072265625,0.19792018830776215,0.260915607213974,0.33192864060401917
1711549396074006300,7.36500634765625,0.2467893660068512,0.22670719027519226,0.26076290011405945
1711549396092963600,7.383963623046875,0.2877173125743866,0.2349538654088974,0.2326631247997284
1711549396111920600,7.402920654296875,0.3326158821582794,0.266107976436615,0.2067013680934906
1711549396130878000,7.4218779296875,0.32039856910705566,0.3800342381000519,0.2381609082221985
1711549396149835000,7.4408349609375,0.2837466895580292,0.5385536551475525,0.36919140815734863
1711549396168792300,7.459792236328125,0.20677772164344788,0.5794816017150879,0.4168388545513153
1711549396187749400,7.478749267578125,0.19333870708942413,0.3638463318347931,0.3187950551509857
1711549396206706700,7.497706787109375,0.1905898153781891,0.09506583213806152,0.24579671025276184
1711549396225664000,7.5166640625,0.1640172004699707,-0.09063705801963806,0.14133884012699127
1711549396244621000,7.53562109375,0.12095122784376144,-0.09308052062988281,0.08391755074262619
1711549396263578400,7.554578369140625,0.08368847519159317,0.11278090626001358,0.10193806141614914
1711549396282535700,7.57353564453125,0.07360920310020447,0.2096029818058014,0.0784197673201561
1711549396301492700,7.59249267578125,0.05711585655808449,0.17569997906684875,0.011224640533328056
1711549396320450000,7.611449951171875,0.05253437161445618,0.07887791097164154,-0.081015944480896
1711549396339407000,7.630406982421875,0.11636973917484283,-0.03810269013047218,-0.147905632853508
1711549396358364400,7.649364501953125,0.17073670029640198,-0.0631481483578682,-0.18119776248931885
1711549396377321700,7.66832177734375,0.17837251722812653,0.08559742569923401,-0.14332415163516998
1711549396396278800,7.68727880859375,0.14813470840454102,0.2303723841905594,-0.11827868968248367
1711549396415236000,7.706236083984375,0.10690133273601532,0.25725042819976807,-0.12347104400396347
1711549396434193400,7.725193359375,0.046425722539424896,0.20013457536697388,-0.14424043893814087
1711549396453150500,7.744150390625,-0.014660755172371864,0.051389001309871674,-0.20135630667209625
1711549396472107800,7.763107666015625,-0.09010255336761475,-0.025579962879419327,-0.2545015513896942
1711549396491065000,7.782065185546875,-0.1698204129934311,-0.1037706509232521,-0.31864234805107117
1711549396510022400,7.8010224609375,-0.16065743565559387,-0.18990258872509003,-0.3934732675552368
1711549396528979500,7.8199794921875,-0.1182023361325264,-0.10621411353349686,-0.4515054225921631
1711549396547936800,7.838936767578125,-0.07452550530433655,-0.03657552972435951,-0.5132027864456177
1711549396566894000,7.85789404296875,-0.03237583488225937,0.020540328696370125,-0.5669588446617126
1711549396585851100,7.87685107421875,0.009162971749901772,0.1014799103140831,-0.6225475668907166
1711549396604808400,7.895808349609375,0.0027488914784044027,0.1986074149608612,-0.608497679233551
1711549396623765800,7.914765869140625,-0.01282816007733345,0.256334125995636,-0.5486329197883606
1711549396642722800,7.933722900390625,0.00946840364485979,0.3372737169265747,-0.4545597434043884
1711549396661680000,7.95268017578125,0.043371398001909256,0.41699156165122986,-0.2560287117958069
1711549396680637400,7.971637451171875,-0.019242240116000175,0.4756345748901367,0.002061668550595641
1711549396699594500,7.990594482421875,-0.15729768574237823,0.41241008043289185,0.2671769857406616
1711549396718551800,8.0095517578125,-0.33200499415397644,0.21479532122612,0.6065123677253723
1711549396737509000,8.028509033203125,-0.4786125421524048,0.0345902182161808,0.8533017635345459
1711549396756466400,8.047466552734376,-0.5201513767242432,-0.06986765563488007,1.075656533241272
1711549396775423500,8.066423583984376,-0.5555815100669861,-0.09277509152889252,1.314504623413086
1711549396794380800,8.085380859375,-0.6120865345001221,-0.1553887277841568,1.5389974117279053
1711549396813338000,8.104338134765625,-0.5458076596260071,-0.37835437059402466,1.601305603981018
1711549396832295400,8.12329541015625,-0.35246896743774414,-0.6449968218803406,1.5035673379898071
1711549396851252500,8.14225244140625,-0.1945604383945465,-0.7735838890075684,1.2876266241073608
1711549396870209800,8.161209716796876,-0.09040798991918564,-0.7216603755950928,0.9385173916816711
1711549396889167000,8.1801669921875,-0.043371398001909256,-0.42997244000434875,0.575663685798645
1711549396908124400,8.19912451171875,-0.06291907280683517,0.044669486582279205,0.19906556606292725
1711549396927081500,8.21808154296875,-0.09621120244264603,0.3733147382736206,-0.15462514758110046
1711549396946038800,8.237038818359375,-0.13225223124027252,0.553214430809021,-0.331165075302124
1711549396964996000,8.25599609375,-0.13469567894935608,0.6164389252662659,-0.4087449014186859
1711549396983953400,8.274953369140626,-0.13133592903614044,0.46830421686172485,-0.4395935535430908
1711549397002910500,8.293910400390626,-0.1487455666065216,0.2667188346385956,-0.4255436658859253
1711549397021867800,8.31286767578125,-0.18203771114349365,0.11522436887025833,-0.36537349224090576
1711549397040825000,8.3318251953125,-0.22204934060573578,0.02695440873503685,-0.2957349121570587
1711549397059782400,8.350782470703125,-0.2764163017272949,0.020540328696370125,-0.22579088807106018
1711549397078739700,8.36973974609375,-0.32100942730903625,0.05474875494837761,-0.16378812491893768
1711549397097697000,8.388697021484376,-0.35124725103378296,0.06268999725580215,-0.14698933064937592
1711549397116654000,8.407654052734374,-0.39736753702163696,0.07948877662420273,-0.17692171037197113
1711549397135611400,8.426611328125,-0.4303542375564575,0.07002037763595581,-0.2648862302303314
1711549397154568700,8.445568603515625,-0.41416633129119873,0.11888955533504486,-0.36170831322669983
1711549397173526000,8.464526123046875,-0.3943132162094116,0.2099084109067917,-0.49487683176994324
1711549397192483000,8.483483154296875,-0.41447174549102783,0.28473934531211853,-0.6365974545478821
1711549397211440400,8.5024404296875,-0.3952295184135437,0.353767067193985,-0.728532612323761
1711549397230397700,8.521397705078124,-0.3084867000579834,0.48388126492500305,-0.7071523666381836
1711549397249355000,8.54035498046875,-0.22693626582622528,0.5880337357521057,-0.6344594359397888
1711549397268312300,8.559312255859375,-0.20616686344146729,0.5807033181190491,-0.5996401309967041
1711549397287269400,8.578269287109375,-0.19914191961288452,0.43348491191864014,-0.6008618474006653
1711549397306226700,8.597226806640625,-0.19700388610363007,0.42859798669815063,-0.589560866355896
1711549397325184000,8.61618408203125,-0.22968515753746033,0.5321395993232727,-0.5959749221801758
1711549397344141300,8.635141357421874,-0.27427828311920166,0.7074577808380127,-0.6482039093971252
1711549397363098600,8.6540986328125,-0.2684750556945801,0.9084323048591614,-0.7181479334831238
1711549397382056000,8.673055908203125,-0.21319180727005005,0.9893718957901001,-0.7270054221153259
1711549397401013000,8.692012939453125,-0.20127993822097778,0.9047670960426331,-0.7349466681480408
1711549397419970300,8.71097021484375,-0.26511532068252563,0.6509527564048767,-0.7483857274055481
1711549397438927600,8.729927734375,-0.3656025826931,0.39805474877357483,-0.765489935874939
1711549397457885000,8.748885009765624,-0.3992001414299011,0.24258968234062195,-0.8210785984992981
1711549397476842000,8.767842041015625,-0.2617555558681488,0.18761184811592102,-0.6729438900947571
1711549397495799300,8.78679931640625,-0.09529490768909454,0.4108829200267792,-0.5165625214576721
1711549397514756600,8.805756591796875,-0.007024944759905338,0.6136900186538696,-0.4802160859107971
1711549397533714000,8.8247138671875,-0.08613193035125732,0.7056251764297485,-0.5214494466781616
1711549397552671200,8.843671142578126,-0.18661919236183167,0.7334195375442505,-0.5187005400657654
1711549397571628500,8.862628662109374,-0.20402882993221283,0.6753873825073242,-0.4518108665943146
1711549397590585900,8.8815859375,-0.18234314024448395,0.4719693958759308,-0.3678169548511505
1711549397609543200,8.900543212890625,-0.20311254262924194,0.10025817900896072,-0.30886849761009216
1711549397628500200,8.919500244140625,-0.24006985127925873,-0.13553562760353088,-0.23373213410377502
1711549397647457500,8.93845751953125,-0.22785256803035736,-0.08758273720741272,-0.18241949379444122
1711549397666414800,8.957414794921876,-0.25961753726005554,-0.034437503665685654,-0.09201150387525558
1711549397685372200,8.9763720703125,-0.4111120104789734,-0.13187043368816376,0.026190826669335365
1711549397704329500,8.99532958984375,-0.5088503360748291,-0.28214317560195923,0.04024071618914604
1711549397723286800,9.014286865234375,-0.41874781250953674,-0.4113410711288452,0.11110103130340576
1711549397742243800,9.033243896484375,-0.2419024556875229,-0.4736492931842804,0.2378554791212082
1711549397761201200,9.052201171875,-0.0922405794262886,-0.5072468519210815,0.2980256676673889
1711549397780158500,9.071158447265624,-0.049480047076940536,-0.5325977206230164,0.34750568866729736
1711549397799115800,9.09011572265625,-0.08826996386051178,-0.5610029697418213,0.3355938494205475
1711549397818073000,9.109072998046875,-0.12125665694475174,-0.6449968218803406,0.3200167715549469
1711549397837030100,9.128030029296875,-0.11728604137897491,-0.7610611319541931,0.3365101218223572
1711549397855987500,9.146987548828125,-0.08429934084415436,-0.8285617232322693,0.4061487317085266
1711549397874944800,9.16594482421875,-0.05558869615197182,-0.854218065738678,0.4986947476863861
1711549397893902000,9.184902099609374,-0.07574722915887833,-0.8914808034896851,0.5545888543128967
1711549397912859400,9.203859375,-0.11759147047996521,-0.8954514265060425,0.5652790069580078
1711549397931816700,9.222816650390625,-0.13072505593299866,-0.9030871987342834,0.5371792316436768
1711549397950773800,9.241773681640625,-0.0922405794262886,-0.8511636853218079,0.49228066205978394
1711549397969731000,9.26073095703125,-0.010384701192378998,-0.7415134906768799,0.422947496175766
1711549397988688400,9.2796884765625,0.08307760953903198,-0.60406893491745,0.3362047076225281
1711549398007645700,9.298645751953124,0.20280711352825165,-0.566500723361969,0.2790888547897339
1711549398026603000,9.31760302734375,0.29016077518463135,-0.5817723274230957,0.261984646320343
1711549398045560300,9.336560302734375,0.32559093832969666,-0.6004037261009216,0.22350014746189117
1711549398064517600,9.355517578125,0.3344484567642212,-0.583910346031189,0.2638172209262848
1711549398083474700,9.374474609375,0.3277289569377899,-0.5093848705291748,0.29741477966308594
1711549398102432000,9.393431884765626,0.31459537148475647,-0.4119519293308258,0.30657777190208435
1711549398121389300,9.412389404296874,0.3090975880622864,-0.3206276595592499,0.33742642402648926
1711549398140346600,9.4313466796875,0.2663370370864868,-0.3038288652896881,0.31757333874702454
1711549398159304000,9.450303955078125,0.20830489695072174,-0.38354671001434326,0.2629009187221527
1711549398178261000,9.469260986328125,0.17165300250053406,-0.44493862986564636,0.2515999376773834
1711549398197218300,9.48821826171875,0.2315177470445633,-0.38415759801864624,0.29222244024276733
1711549398216175600,9.507175537109376,0.30024003982543945,-0.28000515699386597,0.3618610203266144
1711549398235133000,9.5261328125,0.2614501118659973,-0.2592357397079468,0.339869886636734
1711549398254090200,9.54509033203125,0.16707152128219604,-0.30291256308555603,0.25618141889572144
1711549398273047300,9.56404736328125,0.09987638890743256,-0.2635118067264557,0.20517420768737793
1711549398292004600,9.583004638671875,0.1081230640411377,-0.19265148043632507,0.17402009665966034
1711549398310962000,9.6019619140625,0.16310089826583862,-0.10315979272127151,0.11171189695596695
1711549398329919200,9.620919189453126,0.17134757339954376,-0.0191658828407526,0.017027854919433594
1711549398348876500,9.63987646484375,0.12736530601978302,0.06391172856092453,-0.10789398849010468
1711549398367833900,9.658833740234375,0.08643736690282822,0.1417969912290573,-0.17753258347511292
1711549398386791000,9.677791015625,0.08155044913291931,0.2545015513896942,-0.1937204897403717
1711549398405748200,9.696748291015625,0.0870482325553894,0.34124433994293213,-0.22853977978229523
1711549398424705500,9.71570556640625,0.0821613147854805,0.4032471179962158,-0.25877758860588074
1711549398443662800,9.734662841796874,0.0870482325553894,0.5040398240089417,-0.3287216126918793
1711549398462620000,9.753619873046874,0.08063415437936783,0.561766505241394,-0.4099666178226471
1711549398481577200,9.7725771484375,0.0821613147854805,0.6002510190010071,-0.39102980494499207
1711549398500534500,9.791534423828125,0.1127045527100563,0.6717221736907959,-0.3223075270652771
1711549398519491800,9.810491943359375,0.16126830875873566,0.7465531229972839,-0.27832525968551636
1711549398538449200,9.82944921875,0.185092031955719,0.7083740830421448,-0.2349538654088974
1711549398557406500,9.848406494140624,0.20311254262924194,0.5229766368865967,-0.1735619604587555
1711549398576363500,9.867363525390624,0.17745621502399445,0.32933247089385986,-0.09262236952781677
1711549398595320800,9.88632080078125,0.15027274191379547,0.22304199635982513,-0.08193223923444748
1711549398614278100,9.905278076171875,0.10231985151767731,0.2606101930141449,-0.16103923320770264
1711549398633235500,9.9242353515625,0.02260199747979641,0.3693441152572632,-0.19188790023326874
1711549398652192500,9.943192626953126,0.000610864779446274,0.48479756712913513,-0.14149154722690582
1711549398671149800,9.96214990234375,0.028099779039621353,0.5269472599029541,-0.06330086290836334
1711549398690107100,9.981107177734375,0.049480047076940536,0.43287405371665955,-0.004657844081521034
1711549398709064400,10.000064453125,0.05558869615197182,0.2801578640937805,0.05215258151292801
1711549398728021800,10.019021728515625,0.06597339361906052,0.13141228258609772,0.09063705801963806
1711549398746978800,10.037978759765625,0.06383536756038666,0.04802924394607544,0.12789981067180634
1711549398765936000,10.05693603515625,0.046425722539424896,-0.039018988609313965,0.15263983607292175
1711549398784893400,10.0758935546875,0.01282816007733345,-0.0884990319609642,0.14592032134532928
1711549398803850800,10.094850830078125,-0.0308486707508564,-0.1446985900402069,0.11140646785497665
1711549398822808000,10.11380810546875,-0.05803215503692627,-0.1758527010679245,0.03993528336286545
1711549398841765000,10.13276513671875,-0.06933315098285675,-0.11079560220241547,-0.028787001967430115
1711549398860722400,10.151722412109375,-0.024434590712189674,0.015958841890096664,-0.04253146052360535
1711549398879679700,10.1706796875,0.037262752652168274,0.07246383279561996,-0.029397867619991302
1711549398898636800,10.18963671875,0.061391908675432205,0.037033677101135254,-0.010766491293907166
1711549398917594000,10.208593994140625,0.04673115536570549,-0.030466880649328232,0.009086613543331623
1711549398936551400,10.227551513671875,-0.000610864779446274,-0.0631481483578682,0.023441936820745468
1711549398955508700,10.2465087890625,-0.03329212963581085,-0.07383827865123749,0.016416991129517555
1711549398974466000,10.265466064453125,-0.035735588520765305,-0.07108938694000244,0.008170315995812416
1711549398993423000,10.284423095703126,-0.04550942778587341,-0.07200568914413452,-0.0009926552884280682
1711549399012380400,10.30338037109375,-0.05528326332569122,-0.08666644245386124,-0.014431680552661419
1711549399031337700,10.322337646484375,-0.04581485688686371,-0.11171189695596695,-0.03245219215750694
1711549399050295000,10.341294921875,-0.014966187067329884,-0.11720968037843704,-0.036422811448574066
1711549399069252000,10.360252197265625,0.000610864779446274,-0.07933606207370758,-0.0012980876490473747
1711549399088209400,10.37920947265625,-0.006414080038666725,-0.055512335151433945,0.020387612283229828
1711549399107166700,10.398166748046876,-0.0009162971982732415,-0.03504836559295654,0.0322994738817215
1711549399126123800,10.417123779296874,0.019242240116000175,-0.011224640533328056,0.01763872057199478
1711549399145081000,10.4360810546875,0.03787361457943916,0.010766491293907166,0.015195261687040329
1711549399164038400,10.455038330078125,0.032070402055978775,0.00954476185142994,0.03321577236056328
1711549399182995700,10.47399560546875,0.018631376326084137,-0.007254019379615784,0.036880962550640106
1711549399201952800,10.492952880859375,0.008552107028663158,0.0022143847309052944,0.020693045109510422
1711549399220910000,10.51191015625,-0.006719512399286032,0.019624030217528343,-0.009850194677710533
1711549399239867400,10.530867431640624,-0.023212861269712448,0.029703300446271896,-0.028176138177514076
1711549399258824700,10.54982470703125,-0.022907428443431854,0.014126247726380825,-0.03061959706246853
1711549399277782000,10.568781982421875,-0.0054977829568088055,-0.027107125148177147,-0.038560837507247925
1711549399296739000,10.587739013671875,-0.005803215317428112,-0.039018988609313965,-0.05199986323714256
1711549399315696400,10.6066962890625,-0.05833758786320686,-0.014584396965801716,-0.06604975461959839
1711549399334653400,10.6256533203125,-0.09040798991918564,0.01626427471637726,-0.081015944480896
1711549399353610800,10.64461083984375,-0.08002328872680664,0.051389001309871674,-0.09201150387525558
1711549399372568000,10.663568115234375,-0.05864302068948746,0.0651334598660469,-0.08193223923444748
1711549399391525400,10.682525390625,-0.034208428114652634,0.12957969307899475,-0.01626427471637726
1711549399410482400,10.701482421875,-0.014660755172371864,0.16745330393314362,0.006948587018996477
1711549399429439700,10.720439697265626,-0.005803215317428112,0.12408190965652466,0.020693045109510422
1711549399448397000,10.73939697265625,0.003970621153712273,0.038560837507247925,0.02741255611181259
1711549399467354400,10.758354248046874,-0.004886918235570192,-0.015806125476956367,0.021914774551987648
1711549399486311400,10.7773115234375,-0.03543015569448471,-0.057039499282836914,0.014584396965801716
1711549399505268700,10.796268798828125,-0.01893680728971958,-0.09063705801963806,0.0035888305865228176
1711549399524226000,10.81522607421875,0.016187917441129684,-0.11171189695596695,0.007254019379615784
1711549399543183000,10.83418310546875,-0.015271619893610477,-0.09796743839979172,-0.017486004158854485
1711549399562140400,10.853140380859376,-0.0720820426940918,-0.043600473552942276,-0.04833467677235603
1711549399581097700,10.87209765625,-0.08093958348035812,-0.02802342176437378,-0.061162836849689484
1711549399600055000,10.891054931640625,-0.07238747924566269,-0.05826122686266899,-0.08437569439411163
1711549399619012000,10.91001220703125,-0.07635809481143951,-0.10163262486457825,-0.10789398849010468
1711549399637969400,10.928969482421875,-0.07605266571044922,-0.14347685873508453,-0.1011744812130928
1711549399656926500,10.947926513671876,-0.037262752652168274,-0.19937099516391754,-0.07429642975330353
1711549399675883800,10.9668837890625,0.032070402055978775,-0.27175846695899963,-0.04436405375599861
1711549399694841000,10.985841064453124,0.0015271619195118546,-0.37865981459617615,-0.05841394513845444
1711549399713798400,11.00479833984375,-0.04245510324835777,-0.4693732261657715,-0.08040507882833481
1711549399732755500,11.02375537109375,-0.020769402384757996,-0.41989317536354065,-0.08681915700435638
1711549399751712800,11.042712646484375,0.046425722539424896,-0.33253952860832214,-0.043753188103437424
1711549399770670000,11.061670166015626,0.0769689604640007,-0.2574031352996826,-0.029703300446271896
1711549399789627400,11.08062744140625,0.0308486707508564,-0.1960112303495407,-0.004046979360282421
1711549399808584400,11.09958447265625,0.003665188793092966,-0.1553887277841568,0.062537282705307
1711549399827541800,11.118541748046875,0.005803215317428112,-0.1303432732820511,0.08300124853849411
1711549399846499000,11.1374990234375,-0.0027488914784044027,-0.1141553521156311,0.05123628303408623
1711549399865456400,11.156456298828125,-0.01435532234609127,-0.08972076326608658,-0.0058795735239982605
1711549399884413400,11.175413330078126,-0.007024944759905338,-0.08025235682725906,-0.05688678100705147
1711549399903370800,11.194370849609374,0.009162971749901772,-0.10346522182226181,-0.06971494108438492
1711549399922328000,11.213328125,0.026878049597144127,-0.12362375855445862,-0.06482802331447601
1711549399941285000,11.23228515625,0.033597562462091446,-0.09674570709466934,-0.05994110554456711
1711549399960242400,11.251242431640625,0.020158538594841957,-0.02893971838057041,-0.0703258067369461
1711549399979199700,11.27019970703125,0.010995565913617611,0.040088001638650894,-0.05810851231217384
1711549399998156800,11.28915673828125,-0.01740964688360691,0.07399099320173264,-0.026648975908756256
1711549400017114000,11.308114013671876,-0.07635809481143951,0.07735075056552887,-0.005268708802759647
1711549400036071400,11.327071533203124,-0.09346231073141098,0.0758235901594162,0.00022907429956831038
1711549400055028700,11.34602880859375,-0.06322450190782547,0.09017891436815262,-0.019929463043808937
1711549400073986000,11.364986083984375,-0.050090912729501724,0.05627591907978058,-0.028176138177514076
1711549400092943000,11.383943115234375,-0.05864302068948746,-0.0295505840331316,0.01611155830323696
1711549400111900400,11.402900390625,-0.0720820426940918,-0.13889537751674652,0.04787652567028999
1711549400130857700,11.421857666015624,-0.09834922850131989,-0.17768529057502747,0.04848739132285118
1711549400149815000,11.44081494140625,-0.10659590363502502,-0.12851068377494812,0.05673406645655632
1711549400168772000,11.459772216796875,-0.10934479534626007,-0.023136503994464874,0.09124792367219925
1711549400187729400,11.4787294921875,-0.10934479534626007,0.06391172856092453,0.11201732605695724
1711549400206686700,11.497686767578125,-0.09407317638397217,0.11888955533504486,0.0988837331533432
1711549400225644000,11.51664404296875,-0.07024945318698883,0.12377647310495377,0.06711876392364502
1711549400244601000,11.53560107421875,-0.06536252796649933,0.055970486253499985,0.05429060757160187
1711549400263558400,11.554558349609374,-0.051618073135614395,-0.07719803601503372,0.06986765563488007
1711549400282515700,11.573515625,-0.014660755172371864,-0.2118937224149704,0.1190422773361206
1711549400301473000,11.59247314453125,-0.026572618633508682,-0.3096320927143097,0.17371466755867004
1711549400320430300,11.611430419921875,-0.06352993845939636,-0.31299182772636414,0.21097742021083832
1711549400339387600,11.6303876953125,-0.0668896958231926,-0.2326631247997284,0.22655446827411652
1711549400358344700,11.6493447265625,-0.05345066636800766,-0.16455170512199402,0.2118937224149704
1711549400377302000,11.668302001953125,-0.08491020649671555,-0.09216422587633133,0.16485713422298431
1711549400396259300,11.68725927734375,-0.09315688163042068,0.024510949850082397,0.104076087474823
1711549400415216600,11.706216552734375,-0.06872228533029556,0.11430807411670685,0.04604393243789673
1711549400434173700,11.725173583984375,-0.003970621153712273,0.09781472384929657,-0.0034361144062131643
1711549400453131000,11.744131103515626,0.08460476994514465,0.014431680552661419,-0.0193185992538929
1711549400472088300,11.76308837890625,0.15118902921676636,-0.08177952468395233,-0.00923932995647192
1711549400491045600,11.782045654296875,0.14752385020256042,-0.1297324001789093,-0.026648975908756256
1711549400510003000,11.8010029296875,0.1328630894422531,-0.09124792367219925,-0.05871937796473503
1711549400528960000,11.8199599609375,0.13591741025447845,-0.01672242395579815,-0.07246383279561996
1711549400547917300,11.838917236328125,0.12186752259731293,0.021151192486286163,-0.06910407543182373
1711549400566874600,11.85787451171875,0.10476330667734146,0.0034361144062131643,-0.053832460194826126
1711549400585832000,11.87683203125,0.10751219838857651,-0.027717988938093185,-0.03428478538990021
1711549400604789200,11.895789306640625,0.11636973917484283,-0.06986765563488007,-0.019929463043808937
1711549400623746600,11.91474658203125,0.1279761642217636,-0.13645191490650177,-0.0022143847309052944
1711549400642704000,11.933703857421875,0.13775001466274261,-0.22838707268238068,0.025274530053138733
1711549400661661200,11.9526611328125,0.13041962683200836,-0.30718863010406494,0.041157014667987823
1711549400680618200,11.9716181640625,0.12247838824987411,-0.3047451674938202,0.022525638341903687
1711549400699575600,11.990575439453124,0.08643736690282822,-0.27114760875701904,-0.03733910992741585
1711549400718532900,12.009532958984375,0.04214967042207718,-0.26076290011405945,-0.06360629200935364
1711549400737490200,12.028490234375,0.019242240116000175,-0.25007277727127075,-0.0193185992538929
1711549400756447500,12.047447509765625,0.005803215317428112,-0.21830779314041138,0.050930850207805634
1711549400775404800,12.06640478515625,0.005192350596189499,-0.17371466755867004,0.1196531355381012
1711549400794362000,12.085362060546874,-0.008246674202382565,-0.14714205265045166,0.16974404454231262
1711549400813319200,12.104319091796874,-0.036651886999607086,-0.1450040340423584,0.21006113290786743
1711549400832276500,12.1232763671875,-0.054672397673130035,-0.13706278800964355,0.21494804322719574
1711549400851233800,12.14223388671875,-0.07422006875276566,-0.14805835485458374,0.17921245098114014
1711549400870191000,12.161191162109375,-0.0720820426940918,-0.20975568890571594,0.1340084671974182
1711549400889148400,12.1801484375,-0.041844237595796585,-0.256792277097702,0.0939968153834343
1711549400908105700,12.199105712890624,-0.001221729558892548,-0.23632831871509552,0.04512763395905495
1711549400927063000,12.21806298828125,0.03329212963581085,-0.15874847769737244,-0.005268708802759647
1711549400946020400,12.237020263671875,0.08399390429258347,-0.03535379841923714,-0.013209951110184193
1711549400964977700,12.255977783203125,0.13500112295150757,0.12347104400396347,0.017944153398275375
1711549400983935000,12.27493505859375,0.13072505593299866,0.2590830326080322,0.02588539570569992
1711549401002892300,12.293892333984376,0.07086031138896942,0.27343833446502686,-0.015347977168858051
1711549401021849600,12.312849609375,0.011911863461136818,0.22304199635982513,-0.04436405375599861
1711549401040807000,12.331806884765625,-0.01588248461484909,0.15187625586986542,-0.055970486253499985
1711549401059764200,12.35076416015625,-0.02260199747979641,0.07460185885429382,-0.08376483619213104
1711549401078721500,12.369721435546875,-0.021991131827235222,0.0397825688123703,-0.1115591824054718
1711549401097678800,12.388678955078126,-0.008552107028663158,0.03550651669502258,-0.12988512217998505
1711549401116636200,12.40763623046875,0.013133592903614044,0.0703258067369461,-0.10483966767787933
1711549401135593500,12.426593505859374,0.006414080038666725,0.12408190965652466,-0.081015944480896
1711549401154550800,12.44555078125,-0.0461202897131443,0.13629920780658722,-0.07765618711709976
1711549401173508000,12.464508056640625,-0.08552107214927673,0.0910952091217041,-0.050778135657310486
1711549401192465400,12.48346533203125,-0.08521563559770584,0.054443322122097015,0.000839939049910754
1711549401211422700,12.502422607421876,-0.10629047453403473,0.005268708802759647,0.03260490670800209
1711549401230380000,12.521380126953124,-0.1542433500289917,-0.044211339205503464,0.012140937149524689
1711549401249337300,12.54033740234375,-0.1893680840730667,-0.054901473224163055,-0.03275762498378754
1711549401268294700,12.559294677734375,-0.20311254262924194,-0.06406444311141968,-0.08345939964056015
1711549401287252000,12.578251953125,-0.19242240488529205,-0.09949459880590439,-0.10728313028812408
1711549401306209300,12.597209228515625,-0.15668681263923645,-0.14103341102600098,-0.11217004805803299
1711549401325166600,12.61616650390625,-0.1441640853881836,-0.1859319657087326,-0.10361793637275696
1711549401344124000,12.6351240234375,-0.1594357043504715,-0.22563818097114563,-0.09873101860284805
1711549401363081200,12.654081298828125,-0.17837251722812653,-0.20822852849960327,-0.06818778067827225
1711549401382038500,12.67303857421875,-0.18875721096992493,-0.17463096976280212,-0.022678354755043983
1711549401400995800,12.691995849609375,-0.19211697578430176,-0.19876012206077576,0.03657552972435951
1711549401419953200,12.710953125,-0.19853104650974274,-0.21555891633033752,0.11507165431976318
1711549401438910500,12.729910400390626,-0.22449280321598053,-0.2170860767364502,0.1660788655281067
1711549401457867800,12.74886767578125,-0.25931209325790405,-0.24152065813541412,0.18715369701385498
1711549401476825000,12.7678251953125,-0.28466299176216125,-0.2564868628978729,0.17493639886379242
1711549401495782400,12.786782470703125,-0.3066541254520416,-0.2787834107875824,0.15325069427490234
1711549401514739700,12.80573974609375,-0.31673339009284973,-0.2928332984447479,0.16241367161273956
1711549401533697300,12.824697265625,-0.3026835024356842,-0.28061601519584656,0.1960112303495407
1711549401552654600,12.843654541015624,-0.26419901847839355,-0.24579671025276184,0.23877176642417908
1711549401571612000,12.86261181640625,-0.20708316564559937,-0.20303617417812347,0.2570977210998535
1711549401590569200,12.8815693359375,-0.18387030065059662,-0.1859319657087326,0.24915647506713867
1711549401609526500,12.900526611328125,-0.20952661335468292,-0.20822852849960327,0.21586434543132782
1711549401628483800,12.91948388671875,-0.23273947834968567,-0.2421315312385559,0.18959715962409973
1711549401647441200,12.938441162109376,-0.22815799713134766,-0.22899793088436127,0.21861323714256287
1711549401666398500,12.9573984375,-0.22266021370887756,-0.19906556606292725,0.2323576956987381
1711549401685355800,12.976355712890625,-0.22876885533332825,-0.18684826791286469,0.18409937620162964
1711549401704313000,12.99531298828125,-0.23854269087314606,-0.19356778264045715,0.16302454471588135
1711549401723270700,13.014270751953125,-0.2260199636220932,-0.22075125575065613,0.1810450553894043
1711549401742227700,13.033227783203126,-0.21502439677715302,-0.24915647506713867,0.24152065813541412
1711549401761185300,13.052185302734374,-0.2162461280822754,-0.29588761925697327,0.3294851779937744
1711549401780142600,13.071142578125,-0.2055560052394867,-0.3285689055919647,0.3551415205001831
1711549401799100000,13.090099853515625,-0.2153298407793045,-0.26626068353652954,0.21891866624355316
1711549401818057200,13.10905712890625,-0.2663370370864868,-0.14103341102600098,0.0322994738817215
1711549401837014500,13.1280146484375,-0.30573782324790955,-0.12362375855445862,0.000839939049910754
1711549401855972000,13.14697216796875,-0.25809037685394287,-0.08452841639518738,0.13797907531261444
1711549401874929400,13.165929443359374,-0.17592905461788177,0.00923932995647192,0.2928332984447479
1711549401893886700,13.18488671875,-0.09560033679008484,0.0193185992538929,0.30199626088142395
1711549401912844000,13.203843994140625,-0.11362084746360779,-0.02649625949561596,0.24029892683029175
1711549401931801300,13.22280126953125,-0.20372340083122253,-0.0781143307685852,0.18990258872509003
1711549401950758700,13.241758544921876,-0.23793183267116547,-0.0683404952287674,0.17829616367816925
1711549401969716000,13.260716064453124,-0.21716243028640747,-0.06345357745885849,0.20517420768737793
1711549401988673500,13.279673583984374,-0.20799945294857025,-0.10957387089729309,0.2167806327342987
1711549402007630800,13.298630859375,-0.231212317943573,-0.18501566350460052,0.17188207805156708
1711549402026588200,13.317588134765625,-0.2721402645111084,-0.23846633732318878,0.12087486684322357
1711549402045545500,13.33654541015625,-0.281914085149765,-0.20822852849960327,0.13889537751674652
1711549402064502800,13.355502685546876,-0.23976442217826843,-0.09949459880590439,0.18868085741996765
1711549402083460400,13.37446044921875,-0.1795942485332489,-0.00022907429956831038,0.21494804322719574
1711549402102417700,13.393417724609375,-0.14263692498207092,0.06360629200935364,0.21097742021083832
1711549402121375000,13.412375,-0.1178968995809555,0.08284853398799896,0.20914483070373535
1711549402140332300,13.431332275390625,-0.07757982611656189,0.03611737862229347,0.2008981555700302
1711549402159289600,13.45028955078125,-0.022296564653515816,-0.03627009689807892,0.1859319657087326
1711549402178247000,13.469246826171876,0.016798781231045723,-0.10865757614374161,0.1303432732820511
1711549402197204500,13.48820458984375,0.013439024798572063,-0.1297324001789093,0.046654798090457916
1711549402216161800,13.507161865234375,-0.007024944759905338,-0.07780890166759491,-0.030925029888749123
1711549402235119000,13.526119140625,-0.002443459117785096,0.031230462715029716,-0.081015944480896
1711549402254076400,13.545076416015625,0.01649334840476513,0.14973822236061096,-0.1268308013677597
1711549402273034000,13.564033935546876,0.03481929376721382,0.22059854865074158,-0.18700097501277924
1711549402291991300,13.5829912109375,0.04673115536570549,0.2545015513896942,-0.23128867149353027
1711549402310948600,13.601948486328125,0.0720820426940918,0.29848378896713257,-0.2963457703590393
1711549402329906000,13.620906005859375,0.059864748269319534,0.26702427864074707,-0.385532021522522
1711549402348863200,13.63986328125,0.012522728182375431,0.19158247113227844,-0.41668614745140076
1711549402367820500,13.658820556640626,-0.005192350596189499,0.1738673895597458,-0.39255696535110474
1711549402386778000,13.677778076171874,0.01954767294228077,0.20074543356895447,-0.3788125216960907
1711549402405735400,13.6967353515625,0.0308486707508564,0.19677481055259705,-0.3574322462081909
1711549402424692700,13.715692626953125,0.037262752652168274,0.20777037739753723,-0.3381900191307068
1711549402443650000,13.734650146484375,0.05283980444073677,0.2300669401884079,-0.3494910001754761
1711549402462607600,13.753607666015625,0.06902772188186646,0.22762349247932434,-0.3635408878326416
1711549402481565000,13.77256494140625,0.08979712426662445,0.19738568365573883,-0.3699549734592438
1711549402500522200,13.791522216796874,0.13958260416984558,0.17539454996585846,-0.39133524894714355
1711549402519479600,13.8104794921875,0.20189081132411957,0.183030366897583,-0.41760244965553284
1711549402538437000,13.82943701171875,0.22754712402820587,0.2047160565853119,-0.45944666862487793
1711549402557394400,13.84839453125,0.21288637816905975,0.19494222104549408,-0.49487683176994324
1711549402576351700,13.867351806640626,0.19089524447917938,0.14515674114227295,-0.49396052956581116
1711549402595309000,13.88630908203125,0.18234314024448395,0.1115591824054718,-0.4713585376739502
1711549402614266400,13.905266357421874,0.1649334877729416,0.08926261961460114,-0.4151589870452881
1711549402633223700,13.9242236328125,0.15179990231990814,0.0657443255186081,-0.33910632133483887
1711549402652181200,13.94318115234375,0.16798780858516693,0.015042545273900032,-0.2664133906364441
1711549402671138600,13.962138671875,0.20799945294857025,-0.07964149862527847,-0.21204642951488495
1711549402690095900,13.981095947265626,0.2415970265865326,-0.1761581301689148,-0.17020219564437866
1711549402709053200,14.00005322265625,0.24526220560073853,-0.24701844155788422,-0.13385574519634247
1711549402728010800,14.0190107421875,0.23335035145282745,-0.2931387424468994,-0.1219438835978508
1711549402746968000,14.037968017578125,0.21380266547203064,-0.31848961114883423,-0.11064288020133972
1711549402765925400,14.05692529296875,0.17776164412498474,-0.32734715938568115,-0.07521272450685501
1711549402784882700,14.075882568359376,0.14569124579429626,-0.34842199087142944,-0.016569707542657852
1711549402803840000,14.094840087890624,0.1737910360097885,-0.33803731203079224,0.044211339205503464
1711549402822797600,14.113797607421875,0.2458730787038803,-0.2574031352996826,0.05367974191904068
1711549402841755000,14.1327548828125,0.2922987937927246,-0.1608865112066269,0.018555017188191414
1711549402860712200,14.151712158203125,0.29535311460494995,-0.08055779337882996,-0.06268999725580215
1711549402879669500,14.17066943359375,0.2919933497905731,-0.015806125476956367,-0.16928590834140778
1711549402898627000,14.189626953125,0.28435754776000977,0.02390008419752121,-0.24778202176094055
1711549402917584400,14.20858447265625,0.28038692474365234,0.02695440873503685,-0.2819904685020447
1711549402936541700,14.227541748046875,0.2868010103702545,0.004046979360282421,-0.26794055104255676
1711549402955499000,14.2464990234375,0.28954991698265076,-0.03138317912817001,-0.2557232677936554
1711549402974456600,14.26545654296875,0.26389357447624207,-0.06650790572166443,-0.2548069655895233
1711549402993414000,14.284413818359376,0.21441353857517242,-0.06528617441654205,-0.27252206206321716
1711549403012371200,14.30337109375,0.16004657745361328,-0.01763872057199478,-0.26916229724884033
1711549403031328500,14.32232861328125,0.16004657745361328,0.03917170315980911,-0.24411684274673462
1711549403050285800,14.341285888671875,0.18570289015769958,0.10239620506763458,-0.19646938145160675
1711549403069243100,14.3602431640625,0.24006985127925873,0.17172935605049133,-0.15645773708820343
1711549403088200700,14.37920068359375,0.2837466895580292,0.21540619432926178,-0.15095995366573334
1711549403107158000,14.398157958984376,0.2828303873538971,0.19097159802913666,-0.14668390154838562
1711549403126115300,14.417115234375,0.27977606654167175,0.16959133744239807,-0.1329394429922104
1711549403145072600,14.43607275390625,0.2611446976661682,0.1527925580739975,-0.1164461001753807
1711549403164030200,14.4550302734375,0.2577849328517914,0.10514509677886963,-0.10819942504167557
1711549403182987500,14.473987548828125,0.27030766010284424,0.06696604937314987,-0.09292780607938766
1711549403201944800,14.49294482421875,0.2965748608112335,0.06268999725580215,-0.07612902671098709
1711549403220902100,14.511902099609374,0.2971857190132141,0.08651372790336609,-0.05658135190606117
1711549403239859500,14.530859375,0.2559523284435272,0.09812015295028687,-0.059635672718286514
1711549403258817000,14.549817138671875,0.22418737411499023,0.0859028622508049,-0.07215840369462967
1711549403277774300,14.5687744140625,0.23365578055381775,0.06604975461959839,-0.07735075056552887
1711549403296731600,14.587731689453125,0.2632827162742615,0.05719221383333206,-0.06452259421348572
1711549403315689000,14.60668896484375,0.2977965772151947,0.07246383279561996,-0.07429642975330353
1711549403334646300,14.625646240234374,0.31642794609069824,0.11583523452281952,-0.14912736415863037
1711549403353603600,14.644603515625,0.30024003982543945,0.173256516456604,-0.23892448842525482
1711549403372561200,14.66356103515625,0.29535311460494995,0.27252206206321716,-0.3079521954059601
1711549403391518500,14.6825185546875,0.3127627670764923,0.3785070776939392,-0.34093889594078064
1711549403410475800,14.701475830078126,0.3347539007663727,0.45822495222091675,-0.3281107544898987
1711549403429433000,14.72043310546875,0.31490078568458557,0.5330559015274048,-0.2917642891407013
1711549403448390400,14.739390380859374,0.29535311460494995,0.5538252592086792,-0.2651916742324829
1711549403467347700,14.75834765625,0.3341430425643921,0.5232820510864258,-0.2758817970752716
1711549403486305300,14.77730517578125,0.3631591200828552,0.48998990654945374,-0.2926805913448334
1711549403505262600,14.7962626953125,0.31184646487236023,0.4521162807941437,-0.3421606421470642
1711549403524220000,14.815219970703126,0.20799945294857025,0.3672060966491699,-0.36079201102256775
1711549403543177200,14.83417724609375,0.12522727251052856,0.23373213410377502,-0.32475098967552185
1711549403562134500,14.853134521484375,0.07391463965177536,0.07673988491296768,-0.23678645491600037
1711549403581092000,14.872092041015625,0.00946840364485979,-0.05459604039788246,-0.1476002037525177
1711549403600049400,14.89104931640625,-0.05283980444073677,-0.13064870238304138,-0.09292780607938766
1711549403619006700,14.9100068359375,-0.13133592903614044,-0.1196531355381012,-0.03764454275369644
1711549403637964000,14.928964111328124,-0.24312418699264526,-0.04146244749426842,0.011530072428286076
1711549403656921300,14.94792138671875,-0.18723005056381226,-0.09980003535747528,-0.03245219215750694
1711549403675878700,14.966878662109375,-0.022296564653515816,-0.00603228947147727,0.0527634471654892
1711549403694836000,14.9858359375,-0.08918625861406326,0.368122398853302,0.43974629044532776
1711549403713793500,15.00479345703125,-0.06047561392188072,0.5703186392784119,0.6926442980766296
1711549403732750800,15.023750732421876,0.022296564653515816,0.4698313772678375,0.8704059720039368
1711549403751708200,15.042708251953124,0.07391463965177536,0.1833357959985733,0.8386409878730774
1711549403770665500,15.06166552734375,0.07971785217523575,-0.025274530053138733,0.7989347577095032
1711549403789622800,15.080622802734375,0.08491020649671555,-0.08788817375898361,0.7900772094726562
1711549403808580400,15.099580322265625,0.013133592903614044,0.021456625312566757,0.7314342260360718
1711549403827537400,15.118537353515626,-0.06872228533029556,-0.03962985426187515,0.6110938787460327
1711549403846495000,15.137494873046874,-0.10109812021255493,-0.1553887277841568,0.5194641351699829
1711549403865452300,15.156452392578124,-0.04886918142437935,-0.18715369701385498,0.49777844548225403
1711549403884409600,15.17540966796875,0.025350889191031456,-0.1703549176454544,0.5264890789985657
1711549403903367000,15.194366943359375,0.10598503798246384,-0.15172353386878967,0.5481747984886169
1711549403922324200,15.21332421875,0.1545487940311432,-0.07353284955024719,0.5796343088150024
1711549403941281500,15.232281494140626,0.14599667489528656,-0.017944153398275375,0.5991820096969604
1711549403960239000,15.251239013671874,0.14202606678009033,-0.0423787422478199,0.5866592526435852
1711549403979196400,15.270196533203125,0.15821397304534912,-0.08666644245386124,0.5820778012275696
1711549403998153700,15.28915380859375,0.17684535682201385,-0.15233440697193146,0.5900190472602844
1711549404017111000,15.308111083984375,0.18784092366695404,-0.11782054603099823,0.5946004986763
1711549404036068400,15.327068359375,0.1798996776342392,-0.01824958436191082,0.5774962902069092
1711549404055025700,15.346025634765626,0.15638138353824615,0.11247547715902328,0.558254063129425
1711549404073983000,15.36498291015625,0.13927717506885529,0.2346484363079071,0.5432878732681274
1711549404092940300,15.383940185546875,0.1542433500289917,0.28382304310798645,0.5423715710639954
1711549404111897900,15.40289794921875,0.1701258420944214,0.2911534309387207,0.519769549369812
1711549404130855000,15.42185498046875,0.13500112295150757,0.24778202176094055,0.4895317554473877
1711549404149812500,15.4408125,0.0925460159778595,0.25236350297927856,0.4479929506778717
1711549404168769800,15.459769775390624,0.05558869615197182,0.2645808160305023,0.3954585790634155
1711549404187727000,15.47872705078125,-0.004581485874950886,0.2551124095916748,0.31787875294685364
1711549404206684400,15.497684326171875,-0.1444695144891739,0.26244276762008667,0.2271653413772583
1711549404225641700,15.516641845703125,-0.37201663851737976,0.26335906982421875,0.12148573249578476
1711549404244599000,15.53559912109375,-0.592233419418335,0.2456440031528473,0.020693045109510422
1711549404263556600,15.554556640625,-0.7220421433448792,0.24442227184772491,-0.05841394513845444
1711549404282513700,15.573513671875,-0.7437278628349304,0.2810741662979126,-0.09689842909574509
1711549404301471000,15.592470947265625,-0.7367029190063477,0.3119228184223175,-0.10972658544778824
1711549404320428500,15.611428466796875,-0.7473930716514587,0.4298197329044342,-0.11919499188661575
1711549404339385900,15.6303857421875,-0.6963858604431152,0.7123447060585022,-0.025121813639998436
1711549404358343200,15.64934326171875,-0.48960810899734497,0.9890664219856262,-0.07826705276966095
1711549404377300500,15.668300537109374,-0.34788748621940613,1.0666462182998657,-0.38705918192863464
1711549404396257800,15.6872578125,-0.29474225640296936,1.0193042755126953,-0.7208967804908752
1711549404415215000,15.706215087890625,-0.22388194501399994,0.9142354726791382,-0.9918153285980225
1711549404434172400,15.72517236328125,-0.2315177470445633,1.0318269729614258,-1.0483202934265137
1711549404453129700,15.744129638671875,-0.4172206521034241,1.2031745910644531,-1.0455714464187622
1711549404472087000,15.763087158203126,-0.591622531414032,1.2541817426681519,-1.1069633960723877
1711549404491044400,15.78204443359375,-0.4770853817462921,1.3027454614639282,-1.206839680671692
1711549404510002000,15.801001953125,-0.34147340059280396,1.198593020439148,-1.2981640100479126
1711549404528959000,15.819958984375,-0.35063639283180237,0.9548580050468445,-1.3711624145507812
1711549404547916500,15.83891650390625,-0.4376846253871918,0.6882155537605286,-1.4072034358978271
1711549404566873900,15.857873779296876,-0.4770853817462921,0.7425824999809265,-1.3867393732070923
1711549404585831200,15.8768310546875,-0.42974337935447693,0.885830283164978,-1.3653591871261597
1711549404604788500,15.89578857421875,-0.4251618981361389,0.9857066869735718,-1.3626102209091187
1711549404623745800,15.914745849609375,-0.39858928322792053,0.9899827241897583,-1.3427571058273315
1711549404642703000,15.933703125,-0.3836230933666229,0.7483857274055481,-1.3259583711624146
1711549404661660400,15.952660400390625,-0.48441576957702637,0.4615846872329712,-1.2682316303253174
1711549404680617700,15.97161767578125,-0.37171122431755066,0.07124210149049759,-1.1869865655899048
1711549404699575000,15.990574951171874,-0.28557929396629333,-0.01030834298580885,-1.070311427116394
1711549404718532400,16.009532470703125,-0.19914191961288452,-0.16424626111984253,-1.1182643175125122
1711549404737489700,16.02848974609375,-0.23732095956802368,-0.13309216499328613,-1.1762964725494385
1711549404756447200,16.047447265625,-0.2788597643375397,-0.1651625633239746,-1.2596795558929443
1711549404775404300,16.066404296875,-0.3543015718460083,-0.09766200929880142,-1.3714678287506104
1711549404794361600,16.085361572265626,-0.406530499458313,0.0022143847309052944,-1.4444661140441895
1711549404813319200,16.104319091796874,-0.3958403766155243,0.03367391973733902,-1.3894883394241333
1711549404832276500,16.1232763671875,-0.43401941657066345,-0.12179116904735565,-1.2401318550109863
1711549404851233800,16.14223388671875,-0.5088503360748291,-0.2515999376773834,-1.1323142051696777
1711549404870191000,16.161191162109375,-0.564439058303833,-0.29588761925697327,-1.0446550846099854
1711549404889148400,16.1801484375,-0.6194168925285339,-0.3294851779937744,-0.9249256253242493
1711549404908105700,16.199105712890624,-0.7031053900718689,-0.4272235631942749,-0.794200599193573
1711549404927063000,16.21806298828125,-0.7794634699821472,-0.49625128507614136,-0.7480802536010742
1711549404946020400,16.237020263671877,-0.878118097782135,-0.4904480576515198,-0.7908408045768738
1711549404964977700,16.255977783203125,-0.9560033679008484,-0.45501789450645447,-0.7945060133934021
1711549404983935000,16.27493505859375,-0.9605848789215088,-0.5081631541252136,-0.8064178824424744
1711549405002892300,16.293892333984374,-0.8872811198234558,-0.603458046913147,-0.8491783738136292
1711549405021849600,16.312849609375,-0.7907644510269165,-0.6740128993988037,-0.9035453796386719
1711549405040807000,16.331806884765626,-0.6899717450141907,-0.871016800403595,-0.9527199864387512
1711549405059764200,16.35076416015625,-0.6160571575164795,-1.08268141746521,-0.9594395160675049
1711549405078721800,16.3697216796875,-0.638353705406189,-1.1480439901351929,-1.0034217834472656
1711549405097679000,16.38867919921875,-0.7672461867332458,-1.0139591693878174,-0.9808197617530823
1711549405116636400,16.407636474609376,-0.9514219164848328,-0.8297834396362305,-0.8791107535362244
1711549405135593700,16.42659375,-1.0665699243545532,-0.9000328779220581,-0.6860775351524353
1711549405154551000,16.445551025390625,-1.1224640607833862,-1.1284962892532349,-0.4191296100616455
1711549405173508400,16.46450830078125,-1.1676679849624634,-1.3551270961761475,-0.21632249653339386
1711549405192465700,16.483465576171874,-1.255937933921814,-1.4452297687530518,0.005421424750238657
1711549405211423000,16.502423095703126,-1.3686425685882568,-1.3529890775680542,0.22319471836090088
1711549405230380300,16.52138037109375,-1.477987289428711,-1.2415063381195068,0.39454227685928345
1711549405249337600,16.540337646484375,-1.542128086090088,-1.1697297096252441,0.5420661568641663
1711549405268295000,16.559294921875,-1.5607595443725586,-1.1031454801559448,0.6202568411827087
1711549405287252200,16.578252197265623,-1.525940179824829,-1.0735185146331787,0.604374349117279
1711549405306209800,16.597209716796876,-1.4850122928619385,-1.0518327951431274,0.5222130417823792
1711549405325167000,16.6161669921875,-1.4685189723968506,-0.9809724688529968,0.38446301221847534
1711549405344124400,16.63512451171875,-1.4474440813064575,-0.8887318968772888,0.2430478185415268
1711549405363081700,16.654081787109376,-1.4343105554580688,-0.8792635202407837,0.16485713422298431
1711549405382039000,16.6730390625,-1.4361430406570435,-0.8795689344406128,0.05826122686266899
1711549405400996400,16.691996337890625,-1.423925757408142,-0.871627688407898,-0.05413788929581642
1711549405419953700,16.71095361328125,-1.3949097394943237,-0.8291725516319275,-0.21876594424247742
1711549405438911000,16.729910888671874,-1.4278963804244995,-0.7134137153625488,-0.3775908052921295
1711549405457868300,16.748868408203126,-1.5045599937438965,-0.6361393332481384,-0.5422188639640808
1711549405476825900,16.767825927734375,-1.5506802797317505,-0.6349175572395325,-0.5654317140579224
1711549405495783200,16.786783203125,-1.5128066539764404,-0.6590467095375061,-0.4450913369655609
1711549405514740200,16.805740234375,-1.4123194217681885,-0.5875755548477173,-0.28412848711013794
1711549405533697800,16.82469775390625,-1.316108226776123,-0.4431060254573822,-0.13507747650146484
1711549405552655000,16.843655029296876,-1.2651009559631348,-0.349643737077713,-0.04130972921848297
1711549405571612400,16.8626123046875,-1.2397500276565552,-0.3661370873451233,0.11873684078454971
1711549405590569700,16.88156982421875,-1.164919137954712,-0.36216646432876587,0.25954118371009827
1711549405609527000,16.900527099609373,-1.0403027534484863,-0.3047451674938202,0.3927097022533417
1711549405628484400,16.919484375,-1.025641918182373,-0.15935935080051422,0.4482983946800232
1711549405647442000,16.93844189453125,-1.0855066776275635,-0.03535379841923714,0.3753000497817993
1711549405666399000,16.95739892578125,-1.1661409139633179,-0.08697187155485153,0.3551415205001831
1711549405685356500,16.9763564453125,-1.2070688009262085,-0.14866921305656433,0.35789039731025696
1711549405704313900,16.99531396484375,-1.1884374618530273,-0.18012875318527222,0.3337612450122833
1711549405723271200,17.014271240234375,-1.1972949504852295,-0.1816559135913849,0.3502545952796936
1711549405742228500,17.033228515625,-1.1612539291381836,-0.13217586278915405,0.38385215401649475
1711549405761185800,17.052185791015624,-1.1081087589263916,-0.12056943774223328,0.36247187852859497
1711549405780143000,17.07114306640625,-1.0769546031951904,-0.14836378395557404,0.3053560256958008
1711549405799100400,17.090100341796877,-1.0332777500152588,-0.11140646785497665,0.2687041461467743
1711549405818058000,17.10905810546875,-0.9511164426803589,-0.032910339534282684,0.33712100982666016
1711549405837015300,17.128015380859374,-0.767551600933075,-0.013668099418282509,0.4626537263393402
1711549405855972600,17.14697265625,-0.6050615906715393,-0.057955797761678696,0.5774962902069092
1711549405874930000,17.165929931640626,-0.5253437161445618,-0.0985783040523529,0.6077340841293335
1711549405893887200,17.18488720703125,-0.42882707715034485,-0.0576503649353981,0.6150645017623901
1711549405912844500,17.203844482421875,-0.30573782324790955,0.034895651042461395,0.5445095896720886
1711549405931802000,17.222802001953124,-0.19761475920677185,0.008933897130191326,0.4168388545513153
1711549405950759400,17.241759521484376,-0.13958260416984558,-0.08636100590229034,0.3041343092918396
1711549405969716700,17.260716796875,-0.10201441496610641,-0.13828451931476593,0.15630502998828888
1711549405988674000,17.279674072265625,-0.07360920310020447,-0.14622575044631958,0.026190826669335365
1711549406007631400,17.29863134765625,-0.04245510324835777,-0.07994692772626877,-0.10911571979522705
1711549406026588700,17.317588623046873,-0.02871064469218254,-0.014584396965801716,-0.25847217440605164
1711549406045546200,17.336546142578126,0.01282816007733345,-0.011224640533328056,-0.37667450308799744
1711549406064503600,17.355503662109374,0.09071341902017593,0.011988221667706966,-0.4664716124534607
1711549406083460900,17.3744609375,0.20616686344146729,0.02390008419752121,-0.5177842378616333
1711549406102418200,17.393418212890627,0.34208428859710693,0.03886627033352852,-0.5080104470252991
1711549406121375500,17.41237548828125,0.47067132592201233,0.10331250727176666,-0.49396052956581116
1711549406140333000,17.4313330078125,0.5540543794631958,0.13904809951782227,-0.48968449234962463
1711549406159290400,17.450290283203124,0.6249146461486816,0.168675035238266,-0.414242684841156
1711549406178247700,17.46924755859375,0.6737838387489319,0.24900375306606293,-0.2914588451385498
1711549406197205000,17.488205078125,0.6713404059410095,0.321391224861145,-0.2300669401884079
1711549406216162300,17.507162353515625,0.6331613659858704,0.3284161686897278,-0.23128867149353027
1711549406235119600,17.52611962890625,0.5784889459609985,0.26305365562438965,-0.2716057598590851
1711549406254077200,17.5450771484375,0.591622531414032,0.21723878383636475,-0.3384954333305359
1711549406273034500,17.564034423828126,0.6655371785163879,0.19524765014648438,-0.46922051906585693
1711549406291991800,17.58299169921875,0.7370083332061768,0.17936517298221588,-0.48296496272087097
1711549406310949000,17.60194921875,0.7538071274757385,0.23770275712013245,-0.46769335865974426
1711549406329906700,17.62090673828125,0.6908880472183228,0.23892448842525482,-0.4206567704677582
1711549406348864000,17.639864013671875,0.5839866995811462,0.23678645491600037,-0.3748418986797333
1711549406367821300,17.6588212890625,0.47983428835868835,0.2502254843711853,-0.3061196208000183
1711549406386778600,17.677778564453124,0.4410443603992462,0.24320054054260254,-0.21479532122612
1711549406405736000,17.69673583984375,0.48502662777900696,0.2447277009487152,-0.12988512217998505
1711549406424693200,17.715693359375,0.5277871489524841,0.23067781329154968,-0.09964732080698013
1711549406443650800,17.73465087890625,0.49968740344047546,0.24381139874458313,-0.08437569439411163
1711549406462608100,17.753608154296874,0.4923570156097412,0.24106250703334808,-0.03581194952130318
1711549406481565400,17.7725654296875,0.5937605500221252,0.15431971848011017,0.018860450014472008
1711549406500522800,17.791522705078126,0.6759218573570251,0.03000873140990734,-0.03917170315980911
1711549406519480300,17.810480224609375,0.6771436333656311,0.006490438245236874,-0.11950042098760605
1711549406538437600,17.829437744140623,0.5940660238265991,0.0449749194085598,-0.10086904466152191
1711549406557395000,17.84839501953125,0.5122101306915283,0.14576761424541473,0.013973532244563103
1711549406576352300,17.867352294921876,0.3787361681461334,0.2545015513896942,0.047265663743019104
1711549406595309800,17.886309814453124,0.20127993822097778,0.2557232677936554,0.022525638341903687
1711549406614267100,17.90526708984375,0.10170898586511612,0.20624321699142456,-0.012904518283903599
1711549406633224400,17.924224365234377,0.13011419773101807,0.17936517298221588,-0.09964732080698013
1711549406652181800,17.943181640625,0.1893680840730667,0.1989128440618515,-0.29909467697143555
1711549406671139000,17.96213916015625,0.1853974610567093,0.1983019858598709,-0.533666729927063
1711549406690096600,17.9810966796875,0.17226386070251465,0.09048434346914291,-0.655228853225708
1711549406709054000,18.000053955078126,0.13652828335762024,-0.0988837331533432,-0.5684860348701477
1711549406728011300,18.01901123046875,0.10934479534626007,-0.24182608723640442,-0.38217228651046753
1711549406746968600,18.037968505859375,0.07422006875276566,-0.20364704728126526,-0.21326816082000732
1711549406765926100,18.056926025390624,0.014660755172371864,-0.083306685090065,-0.06940951198339462
1711549406784883500,18.075883544921876,0.005803215317428112,-0.06956222653388977,0.035964664071798325
1711549406803840800,18.0948408203125,0.022296564653515816,-0.16668972373008728,0.191735178232193
1711549406822798300,18.11379833984375,0.043371398001909256,-0.28000515699386597,0.3181841969490051
1711549406841755600,18.132755615234377,0.017104214057326317,-0.31268641352653503,0.34750568866729736
1711549406860713000,18.151712890625,0.000610864779446274,-0.33834272623062134,0.2271653413772583
1711549406879670300,18.170670166015626,-0.09621120244264603,-0.42936158180236816,0.10743584483861923
1711549406898627800,18.1896279296875,-0.12064579129219055,-0.5194641351699829,0.013362666592001915
1711549406917585200,18.208585205078126,-0.017104214057326317,-0.5600866675376892,-0.10758855938911438
1711549406936542500,18.22754248046875,0.029016077518463135,-0.5985711216926575,-0.25205808877944946
1711549406955500000,18.2465,-0.008552107028663158,-0.5704713463783264,-0.3800342381000519
1711549406974457000,18.26545703125,-0.06933315098285675,-0.4883100390434265,-0.45883581042289734
1711549406993414700,18.28441455078125,-0.07391463965177536,-0.47151124477386475,-0.4716639816761017
1711549407012372000,18.3033720703125,-0.05497783049941063,-0.512133777141571,-0.44753479957580566
1711549407031329300,18.322329345703125,-0.027488915249705315,-0.5142717957496643,-0.42310020327568054
1711549407050286800,18.341286865234373,0.000610864779446274,-0.43944084644317627,-0.3986656367778778
1711549407069244200,18.360244140625,0.005192350596189499,-0.2998582422733307,-0.3485747277736664
1711549407088201500,18.379201416015626,0.0412333719432354,-0.2115882933139801,-0.2700785994529724
1711549407107159000,18.398158935546874,0.10445787757635117,-0.15111267566680908,-0.23312127590179443
1711549407126116400,18.417116455078126,0.10995566099882126,-0.10865757614374161,-0.2557232677936554
1711549407145073700,18.43607373046875,0.1081230640411377,-0.0680350661277771,-0.25725042819976807
1711549407164031000,18.455031005859375,0.14721840620040894,-0.0191658828407526,-0.2603047490119934
1711549407182988500,18.473988525390624,0.17653992772102356,0.008017600513994694,-0.2810741662979126
1711549407201945900,18.49294580078125,0.20311254262924194,0.024816380813717842,-0.3171151876449585
1711549407220903200,18.511903076171876,0.22204934060573578,0.04039343446493149,-0.33544111251831055
1711549407239860700,18.53086083984375,0.21471896767616272,-0.01183550525456667,-0.2923751473426819
1711549407258818000,18.549818115234373,0.13775001466274261,-0.05001455545425415,-0.1836412250995636
1711549407277775400,18.568775390625,0.08826996386051178,0.02756527252495289,-0.07246383279561996
1711549407296733000,18.58773291015625,0.1029307171702385,0.08437569439411163,0.039018988609313965
1711549407315690200,18.606690185546874,0.12767073512077332,0.04864010959863663,0.0781143307685852
1711549407334647600,18.6256474609375,0.07880155742168427,-0.07536543905735016,0.07750347256660461
1711549407353604900,18.64460498046875,0.05253437161445618,-0.24060437083244324,0.1407279670238495
1711549407372562400,18.6635625,0.09376774728298187,-0.24121522903442383,0.19509494304656982
1711549407391519700,18.682519775390624,0.1493564397096634,-0.2118937224149704,0.2067013680934906
1711549407410477000,18.70147705078125,0.18570289015769958,-0.2320522516965866,0.17829616367816925
1711549407429434600,18.7204345703125,0.1792888194322586,-0.27114760875701904,0.19540037214756012
1711549407448392000,18.739391845703125,0.15118902921676636,-0.30657777190208435,0.2222784161567688
1711549407467349200,18.758349365234373,0.15241076052188873,-0.29680392146110535,0.25007277727127075
1711549407486306800,18.777306884765625,0.21258094906806946,-0.23663374781608582,0.2473238706588745
1711549407505263900,18.796263916015626,0.3430005609989166,-0.16271910071372986,0.1914297491312027
1711549407524221400,18.815221435546874,0.406530499458313,-0.11079560220241547,0.09491311758756638
1711549407543178800,18.8341787109375,0.43432486057281494,0.022067490965127945,-0.010155626572668552
1711549407562136000,18.853135986328127,0.43279770016670227,0.14485131204128265,-0.11583523452281952
1711549407581093600,18.87209375,0.35766133666038513,0.15370884537696838,-0.19555309414863586
1711549407600051000,18.891051025390624,0.2770271897315979,0.06727148592472076,-0.19127702713012695
1711549407619008300,18.91000830078125,0.28527384996414185,0.0651334598660469,-0.11583523452281952
1711549407637965800,18.9289658203125,0.17745621502399445,0.10453423857688904,-0.049250971525907516
1711549407656923100,18.947923095703125,0.004581485874950886,-0.11843141168355942,-0.05169443041086197
1711549407675880400,18.96688037109375,-0.005192350596189499,-0.16943861544132233,-0.08681915700435638
1711549407694837800,18.985837646484374,0.06017018109560013,-0.08697187155485153,-0.19494222104549408
1711549407713795300,19.00479541015625,0.08979712426662445,-0.021914774551987648,-0.27832525968551636
1711549407732752600,19.023752685546874,0.13011419773101807,0.09995274990797043,-0.28504478931427
1711549407751710000,19.0427099609375,0.185092031955719,0.18547381460666656,-0.3018435537815094
1711549407770667500,19.06166748046875,0.2159406989812851,0.28382304310798645,-0.30398157238960266
1711549407789624800,19.080624755859375,0.2977965772151947,0.33971717953681946,-0.3079521954059601
1711549407808582100,19.09958203125,0.3185659945011139,0.3067304790019989,-0.20563235878944397
1711549407827539500,19.11853955078125,0.21502439677715302,0.2352592945098877,-0.07765618711709976
1711549407846497000,19.1374970703125,0.17715078592300415,0.27252206206321716,-0.05841394513845444
1711549407865454300,19.156454345703125,0.2055560052394867,0.3421606421470642,-0.08132137358188629
1711549407884411600,19.17541162109375,0.20219624042510986,0.2908479869365692,-0.08132137358188629
1711549407903369000,19.194368896484374,0.16676609218120575,0.19494222104549408,-0.07399099320173264
1711549407922326300,19.213326171875,0.12125665694475174,0.15065452456474304,-0.06788235157728195
1711549407941283800,19.232283935546874,0.004581485874950886,0.1424078494310379,0.06192641705274582
1711549407960241200,19.2512412109375,-0.05283980444073677,0.10789398849010468,0.1651625633239746
1711549407979198500,19.270198486328123,-0.006108647678047419,0.10056361556053162,0.22869250178337097
1711549407998155800,19.28915576171875,-0.012217295356094837,0.07460185885429382,0.30260714888572693
1711549408017113300,19.30811328125,-0.05528326332569122,0.070631243288517,0.4064541459083557
1711549408036070700,19.327070556640624,-0.19089524447917938,0.11369720846414566,0.528932511806488
1711549408055028000,19.346028076171876,-0.3121519088745117,0.2557232677936554,0.548480212688446
1711549408073985300,19.3649853515625,-0.43310311436653137,0.5464949011802673,0.5668061375617981
1711549408092942800,19.38394287109375,-0.6056724190711975,0.77618008852005,0.6422479748725891
1711549408111900200,19.402900146484374,-0.684473991394043,0.839709997177124,0.722882091999054
1711549408130857500,19.421857421875,-0.6453786492347717,0.7764855027198792,0.880790650844574
1711549408149814800,19.440814697265626,-0.5586358308792114,0.20196716487407684,0.9727258086204529
1711549408168772000,19.459772216796875,-0.2965748608112335,-0.19906556606292725,0.6459131240844727
1711549408187729700,19.478729736328123,-0.19120067358016968,0.2822958827018738,0.5246564745903015
1711549408206687000,19.49768701171875,-0.15760311484336853,0.21540619432926178,0.4015672206878662
1711549408225644300,19.516644287109376,-0.2562577724456787,-0.09124792367219925,0.3719402849674225
1711549408244601600,19.5356015625,-0.2406807243824005,-0.2680932879447937,0.28519749641418457
1711549408263559200,19.55455908203125,-0.04886918142437935,-0.104076087474823,0.0527634471654892
1711549408282516500,19.5735166015625,0.07452550530433655,0.05688678100705147,-0.03886627033352852
1711549408301473800,19.592473876953125,0.12278381735086441,-0.01183550525456667,-0.11125374585390091
1711549408320431000,19.61143115234375,0.08613193035125732,-0.1193477064371109,-0.18669554591178894
1711549408339388400,19.630388427734374,0.010079269297420979,-0.06467530876398087,-0.24106250703334808
1711549408358345700,19.649345703125,-0.11087195575237274,0.033368486911058426,-0.14912736415863037
1711549408377303300,19.66830322265625,-0.2006690800189972,0.20013457536697388,-0.0703258067369461
1711549408396260600,19.687260498046875,-0.17348559200763702,0.3070359230041504,-0.05199986323714256
1711549408415218000,19.706218017578124,-0.1750127524137497,0.16928590834140778,-0.11797326058149338
1711549408434175200,19.72517529296875,-0.21868959069252014,0.008628465235233307,-0.1784488707780838
1711549408453132500,19.744132568359376,-0.24984370172023773,-0.09338594973087311,-0.23342670500278473
1711549408472090000,19.763090087890625,-0.31520622968673706,-0.17340923845767975,-0.20685409009456635
1711549408491047400,19.78204736328125,-0.33505934476852417,-0.14775292575359344,-0.14332415163516998
1711549408510004700,19.801004638671873,-0.33108872175216675,-0.0524580143392086,-0.06635518372058868
1711549408528962000,19.819962158203126,-0.2886336147785187,-0.009697478264570236,-0.023594651371240616
1711549408547919600,19.838919677734374,-0.24281874299049377,-0.023747367784380913,0.004810560029000044
1711549408566876700,19.857876708984374,-0.2360992431640625,-0.05429060757160187,0.07017309218645096
1711549408585834200,19.876834228515627,-0.20219624042510986,-0.010613775812089443,0.13584105670452118
1711549408604791600,19.89579150390625,-0.16249002516269684,0.015347977168858051,0.18776455521583557
1711549408623748900,19.914748779296875,-0.09315688163042068,0.007406735327094793,0.21403174102306366
1711549408642706200,19.9337060546875,-0.01649334840476513,-0.029856016859412193,0.2424369603395462
1711549408661663500,19.95266357421875,-0.0009162971982732415,-0.03871355578303337,0.30107998847961426
1711549408680621000,19.97162109375,0.02107483521103859,-0.07170025259256363,0.3047451674938202
1711549408699578400,19.990578369140625,0.05039634555578232,-0.06681333482265472,0.2894735336303711
1711549408718535700,20.00953564453125,0.0824667438864708,-0.014278964139521122,0.2787834107875824
1711549408737493000,20.028492919921874,0.13561198115348816,0.014431680552661419,0.24029892683029175
1711549408756450300,20.0474501953125,0.22907429933547974,-0.0029779658652842045,0.15722131729125977
1711549408775407600,20.06640771484375,0.3029889166355133,-0.0057268571108579636,0.06742420047521591
1711549408794365000,20.085364990234375,0.2632827162742615,0.00923932995647192,0.030466880649328232
1711549408813322500,20.104322509765623,0.18875721096992493,0.026648975908756256,-0.04589121788740158
1711549408832279800,20.12327978515625,0.1285870373249054,0.02756527252495289,-0.08987347781658173
1711549408851237000,20.142237060546876,0.14538581669330597,0.04344775900244713,-0.09445496648550034
1711549408870194400,20.1611943359375,0.19425499439239502,0.07429642975330353,-0.09964732080698013
1711549408889151700,20.18015185546875,0.23915356397628784,0.10270164161920547,-0.09964732080698013
1711549408908109000,20.199109130859377,0.24556763470172882,0.07368556410074234,-0.1066722646355629
1711549408927066400,20.21806640625,0.250149130821228,0.07154753804206848,-0.14118611812591553
1711549408946023700,20.237023681640625,0.21380266547203064,0.08926261961460114,-0.13538290560245514
1711549408964981200,20.255981201171874,0.1744018942117691,0.09903645515441895,-0.13019055128097534
1711549408983938600,20.2749384765625,0.12767073512077332,-0.028328854590654373,-0.11461350321769714
1711549409002896000,20.293895751953126,0.06414080411195755,-0.11812597513198853,-0.06727148592472076
1711549409021853200,20.312853271484375,0.01649334840476513,-0.03840812295675278,-0.02023489587008953
1711549409040810500,20.331810546875,0.02932151034474373,0.09995274990797043,-0.007101302966475487
1711549409059767800,20.350767822265624,0.05833758786320686,0.13904809951782227,0.014889828860759735
1711549409078725000,20.36972509765625,0.06352993845939636,0.07643445581197739,0.025579962879419327
1711549409097682400,20.388682373046876,0.048563748598098755,-0.04512763395905495,0.050319984555244446
1711549409116639700,20.4076396484375,0.07513637095689774,-0.09338594973087311,0.07689260691404343
1711549409135597300,20.426597412109373,0.17776164412498474,-0.03779725730419159,0.06895136088132858
1711549409154554600,20.4455546875,0.25870123505592346,0.049861837178468704,0.05887209251523018
1711549409173511700,20.46451171875,0.26878049969673157,0.11308634281158447,0.08177952468395233
1711549409192469200,20.48346923828125,0.2617555558681488,0.09720385819673538,0.1303432732820511
1711549409211426600,20.502426513671875,0.26450446248054504,0.050778135657310486,0.14225514233112335
1711549409230383900,20.5213837890625,0.24526220560073853,0.014737112447619438,0.1346193253993988
1711549409249341200,20.540341064453123,0.2006690800189972,-0.002061668550595641,0.10560324788093567
1711549409268298500,20.559298583984376,0.17623448371887207,-0.018555017188191414,0.07108938694000244
1711549409287255800,20.578255859375,0.14172062277793884,-0.018860450014472008,0.046654798090457916
1711549409306213000,20.597213134765624,0.1279761642217636,-0.020693045109510422,0.009086613543331623
1711549409325170400,20.61617041015625,0.13103049993515015,-0.03657552972435951,-0.028787001967430115
1711549409344127700,20.635127685546873,0.12003492563962936,-0.07170025259256363,-0.05322159454226494
1711549409363085000,20.6540849609375,0.1026252806186676,-0.09094249457120895,-0.07154753804206848
1711549409382042400,20.67304248046875,0.13194678723812103,-0.07780890166759491,-0.116751529276371
1711549409401000000,20.692,0.15638138353824615,-0.08269581943750381,-0.1378263682126999
1711549409419957000,20.71095703125,0.1389717310667038,-0.13187043368816376,-0.10056361556053162
1711549409438914300,20.729914306640627,0.14263692498207092,-0.20609050989151,-0.09201150387525558
1711549409457872000,20.748871826171875,0.15699224174022675,-0.1914297491312027,-0.09750928729772568
1711549409476829200,20.7678291015625,0.15271618962287903,-0.14347685873508453,-0.07887791097164154
1711549409495786500,20.786786376953124,0.13255766034126282,-0.09949459880590439,-0.049250971525907516
1711549409514743800,20.805743896484376,0.11087195575237274,-0.05306887626647949,-0.004657844081521034
1711549409533701000,20.824701171875,0.10873392969369888,-0.011530072428286076,0.035964664071798325
1711549409552658400,20.843658447265625,0.11514800786972046,-0.020082179456949234,0.03871355578303337
1711549409571615700,20.86261572265625,0.11453714966773987,-0.04787652567028999,0.04329504072666168
1711549409590573000,20.881572998046874,0.11759147047996521,-0.020082179456949234,0.017333287745714188
1711549409609530400,20.9005302734375,0.1127045527100563,0.016875140368938446,-0.005268708802759647
1711549409628487700,20.91948779296875,0.09957095980644226,-0.007864884100854397,-0.026343543082475662
1711549409647445000,20.938445068359375,0.08429934084415436,-0.030772313475608826,-0.06452259421348572
1711549409666402300,20.95740234375,0.06719512492418289,-0.057039499282836914,-0.08926261961460114
1711549409685359600,20.976359619140624,0.04214967042207718,-0.08055779337882996,-0.08651372790336609
1711549409704317000,20.99531689453125,0.026572618633508682,-0.08086322247982025,-0.081015944480896
1711549409723274200,21.014274169921876,0.01282816007733345,-0.08788817375898361,-0.06360629200935364
1711549409742231600,21.0332314453125,-0.015577051788568497,-0.10071633011102676,-0.02542724646627903
1711549409761188900,21.05218896484375,-0.04581485688686371,-0.07506000995635986,0.020387612283229828
1711549409780146200,21.071146240234373,-0.0818558782339096,-0.022220205515623093,0.05673406645655632
1711549409799103500,21.090103515625,-0.12034036219120026,0.004963276442140341,0.09155336022377014
1711549409818060800,21.109060791015626,-0.13500112295150757,-0.00022907429956831038,0.10590868443250656
1711549409837018000,21.12801806640625,-0.11575887352228165,0.008933897130191326,0.08513928204774857
1711549409855975400,21.146975341796875,-0.09834922850131989,0.019624030217528343,0.06192641705274582
1711549409874932700,21.1659326171875,-0.10354158282279968,-0.008170315995812416,0.040546149015426636
1711549409893890000,21.18489013671875,-0.10934479534626007,-0.032910339534282684,0.013362666592001915
1711549409912847400,21.203847412109376,-0.09498947113752365,-0.048792824149131775,-0.014431680552661419
1711549409931804700,21.2228046875,-0.08368847519159317,-0.06467530876398087,-0.044669486582279205
1711549409950762000,21.241761962890624,-0.06841685622930527,-0.08910989761352539,-0.06085740402340889
1711549409969719300,21.26071923828125,-0.057726722210645676,-0.10071633011102676,-0.06849320977926254
1711549409988676600,21.279676513671873,-0.05039634555578232,-0.08697187155485153,-0.06910407543182373
1711549410007634000,21.298634033203125,-0.05497783049941063,-0.06650790572166443,-0.06727148592472076
1711549410026591200,21.31759130859375,-0.04062250629067421,-0.062537282705307,-0.03825540840625763
1711549410045548500,21.336548583984374,-0.017715077847242355,-0.05123628303408623,-0.003741546766832471
1711549410064505900,21.355505859375,-0.007024944759905338,-0.048792824149131775,0.013668099418282509
1711549410083463200,21.374463134765627,-0.0030543238390237093,-0.020387612283229828,0.025274530053138733
1711549410102420500,21.39342041015625,-0.004581485874950886,-0.008781181648373604,0.04176788032054901
1711549410121377800,21.412377685546875,-0.0009162971982732415,-0.004199695307761431,0.048792824149131775
1711549410140335000,21.431335205078124,-0.013439024798572063,0.016875140368938446,0.0295505840331316
1711549410159292400,21.45029248046875,-0.009773836471140385,0.06452259421348572,0.014584396965801716
1711549410178249700,21.469249755859376,-0.008246674202382565,0.08926261961460114,0.0035888305865228176
1711549410197207000,21.48820703125,-0.010384701192378998,0.12438733875751495,-0.040088001638650894
1711549410216164600,21.50716455078125,-0.0015271619195118546,0.12988512217998505,-0.08895718306303024
1711549410235122000,21.526121826171874,-0.007330377586185932,0.09048434346914291,-0.08345939964056015
1711549410254079000,21.545078857421874,-0.018631376326084137,0.08681915700435638,-0.04955640435218811
1711549410273036500,21.56403662109375,-0.028099779039621353,0.07826705276966095,-0.024205517023801804
1711549410291993900,21.582993896484375,-0.04734202101826668,0.06482802331447601,-0.002825249684974551
1711549410310951200,21.601951171875,-0.07055488228797913,0.07521272450685501,0.023136503994464874
1711549410329908500,21.620908447265624,-0.07360920310020447,0.08254310488700867,0.03168861195445061
1711549410348865800,21.63986572265625,-0.08063415437936783,0.060551971197128296,0.037491824477910995
1711549410367823000,21.658822998046876,-0.09560033679008484,0.031841326504945755,0.041157014667987823
1711549410386780400,21.677780517578125,-0.11362084746360779,0.010461059398949146,0.02741255611181259
1711549410405737700,21.69673779296875,-0.13164135813713074,0.012293653562664986,-0.002825249684974551
1711549410424695000,21.715695068359373,-0.14538581669330597,-0.004810560029000044,-0.014431680552661419
1711549410443652400,21.73465234375,-0.1493564397096634,-0.04604393243789673,0.003894262947142124
1711549410462609700,21.753609619140626,-0.12675444781780243,-0.08513928204774857,0.01672242395579815
1711549410481567000,21.77256689453125,-0.10201441496610641,-0.12576179206371307,0.03321577236056328
1711549410500524300,21.791524169921875,-0.06841685622930527,-0.1807396113872528,0.06620246917009354
1711549410519481600,21.810481689453123,-0.029626941308379173,-0.29161158204078674,0.1300378441810608
1711549410538439000,21.82943896484375,-0.007941242307424545,-0.4073704481124878,0.18348850309848785
1711549410557396200,21.848396240234376,-0.03543015569448471,-0.44493862986564636,0.20609050989151
1711549410576353500,21.867353515625,-0.05100720748305321,-0.3878227770328522,0.2021198868751526
1711549410595310800,21.886310791015624,-0.06322450190782547,-0.330706924200058,0.21830779314041138
1711549410614268200,21.90526806640625,-0.08949168771505356,-0.29374960064888,0.252210795879364
1711549410633225500,21.9242255859375,-0.09621120244264603,-0.256792277097702,0.28672465682029724
1711549410652183000,21.94318310546875,-0.06963858753442764,-0.18409937620162964,0.28580835461616516
1711549410671140400,21.962140380859374,-0.036651886999607086,-0.16180281341075897,0.24640758335590363
1711549410690097700,21.98109765625,-0.007330377586185932,-0.20975568890571594,0.18806999921798706
1711549410709055000,22.000054931640626,0.012522728182375431,-0.24029892683029175,0.1251509189605713
1711549410728012300,22.01901220703125,0.025350889191031456,-0.1706603467464447,0.03535379841923714
1711549410746969600,22.037969482421875,0.004581485874950886,-0.09766200929880142,-0.05933023989200592
1711549410765927000,22.056927001953124,-0.015271619893610477,-0.08177952468395233,-0.14393500983715057
1711549410784884200,22.07588427734375,-0.011606430634856224,-0.08666644245386124,-0.19982914626598358
1711549410803841500,22.094841552734376,-0.000305432389723137,-0.06223184987902641,-0.22640176117420197
1711549410822798800,22.113798828125,0.002443459117785096,-0.017944153398275375,-0.23403756320476532
1711549410841756200,22.132756103515625,0.007941242307424545,0.013820815831422806,-0.21265730261802673
1711549410860713500,22.15171337890625,0.019242240116000175,0.03550651669502258,-0.1738673895597458
1711549410879670800,22.1706708984375,0.014966187067329884,0.05871937796473503,-0.12927426397800446
1711549410898628400,22.18962841796875,0.000610864779446274,0.07918334752321243,-0.08804088830947876
1711549410917585700,22.208585693359375,-0.0009162971982732415,0.10911571979522705,-0.05841394513845444
1711549410936543000,22.22754296875,-0.01649334840476513,0.11369720846414566,-0.059024810791015625
1711549410955500300,22.246500244140623,-0.026572618633508682,0.0755181610584259,-0.09995274990797043
1711549410974457600,22.26545751953125,-0.004581485874950886,-0.03138317912817001,-0.15187625586986542
1711549410993415000,22.284414794921876,0.035735588520765305,-0.16149736940860748,-0.1628718227148056
1711549411012372200,22.303372314453124,0.07605266571044922,-0.15172353386878967,-0.14088068902492523
1711549411031329500,22.32232958984375,0.08063415437936783,-0.0683404952287674,-0.08956804871559143
1711549411050286800,22.341286865234373,0.06933315098285675,-0.012140937149524689,-0.043753188103437424
1711549411069244400,22.360244384765625,0.06994401663541794,-0.03962985426187515,-0.00954476185142994
1711549411088201500,22.379201416015626,0.07330377399921417,-0.07139482349157333,-0.002825249684974551
1711549411107159000,22.398158935546874,0.06291907280683517,-0.1092684343457222,-0.0012980876490473747
1711549411126116400,22.417116455078126,0.04886918142437935,-0.14164426922798157,0.0191658828407526
1711549411145073700,22.43607373046875,0.020158538594841957,-0.13614648580551147,0.055512335151433945
1711549411164031000,22.455031005859375,-0.0021380267571657896,-0.10651954263448715,0.10010546445846558
1711549411182988300,22.47398828125,0.01282816007733345,-0.06681333482265472,0.15202897787094116
1711549411201945600,22.492945556640624,0.04673115536570549,-0.03413207083940506,0.18257221579551697
1711549411220903200,22.511903076171876,0.0766635313630104,0.0012980876490473747,0.17310380935668945
1711549411239860200,22.530860107421876,0.08949168771505356,0.027259841561317444,0.1495855152606964
1711549411258817800,22.54981787109375,0.08857539296150208,0.06085740402340889,0.104076087474823
1711549411277775000,22.568775146484374,0.0821613147854805,0.06788235157728195,0.030466880649328232
1711549411296732400,22.587732421875,0.0720820426940918,0.006490438245236874,-0.04589121788740158
1711549411315689700,22.606689697265626,0.07330377399921417,-0.0423787422478199,-0.08834631741046906
1711549411334647000,22.62564697265625,0.07574722915887833,-0.05123628303408623,-0.08895718306303024
1711549411353604600,22.6446044921875,0.07238747924566269,-0.024663666263222694,-0.0654388889670372
1711549411372562000,22.66356201171875,0.05406153202056885,0.004352411720901728,-0.0345902182161808
1711549411391519200,22.682519287109375,0.027488915249705315,0.03275762498378754,0.002061668550595641
1711549411410476500,22.7014765625,0.023212861269712448,0.08193223923444748,0.053374309092760086
1711549411429433900,22.720433837890624,0.04520399495959282,0.14362958073616028,0.114460788667202
1711549411448391200,22.73939111328125,0.06200277432799339,0.18058690428733826,0.12331832945346832
1711549411467348500,22.758348388671877,0.05222893878817558,0.15554144978523254,0.07170025259256363
1711549411486306000,22.77730615234375,0.013439024798572063,0.05994110554456711,0.012446369975805283
1711549411505263400,22.796263427734374,-0.020158538594841957,-0.003894262947142124,-0.021456625312566757
1711549411524220700,22.815220703125,-0.04245510324835777,-0.002672533504664898,-0.0345902182161808
1711549411543178000,22.834177978515626,-0.05742128938436508,0.019013166427612305,-0.02848157100379467
1711549411562135600,22.853135498046875,-0.05253437161445618,0.059024810791015625,-0.015347977168858051
1711549411581092600,22.872092529296875,-0.03940077871084213,0.06177370250225067,0.017333287745714188
1711549411600050200,22.89105029296875,-0.032681263983249664,0.05413788929581642,0.05734493210911751
1711549411619007500,22.910007568359376,-0.0360410213470459,0.04222602769732475,0.08666644245386124
1711549411637964800,22.92896484375,-0.04428769648075104,0.015042545273900032,0.10499238222837448
1711549411656922000,22.947922119140625,-0.04825831577181816,-0.009392046369612217,0.093691386282444
1711549411675879700,22.966879638671877,-0.050090912729501724,-0.04696023091673851,0.07414371520280838
1711549411694837000,22.9858369140625,-0.0409279391169548,-0.09613484144210815,0.058566659688949585
1711549411713794300,23.004794189453126,-0.026572618633508682,-0.11690424382686615,0.04634936526417732
1711549411732751600,23.023751708984374,-0.03695731982588768,-0.1303432732820511,0.0524580143392086
1711549411751709200,23.042709228515626,-0.06566796451807022,-0.1401171088218689,0.09063705801963806
1711549411770666500,23.06166650390625,-0.07086031138896942,-0.12698352336883545,0.12728895246982574
1711549411789623800,23.080623779296875,-0.06566796451807022,-0.09674570709466934,0.15294526517391205
1711549411808581000,23.0995810546875,-0.0565049909055233,-0.07170025259256363,0.17157664895057678
1711549411827538700,23.11853857421875,-0.03481929376721382,-0.03504836559295654,0.17676898837089539
1711549411846496000,23.13749609375,-0.020769402384757996,0.019624030217528343,0.1508072465658188
1711549411865453300,23.156453369140625,-0.01649334840476513,0.04405862092971802,0.09582941234111786
1711549411884410600,23.17541064453125,-0.02260199747979641,0.025732679292559624,0.04329504072666168
