time,seconds_elapsed,z,y,x
1710957454855310600,0.042310546875,1.5222663879394531,5.737041473388672,7.806372165679932
1710957454874268400,0.061268310546875,1.5951038599014282,5.739561557769775,7.789958953857422
1710957454893226000,0.08022607421875,1.6763750314712524,5.792575359344482,7.7334489822387695
1710957454912184300,0.099184326171875,1.9356783628463745,5.855765342712402,7.624536991119385
1710957454931142400,0.118142333984375,1.8611253499984741,5.903987407684326,7.6058878898620605
1710957454950100200,0.137100341796875,1.873572587966919,5.950506210327148,7.566477298736572
1710957454969058300,0.156058349609375,1.9102481603622437,5.992361068725586,7.5241570472717285
1710957454988016000,0.17501611328125,1.902422308921814,5.997206211090088,7.522279739379883
1710957455006974200,0.19397412109375,1.8708940744400024,5.995218753814697,7.531765460968018
1710957455025932000,0.21293212890625,1.8863497972488403,6.0068511962890625,7.518631458282471
1710957455044890000,0.23189013671875,1.9309629201889038,6.022494792938232,7.494752883911133
1710957455063848000,0.250847900390625,1.993120551109314,6.029490947723389,7.4728240966796875
1710957455082805800,0.2698056640625,2.054781913757324,6.018908977508545,7.464650630950928
1710957455101763800,0.288763916015625,2.129696846008301,6.008985996246338,7.451634407043457
1710957455120722000,0.307721923828125,2.2099609375,6.004505634307861,7.431848526000977
1710957455139679700,0.3266796875,2.304218292236328,6.009514808654785,7.3991007804870605
1710957455158637800,0.345637939453125,2.414294719696045,6.023862838745117,7.352187633514404
1710957455177595600,0.364595703125,2.5143990516662598,6.039052963256836,7.306027412414551
1710957455196553700,0.3835537109375,2.6157360076904297,6.056319236755371,7.255984306335449
1710957455215511600,0.402511474609375,2.7167537212371826,6.074156761169434,7.203766822814941
1710957455234469600,0.4214697265625,2.7985341548919678,6.094941139221191,7.154738903045654
1710957455253427500,0.440427490234375,2.856818199157715,6.119991779327393,7.110182285308838
1710957455272385500,0.459385498046875,2.8906195163726807,6.148215293884277,7.072068691253662
1710957455291343400,0.47834326171875,2.8890888690948486,6.175217628479004,7.049130439758301
1710957455310301400,0.497301513671875,2.8573906421661377,6.200737953186035,7.0396409034729
1710957455329259500,0.516259521484375,2.798274278640747,6.2294793128967285,7.038014888763428
1710957455348217300,0.53521728515625,2.7097885608673096,6.266290187835693,7.0399603843688965
1710957455367175400,0.554175537109375,2.590315103530884,6.314172744750977,7.042150497436523
1710957455386133500,0.573133544921875,2.4479143619537354,6.375102996826172,7.038193702697754
1710957455405091300,0.59209130859375,2.287424325942993,6.4482951164245605,7.02549409866333
1710957455424049400,0.61104931640625,2.1230833530426025,6.5386762619018555,6.993470191955566
1710957455443007200,0.63000732421875,1.975884199142456,6.646245002746582,6.934961318969727
1710957455461965300,0.64896533203125,1.8379595279693604,6.762150764465332,6.860437393188477
1710957455480923400,0.66792333984375,1.710632562637329,6.886814594268799,6.768744945526123
1710957455499881200,0.686881103515625,1.6117544174194336,7.02305793762207,6.652015209197998
1710957455518839300,0.70583935546875,1.5414857864379883,7.167895317077637,6.512718200683594
1710957455537797000,0.724797119140625,1.4857120513916016,7.315201759338379,6.360098361968994
1710957455556755200,0.743755126953125,1.42960524559021,7.461766719818115,6.200697422027588
1710957455575713300,0.76271337890625,1.3638288974761963,7.608253002166748,6.035300254821777
1710957455594671000,0.781671142578125,1.2918933629989624,7.7512946128845215,5.866756439208984
1710957455613629200,0.800629150390625,1.2180439233779907,7.8830766677856445,5.704721927642822
1710957455632587300,0.819587158203125,1.1444616317749023,7.998072147369385,5.558007717132568
1710957455651545000,0.838545166015625,1.0747902393341064,8.097890853881836,5.425806999206543
1710957455670503200,0.857503173828125,1.0152220726013184,8.188748359680176,5.299445629119873
1710957455689461200,0.876461181640625,0.9754647612571716,8.276528358459473,5.168939590454102
1710957455708419300,0.89541943359375,0.9589114785194397,8.360254287719727,5.035576343536377
1710957455727377200,0.914377197265625,0.9700791239738464,8.435735702514648,4.905884742736816
1710957455746335200,0.933335205078125,1.0075055360794067,8.503397941589355,4.779910087585449
1710957455765293300,0.952293212890625,1.0603959560394287,8.565431594848633,4.656106472015381
1710957455784251100,0.971251220703125,1.1194065809249878,8.623470306396484,4.533550262451172
1710957455803209200,0.990209228515625,1.1791398525238037,8.676461219787598,4.415771961212158
1710957455822167300,1.009167236328125,1.234571099281311,8.721477508544922,4.31069278717041
1710957455841125400,1.02812548828125,1.2828173637390137,8.755424499511719,4.226973533630371
1710957455860083200,1.047083251953125,1.325700044631958,8.777915000915527,4.16666841506958
1710957455879041300,1.066041259765625,1.3690046072006226,8.79193115234375,4.122882843017578
1710957455897999400,1.084999267578125,1.4173734188079834,8.798906326293945,4.09153938293457
1710957455916957400,1.10395751953125,1.468430519104004,8.799001693725586,4.0732879638671875
1710957455935915300,1.122915283203125,1.5175257921218872,8.792827606201172,4.0686211585998535
1710957455954873300,1.141873291015625,1.5569939613342285,8.784989356994629,4.07064151763916
1710957455973831400,1.16083154296875,1.5797960758209229,8.783729553222656,4.064568996429443
1710957455992789500,1.17978955078125,1.5890814065933228,8.792919158935547,4.041012763977051
1710957456011747600,1.19874755859375,1.585866093635559,8.811877250671387,4.000781059265137
1710957456030705700,1.21770556640625,1.586870789527893,8.843775749206543,3.9293601512908936
1710957456049663500,1.23666357421875,1.6192744970321655,8.888997077941895,3.8123550415039062
1710957456068621600,1.25562158203125,1.6866097450256348,8.935933113098145,3.670806646347046
1710957456087579600,1.27457958984375,1.7745808362960815,8.970653533935547,3.5424041748046875
1710957456106537700,1.293537841796875,1.8587309122085571,8.993391036987305,3.4401204586029053
1710957456125495800,1.312495849609375,1.9085407257080078,9.019122123718262,3.3441433906555176
1710957456144454000,1.331453857421875,1.9041428565979004,9.06071662902832,3.2323412895202637
1710957456163412000,1.350411865234375,1.847861886024475,9.115645408630371,3.108182191848755
1710957456182370000,1.3693701171875,1.7667049169540405,9.172112464904785,2.9868853092193604
1710957456201327900,1.388327880859375,1.7037092447280884,9.219603538513184,2.8751821517944336
1710957456220286200,1.4072861328125,1.687774658203125,9.255499839782715,2.767223358154297
1710957456239244000,1.426244140625,1.7223169803619385,9.282727241516113,2.6523540019989014
1710957456258202000,1.4452021484375,1.7961574792861938,9.302459716796875,2.531491756439209
1710957456277160200,1.46416015625,1.898582935333252,9.313983917236328,2.411530017852783
1710957456296118300,1.4831181640625,2.0244083404541016,9.316788673400879,2.295563220977783
1710957456315076400,1.502076416015625,2.1666181087493896,9.310797691345215,2.187511920928955
1710957456334034400,1.521034423828125,2.315396785736084,9.298066139221191,2.086930513381958
1710957456352992500,1.539992431640625,2.4632675647735596,9.281573295593262,1.9887422323226929
1710957456371950600,1.55895068359375,2.6066806316375732,9.26369571685791,1.8866701126098633
1710957456390908700,1.57790869140625,2.7455883026123047,9.244959831237793,1.7784420251846313
1710957456409866800,1.59686669921875,2.883359909057617,9.224822044372559,1.6611132621765137
1710957456428824800,1.615824951171875,3.025195360183716,9.202198028564453,1.5290966033935547
1710957456447783000,1.634782958984375,3.1748576164245605,9.175277709960938,1.3801946640014648
1710957456466741000,1.653740966796875,3.334282875061035,9.142226219177246,1.213521122932434
1710957456485699000,1.672698974609375,3.5056557655334473,9.100034713745117,1.0344730615615845
1710957456504657200,1.6916572265625,3.6805105209350586,9.04941463470459,0.8557631969451904
1710957456523615200,1.710615234375,3.847121477127075,8.995314598083496,0.6740606427192688
1710957456542573300,1.7295732421875,3.998140811920166,8.942548751831055,0.46483221650123596
1710957456561531400,1.748531494140625,4.120862007141113,8.896541595458984,0.20105214416980743
1710957456580489700,1.76748974609375,4.209120273590088,8.856588363647461,-0.12060993909835815
1710957456599447800,1.78644775390625,4.262879371643066,8.8193941116333,-0.4653246998786926
1710957456618406000,1.805406005859375,4.298490047454834,8.77971363067627,-0.781029224395752
1710957456637364000,1.824364013671875,4.3253302574157715,8.741761207580566,-1.0215253829956055
1710957456656322000,1.843322021484375,4.338881492614746,8.71118450164795,-1.2082054615020752
1710957456675280100,1.862280029296875,4.359357833862305,8.670183181762695,-1.4122017621994019
1710957456694238200,1.88123828125,4.394550323486328,8.607386589050293,-1.6646982431411743
1710957456713196300,1.9001962890625,4.419757843017578,8.541690826416016,-1.9171980619430542
1710957456732154400,1.919154296875,4.4376654624938965,8.48430347442627,-2.1199328899383545
1710957456751112400,1.938112548828125,4.469998359680176,8.427526473999023,-2.2729475498199463
1710957456770070800,1.95707080078125,4.515824794769287,8.360363006591797,-2.4252893924713135
1710957456789028900,1.97602880859375,4.5609025955200195,8.27523136138916,-2.624708890914917
1710957456807987000,1.994987060546875,4.5893354415893555,8.175883293151855,-2.874600887298584
1710957456826945000,2.013945068359375,4.5921549797058105,8.072546005249023,-3.1490478515625
1710957456845903000,2.032903076171875,4.5750226974487305,7.971022129058838,-3.4208719730377197
1710957456864861200,2.051861083984375,4.544800281524658,7.8746185302734375,-3.674990177154541
1710957456883819500,2.070819580078125,4.503991603851318,7.782408714294434,-3.913892984390259
1710957456902777600,2.089777587890625,4.454706192016602,7.688741207122803,-4.148402690887451
1710957456921735700,2.108735595703125,4.4002580642700195,7.590848445892334,-4.380310535430908
1710957456940693800,2.12769384765625,4.344385147094727,7.491522312164307,-4.601500511169434
1710957456959651800,2.14665185546875,4.288467884063721,7.3976054191589355,-4.801548480987549
1710957456978610000,2.16560986328125,4.227837085723877,7.314552307128906,-4.979267597198486
1710957456997568300,2.184568359375,4.145746231079102,7.243514537811279,-5.1492390632629395
1710957457016526300,2.2035263671875,4.038571357727051,7.1862359046936035,-5.312094211578369
1710957457035484400,2.222484375,3.9143621921539307,7.141599655151367,-5.463122367858887
1710957457054442800,2.24144287109375,3.7881405353546143,7.108264446258545,-5.594010353088379
1710957457073400800,2.26040087890625,3.6869161128997803,7.081340789794922,-5.694879055023193
1710957457092359000,2.27935888671875,3.630786418914795,7.047759056091309,-5.77207612991333
1710957457111317200,2.298317138671875,3.620516538619995,6.996213912963867,-5.840824604034424
1710957457130275300,2.317275390625,3.6425743103027344,6.927677631378174,-5.908411026000977
1710957457149233400,2.3362333984375,3.68528151512146,6.84946346282959,-5.972765922546387
1710957457168191500,2.35519140625,3.738867998123169,6.768650054931641,-6.031304836273193
1710957457187149600,2.374149658203125,3.7910878658294678,6.689974784851074,-6.08623743057251
1710957457206108000,2.39310791015625,3.8311662673950195,6.615561485290527,-6.142221450805664
1710957457225066000,2.41206591796875,3.8481314182281494,6.548915863037109,-6.202738285064697
1710957457244024000,2.431024169921875,3.83026385307312,6.494678497314453,-6.270456314086914
1710957457262982400,2.449982421875,3.7816319465637207,6.458176136016846,-6.3373188972473145
1710957457281940500,2.4689404296875,3.720446825027466,6.446313381195068,-6.3854289054870605
1710957457300898600,2.487898681640625,3.6547136306762695,6.464128494262695,-6.405349254608154
1710957457319857000,2.50685693359375,3.592217206954956,6.496065139770508,-6.408393859863281
1710957457338815000,2.52581494140625,3.5490481853485107,6.528013229370117,-6.399975776672363
1710957457357773000,2.54477294921875,3.549022674560547,6.545477390289307,-6.382126808166504
1710957457376731400,2.5637314453125,3.5856235027313232,6.548383712768555,-6.358644485473633
1710957457395689500,2.582689453125,3.6372060775756836,6.545957565307617,-6.331789016723633
1710957457414647600,2.6016474609375,3.6897690296173096,6.543690204620361,-6.303658485412598
1710957457433606000,2.62060595703125,3.7413408756256104,6.542401313781738,-6.27453088760376
1710957457452564000,2.63956396484375,3.784313917160034,6.54499626159668,-6.2459893226623535
1710957457471522000,2.65852197265625,3.8085975646972656,6.556168079376221,-6.219456672668457
1710957457490480400,2.67748046875,3.814760208129883,6.576869964599609,-6.1937689781188965
1710957457509438500,2.6964384765625,3.819021701812744,6.60125207901001,-6.165138244628906
1710957457528396800,2.715396728515625,3.834620952606201,6.624073028564453,-6.130882740020752
1710957457547355000,2.73435498046875,3.8595478534698486,6.645559310913086,-6.091864109039307
1710957457566313000,2.75331298828125,3.8908185958862305,6.664143085479736,-6.051538944244385
1710957457585271300,2.772271240234375,3.924626350402832,6.675296306610107,-6.017317771911621
1710957457604229400,2.7912294921875,3.9514787197113037,6.6807379722595215,-5.993658542633057
1710957457623187500,2.8101875,3.964003801345825,6.688248634338379,-5.976989269256592
1710957457642145800,2.829145751953125,3.9635446071624756,6.703662872314453,-5.960000038146973
1710957457661103900,2.848103759765625,3.959101438522339,6.7276997566223145,-5.935819625854492
1710957457680062200,2.867062255859375,3.959886074066162,6.7589874267578125,-5.899641513824463
1710957457699020300,2.886020263671875,3.991062879562378,6.798257350921631,-5.833137512207031
1710957457717978400,2.904978271484375,4.09610652923584,6.83452033996582,-5.716785907745361
1710957457736936700,2.923936767578125,4.262603759765625,6.854783535003662,-5.568890571594238
1710957457755894800,2.942894775390625,4.42331600189209,6.8731184005737305,-5.41894006729126
1710957457774853000,2.96185302734375,4.547180652618408,6.904092311859131,-5.275135040283203
1710957457793811200,2.980811279296875,4.650373935699463,6.938741683959961,-5.13792610168457
1710957457812769500,2.99976953125,4.741070747375488,6.9623236656188965,-5.02182149887085
1710957457831727600,3.0187275390625,4.800961017608643,6.962020397186279,-4.965019702911377
1710957457850686000,3.03768603515625,4.811720848083496,6.932744026184082,-4.995476722717285
1710957457869644000,3.05664404296875,4.7693610191345215,6.881756782531738,-5.105391025543213
1710957457888602000,3.07560205078125,4.6865763664245605,6.818687438964844,-5.264208793640137
1710957457907560400,3.094560546875,4.585999965667725,6.750533580780029,-5.437765121459961
1710957457926518500,3.1135185546875,4.493584156036377,6.678587436676025,-5.601299285888672
1710957457945476900,3.132476806640625,4.441640853881836,6.598991394042969,-5.735462665557861
1710957457964435000,3.15143505859375,4.454550266265869,6.516715049743652,-5.818917751312256
1710957457983393300,3.170393310546875,4.541502952575684,6.442828178405762,-5.833961486816406
1710957458002351400,3.189351318359375,4.706727504730225,6.376579284667969,-5.775494575500488
1710957458021309700,3.208309814453125,4.928255081176758,6.315311431884766,-5.65681266784668
1710957458040267800,3.227267822265625,5.158174991607666,6.264991760253906,-5.505769729614258
1710957458059225900,3.246225830078125,5.354719638824463,6.232083797454834,-5.353362083435059
1710957458078184200,3.26518408203125,5.500594615936279,6.217848777770996,-5.220365047454834
1710957458097142500,3.284142578125,5.593153953552246,6.2221760749816895,-5.115814208984375
1710957458116100600,3.3031005859375,5.633903503417969,6.242831230163574,-5.045451641082764
1710957458135058700,3.32205859375,5.62584114074707,6.275393486022949,-5.013954162597656
1710957458154017000,3.34101708984375,5.572767734527588,6.328918933868408,-5.005939483642578
1710957458172975400,3.359975341796875,5.516578674316406,6.415801525115967,-4.957341194152832
1710957458191933400,3.378933349609375,5.513587951660156,6.518700122833252,-4.8246541023254395
1710957458210891500,3.3978916015625,5.564080238342285,6.601593971252441,-4.650846004486084
1710957458229849900,3.416849853515625,5.627959728240967,6.663670063018799,-4.48240327835083
1710957458248808200,3.43580810546875,5.691110134124756,6.71912145614624,-4.316834449768066
1710957458267766300,3.454766357421875,5.759030342102051,6.7769551277160645,-4.1324143409729
1710957458286724600,3.473724609375,5.82451057434082,6.841186046600342,-3.9298388957977295
1710957458305682700,3.4926826171875,5.875936985015869,6.90736722946167,-3.7325639724731445
1710957458324640800,3.511640869140625,5.905753135681152,6.969890594482422,-3.565542221069336
1710957458343599000,3.53059912109375,5.913821220397949,7.032774925231934,-3.4259567260742188
1710957458362557400,3.549557373046875,5.906385898590088,7.102761268615723,-3.2917723655700684
1710957458381515500,3.568515625,5.904077053070068,7.166198253631592,-3.1556079387664795
1710957458400473900,3.587473876953125,5.927815914154053,7.213729381561279,-2.9989163875579834
1710957458419432000,3.606431884765625,5.972288608551025,7.247471332550049,-2.8242387771606445
1710957458438390300,3.625390380859375,6.022744655609131,7.272620677947998,-2.6468701362609863
1710957458457348400,3.644348388671875,6.06626558303833,7.2945122718811035,-2.48211669921875
1710957458476306700,3.663306640625,6.103800296783447,7.3164520263671875,-2.3202438354492188
1710957458495264800,3.6822646484375,6.140040874481201,7.340756893157959,-2.14092755317688
1710957458514223000,3.70122314453125,6.170845031738281,7.366388320922852,-1.9563684463500977
1710957458533181200,3.72018115234375,6.179530143737793,7.400938034057617,-1.791624665260315
1710957458552139500,3.739139404296875,6.171204566955566,7.443763732910156,-1.6361569166183472
1710957458571097900,3.758097900390625,6.154665470123291,7.490377426147461,-1.4780857563018799
1710957458590056000,3.777055908203125,6.128435134887695,7.541136264801025,-1.3205841779708862
1710957458609014300,3.79601416015625,6.089392185211182,7.598413944244385,-1.1635290384292603
1710957458627972400,3.814972412109375,6.040586471557617,7.659727573394775,-1.0051264762878418
1710957458646930700,3.8339306640625,5.9820427894592285,7.724698543548584,-0.8453410863876343
1710957458665888800,3.852888671875,5.915006637573242,7.792511463165283,-0.6781265139579773
1710957458684847000,3.87184716796875,5.850455284118652,7.855856418609619,-0.4775860607624054
1710957458703805200,3.89080517578125,5.796960830688477,7.906075954437256,-0.24413083493709564
1710957458722763500,3.909763427734375,5.759528160095215,7.937119960784912,0.01871473900973797
1710957458741721600,3.9287216796875,5.734563827514648,7.949098587036133,0.31142887473106384
1710957458760680000,3.947679931640625,5.717020034790039,7.943398475646973,0.6232922673225403
1710957458779638300,3.96663818359375,5.710983753204346,7.9173054695129395,0.9334471225738525
1710957458798596400,3.985596435546875,5.719909191131592,7.870678901672363,1.226962685585022
1710957458817554700,4.0045546875,5.740724563598633,7.809202671051025,1.493592381477356
1710957458836512800,4.0235126953125,5.762472629547119,7.742551803588867,1.737004280090332
1710957458855471000,4.04247119140625,5.773862838745117,7.6809563636779785,1.958518147468567
1710957458874429400,4.061429443359375,5.776198863983154,7.6266279220581055,2.154174327850342
1710957458893387500,4.080387451171875,5.777225971221924,7.57267951965332,2.3342182636260986
1710957458912345900,4.099345947265625,5.771087646484375,7.522209644317627,2.5062520503997803
1710957458931304000,4.118303955078125,5.751598834991455,7.477993011474609,2.6775214672088623
1710957458950262300,4.13726220703125,5.728410243988037,7.434622287750244,2.842902421951294
1710957458969220400,4.156220458984375,5.713238716125488,7.391595840454102,2.982215166091919
1710957458988178700,4.1751787109375,5.7107319831848145,7.349668979644775,3.0887343883514404
1710957459007137000,4.194136962890625,5.718432903289795,7.313131332397461,3.1603856086730957
1710957459026095000,4.21309521484375,5.726716041564941,7.28776741027832,3.203679084777832
1710957459045053400,4.232053466796875,5.730515003204346,7.272741794586182,3.2309157848358154
1710957459064011500,4.251011474609375,5.729076862335205,7.264411926269531,3.25213623046875
1710957459082969900,4.269969970703125,5.715945243835449,7.262025356292725,3.280449628829956
1710957459101928200,4.28892822265625,5.690474510192871,7.265346527099609,3.3171708583831787
1710957459120886300,4.30788623046875,5.663134574890137,7.269210338592529,3.355276584625244
1710957459139844600,4.3268447265625,5.642000675201416,7.269669055938721,3.389709711074829
1710957459158802700,4.345802734375,5.623728275299072,7.271069049835205,3.416959285736084
1710957459177761000,4.364760986328125,5.607524871826172,7.272499084472656,3.440467119216919
1710957459196719000,4.383718994140625,5.596563816070557,7.269885063171387,3.4637598991394043
1710957459215677400,4.402677490234375,5.5934014320373535,7.260730266571045,3.4879841804504395
1710957459234635800,4.4216357421875,5.596737384796143,7.24522066116333,3.5147814750671387
1710957459253593900,4.44059375,5.601277828216553,7.228677272796631,3.541508197784424
1710957459272552200,4.45955224609375,5.600653171539307,7.218380928039551,3.56343412399292
1710957459291510300,4.47851025390625,5.588742256164551,7.216545581817627,3.5857794284820557
1710957459310468600,4.497468505859375,5.566503524780273,7.221383094787598,3.6105458736419678
1710957459329427000,4.516427001953125,5.544921875,7.228663921356201,3.6291394233703613
1710957459348385000,4.535385009765625,5.527667999267578,7.236477375030518,3.639871597290039
1710957459367343400,4.55434326171875,5.514084339141846,7.2439751625061035,3.6455578804016113
1710957459386301400,4.573301513671875,5.509108066558838,7.248565673828125,3.643955707550049
1710957459405259800,4.592259765625,5.512364864349365,7.250197887420654,3.6357741355895996
1710957459424217900,4.6112177734375,5.5235185623168945,7.247165203094482,3.6248769760131836
1710957459443176200,4.63017626953125,5.533278942108154,7.24410343170166,3.6160998344421387
1710957459462134500,4.649134521484375,5.535983562469482,7.245480537414551,3.60919451713562
1710957459481092600,4.668092529296875,5.539074420928955,7.248952388763428,3.5974602699279785
1710957459500051000,4.687051025390625,5.5387349128723145,7.2547688484191895,3.5862433910369873
1710957459519009000,4.706009033203125,5.531517505645752,7.2636637687683105,3.579369306564331
1710957459537967400,4.72496728515625,5.521010398864746,7.274402141571045,3.573781728744507
1710957459556925700,4.74392578125,5.506221294403076,7.28971004486084,3.565396547317505
1710957459575883800,4.7628837890625,5.481753826141357,7.312946319580078,3.5555012226104736
1710957459594842000,4.781842041015625,5.4485602378845215,7.342397689819336,3.545809745788574
1710957459613800400,4.800800537109375,5.41471004486084,7.37199068069458,3.5362486839294434
1710957459632758500,4.819758544921875,5.390305519104004,7.3944926261901855,3.526538372039795
1710957459651716900,4.838716796875,5.384178161621094,7.404769420623779,3.514315605163574
1710957459670675000,4.857675048828125,5.388973236083984,7.409999370574951,3.4958934783935547
1710957459689633300,4.87663330078125,5.386623859405518,7.423301696777344,3.4712042808532715
1710957459708591600,4.895591552734375,5.367209434509277,7.4491705894470215,3.4457669258117676
1710957459727549700,4.9145498046875,5.333383083343506,7.479201316833496,3.433215618133545
1710957459746508000,4.933508056640625,5.284280300140381,7.506833553314209,3.4487998485565186
1710957459765466000,4.952466064453125,5.209747314453125,7.5375542640686035,3.494882822036743
1710957459784424400,4.971424560546875,5.1070237159729,7.578502178192139,3.5573859214782715
1710957459803382800,4.9903828125,4.984781742095947,7.628963470458984,3.6223270893096924
1710957459822340900,5.0093408203125,4.852991104125977,7.683022499084473,3.686464786529541
1710957459841299200,5.02829931640625,4.7193756103515625,7.7335968017578125,3.753577947616577
1710957459860257500,5.047257568359375,4.599670886993408,7.771540641784668,3.8231616020202637
1710957459879215600,5.066215576171875,4.500442981719971,7.801990985870361,3.878831624984741
1710957459898174000,5.085174072265625,4.413181304931641,7.836734294891357,3.9089415073394775
1710957459917132000,5.104132080078125,4.336410999298096,7.868669033050537,3.9306445121765137
1710957459936090400,5.12309033203125,4.283299446105957,7.883177757263184,3.9597039222717285
1710957459955048700,5.142048583984375,4.246432781219482,7.875739574432373,4.013841152191162
1710957459974006800,5.1610068359375,4.209431171417236,7.853734016418457,4.095111846923828
1710957459992965000,5.179965087890625,4.166707515716553,7.825778961181641,4.191196918487549
1710957460011923500,5.19892333984375,4.126395225524902,7.7948832511901855,4.287545680999756
1710957460030881500,5.217881591796875,4.104596138000488,7.7600908279418945,4.370772838592529
1710957460049839900,5.23683984375,4.096557140350342,7.724608898162842,4.440609931945801
1710957460068798000,5.2557978515625,4.083789348602295,7.696097373962402,4.501458168029785
1710957460087756300,5.27475634765625,4.055079460144043,7.683859348297119,4.5480780601501465
1710957460106714600,5.293714599609375,4.016183853149414,7.690712928771973,4.570950984954834
1710957460125672700,5.312672607421875,3.9779462814331055,7.706882476806641,4.577147960662842
1710957460144631000,5.331631103515625,3.935814380645752,7.723428249359131,4.585673809051514
1710957460163589000,5.350589111328125,3.8957114219665527,7.741163730621338,4.590012550354004
1710957460182547500,5.36954736328125,3.885061025619507,7.756160736083984,4.573690891265869
1710957460201505800,5.388505859375,3.9196956157684326,7.763347625732422,4.531754016876221
1710957460220464000,5.407464111328125,3.9908366203308105,7.760046482086182,4.474963665008545
1710957460239422200,5.426422119140625,4.076390743255615,7.750037670135498,4.4147868156433105
1710957460258380500,5.445380615234375,4.159774303436279,7.743457317352295,4.348050117492676
1710957460277338600,5.464338623046875,4.2362284660339355,7.746737003326416,4.267648220062256
1710957460296297000,5.483296875,4.308992862701416,7.751393795013428,4.185554027557373
1710957460315255000,5.502255126953125,4.387809753417969,7.743125915527344,4.118436336517334
1710957460334213400,5.52121337890625,4.472931385040283,7.717280387878418,4.075150966644287
1710957460353171700,5.540171630859375,4.549401760101318,7.681763172149658,4.057568073272705
1710957460372130000,5.559130126953125,4.600459575653076,7.642605304718018,4.073910236358643
1710957460391088000,5.578088134765625,4.615442276000977,7.601903438568115,4.132692813873291
1710957460410046500,5.59704638671875,4.599760055541992,7.556546211242676,4.2321624755859375
1710957460429004500,5.616004638671875,4.557375431060791,7.509171009063721,4.3603973388671875
1710957460447963000,5.634962890625,4.486965656280518,7.471472263336182,4.496066570281982
1710957460466921000,5.6539208984375,4.394914150238037,7.452353000640869,4.617093086242676
1710957460485879300,5.67287939453125,4.306201934814453,7.445435047149658,4.710891246795654
1710957460504837600,5.691837646484375,4.243172645568848,7.43959379196167,4.776853561401367
1710957460523796000,5.7107958984375,4.209167003631592,7.42916202545166,4.822950839996338
1710957460542754000,5.729754150390625,4.184926509857178,7.4269256591796875,4.847426414489746
1710957460561712400,5.74871240234375,4.172539234161377,7.439389705657959,4.838985443115234
1710957460580670500,5.76767041015625,4.18209981918335,7.4601149559021,4.79865837097168
1710957460599628800,5.78662890625,4.20540189743042,7.480040073394775,4.7469987869262695
1710957460618587100,5.805587158203125,4.23355770111084,7.494520664215088,4.698886871337891
1710957460637545500,5.82454541015625,4.26402473449707,7.50409460067749,4.6558613777160645
1710957460656503600,5.843503662109375,4.29375696182251,7.511744022369385,4.616029262542725
1710957460675462000,5.8624619140625,4.317945957183838,7.518490314483643,4.582359790802002
1710957460694420000,5.881419921875,4.334995746612549,7.52508020401001,4.555366516113281
1710957460713378300,5.90037841796875,4.345412731170654,7.532312393188477,4.533436298370361
1710957460732336600,5.919336669921875,4.351181507110596,7.53937292098999,4.5161333084106445
1710957460751294700,5.938294677734375,4.351056098937988,7.548696517944336,4.500654697418213
1710957460770253000,5.957253173828125,4.347429275512695,7.560341835021973,4.484583377838135
1710957460789211400,5.97621142578125,4.343615531921387,7.571183204650879,4.4699625968933105
1710957460808169700,5.995169677734375,4.3415846824646,7.580197334289551,4.456639289855957
1710957460827127800,6.0141279296875,4.341182231903076,7.587368011474609,4.444814205169678
1710957460846086100,6.033086181640625,4.3381476402282715,7.591902256011963,4.440031051635742
1710957460865044200,6.052044189453125,4.335256099700928,7.592720985412598,4.441455841064453
1710957460884002600,6.07100244140625,4.339191913604736,7.588412284851074,4.44497537612915
1710957460902961000,6.0899609375,4.347350597381592,7.5812602043151855,4.449206829071045
1710957460921919200,6.108919189453125,4.353168964385986,7.575331211090088,4.453612804412842
1710957460940877300,6.127877197265625,4.353728771209717,7.571652889251709,4.459317207336426
1710957460959835600,6.146835693359375,4.357293128967285,7.566439151763916,4.464684009552002
1710957460978794000,6.1657939453125,4.372609615325928,7.556407928466797,4.466695785522461
1710957460997752000,6.184751953125,4.399763584136963,7.540196895599365,4.4674272537231445
1710957461016710400,6.20371044921875,4.438398838043213,7.514077186584473,4.4732136726379395
1710957461035668700,6.222668701171875,4.488501071929932,7.473167896270752,4.491715431213379
1710957461054626800,6.241626708984375,4.545175075531006,7.422973155975342,4.517880439758301
1710957461073585200,6.260585205078125,4.604421615600586,7.377199649810791,4.532837867736816
1710957461092543500,6.27954345703125,4.657017707824707,7.341648578643799,4.5368242263793945
1710957461111501800,6.298501708984375,4.700091361999512,7.314391613006592,4.536430358886719
1710957461130460200,6.317460205078125,4.738865852355957,7.29304313659668,4.530458927154541
1710957461149418200,6.336418212890625,4.782153606414795,7.273857593536377,4.515793800354004
1710957461168376600,6.35537646484375,4.828780174255371,7.256842613220215,4.493496417999268
1710957461187335000,6.3743349609375,4.874218463897705,7.241718292236328,4.46876859664917
1710957461206293000,6.39329296875,4.911558628082275,7.231551170349121,4.444282531738281
1710957461225251300,6.412251220703125,4.934912204742432,7.227896690368652,4.424311637878418
1710957461244209700,6.431209716796875,4.951837539672852,7.224501609802246,4.410926342010498
1710957461263168000,6.45016796875,4.970887184143066,7.2146687507629395,4.405589580535889
1710957461282126000,6.4691259765625,4.99447774887085,7.197964191436768,4.406233310699463
1710957461301084400,6.48808447265625,5.0226359367370605,7.172916889190674,4.415060997009277
1710957461320042800,6.507042724609375,5.0591840744018555,7.137752532958984,4.430296421051025
1710957461339001000,6.5260009765625,5.100185394287109,7.098155498504639,4.446872711181641
1710957461357959400,6.54495947265625,5.141912460327148,7.057266712188721,4.4638671875
1710957461376917500,6.56391748046875,5.173585891723633,7.021261215209961,4.484004020690918
1710957461395875800,6.582875732421875,5.187466621398926,6.984593391418457,4.525044918060303
1710957461414834200,6.601834228515625,5.184198379516602,6.945618629455566,4.588340759277344
1710957461433792500,6.62079248046875,5.168778896331787,6.904873847961426,4.666565418243408
1710957461452750600,6.63975048828125,5.145149230957031,6.864723205566406,4.75114631652832
1710957461471709000,6.658708984375,5.111884117126465,6.827026844024658,4.840531349182129
1710957461490667300,6.677667236328125,5.064873218536377,6.792164325714111,4.9380106925964355
1710957461509625600,6.69662548828125,5.0066914558410645,6.756923675537109,5.044543743133545
1710957461528584000,6.715583984375,4.93697452545166,6.72025728225708,5.160892963409424
1710957461547542000,6.7345419921875,4.847358703613281,6.687961578369141,5.286272048950195
1710957461566500400,6.753500244140625,4.7865986824035645,6.64324426651001,5.396866321563721
1710957461585458700,6.772458740234375,4.734222888946533,6.622629165649414,5.467935085296631
1710957461604417000,6.7914169921875,4.695727348327637,6.626034736633301,5.4969258308410645
1710957461623375400,6.810375244140625,4.671008586883545,6.64148473739624,5.499340534210205
1710957461642333700,6.829333740234375,4.656914710998535,6.673290252685547,5.472726345062256
1710957461661292000,6.8482919921875,4.665499687194824,6.7186055183410645,5.409605026245117
1710957461680250400,6.86725048828125,4.7112298011779785,6.753459930419922,5.325925350189209
1710957461699208400,6.88620849609375,4.782763481140137,6.764662265777588,5.24737024307251
1710957461718166800,6.905166748046875,4.851998329162598,6.76143217086792,5.1876325607299805
1710957461737125000,6.924125,4.905733585357666,6.755625247955322,5.1444830894470215
1710957461756083500,6.94308349609375,4.953708171844482,6.748468399047852,5.107771396636963
1710957461775041800,6.962041748046875,5.0000081062316895,6.740196704864502,5.0734663009643555
1710957461794000100,6.981000244140625,5.053709983825684,6.728952407836914,5.035037517547607
1710957461812958500,6.99995849609375,5.114814758300781,6.715870380401611,4.990605354309082
1710957461831916500,7.01891650390625,5.1689958572387695,6.707737922668457,4.945515155792236
1710957461850875000,7.037875,5.207826614379883,6.707659721374512,4.904716491699219
1710957461869833200,7.056833251953125,5.231210708618164,6.712615489959717,4.872946262359619
1710957461888791600,7.07579150390625,5.244132995605469,6.716246128082275,4.854017734527588
1710957461907750000,7.09475,5.249701023101807,6.711976051330566,4.85390567779541
1710957461926708200,7.113708251953125,5.249080181121826,6.701211452484131,4.86942720413208
1710957461945666600,7.13266650390625,5.252557277679443,6.685974597930908,4.88659143447876
1710957461964625000,7.151625,5.266589164733887,6.665060997009277,4.900038242340088
1710957461983583200,7.170583251953125,5.28170919418335,6.643261432647705,4.913351535797119
1710957462002541300,7.189541259765625,5.277065277099609,6.631128311157227,4.9346842765808105
1710957462021499600,7.208499755859375,5.249090194702148,6.633979320526123,4.960621356964111
1710957462040458000,7.2274580078125,5.20529317855835,6.651771068572998,4.982896327972412
1710957462059416300,7.246416259765625,5.153807640075684,6.682663917541504,4.995063304901123
1710957462078374700,7.265374755859375,5.099311351776123,6.722830772399902,4.997096061706543
1710957462097333000,7.2843330078125,5.050437927246094,6.76618766784668,4.9882025718688965
1710957462116291300,7.303291259765625,5.017064094543457,6.807517051696777,4.965597629547119
1710957462135249700,7.322249755859375,4.998558044433594,6.847116470336914,4.929686546325684
1710957462154208000,7.3412080078125,4.989921569824219,6.88155460357666,4.890325546264648
1710957462173166300,7.360166259765625,4.9915337562561035,6.904813766479492,4.855771541595459
1710957462192124700,7.379124755859375,5.004085063934326,6.9188079833984375,4.82282018661499
1710957462211083000,7.3980830078125,5.023375034332275,6.92885160446167,4.788226127624512
1710957462230041300,7.417041259765625,5.046414852142334,6.942011833190918,4.744740009307861
1710957462248999700,7.435999755859375,5.074743747711182,6.963638782501221,4.682424068450928
1710957462267958000,7.4549580078125,5.112813949584961,6.991905689239502,4.5981268882751465
1710957462286916400,7.473916259765625,5.16525936126709,7.018876552581787,4.497317314147949
1710957462305874700,7.492874755859375,5.2365241050720215,7.027609825134277,4.400216102600098
1710957462324833000,7.5118330078125,5.326263904571533,7.00577449798584,4.326711177825928
1710957462343791400,7.530791259765625,5.425930500030518,6.956864833831787,4.281553745269775
1710957462362749700,7.549749755859375,5.520772457122803,6.8944878578186035,4.261160850524902
1710957462381708000,7.5687080078125,5.599360942840576,6.834403991699219,4.255403995513916
1710957462400666400,7.587666259765625,5.6530609130859375,6.784927845001221,4.263572692871094
1710957462419624700,7.606624755859375,5.685206890106201,6.7436113357543945,4.286319255828857
1710957462438583000,7.6255830078125,5.697931289672852,6.711456775665283,4.319758892059326
1710957462457541400,7.644541259765625,5.7012505531311035,6.690120697021484,4.348381996154785
1710957462476499700,7.663499755859375,5.706075191497803,6.678881645202637,4.359315395355225
1710957462495458000,7.6824580078125,5.713660717010498,6.674143314361572,4.356636047363281
1710957462514416400,7.70141650390625,5.72249698638916,6.672086238861084,4.348182201385498
1710957462533374700,7.720374755859375,5.729388236999512,6.673635959625244,4.33671236038208
1710957462552333000,7.7393330078125,5.73358678817749,6.6786065101623535,4.323492050170898
1710957462571291400,7.75829150390625,5.732771396636963,6.6866302490234375,4.31215763092041
1710957462590249700,7.777249755859375,5.7269158363342285,6.698340892791748,4.301747798919678
1710957462609208000,7.7962080078125,5.7315287590026855,6.7102580070495605,4.276961803436279
1710957462628166400,7.81516650390625,5.760185718536377,6.717304229736328,4.22711181640625
1710957462647124700,7.834124755859375,5.822061061859131,6.711325645446777,4.151158332824707
1710957462666083000,7.8530830078125,5.912662506103516,6.686065673828125,4.062922954559326
1710957462685041400,7.87204150390625,6.014625072479248,6.645259380340576,3.9793474674224854
1710957462703999700,7.890999755859375,6.10793924331665,6.601912021636963,3.9087374210357666
1710957462722958300,7.909958251953125,6.178513050079346,6.565357685089111,3.859074115753174
1710957462741916700,7.928916748046875,6.228775501251221,6.536571502685547,3.827007293701172
1710957462760875000,7.947875,6.259324073791504,6.515796184539795,3.8125646114349365
1710957462779833300,7.966833251953125,6.276852130889893,6.501039028167725,3.80893611907959
1710957462798791700,7.985791748046875,6.289490222930908,6.490527153015137,3.806016445159912
1710957462817750000,8.00475,6.299328804016113,6.484452724456787,3.8000946044921875
1710957462836708400,8.023708251953124,6.3064470291137695,6.481644153594971,3.793074369430542
1710957462855666700,8.042666748046875,6.310568332672119,6.482654094696045,3.78448224067688
1710957462874625000,8.061625,6.311763286590576,6.488362789154053,3.772688388824463
1710957462893583400,8.080583251953126,6.309802055358887,6.498251914978027,3.7589237689971924
1710957462912541700,8.099541748046875,6.306807994842529,6.508445739746094,3.7462902069091797
1710957462931500300,8.118500244140625,6.309332847595215,6.512834072113037,3.734394073486328
1710957462950458600,8.137458740234376,6.318127632141113,6.511657238006592,3.72155499458313
1710957462969417000,8.1564169921875,6.3269734382629395,6.511619567871094,3.7065622806549072
1710957462988375300,8.175375244140625,6.332145690917969,6.51572847366333,3.6904752254486084
1710957463007333600,8.194333740234375,6.332063674926758,6.521542072296143,3.680330753326416
1710957463026292000,8.2132919921875,6.33378791809082,6.526201248168945,3.6690902709960938
1710957463045250300,8.232250244140625,6.324598789215088,6.543196678161621,3.6546428203582764
1710957463064209000,8.251208984375,6.308629512786865,6.5658769607543945,3.641542911529541
1710957463083167200,8.270167236328126,6.2948760986328125,6.587278366088867,3.6266634464263916
1710957463102125600,8.28912548828125,6.280147552490234,6.6090874671936035,3.6124892234802246
1710957463121084000,8.308083984375,6.266262531280518,6.622604846954346,3.611849308013916
1710957463140042200,8.327042236328126,6.254652976989746,6.6288323402404785,3.6205358505249023
1710957463159000600,8.34600048828125,6.251042366027832,6.62608528137207,3.6317837238311768
1710957463177959000,8.364958984375,6.258410453796387,6.610004901885986,3.64835786819458
1710957463196917200,8.383917236328125,6.267683982849121,6.594237804412842,3.660950183868408
1710957463215875800,8.402875732421874,6.271337985992432,6.5890398025512695,3.664050579071045
1710957463234834200,8.421834228515625,6.269907474517822,6.5889573097229,3.666644334793091
1710957463253792500,8.44079248046875,6.261439323425293,6.59431791305542,3.671475887298584
1710957463272750800,8.459750732421876,6.24613618850708,6.604048252105713,3.6800436973571777
1710957463291709200,8.478709228515624,6.227929592132568,6.6155104637146,3.690298318862915
1710957463310667800,8.497667724609375,6.210711479187012,6.6286187171936035,3.695788860321045
1710957463329625900,8.5166259765625,6.201674938201904,6.634701251983643,3.7000465393066406
1710957463348584400,8.53558447265625,6.1977033615112305,6.632599830627441,3.710456371307373
1710957463367542800,8.554542724609375,6.189313888549805,6.631078243255615,3.7271406650543213
1710957463386501000,8.573501220703125,6.180372714996338,6.632788181304932,3.7389168739318848
1710957463405459500,8.59245947265625,6.1735429763793945,6.637835502624512,3.7412426471710205
1710957463424417800,8.611417724609375,6.171313285827637,6.643578052520752,3.734722852706909
1710957463443376400,8.63037646484375,6.179036617279053,6.640246391296387,3.7278711795806885
1710957463462334700,8.649334716796876,6.193338394165039,6.62831449508667,3.7253732681274414
1710957463481293000,8.66829296875,6.203454494476318,6.618228435516357,3.7264716625213623
1710957463500251400,8.68725146484375,6.209482192993164,6.6110687255859375,3.729138135910034
1710957463519209700,8.706209716796875,6.214163780212402,6.604823589324951,3.732407331466675
1710957463538168000,8.72516796875,6.215939998626709,6.599246501922607,3.7393078804016113
1710957463557126400,8.74412646484375,6.215686798095703,6.596983909606934,3.7437195777893066
1710957463576085000,8.7630849609375,6.216968536376953,6.598568439483643,3.738795518875122
1710957463595043300,8.782043212890626,6.219368934631348,6.602275371551514,3.728242874145508
1710957463614001700,8.801001708984375,6.218220233917236,6.604815483093262,3.7256598472595215
1710957463632960000,8.8199599609375,6.219797134399414,6.601297855377197,3.7292604446411133
1710957463651918300,8.83891845703125,6.2272796630859375,6.59131383895874,3.7344276905059814
1710957463670877000,8.857876953125,6.240249156951904,6.578292369842529,3.7357401847839355
1710957463689835300,8.876835205078125,6.2560954093933105,6.563705921173096,3.734893798828125
1710957463708793600,8.895793701171876,6.2670488357543945,6.54839563369751,3.743394374847412
1710957463727752000,8.914751953125,6.268296718597412,6.535083770751953,3.7645070552825928
1710957463746710300,8.933710205078125,6.256927013397217,6.528483867645264,3.7947542667388916
1710957463765668600,8.952668701171875,6.2405500411987305,6.525763034820557,3.826270341873169
1710957463784627000,8.971626953125,6.224298477172852,6.5246405601501465,3.854551315307617
1710957463803585500,8.99058544921875,6.204298973083496,6.529361248016357,3.878726005554199
1710957463822544000,9.0095439453125,6.179697036743164,6.538446426391602,3.9026217460632324
1710957463841502200,9.028502197265626,6.15414571762085,6.548177242279053,3.926607847213745
1710957463860460500,9.04746044921875,6.128690242767334,6.563567161560059,3.9407012462615967
1710957463879419000,9.0664189453125,6.1072492599487305,6.588059902191162,3.9331116676330566
1710957463898377200,9.085377197265625,6.085159778594971,6.619443416595459,3.914611577987671
1710957463917335600,9.10433544921875,6.061854362487793,6.6422576904296875,3.9121243953704834
1710957463936294100,9.123294189453125,6.048838138580322,6.644779682159424,3.9279568195343018
1710957463955252500,9.14225244140625,6.0455474853515625,6.635141372680664,3.949259042739868
1710957463974210800,9.1612109375,6.043403625488281,6.625201225280762,3.9691786766052246
1710957463993169200,9.180169189453125,6.045310020446777,6.612231254577637,3.987858533859253
1710957464012127500,9.19912744140625,6.050045967102051,6.5988569259643555,4.002800464630127
1710957464031086000,9.218086181640626,6.05139684677124,6.588283538818359,4.018146991729736
1710957464050044400,9.23704443359375,6.047422885894775,6.585062026977539,4.029394626617432
1710957464069002800,9.256002685546875,6.037853717803955,6.593703269958496,4.029614448547363
1710957464087961000,9.274961181640625,6.017951488494873,6.616115570068359,4.022644996643066
1710957464106919400,9.29391943359375,5.98960018157959,6.647561550140381,4.013105392456055
1710957464125877800,9.312877685546875,5.9624505043029785,6.675889492034912,4.006504058837891
1710957464144836000,9.331836181640625,5.947891712188721,6.689566135406494,4.005331516265869
1710957464163794400,9.35079443359375,5.9460978507995605,6.6912946701049805,4.0051069259643555
1710957464182753000,9.3697529296875,5.942508697509766,6.697239398956299,4.000494956970215
1710957464201711400,9.38871142578125,5.934970378875732,6.712744235992432,3.985673189163208
1710957464220669700,9.407669677734376,5.919506072998047,6.7344889640808105,3.9719631671905518
1710957464239628000,9.4266279296875,5.8956298828125,6.756386756896973,3.9702863693237305
1710957464258586400,9.44558642578125,5.87026309967041,6.776484966278076,3.973618984222412
1710957464277545000,9.464544921875,5.849422454833984,6.793343544006348,3.9755659103393555
1710957464296503300,9.48350341796875,5.831681728363037,6.80762243270874,3.977203130722046
1710957464315461600,9.502461669921875,5.819920063018799,6.816883087158203,3.9785690307617188
1710957464334420000,9.521419921875,5.815887451171875,6.818215847015381,3.9821813106536865
1710957464353378300,9.54037841796875,5.810452938079834,6.81711483001709,3.991988182067871
1710957464372336600,9.559336669921874,5.797573089599609,6.822391033172607,4.0016889572143555
1710957464391295000,9.578294921875,5.785792827606201,6.8308000564575195,4.004391670227051
1710957464410253300,9.59725341796875,5.778420448303223,6.83659029006958,4.005156993865967
1710957464429212000,9.6162119140625,5.774075031280518,6.839651107788086,4.006196975708008
1710957464448170200,9.635170166015625,5.772091865539551,6.840758800506592,4.007165431976318
1710957464467128600,9.654128662109375,5.773009300231934,6.837465763092041,4.01146125793457
1710957464486087000,9.6730869140625,5.774118900299072,6.829672813415527,4.023122787475586
1710957464505045200,9.692045166015625,5.773698806762695,6.823184013366699,4.0347185134887695
1710957464524003600,9.711003662109375,5.768443584442139,6.824525833129883,4.039963722229004
1710957464542962000,9.7299619140625,5.759294509887695,6.829367637634277,4.044830799102783
1710957464561920300,9.748920166015624,5.74908971786499,6.837055683135986,4.046359539031982
1710957464580878600,9.767878662109375,5.741082668304443,6.848412990570068,4.038514137268066
1710957464599837200,9.786837158203125,5.739153861999512,6.858327388763428,4.0244059562683105
1710957464618795500,9.80579541015625,5.746453285217285,6.860454082489014,4.010341167449951
1710957464637753900,9.82475390625,5.75546407699585,6.858853340148926,4.0001420974731445
1710957464656712200,9.843712158203125,5.762908935546875,6.854925155639648,3.9961557388305664
1710957464675670500,9.86267041015625,5.769142150878906,6.848942756652832,3.997420310974121
1710957464694628900,9.88162890625,5.773068904876709,6.843266010284424,4.001471996307373
1710957464713587500,9.90058740234375,5.775963306427002,6.839676380157471,4.003432750701904
1710957464732545800,9.9195458984375,5.774877548217773,6.841555118560791,4.0017876625061035
1710957464751504100,9.938504150390624,5.769301891326904,6.849721431732178,3.9958555698394775
1710957464770462500,9.95746240234375,5.7598114013671875,6.864507675170898,3.9841554164886475
1710957464789420800,9.9764208984375,5.74835729598999,6.883791446685791,3.967390775680542
1710957464808379100,9.995379150390624,5.74044942855835,6.900047302246094,3.9505655765533447
1710957464827337500,10.01433740234375,5.739104270935059,6.906585693359375,3.941082715988159
1710957464846295800,10.0332958984375,5.73846960067749,6.908742904663086,3.9382259845733643
1710957464865254100,10.052254150390626,5.733540058135986,6.91129732131958,3.940924882888794
1710957464884212500,10.07121240234375,5.724144458770752,6.913022994995117,3.9515414237976074
1710957464903170800,10.0901708984375,5.707564353942871,6.9179534912109375,3.9668643474578857
1710957464922129400,10.10912939453125,5.685786247253418,6.926866054534912,3.982555389404297
1710957464941087700,10.128087646484374,5.658226013183594,6.939930438995361,3.9990293979644775
1710957464960046000,10.147046142578125,5.630541801452637,6.952941417694092,4.015471458435059
1710957464979004400,10.16600439453125,5.60320520401001,6.965595722198486,4.031742572784424
1710957464997962800,10.184962646484376,5.5715436935424805,6.975880146026611,4.057755470275879
1710957465016921000,10.203921142578125,5.538875102996826,6.986451625823975,4.084204196929932
1710957465035879400,10.22287939453125,5.504090309143066,7.000955581665039,4.1063361167907715
1710957465054837800,10.241837646484376,5.468416690826416,7.012017250061035,4.135024070739746
1710957465073796000,10.260796142578124,5.439160346984863,7.015896320343018,4.166908264160156
1710957465092754400,10.27975439453125,5.4218058586120605,7.012664794921875,4.194872856140137
1710957465111712800,10.298712646484375,5.411754131317139,7.004703998565674,4.221069812774658
1710957465130671000,10.317671142578124,5.4083638191223145,6.984799861907959,4.258234024047852
1710957465149629400,10.33662939453125,5.415515899658203,6.952972888946533,4.301015377044678
1710957465168588000,10.355588134765625,5.430083274841309,6.9209184646606445,4.334221839904785
1710957465187546400,10.37454638671875,5.44390344619751,6.89555549621582,4.3572492599487305
1710957465206504700,10.393504638671875,5.456023216247559,6.873248100280762,4.377289772033691
1710957465225463000,10.412463134765625,5.470616817474365,6.855037689208984,4.387619495391846
1710957465244421400,10.43142138671875,5.496065616607666,6.834225177764893,4.388279914855957
1710957465263379700,10.450379638671874,5.528891086578369,6.8192877769470215,4.3702473640441895
1710957465282338000,10.469338134765625,5.5616278648376465,6.8174591064453125,4.331389904022217
1710957465301296400,10.48829638671875,5.5834736824035645,6.816170692443848,4.305232524871826
1710957465320254700,10.507254638671874,5.587167739868164,6.80775260925293,4.313750743865967
1710957465339213000,10.526213134765625,5.570873737335205,6.804203987121582,4.340342044830322
1710957465358171400,10.54517138671875,5.5524702072143555,6.817364692687988,4.343270778656006
1710957465377129700,10.564129638671876,5.548726558685303,6.827125549316406,4.332709312438965
1710957465396088000,10.583088134765624,5.529195785522461,6.827976226806641,4.356272220611572
1710957465415046400,10.60204638671875,5.462205410003662,6.852962970733643,4.401318073272705
1710957465434004700,10.621004638671875,5.4003586769104,6.889649391174316,4.420321941375732
1710957465452963000,10.639963134765624,5.372413635253906,6.912967205047607,4.41796875
1710957465471921700,10.658921630859375,5.369204044342041,6.918672561645508,4.41293478012085
1710957465490880000,10.6778798828125,5.385077953338623,6.91056489944458,4.40629243850708
1710957465509838300,10.69683837890625,5.43114709854126,6.880557060241699,4.396697998046875
1710957465528796700,10.715796630859375,5.499682903289795,6.827131271362305,4.394787311553955
1710957465547755000,10.734755126953125,5.571277141571045,6.761573791503906,4.405949115753174
1710957465566713300,10.75371337890625,5.6331634521484375,6.696376323699951,4.426782608032227
1710957465585671700,10.772671630859374,5.675442218780518,6.647448539733887,4.446478843688965
1710957465604630000,10.791630126953125,5.695014953613281,6.626194953918457,4.453172206878662
1710957465623588400,10.81058837890625,5.686929702758789,6.632413387298584,4.454245567321777
1710957465642546700,10.829546630859374,5.6529130935668945,6.6574296951293945,4.4602227210998535
1710957465661505000,10.848505126953125,5.605632305145264,6.689053058624268,4.472565174102783
1710957465680463400,10.86746337890625,5.555356025695801,6.722012042999268,4.4858622550964355
1710957465699421700,10.886421630859376,5.502574443817139,6.756138801574707,4.499627113342285
1710957465718380000,10.905380126953125,5.449538707733154,6.786992073059082,4.517704486846924
1710957465737338400,10.92433837890625,5.39804744720459,6.810812473297119,4.543600559234619
1710957465756296700,10.943296630859376,5.361114978790283,6.822972297668457,4.569013595581055
1710957465775255000,10.962255126953124,5.338040351867676,6.825423717498779,4.592309474945068
1710957465794213400,10.98121337890625,5.327163219451904,6.822234630584717,4.609645366668701
1710957465813172000,11.000171875,5.32543420791626,6.816049098968506,4.6207804679870605
1710957465832130300,11.01913037109375,5.327597618103027,6.805502414703369,4.633814811706543
1710957465851088600,11.038088623046875,5.337539196014404,6.786024570465088,4.650907039642334
1710957465870047000,11.057046875,5.363731384277344,6.753155708312988,4.668583393096924
1710957465889005300,11.07600537109375,5.410996437072754,6.707967758178711,4.679174900054932
1710957465907963600,11.094963623046874,5.45400857925415,6.6666035652160645,4.688344955444336
1710957465926922000,11.113921875,5.475039005279541,6.639627456665039,4.70209264755249
1710957465945880300,11.13288037109375,5.485119342803955,6.61609411239624,4.723469257354736
1710957465964838700,11.151838623046874,5.477955341339111,6.599531650543213,4.754847526550293
1710957465983797000,11.170796875,5.4531378746032715,6.6091628074646,4.769972801208496
1710957466002755300,11.18975537109375,5.437810897827148,6.633363246917725,4.753849983215332
1710957466021714000,11.2087138671875,5.446420192718506,6.643343925476074,4.7299957275390625
1710957466040672300,11.22767236328125,5.47140645980835,6.624172687530518,4.7280473709106445
1710957466059630300,11.24663037109375,5.493863582611084,6.592001438140869,4.7469329833984375
1710957466078588700,11.265588623046876,5.495660305023193,6.569259166717529,4.776290416717529
1710957466097547300,11.28454736328125,5.467977523803711,6.563302040100098,4.816084861755371
1710957466116505600,11.303505615234375,5.424423694610596,6.569058418273926,4.85731315612793
1710957466135464000,11.3224638671875,5.380435466766357,6.587515354156494,4.881182670593262
1710957466154422300,11.34142236328125,5.353107929229736,6.5996503829956055,4.8948163986206055
1710957466173380600,11.360380615234375,5.351126194000244,6.587782382965088,4.912938594818115
1710957466192339000,11.3793388671875,5.360612869262695,6.559781551361084,4.9399895668029785
1710957466211297300,11.39829736328125,5.3569722175598145,6.53563117980957,4.975818157196045
1710957466230255600,11.417255615234374,5.337595462799072,6.5236005783081055,5.012295722961426
1710957466249214200,11.436214111328125,5.300573348999023,6.521999835968018,5.053497314453125
1710957466268172500,11.455172607421876,5.245675563812256,6.526795387268066,5.104333877563477
1710957466287131000,11.474130859375,5.18296480178833,6.537855625152588,5.153999328613281
1710957466306089200,11.493089111328125,5.115424156188965,6.556856155395508,5.197160243988037
1710957466325047600,11.512047607421875,5.037754535675049,6.5822672843933105,5.240723609924316
1710957466344006000,11.531005859375,4.954870700836182,6.6079511642456055,5.287214279174805
1710957466362964200,11.549964111328125,4.886448383331299,6.623927593231201,5.330721855163574
1710957466381922600,11.568922607421875,4.838376522064209,6.627375602722168,5.370138168334961
1710957466400881000,11.587880859375,4.815761089324951,6.617023944854736,5.403130054473877
1710957466419839200,11.606839111328124,4.821933269500732,6.595004558563232,5.424505710601807
1710957466438797800,11.6257978515625,4.852964878082275,6.5658369064331055,5.432210445404053
1710957466457756200,11.644756103515626,4.901501178741455,6.532176494598389,5.429211616516113
1710957466476714500,11.663714599609374,4.959688663482666,6.493315696716309,5.422982215881348
1710957466495672800,11.6826728515625,5.0104169845581055,6.451341152191162,5.426445960998535
1710957466514631200,11.701631103515625,5.043581485748291,6.418251991271973,5.434953689575195
1710957466533589500,11.720589599609376,5.053591251373291,6.3998517990112305,5.447338104248047
1710957466552547800,11.7395478515625,5.034378528594971,6.3977813720703125,5.467523097991943
1710957466571506200,11.758506103515625,4.998148441314697,6.414148807525635,5.481568813323975
1710957466590464800,11.77746484375,4.95811653137207,6.442009925842285,5.485251426696777
1710957466609423000,11.796423095703124,4.920506477355957,6.468708515167236,5.487696170806885
1710957466628381400,11.81538134765625,4.893039226531982,6.483188152313232,5.495164394378662
1710957466647339800,11.83433984375,4.871808052062988,6.484742164611816,5.512168884277344
1710957466666298000,11.853298095703124,4.864333629608154,6.476329326629639,5.528635501861572
1710957466685256700,11.872256591796875,4.861924171447754,6.4626030921936035,5.546787261962891
1710957466704215000,11.891215087890625,4.8453688621521,6.452280521392822,5.573227405548096
1710957466723173400,11.91017333984375,4.810917377471924,6.451276779174805,5.6041483879089355
1710957466742131700,11.929131591796875,4.75492000579834,6.464828968048096,5.636231899261475
1710957466761090000,11.948090087890625,4.689644813537598,6.484489440917969,5.668245792388916
1710957466780048400,11.96704833984375,4.6267876625061035,6.49968957901001,5.702390193939209
1710957466799006700,11.9860068359375,4.56629753112793,6.509413242340088,5.739933967590332
1710957466817965300,12.00496533203125,4.5057878494262695,6.514866352081299,5.781415939331055
1710957466836923600,12.023923583984375,4.444291591644287,6.514257907867432,5.829502582550049
1710957466855882000,12.042882080078124,4.400478839874268,6.510632514953613,5.866671562194824
1710957466874840300,12.06184033203125,4.38068151473999,6.505692958831787,5.886932373046875
1710957466893799000,12.080798828125,4.3743085861206055,6.495345115661621,5.903075695037842
1710957466912757200,12.09975732421875,4.383955001831055,6.47695255279541,5.916116237640381
1710957466931715600,12.118715576171875,4.406985282897949,6.456387996673584,5.921479225158691
1710957466950674000,12.137673828125,4.42193078994751,6.4484124183654785,5.919028282165527
1710957466969632300,12.15663232421875,4.42803430557251,6.440664291381836,5.9228997230529785
1710957466988590800,12.1755908203125,4.422485828399658,6.445786476135254,5.921473503112793
1710957467007549200,12.194549072265625,4.426214218139648,6.465455055236816,5.8971943855285645
1710957467026507500,12.213507568359375,4.415224552154541,6.4864959716796875,5.882307052612305
1710957467045465900,12.2324658203125,4.391678333282471,6.505422115325928,5.879034042358398
1710957467064424200,12.251424072265625,4.377155780792236,6.536274433135986,5.855597019195557
1710957467083382500,12.270382568359375,4.384428024291992,6.581993579864502,5.7986674308776855
1710957467102341000,12.289341064453126,4.4127397537231445,6.627810955047607,5.724530220031738
1710957467121299500,12.308299560546875,4.453610897064209,6.6626152992248535,5.652016639709473
1710957467140257800,12.3272578125,4.4936203956604,6.688740253448486,5.589142799377441
1710957467159216400,12.34621630859375,4.5472002029418945,6.7099175453186035,5.519996166229248
1710957467178174700,12.3651748046875,4.59044075012207,6.733188152313232,5.455494403839111
1710957467197133000,12.384133056640625,4.5960869789123535,6.75826358795166,5.419616222381592
1710957467216091400,12.40309130859375,4.575864315032959,6.7917561531066895,5.394803047180176
1710957467235049700,12.4220498046875,4.561068058013916,6.83213996887207,5.356204509735107
1710957467254008300,12.44100830078125,4.554913520812988,6.870530128479004,5.3121514320373535
1710957467272966700,12.459966552734375,4.550137996673584,6.9021172523498535,5.27517032623291
1710957467291925000,12.478925048828126,4.545981407165527,6.9310455322265625,5.240710735321045
1710957467310883600,12.497883544921875,4.5419840812683105,6.960799217224121,5.204616546630859
1710957467329842000,12.516842041015625,4.541033744812012,6.988388538360596,5.168349266052246
1710957467348800300,12.53580029296875,4.537262439727783,7.016003608703613,5.134134292602539
1710957467367758600,12.554758544921874,4.528733253479004,7.048994064331055,5.09633731842041
1710957467386717200,12.57371728515625,4.534500598907471,7.084273815155029,5.0420002937316895
1710957467405675500,12.592675537109375,4.551096439361572,7.121003150939941,4.974859714508057
1710957467424633900,12.6116337890625,4.5602521896362305,7.1592230796813965,4.911212921142578
1710957467443592400,12.630592529296875,4.5526628494262695,7.20089054107666,4.857038974761963
1710957467462550800,12.64955078125,4.542332172393799,7.242363452911377,4.804766654968262
1710957467481509000,12.668509033203126,4.529097080230713,7.282745838165283,4.755972862243652
1710957467500467500,12.687467529296875,4.510283946990967,7.324316024780273,4.7097907066345215
1710957467519426000,12.706426025390625,4.479946136474609,7.356805324554443,4.688058376312256
1710957467538384400,12.72538427734375,4.431626319885254,7.370662689208984,4.712154388427734
1710957467557343000,12.744343017578124,4.371707916259766,7.37066650390625,4.767789840698242
1710957467576301300,12.76330126953125,4.326695919036865,7.360081195831299,4.824863433837891
1710957467595259600,12.782259765625,4.323485851287842,7.33353328704834,4.8679704666137695
1710957467614218000,12.801218017578124,4.346418380737305,7.293693542480469,4.907246112823486
1710957467633176600,12.820176513671875,4.375829219818115,7.2512593269348145,4.943859577178955
1710957467652135000,12.839135009765625,4.397266864776611,7.222604274749756,4.966730117797852
1710957467671093200,12.85809326171875,4.398165225982666,7.2169342041015625,4.974172115325928
1710957467690051600,12.877051513671875,4.384185791015625,7.2267537117004395,4.972255229949951
1710957467709010200,12.89601025390625,4.367320537567139,7.229427814483643,4.983199119567871
1710957467727968500,12.914968505859376,4.344564437866211,7.220881462097168,5.015378475189209
1710957467746927000,12.933927001953125,4.324021339416504,7.21040153503418,5.048102855682373
1710957467765885400,12.952885498046875,4.3119072914123535,7.195601463317871,5.079484939575195
1710957467784843800,12.97184375,4.324214935302734,7.168341636657715,5.107487678527832
1710957467803802000,12.990802001953124,4.360450267791748,7.128767967224121,5.132010459899902
1710957467822760700,13.0097607421875,4.399724006652832,7.089552879333496,5.152771949768066
1710957467841719000,13.028718994140625,4.436728477478027,7.060827255249023,5.160479545593262
1710957467860677600,13.047677734375,4.500966548919678,7.07349967956543,5.086973190307617
1710957467879636000,13.066635986328125,4.470048904418945,7.0974016189575195,5.080939292907715
1710957467898594300,13.08559423828125,4.4369378089904785,7.0989227294921875,5.107764720916748
1710957467917552600,13.104552734375,4.377424716949463,7.111752510070801,5.141158580780029
1710957467936511200,13.12351123046875,4.2868452072143555,7.092228412628174,5.243437767028809
1710957467955469600,13.142469482421875,4.287844657897949,7.086009502410889,5.25102424621582
1710957467974428200,13.16142822265625,4.2445573806762695,7.094226360321045,5.275041103363037
1710957467993386500,13.180386474609374,4.237200736999512,7.090578079223633,5.285851001739502
1710957468012344800,13.1993447265625,4.2346930503845215,7.09528112411499,5.281548023223877
1710957468031303400,13.218303466796876,4.234102725982666,7.086277484893799,5.294093132019043
1710957468050261800,13.23726171875,4.272999286651611,7.064517974853516,5.2919230461120605
1710957468069220400,13.256220458984375,4.299654960632324,7.042147159576416,5.300142288208008
1710957468088178700,13.2751787109375,4.310256004333496,7.025399208068848,5.313741207122803
1710957468107137000,13.294136962890626,4.299515247344971,7.022609710693359,5.326116561889648
1710957468126095600,13.313095703125,4.280243396759033,7.018311977386475,5.34726095199585
1710957468145054000,13.332053955078125,4.272140979766846,7.009360313415527,5.365451335906982
1710957468164012500,13.351012451171876,4.266478538513184,7.000389575958252,5.381645202636719
1710957468182971000,13.369970947265625,4.265249729156494,6.987865924835205,5.398867607116699
1710957468201929200,13.38892919921875,4.268871784210205,6.97140645980835,5.417250633239746
1710957468220887600,13.407887451171876,4.273933410644531,6.958360195159912,5.430019378662109
1710957468239846100,13.42684619140625,4.281844615936279,6.950875759124756,5.433371067047119
1710957468258804500,13.445804443359375,4.286172866821289,6.94346809387207,5.439425945281982
1710957468277763000,13.46476318359375,4.27742862701416,6.936962127685547,5.45458984375
1710957468296721400,13.483721435546874,4.260273456573486,6.93994140625,5.464217185974121
1710957468315679700,13.5026796875,4.244816303253174,6.952395915985107,5.460413455963135
1710957468334638300,13.521638427734375,4.246134281158447,6.962017059326172,5.447113513946533
1710957468353596700,13.5405966796875,4.261141300201416,6.962632656097412,5.434593677520752
1710957468372555300,13.55955517578125,4.28205680847168,6.953342437744141,5.430047512054443
1710957468391513600,13.578513671875,4.299803256988525,6.945713996887207,5.425784111022949
1710957468410472000,13.597471923828126,4.314507484436035,6.943803787231445,5.4165496826171875
1710957468429430500,13.616430419921874,4.341207981109619,6.936625957489014,5.404397964477539
1710957468448388900,13.635388916015625,4.380331039428711,6.922004699707031,5.391561985015869
1710957468467347500,13.654347412109376,4.4154462814331055,6.915319919586182,5.3714599609375
1710957468486305800,13.673305908203124,4.428599834442139,6.918078422546387,5.357059001922607
1710957468505264000,13.69226416015625,4.426161766052246,6.9212965965271,5.354917526245117
1710957468524222700,13.71122265625,4.421848297119141,6.925373077392578,5.35321044921875
1710957468543181000,13.73018115234375,4.423218727111816,6.93213415145874,5.34331750869751
1710957468562139600,13.7491396484375,4.42457914352417,6.938564300537109,5.333837032318115
1710957468581098000,13.768097900390625,4.412950038909912,6.9518656730651855,5.326144218444824
1710957468600056300,13.787056396484376,4.394755840301514,6.977517127990723,5.30761194229126
1710957468619015000,13.806014892578125,4.377931118011475,7.007508277893066,5.281944751739502
1710957468637973200,13.82497314453125,4.361649513244629,7.027187347412109,5.269254684448242
1710957468656931800,13.843931884765626,4.357053756713867,7.038256645202637,5.25827169418335
1710957468675890200,13.86289013671875,4.36564826965332,7.048449516296387,5.237447261810303
1710957468694848500,13.8818486328125,4.378068923950195,7.057914733886719,5.214283466339111
1710957468713807000,13.90080712890625,4.393355846405029,7.063009738922119,5.19448709487915
1710957468732765400,13.919765380859374,4.416440963745117,7.061046600341797,5.177551746368408
1710957468751723800,13.938723876953125,4.440127849578857,7.055332660675049,5.165068626403809
1710957468770682000,13.95768212890625,4.454220294952393,7.054589748382568,5.153937339782715
1710957468789640700,13.976640625,4.453134536743164,7.070345401763916,5.133244037628174
1710957468808599000,13.99559912109375,4.445764541625977,7.093257904052734,5.107960224151611
1710957468827557600,14.0145576171875,4.441218376159668,7.10743522644043,5.092184543609619
1710957468846516000,14.033515869140626,4.444488525390625,7.1084818840026855,5.087865829467773
1710957468865474300,14.052474365234374,4.459104061126709,7.106807231903076,5.0774078369140625
1710957468884433000,14.071432861328125,4.482968807220459,7.1071953773498535,5.05580472946167
1710957468903391200,14.09039111328125,4.50029993057251,7.105670928955078,5.042532444000244
1710957468922349800,14.109349853515624,4.5114336013793945,7.099909782409668,5.04069709777832
1710957468941308200,14.12830810546875,4.520579814910889,7.097867488861084,5.035377025604248
1710957468960266500,14.1472666015625,4.524165630340576,7.10256290435791,5.025527000427246
1710957468979225000,14.16622509765625,4.529759407043457,7.1021037101745605,5.021134853363037
1710957468998183400,14.185183349609375,4.546903133392334,7.093451023101807,5.017868518829346
1710957469017142000,14.20414208984375,4.5596923828125,7.089277744293213,5.012157917022705
1710957469036100400,14.223100341796876,4.5603766441345215,7.091376304626465,5.008565902709961
1710957469055058700,14.24205859375,4.56378698348999,7.089590072631836,5.007989406585693
1710957469074017000,14.26101708984375,4.576501846313477,7.083907604217529,5.004426002502441
1710957469092975600,14.2799755859375,4.585446357727051,7.077956199645996,5.004659652709961
1710957469111934000,14.298933837890624,4.585152626037598,7.071261882781982,5.014381408691406
1710957469130892500,14.317892578125,4.585286617279053,7.064007759094238,5.024473190307617
1710957469149851000,14.336850830078125,4.586260795593262,7.058801651000977,5.030896186828613
1710957469168809200,14.355809326171874,4.588943004608154,7.052999973297119,5.03658390045166
1710957469187767800,14.374767822265625,4.590915203094482,7.04701042175293,5.04316520690918
1710957469206726100,14.39372607421875,4.586418628692627,7.0467963218688965,5.0475544929504395
1710957469225684500,14.4126845703125,4.5860185623168945,7.0500898361206055,5.043318748474121
1710957469244643000,14.43164306640625,4.591434478759766,7.053337574005127,5.033839225769043
1710957469263601400,14.450601318359375,4.593286037445068,7.057927131652832,5.025711536407471
1710957469282559700,14.469559814453126,4.587927341461182,7.059840202331543,5.027918815612793
1710957469301518300,14.488518310546874,4.576887607574463,7.055915832519531,5.043466091156006
1710957469320476700,14.5074765625,4.5568084716796875,7.056121826171875,5.061326026916504
1710957469339435300,14.526435302734376,4.534319877624512,7.066310405731201,5.067306041717529
1710957469358393600,14.5453935546875,4.521127223968506,7.077342987060547,5.063695430755615
1710957469377352000,14.56435205078125,4.528366565704346,7.078023910522461,5.056271076202393
1710957469396310300,14.583310302734375,4.551939487457275,7.067548751831055,5.049751281738281
1710957469415268900,14.602268798828124,4.581939697265625,7.052951812744141,5.043023586273193
1710957469434227200,14.621227294921875,4.618428707122803,7.036557197570801,5.032630920410156
1710957469453185800,14.640185791015625,4.66070556640625,7.016107559204102,5.022195816040039
1710957469472144100,14.65914404296875,4.70363187789917,6.9923319816589355,5.015329837799072
1710957469491102500,14.6781025390625,4.730567932128906,6.965031147003174,5.0279669761657715
1710957469510060800,14.697060791015625,4.737542152404785,6.9409589767456055,5.054617881774902
1710957469529019400,14.716019287109376,4.736777305603027,6.925796985626221,5.076087951660156
1710957469547977700,14.734977783203124,4.715856552124023,6.926823616027832,5.094134330749512
1710957469566936000,14.75393603515625,4.665055751800537,6.927260875701904,5.140106201171875
1710957469585894400,14.772894287109375,4.584566593170166,6.962333679199219,5.165080547332764
1710957469604853000,14.79185302734375,4.525651931762695,7.015924453735352,5.144479751586914
1710957469623811300,14.810811279296875,4.520264625549316,7.030338764190674,5.129515171051025
1710957469642770000,14.82977001953125,4.555385112762451,7.00313138961792,5.135660648345947
1710957469661728300,14.848728271484376,4.594115257263184,6.975964069366455,5.138133525848389
1710957469680686600,14.8676865234375,4.613839626312256,6.964348793029785,5.136216163635254
1710957469699645000,14.88664501953125,4.623558521270752,6.955031394958496,5.140100002288818
1710957469718603500,14.905603515625,4.619045734405518,6.945865631103516,5.156525135040283
1710957469737561900,14.924561767578124,4.59849739074707,6.9486565589904785,5.1711106300354
1710957469756520200,14.943520263671875,4.586244583129883,6.963868141174316,5.161520957946777
1710957469775478800,14.962478759765625,4.596195220947266,6.981611728668213,5.128593921661377
1710957469794437000,14.98143701171875,4.610446453094482,7.005239009857178,5.083385467529297
1710957469813395500,15.0003955078125,4.603219985961914,7.0864996910095215,4.976170539855957
1710957469832353800,15.019353759765625,4.512761116027832,7.15138578414917,4.966189861297607
1710957469851312400,15.0383125,4.4017133712768555,7.130000591278076,5.094939708709717
1710957469870270700,15.057270751953125,4.284921169281006,7.060905933380127,5.287102699279785
1710957469889229000,15.07622900390625,4.142496585845947,7.025094032287598,5.445930480957031
1710957469908187600,15.095187744140626,4.167871475219727,7.078913688659668,5.356138229370117
1710957469927146000,15.11414599609375,4.209235668182373,7.140811443328857,5.24037504196167
1710957469946104300,15.133104248046875,4.242434501647949,7.161904811859131,5.184521675109863
1710957469965062700,15.152062744140625,4.27117395401001,7.178625583648682,5.137587070465088
1710957469984021200,15.171021240234374,4.249063968658447,7.193976402282715,5.134446144104004
1710957470002979600,15.1899794921875,4.24783992767334,7.208367824554443,5.11523962020874
1710957470021938000,15.20893798828125,4.2541823387146,7.221378326416016,5.091563701629639
1710957470040896500,15.227896484375,4.284758567810059,7.226460933685303,5.05860710144043
1710957470059854800,15.246854736328125,4.313287734985352,7.218477249145508,5.045743942260742
1710957470078813200,15.265813232421875,4.310749530792236,7.215397357940674,5.052312850952148
1710957470097771500,15.284771484375,4.29707670211792,7.209062576293945,5.072961807250977
1710957470116730000,15.303730224609374,4.297969818115234,7.196364879608154,5.090204238891602
1710957470135688400,15.3226884765625,4.3272247314453125,7.197952747344971,5.063100814819336
1710957470154646800,15.341646728515625,4.359736442565918,7.206262588500977,5.023231506347656
1710957470173605400,15.36060546875,4.401339054107666,7.211122989654541,4.979789733886719
1710957470192563700,15.379563720703125,4.425473690032959,7.217455863952637,4.949131965637207
1710957470211522000,15.39852197265625,4.440526962280273,7.21604585647583,4.937690734863281
1710957470230480400,15.41748046875,4.440965175628662,7.210240364074707,4.945769786834717
1710957470249438700,15.436438720703125,4.420637607574463,7.209720134735107,4.964705467224121
1710957470268397300,15.455397216796875,4.403823375701904,7.215158462524414,4.971743106842041
1710957470287355600,15.474355712890626,4.407168388366699,7.219499588012695,4.962467670440674
1710957470306314000,15.49331396484375,4.425992488861084,7.216080665588379,4.950674057006836
1710957470325272300,15.512272216796875,4.447184085845947,7.207510471343994,4.944162368774414
1710957470344231000,15.53123095703125,4.458926200866699,7.200504779815674,4.943793773651123
1710957470363189200,15.550189208984374,4.458778381347656,7.197683811187744,4.948032379150391
1710957470382147600,15.569147705078125,4.4500203132629395,7.200770378112793,4.951425075531006
1710957470401106000,15.58810595703125,4.435847759246826,7.206400394439697,4.955949306488037
1710957470420064500,15.607064453125,4.420233726501465,7.21135950088501,4.962683200836182
1710957470439022800,15.62602294921875,4.411041736602783,7.21589994430542,4.964260578155518
1710957470457981200,15.644981201171875,4.407787799835205,7.223320007324219,4.956353187561035
1710957470476939500,15.663939453125,4.410206317901611,7.231473922729492,4.942292213439941
1710957470495897900,15.68289794921875,4.414507865905762,7.238682270050049,4.927878379821777
1710957470514856400,15.7018564453125,4.414442539215088,7.246463298797607,4.916489124298096
1710957470533814800,15.720814697265626,4.410525321960449,7.252922534942627,4.9104743003845215
1710957470552773000,15.739773193359374,4.403772830963135,7.259217739105225,4.907232284545898
1710957470571731700,15.758731689453125,4.371910572052002,7.288856029510498,4.891764163970947
1710957470590690000,15.77768994140625,4.336948394775391,7.308791637420654,4.8931403160095215
1710957470609648400,15.7966484375,4.327775001525879,7.311280727386475,4.897543907165527
1710957470628606700,15.815606689453125,4.328405857086182,7.297483921051025,4.9175214767456055
1710957470647565000,15.83456494140625,4.3281450271606445,7.291643142700195,4.9264068603515625
1710957470666523600,15.853523681640626,4.326849937438965,7.295839309692383,4.921329498291016
1710957470685482000,15.87248193359375,4.322553634643555,7.293622970581055,4.928383827209473
1710957470704440300,15.8914404296875,4.334192276000977,7.28621244430542,4.929124355316162
1710957470723399000,15.91039892578125,4.3466715812683105,7.279587745666504,4.927924633026123
1710957470742357200,15.929357177734374,4.355989456176758,7.278095245361328,4.921898365020752
1710957470761315600,15.948315673828125,4.35506534576416,7.282970428466797,4.915500164031982
1710957470780274000,15.96727392578125,4.336170673370361,7.287384033203125,4.925651550292969
1710957470799232300,15.986232177734376,4.308988571166992,7.284396648406982,4.95384407043457
1710957470818190600,16.005190673828125,4.279018402099609,7.296006679534912,4.9627275466918945
1710957470837149200,16.024149169921873,4.246228218078613,7.299598693847656,4.985559463500977
1710957470856107500,16.043107421875,4.244194507598877,7.303120136260986,4.982132911682129
1710957470875065900,16.06206591796875,4.204954147338867,7.319956302642822,4.9906907081604
1710957470894024200,16.081024169921875,4.172152042388916,7.3355183601379395,4.9953694343566895
1710957470912982800,16.099982666015624,4.132955074310303,7.346130847930908,5.012326717376709
1710957470931941000,16.118941162109376,4.127963542938232,7.353463172912598,5.0056867599487305
1710957470950899500,16.1378994140625,4.120035171508789,7.362381458282471,4.9991044998168945
1710957470969857800,16.15685791015625,4.119203567504883,7.3729143142700195,4.9842448234558105
1710957470988816400,16.17581640625,4.120730876922607,7.37830924987793,4.974989414215088
1710957471007774700,16.194774658203126,4.117063045501709,7.385178565979004,4.967827796936035
1710957471026733000,16.213733154296875,4.095618724822998,7.395139217376709,4.970736980438232
1710957471045691400,16.23269140625,4.059281349182129,7.386885166168213,5.012639045715332
1710957471064649700,16.251649658203124,4.068678855895996,7.369476795196533,5.030611515045166
1710957471083608300,16.2706083984375,4.050018787384033,7.356191635131836,5.064995288848877
1710957471102566700,16.289566650390626,4.083117485046387,7.338550567626953,5.064011573791504
1710957471121525000,16.30852490234375,4.104364395141602,7.3293352127075195,5.0601806640625
1710957471140483600,16.327483642578127,4.119515419006348,7.314870357513428,5.068790435791016
1710957471159442000,16.34644189453125,4.148138046264648,7.302670001983643,5.063037395477295
1710957471178400300,16.365400146484376,4.148651599884033,7.303300380706787,5.06170654296875
1710957471197358600,16.384358642578125,4.149966716766357,7.307161331176758,5.055052757263184
1710957471216317200,16.403317138671873,4.148141384124756,7.319238662719727,5.039052963256836
1710957471235275500,16.422275634765626,4.137725353240967,7.33438777923584,5.025570869445801
1710957471254233900,16.44123388671875,4.136311054229736,7.341982364654541,5.015636444091797
1710957471273192400,16.4601923828125,4.141250133514404,7.346645832061768,5.0047221183776855
1710957471292150800,16.47915087890625,4.140993118286133,7.351679801940918,4.997535228729248
1710957471311109000,16.498109130859376,4.142195224761963,7.3546552658081055,4.992158889770508
1710957471330067500,16.5170673828125,4.139848232269287,7.357601642608643,4.989764213562012
1710957471349026000,16.536026123046874,4.135063171386719,7.3578901290893555,4.99330472946167
1710957471367984400,16.554984375,4.136486053466797,7.354551792144775,4.997042655944824
1710957471386942700,16.573942626953126,4.137481212615967,7.355626583099365,4.994636535644531
1710957471405901300,16.5929013671875,4.122450828552246,7.3583760261535645,5.003007888793945
1710957471424859600,16.611859619140624,4.1156487464904785,7.353367328643799,5.015955448150635
1710957471443818000,16.63081787109375,4.108068943023682,7.351005554199219,5.025620937347412
1710957471462776300,16.6497763671875,4.101442337036133,7.349733829498291,5.032888412475586
1710957471481735000,16.66873486328125,4.105545520782471,7.346522331237793,5.034233093261719
1710957471500693200,16.687693359375,4.113595485687256,7.335109233856201,5.044292449951172
1710957471519651600,16.706651611328127,4.128115653991699,7.3132243156433105,5.064168453216553
1710957471538610000,16.72560986328125,4.152013301849365,7.281622409820557,5.090103626251221
1710957471557568500,16.744568603515624,4.163999080657959,7.256892681121826,5.115566253662109
1710957471576526800,16.76352685546875,4.167576789855957,7.236433982849121,5.141566276550293
1710957471595485200,16.782485107421873,4.166487216949463,7.221352577209473,5.163607120513916
1710957471614443800,16.80144384765625,4.160489082336426,7.20961856842041,5.1847968101501465
1710957471633402000,16.820402099609375,4.147313594818115,7.201075077056885,5.207178115844727
1710957471652360400,16.8393603515625,4.126405239105225,7.194319725036621,5.23306131362915
1710957471671319000,16.858319091796876,4.102560997009277,7.186199188232422,5.262880802154541
1710957471690277400,16.87727734375,4.088937282562256,7.172321319580078,5.292331695556641
1710957471709235700,16.896235595703125,4.082801342010498,7.154669284820557,5.3208842277526855
1710957471728194300,16.9151943359375,4.082857608795166,7.13632345199585,5.345422744750977
1710957471747152600,16.934152587890626,4.0886712074279785,7.119029521942139,5.364007472991943
1710957471766111000,16.953111083984375,4.089807033538818,7.106839656829834,5.379284381866455
1710957471785069600,16.972069580078124,4.085550308227539,7.092478275299072,5.401426792144775
1710957471804028000,16.99102783203125,4.0805463790893555,7.069954872131348,5.434636116027832
1710957471822986200,17.009986328125,4.07938289642334,7.044684886932373,5.4682207107543945
1710957471841944800,17.02894482421875,4.083268642425537,7.021459579467773,5.495126724243164
1710957471860903200,17.047903076171874,4.089815616607666,6.998929977416992,5.518947124481201
1710957471879861500,17.066861572265626,4.093759536743164,6.9755754470825195,5.545525074005127
1710957471898820000,17.085820068359375,4.095625877380371,6.955819129943848,5.568915367126465
1710957471917778400,17.1047783203125,4.106734275817871,6.939119338989258,5.5815534591674805
1710957471936737000,17.123737060546876,4.114716053009033,6.925412178039551,5.592688083648682
1710957471955695400,17.1426953125,4.10668420791626,6.91534948348999,5.611013889312744
1710957471974653700,17.16165380859375,4.085354804992676,6.91195011138916,5.630738258361816
1710957471993612300,17.1806123046875,4.0596442222595215,6.909789562225342,5.651945114135742
1710957472012570600,17.199570556640627,4.0430192947387695,6.908280372619629,5.665688991546631
1710957472031529000,17.218529052734375,4.031933784484863,6.9168701171875,5.6631083488464355
1710957472050487600,17.237487548828124,4.011235237121582,6.9397759437561035,5.649768352508545
1710957472069446000,17.25644580078125,3.9838712215423584,6.966237545013428,5.6365485191345215
1710957472088404200,17.275404296875,3.9516444206237793,6.992735862731934,5.626413345336914
1710957472107362800,17.29436279296875,3.9150376319885254,7.019315242767334,5.618903636932373
1710957472126321200,17.313321044921874,3.879523754119873,7.045200824737549,5.611135005950928
1710957472145279700,17.33227978515625,3.8545947074890137,7.06833553314209,5.599206924438477
1710957472164238000,17.351238037109376,3.837106943130493,7.088760852813721,5.5853800773620605
1710957472183196400,17.370196533203124,3.816279649734497,7.108837604522705,5.574120998382568
1710957472202155000,17.389155029296877,3.792908191680908,7.134701251983643,5.55700159072876
1710957472221113300,17.40811328125,3.772092580795288,7.171337604522705,5.523913383483887
1710957472240072000,17.427072021484374,3.751217842102051,7.216136455535889,5.479610919952393
1710957472259030300,17.4460302734375,3.735046863555908,7.255992412567139,5.437865257263184
1710957472277988900,17.46498876953125,3.729337215423584,7.284411907196045,5.403681755065918
1710957472296947200,17.483947265625,3.7387607097625732,7.298214912414551,5.378486156463623
1710957472315905800,17.50290576171875,3.8086211681365967,7.280092716217041,5.35397481918335
1710957472334864100,17.521864013671873,3.793487071990967,7.26878023147583,5.380025386810303
1710957472353822500,17.540822509765626,3.7190544605255127,7.221988201141357,5.493807315826416
1710957472372781000,17.559781005859374,3.754338264465332,7.180306434631348,5.524357318878174
1710957472391739400,17.578739501953127,3.7279202938079834,7.176446437835693,5.547216892242432
1710957472410698000,17.597697998046876,3.7724337577819824,7.209283828735352,5.474063396453857
1710957472429656300,17.61665625,3.7633018493652344,7.242718696594238,5.436079502105713
1710957472448614700,17.63561474609375,3.7400481700897217,7.214964389801025,5.488780975341797
1710957472467573200,17.6545732421875,3.801809787750244,7.18813419342041,5.481546878814697
1710957472486531600,17.673531494140626,3.8163347244262695,7.183896541595459,5.477006435394287
1710957472505490200,17.692490234375,3.8447213172912598,7.175699234008789,5.467892646789551
1710957472524448500,17.711448486328123,3.873347759246826,7.192513942718506,5.425431251525879
1710957472543407000,17.730406982421876,3.832197666168213,7.197434902191162,5.448079586029053
1710957472562365400,17.749365478515625,3.8196120262145996,7.186755180358887,5.4709696769714355
1710957472581323800,17.76832373046875,3.835118055343628,7.192413806915283,5.4526543617248535
1710957472600282400,17.787282470703126,3.8138997554779053,7.203289985656738,5.453179836273193
1710957472619241000,17.806240966796874,3.804187059402466,7.2069292068481445,5.455156326293945
1710957472638199300,17.82519921875,3.7894911766052246,7.21555233001709,5.453984260559082
1710957472657157600,17.84415771484375,3.7568893432617188,7.225243091583252,5.463700771331787
1710957472676116200,17.8631162109375,3.756410837173462,7.230043411254883,5.457675457000732
1710957472695074600,17.882074462890625,3.7854106426239014,7.234834671020508,5.431225299835205
1710957472714033200,17.901033203125,3.8153727054595947,7.24110746383667,5.401822566986084
1710957472732991500,17.919991455078126,3.8416976928710938,7.249414920806885,5.371939659118652
1710957472751950000,17.9389501953125,3.8489882946014404,7.264374256134033,5.346452236175537
1710957472770908400,17.957908447265623,3.830045461654663,7.281744956970215,5.3364152908325195
1710957472789867000,17.976866943359376,3.816232919692993,7.295072555541992,5.32810115814209
1710957472808825300,17.995825439453125,3.819309949874878,7.309051036834717,5.306696891784668
1710957472827784000,18.014783935546873,3.8248097896575928,7.327786445617676,5.2768144607543945
1710957472846742300,18.0337421875,3.8328208923339844,7.357624530792236,5.229267597198486
1710957472865700900,18.052700927734374,3.8336052894592285,7.405368328094482,5.160849571228027
1710957472884659200,18.0716591796875,3.817899227142334,7.462128639221191,5.090251445770264
1710957472903617800,18.09061767578125,3.8005757331848145,7.515290260314941,5.024580001831055
1710957472922576400,18.109576416015624,3.7747178077697754,7.566664695739746,4.966634273529053
1710957472941534700,18.12853466796875,3.734377384185791,7.621426582336426,4.913110733032227
1710957472960493000,18.1474931640625,3.7045230865478516,7.66774845123291,4.8633856773376465
1710957472979451600,18.16645166015625,3.6850967407226562,7.707263469696045,4.8154473304748535
1710957472998410200,18.18541015625,3.668876886367798,7.739735126495361,4.775588035583496
1710957473017368600,18.20436865234375,3.665538787841797,7.76353120803833,4.739387512207031
1710957473036327000,18.223326904296876,3.659489393234253,7.793947219848633,4.693922996520996
1710957473055285500,18.242285400390625,3.655965566635132,7.831478595733643,4.633815288543701
1710957473074244000,18.261244140625,3.666665554046631,7.869781017303467,4.559878826141357
1710957473093202400,18.280202392578126,3.692174196243286,7.902556419372559,4.481945514678955
1710957473112161000,18.2991611328125,3.714146614074707,7.938430309295654,4.399639129638672
1710957473131119400,18.318119384765627,3.7227675914764404,7.989194393157959,4.299322128295898
1710957473150078000,18.337077880859376,3.7069578170776367,8.056991577148438,4.184939861297607
1710957473169036300,18.356036376953124,3.6568984985351562,8.120441436767578,4.105594635009766
1710957473187995000,18.374994873046877,3.5940678119659424,8.160408973693848,4.08176326751709
1710957473206953500,18.393953369140625,3.5405478477478027,8.175680160522461,4.097947597503662
1710957473225911800,18.412911865234374,3.5055577754974365,8.184916496276855,4.109572410583496
1710957473244870100,18.4318701171875,3.5061044692993164,8.197258949279785,4.0844292640686035
1710957473263828700,18.450828857421875,3.547498941421509,8.210575103759766,4.02145528793335
1710957473282787300,18.469787353515624,3.6151630878448486,8.227117538452148,3.9262611865997314
1710957473301745700,18.48874560546875,3.6839280128479004,8.254886627197266,3.802093267440796
1710957473320704300,18.507704345703125,3.7281887531280518,8.294183731079102,3.6711721420288086
1710957473339662600,18.52666259765625,3.7452826499938965,8.335535049438477,3.558384656906128
1710957473358621200,18.54562109375,3.7427732944488525,8.369621276855469,3.4801547527313232
1710957473377579500,18.56457958984375,3.7304933071136475,8.395626068115234,3.430346965789795
1710957473396538000,18.5835380859375,3.7274391651153564,8.415229797363281,3.3853344917297363
1710957473415496700,18.60249658203125,3.751620292663574,8.425607681274414,3.3323962688446045
1710957473434455000,18.621455078125,3.8053359985351562,8.42570686340332,3.270667791366577
1710957473453413400,18.640413330078125,3.8844661712646484,8.419662475585938,3.192269802093506
1710957473472372000,18.6593720703125,3.9724583625793457,8.416399002075195,3.090984344482422
1710957473491330600,18.67833056640625,4.050697326660156,8.422325134277344,2.970973014831543
1710957473510289000,18.697288818359375,4.1196393966674805,8.434813499450684,2.837758779525757
1710957473529247500,18.71624755859375,4.18614387512207,8.449109077453613,2.6942806243896484
1710957473548205800,18.735205810546876,4.244741439819336,8.46799087524414,2.5388360023498535
1710957473567164400,18.754164306640625,4.296470642089844,8.49394702911377,2.3587257862091064
1710957473586122800,18.773122802734374,4.355103969573975,8.518370628356934,2.1542582511901855
1710957473605081300,18.792081298828126,4.419731140136719,8.536155700683594,1.9417521953582764
1710957473624040000,18.8110400390625,4.477232456207275,8.550630569458008,1.7353675365447998
1710957473642998300,18.829998291015624,4.522128582000732,8.5641450881958,1.5414831638336182
1710957473661956900,18.848956787109376,4.556520938873291,8.578638076782227,1.347397804260254
1710957473680915200,18.867915283203125,4.573786735534668,8.597784042358398,1.1528042554855347
1710957473699873800,18.886873779296874,4.574012756347656,8.619940757751465,0.9723295569419861
1710957473718832000,18.90583203125,4.564068794250488,8.641607284545898,0.8138102889060974
1710957473737790700,18.924790771484375,4.55141544342041,8.65917682647705,0.6882264018058777
1710957473756749300,18.943749267578124,4.542381763458252,8.6704740524292,0.6000275611877441
1710957473775707600,18.962707763671876,4.529901027679443,8.681410789489746,0.5324351191520691
1710957473794666000,18.981666015625,4.508939266204834,8.696514129638672,0.4587936997413635
1710957473813624600,19.00062451171875,4.4914045333862305,8.710189819335938,0.36090999841690063
1710957473832583200,19.019583251953126,4.483555316925049,8.71854019165039,0.23485054075717926
1710957473851541500,19.03854150390625,4.475479602813721,8.72530746459961,0.09735845774412155
1710957473870500000,19.0575,4.461555004119873,8.732939720153809,-0.026408014819025993
1710957473889458400,19.07645849609375,4.44840145111084,8.738698959350586,-0.13139693439006805
1710957473908417000,19.0954169921875,4.436915874481201,8.74288272857666,-0.21486014127731323
1710957473927375400,19.114375244140625,4.389980316162109,8.765728950500488,-0.24586822092533112
1710957473946334000,19.133333984375,4.353734493255615,8.782865524291992,-0.27687209844589233
1710957473965292500,19.15229248046875,4.296946048736572,8.809680938720703,-0.31012260913848877
1710957473984251000,19.1712509765625,4.194892883300781,8.857863426208496,-0.333949476480484
1710957474003209200,19.190209228515624,4.063521862030029,8.918426513671875,-0.34621426463127136
1710957474022167800,19.209167724609376,3.921177387237549,8.981141090393066,-0.3658680021762848
1710957474041126400,19.22812646484375,3.77142071723938,9.041768074035645,-0.4395255148410797
1710957474060084700,19.247084716796873,3.6316208839416504,9.087623596191406,-0.6299402713775635
1710957474079043300,19.266043212890626,3.523259162902832,9.114498138427734,-0.8264161348342896
1710957474098001700,19.285001708984375,3.4434876441955566,9.134603500366211,-0.9337041974067688
1710957474116960300,19.303960205078123,3.3710176944732666,9.159351348876953,-0.9554616808891296
1710957474135918600,19.322918701171876,3.284940719604492,9.193824768066406,-0.9236516356468201
1710957474154877200,19.341877197265624,3.1835601329803467,9.235742568969727,-0.8581289649009705
1710957474173835500,19.36083544921875,3.0759170055389404,9.281192779541016,-0.7540439367294312
1710957474192794000,19.379794189453126,2.9682328701019287,9.325908660888672,-0.6224275231361389
1710957474211752400,19.39875244140625,2.8660478591918945,9.364882469177246,-0.5051125884056091
1710957474230711000,19.4177109375,2.76944637298584,9.397539138793945,-0.43221908807754517
1710957474249669600,19.436669677734375,2.6679861545562744,9.427661895751953,-0.41402217745780945
1710957474268628000,19.4556279296875,2.5495622158050537,9.459211349487305,-0.43981435894966125
1710957474287586300,19.47458642578125,2.4137203693389893,9.492806434631348,-0.48059868812561035
1710957474306545000,19.493544921875,2.268202543258667,9.526823997497559,-0.515049159526825
1710957474325503500,19.51250341796875,2.1164677143096924,9.559555053710938,-0.5530298352241516
1710957474344461800,19.5314619140625,1.955079436302185,9.590375900268555,-0.6105369925498962
1710957474363420200,19.550420166015623,1.781700849533081,9.619366645812988,-0.6809553503990173
1710957474382378800,19.569378662109376,1.600530743598938,9.646188735961914,-0.7481540441513062
1710957474401337300,19.58833740234375,1.4175664186477661,9.67067813873291,-0.7993083000183105
1710957474420295700,19.607295654296873,1.2355966567993164,9.692842483520508,-0.8321638107299805
1710957474439254300,19.626254150390626,1.0580048561096191,9.712397575378418,-0.8487343192100525
1710957474458212600,19.645212646484374,0.8989591598510742,9.728797912597656,-0.8442394733428955
1710957474477171200,19.664171142578127,0.765060305595398,9.741883277893066,-0.8250985145568848
1710957474496129500,19.683129638671875,0.6529803276062012,9.751193046569824,-0.8113327622413635
1710957474515088100,19.702088134765624,0.5556560754776001,9.757591247558594,-0.8068734407424927
1710957474534046500,19.72104638671875,0.46019959449768066,9.76241683959961,-0.8085863590240479
1710957474553005000,19.740005126953125,0.3778831660747528,9.765617370605469,-0.8125880360603333
1710957474571963400,19.75896337890625,0.33038339018821716,9.768540382385254,-0.7980419397354126
1710957474590922000,19.777921875,0.31846874952316284,9.773240089416504,-0.7434611320495605
1710957474609880300,19.79688037109375,0.3397385776042938,9.779250144958496,-0.6490180492401123
1710957474628839000,19.8158388671875,0.38467293977737427,9.784584045410156,-0.5332350730895996
1710957474647797200,19.83479736328125,0.4381149411201477,9.78799819946289,-0.4165912866592407
1710957474666755800,19.853755859375,0.4864548146724701,9.789586067199707,-0.3126637637615204
1710957474685714200,19.872714111328126,0.5112797021865845,9.790528297424316,-0.23354791104793549
1710957474704672800,19.8916728515625,0.5010761618614197,9.792191505432129,-0.17972250282764435
1710957474723631000,19.910631103515627,0.466340571641922,9.794612884521484,-0.13590314984321594
1710957474742589700,19.929589599609375,0.42878952622413635,9.796968460083008,-0.07714789360761642
1710957474761548000,19.948548095703124,0.40549877285957336,9.798260688781738,0.006029682233929634
1710957474780506600,19.967506591796877,0.40155699849128723,9.79793930053711,0.09758669883012772
1710957474799465000,19.98646484375,0.41940605640411377,9.79603099822998,0.17961668968200684
1710957474818423300,20.00542333984375,0.4649392366409302,9.792441368103027,0.24962188303470612
1710957474837382000,20.0243818359375,0.5399161577224731,9.7866792678833,0.3158913850784302
1710957474856340500,20.043340576171875,0.6422374844551086,9.77802848815918,0.38480105996131897
1710957474875298800,20.062298828125,0.7696385383605957,9.765860557556152,0.4538714289665222
1710957474894257200,20.081257080078124,0.9156386852264404,9.75011157989502,0.5170267224311829
1710957474913215700,20.1002158203125,1.0765790939331055,9.730672836303711,0.5704303979873657
1710957474932174300,20.11917431640625,1.2447677850723267,9.70792293548584,0.6141543984413147
1710957474951132700,20.138132568359374,1.4083048105239868,9.683451652526855,0.6463949680328369
1710957474970091000,20.157091064453127,1.5552284717559814,9.660223960876465,0.6570603251457214
1710957474989049600,20.176049560546875,1.677339792251587,9.641020774841309,0.6384782791137695
1710957475008008000,20.195008056640624,1.7716968059539795,9.626809120178223,0.5966714024543762
1710957475026966300,20.21396630859375,1.8447664976119995,9.61619758605957,0.5440347194671631
1710957475045924900,20.2329248046875,1.9062318801879883,9.607195854187012,0.4883278012275696
1710957475064883500,20.251883544921874,1.9562467336654663,9.59975528717041,0.43381646275520325
1710957475083841800,20.270841796875,1.9899954795837402,9.59480094909668,0.38741615414619446
1710957475102800100,20.289800048828123,2.0080277919769287,9.592190742492676,0.3578823208808899
1710957475121758700,20.3087587890625,2.0159854888916016,9.590913772583008,0.3472403883934021
1710957475140717000,20.327717041015624,2.019469738006592,9.590169906616211,0.34748780727386475
1710957475159675600,20.346675537109373,2.022332191467285,9.589425086975098,0.3514140844345093
1710957475178634000,20.365634033203126,2.0260391235351562,9.588250160217285,0.3619440793991089
1710957475197592600,20.384592529296874,2.0312366485595703,9.586243629455566,0.3852209150791168
1710957475216551000,20.403551025390627,2.041546583175659,9.582711219787598,0.41730454564094543
1710957475235509500,20.422509521484375,2.058088541030884,9.577984809875488,0.44369205832481384
1710957475254467800,20.4414677734375,2.077995777130127,9.572891235351562,0.4605214297771454
1710957475273426200,20.46042626953125,2.100389242172241,9.566971778869629,0.481475830078125
1710957475292384800,20.479384765625,2.1274192333221436,9.559305191040039,0.5139572620391846
1710957475311343000,20.498343017578126,2.1573233604431152,9.550540924072266,0.5509297251701355
1710957475330301700,20.5173017578125,2.1845152378082275,9.541926383972168,0.591546356678009
1710957475349260000,20.536260009765623,2.2066526412963867,9.533661842346191,0.640598714351654
1710957475368218600,20.555218505859376,2.222667932510376,9.526083946228027,0.6955934762954712
1710957475387177000,20.574177001953124,2.2309389114379883,9.520174026489258,0.7480676770210266
1710957475406135600,20.593135498046873,2.2302985191345215,9.516788482666016,0.7917652726173401
1710957475425094000,20.612093994140626,2.222498655319214,9.515630722045898,0.8268374800682068
1710957475444052200,20.63105224609375,2.2105631828308105,9.515880584716797,0.8554534316062927
1710957475463010800,20.6500107421875,2.1979525089263916,9.517271995544434,0.8723078966140747
1710957475481969200,20.66896923828125,2.1835641860961914,9.520639419555664,0.8717010617256165
1710957475500927700,20.687927734375,2.1681137084960938,9.52515983581543,0.8608212471008301
1710957475519886000,20.706885986328125,2.1544480323791504,9.529062271118164,0.8518912196159363
1710957475538844700,20.7258447265625,2.1423275470733643,9.532127380371094,0.8481546640396118
1710957475557803000,20.744802978515626,2.1310455799102783,9.53520393371582,0.841975748538971
1710957475576761600,20.76376171875,2.1190125942230225,9.5392484664917,0.826375424861908
1710957475595720000,20.782719970703123,2.104569911956787,9.544228553771973,0.8055300712585449
1710957475614678300,20.80167822265625,2.0889415740966797,9.549304008483887,0.7858105897903442
1710957475633636900,20.820636962890624,2.0738837718963623,9.55357837677002,0.7736377120018005
1710957475652595200,20.83959521484375,2.05662202835083,9.557960510253906,0.7655631303787231
1710957475671553800,20.8585537109375,2.0324060916900635,9.563674926757812,0.758834958076477
1710957475690512100,20.87751220703125,2.004789113998413,9.570219993591309,0.7497277855873108
1710957475709470500,20.896470458984375,1.9769604206085205,9.576966285705566,0.7373726963996887
1710957475728429000,20.915428955078124,1.9504268169403076,9.583391189575195,0.724450409412384
1710957475747387600,20.9343876953125,1.9277878999710083,9.588706016540527,0.7146691679954529
1710957475766346000,20.953345947265625,1.907528281211853,9.592862129211426,0.7132480144500732
1710957475785304300,20.97230419921875,1.8812532424926758,9.596735000610352,0.7307214140892029
1710957475804263000,20.991262939453126,1.8479573726654053,9.599709510803223,0.775253176689148
1710957475823221200,21.01022119140625,1.8131073713302612,9.600614547729492,0.8433489799499512
1710957475842179800,21.029179931640623,1.7770707607269287,9.59945011138916,0.9289582371711731
1710957475861138200,21.04813818359375,1.7355927228927612,9.596548080444336,1.0316814184188843
1710957475880096500,21.067096435546876,1.6893094778060913,9.591221809387207,1.1511285305023193
1710957475899055000,21.08605517578125,1.641345739364624,9.583307266235352,1.2792946100234985
1710957475918013700,21.105013671875,1.591165542602539,9.574043273925781,1.4057990312576294
1710957475936972000,21.123971923828126,1.5372395515441895,9.564784049987793,1.523871660232544
1710957475955930400,21.142930419921875,1.4849766492843628,9.556099891662598,1.6267054080963135
1710957475974889000,21.161888916015624,1.443221092224121,9.549798011779785,1.6996642351150513
1710957475993847300,21.180847412109376,1.4103186130523682,9.547405242919922,1.7402437925338745
1710957476012806000,21.199805908203125,1.3805924654006958,9.546661376953125,1.7679418325424194
1710957476031764200,21.21876416015625,1.3539336919784546,9.54495620727539,1.797512412071228
1710957476050722800,21.237722900390626,1.3359206914901733,9.539129257202148,1.8413912057876587
1710957476069681200,21.25668115234375,1.3308427333831787,9.526875495910645,1.9073255062103271
1710957476088639700,21.2756396484375,1.3331795930862427,9.505976676940918,2.00734281539917
1710957476107598000,21.29459814453125,1.3339563608169556,9.47241497039795,2.159700632095337
1710957476126556400,21.313556396484376,1.31403648853302,9.42199993133545,2.3810951709747314
1710957476145515000,21.332514892578125,1.254031777381897,9.349319458007812,2.6810479164123535
1710957476164473600,21.3514736328125,1.147721290588379,9.248222351074219,3.05344295501709
1710957476183432000,21.370431884765626,0.989602267742157,9.117522239685059,3.473017930984497
1710957476202390300,21.389390380859375,0.7743518352508545,8.9598970413208,3.9103710651397705
1710957476221348900,21.408348876953124,0.5035858154296875,8.777565956115723,4.344091892242432
1710957476240307500,21.427307373046876,0.1918497085571289,8.572429656982422,4.758891582489014
1710957476259265800,21.446265869140625,-0.13598260283470154,8.347732543945312,5.14463472366333
1710957476278224100,21.46522412109375,-0.45183703303337097,8.10548210144043,5.501580238342285
1710957476297182700,21.4841826171875,-0.7320984601974487,7.8469390869140625,5.836091995239258
1710957476316141000,21.50314111328125,-0.957453191280365,7.575825214385986,6.153092861175537
1710957476335099600,21.522099609375,-1.1126362085342407,7.292372226715088,6.461714267730713
1710957476354058000,21.54105810546875,-1.2162100076675415,6.990149974822998,6.769713401794434
1710957476373016600,21.5600166015625,-1.2875138521194458,6.666901111602783,7.075671195983887
1710957476391975200,21.57897509765625,-1.3336570262908936,6.334370136260986,7.366646766662598
1710957476410933500,21.59793359375,-1.379032850265503,6.001131057739258,7.63250207901001
1710957476429891800,21.616891845703126,-1.435804009437561,5.665823459625244,7.874472141265869
1710957476448850400,21.635850341796875,-1.4797465801239014,5.322425842285156,8.10262393951416
1710957476467809000,21.65480908203125,-1.5031991004943848,4.964404106140137,8.322588920593262
1710957476486767400,21.673767333984376,-1.5061006546020508,4.597834587097168,8.530062675476074
1710957476505725700,21.6927255859375,-1.4809181690216064,4.241369724273682,8.71711254119873
1710957476524684300,21.711684326171873,-1.41007661819458,3.903183698654175,8.885226249694824
1710957476543643000,21.730642822265626,-1.3014622926712036,3.577725887298584,9.037503242492676
1710957476562601200,21.749601318359375,-1.1672807931900024,3.262225389480591,9.174187660217285
1710957476581559800,21.768559814453123,-1.0306686162948608,2.9600048065185547,9.292279243469238
1710957476600518100,21.78751806640625,-0.9038816690444946,2.6708152294158936,9.392557144165039
1710957476619476500,21.8064765625,-0.791850209236145,2.398559331893921,9.475772857666016
1710957476638435000,21.82543505859375,-0.6940774917602539,2.142962694168091,9.544441223144531
1710957476657393700,21.8443935546875,-0.6106063723564148,1.901637077331543,9.601110458374023
1710957476676352000,21.86335205078125,-0.5384697318077087,1.6817294359207153,9.646358489990234
1710957476695310600,21.882310546875,-0.4804036617279053,1.4825782775878906,9.682023048400879
1710957476714269000,21.90126904296875,-0.42912983894348145,1.3046907186508179,9.70999526977539
1710957476733227500,21.9202275390625,-0.381699800491333,1.1483169794082642,9.731703758239746
1710957476752185900,21.939185791015625,-0.3404507040977478,1.013742208480835,9.748169898986816
1710957476771144400,21.95814453125,-0.30605193972587585,0.8963995575904846,9.760797500610352
1710957476790103000,21.97710302734375,-0.2811211049556732,0.7934020757675171,9.770459175109863
1710957476809061400,21.996061279296875,-0.2631814777851105,0.6956523656845093,9.778404235839844
1710957476828020000,22.01502001953125,-0.2495226263999939,0.5979368686676025,9.785223007202148
1710957476846978300,22.033978271484376,-0.24133925139904022,0.50590980052948,9.790617942810059
1710957476865937000,22.05293701171875,-0.2397795468568802,0.4234597980976105,9.794568061828613
1710957476884895200,22.071895263671873,-0.23746971786022186,0.3458617031574249,9.7976713180542
1710957476903853800,22.090853759765626,-0.21965910494327545,0.269726037979126,9.800477981567383
1710957476922812400,22.1098125,-0.1925058513879776,0.20394565165042877,9.80263900756836
1710957476941770800,22.128770751953127,-0.16760042309761047,0.15186013281345367,9.804041862487793
1710957476960729300,22.147729248046875,-0.15183010697364807,0.11745312064886093,9.804771423339844
1710957476979687700,22.166687744140624,-0.14355286955833435,0.09246902167797089,9.805164337158203
1710957476998646300,22.185646240234377,-0.14325588941574097,0.08305589109659195,9.805252075195312
1710957477017604600,22.2046044921875,-0.1526346653699875,0.09459438920021057,9.80500602722168
1710957477036563200,22.223563232421874,-0.163801372051239,0.12866996228694916,9.804436683654785
1710957477055521800,22.242521728515626,-0.1771722286939621,0.18221044540405273,9.803356170654297
1710957477074480000,22.261480224609375,-0.20391584932804108,0.2520564794540405,9.801289558410645
1710957477093438700,22.280438720703124,-0.24187158048152924,0.33189842104911804,9.79804801940918
1710957477112397300,22.299397216796876,-0.2911289632320404,0.4125204384326935,9.7936429977417
1710957477131355600,22.318355712890625,-0.35755786299705505,0.48979926109313965,9.787882804870605
1710957477150314200,22.337314208984374,-0.4347681701183319,0.5538071990013123,9.781343460083008
1710957477169272800,22.35627294921875,-0.5027830600738525,0.6242557764053345,9.77383804321289
1710957477188231200,22.375231201171875,-0.5512185096740723,0.6975187063217163,9.76626968383789
1710957477207189800,22.394189697265624,-0.5835670828819275,0.7743715047836304,9.75859546661377
1710957477226148000,22.413148193359376,-0.6008888483047485,0.8524683117866516,9.751031875610352
1710957477245106700,22.432106689453125,-0.6130614280700684,0.9311030507087708,9.74307918548584
1710957477264065300,22.451065185546874,-0.6309203505516052,1.0102132558822632,9.734054565429688
1710957477283023600,22.470023681640626,-0.6563982963562012,1.0877550840377808,9.724006652832031
1710957477301982200,22.488982177734375,-0.6924537420272827,1.1700290441513062,9.71194839477539
1710957477320940800,22.50794091796875,-0.7311597466468811,1.2653789520263672,9.697144508361816
1710957477339899100,22.526899169921876,-0.7615423798561096,1.3742380142211914,9.679974555969238
1710957477358857700,22.545857666015625,-0.7860310673713684,1.4907885789871216,9.660749435424805
1710957477377816000,22.564816162109373,-0.8096359372138977,1.6174005270004272,9.638407707214355
1710957477396774700,22.583774658203126,-0.8350493311882019,1.7543991804122925,9.6122407913208
1710957477415733200,22.602733154296875,-0.8795168399810791,1.8968160152435303,9.581175804138184
1710957477434691600,22.621691650390623,-0.9398016333580017,2.0514070987701416,9.543525695800781
1710957477453650200,22.640650146484376,-1.016197919845581,2.223212718963623,9.49710750579834
1710957477472608800,22.65960888671875,-1.1099804639816284,2.4158976078033447,9.439373970031738
1710957477491567400,22.6785673828125,-1.2298017740249634,2.6285035610198975,9.367441177368164
1710957477510525700,22.697525634765626,-1.3607189655303955,2.864569902420044,9.279712677001953
1710957477529484300,22.716484375,-1.4874053001403809,3.13269305229187,9.173017501831055
1710957477548443000,22.73544287109375,-1.5958154201507568,3.433084726333618,9.046418190002441
1710957477567401200,22.754401123046875,-1.6841788291931152,3.7584798336029053,8.899873733520508
1710957477586359800,22.77335986328125,-1.7724754810333252,4.096008777618408,8.732206344604492
1710957477605318400,22.792318359375,-1.8639626502990723,4.427786350250244,8.549311637878418
1710957477624276700,22.81127685546875,-1.9530450105667114,4.73699951171875,8.361628532409668
1710957477643235300,22.8302353515625,-2.0422940254211426,5.015461444854736,8.17585277557373
1710957477662194000,22.84919384765625,-2.1334733963012695,5.25594425201416,7.999608039855957
1710957477681152500,22.868152587890624,-2.216668128967285,5.44566011428833,7.848665714263916
1710957477700111000,22.887111083984376,-2.2757256031036377,5.578887939453125,7.7374067306518555
1710957477719069400,22.9060693359375,-2.30000376701355,5.649609088897705,7.678690433502197
1710957477738028000,22.925028076171873,-2.2796030044555664,5.650089263916016,7.684418678283691
1710957477756986600,22.943986572265626,-2.201777935028076,5.590146541595459,7.75066614151001
1710957477775945000,22.962945068359375,-2.0741841793060303,5.484233856201172,7.860745906829834
1710957477794903600,22.981903564453123,-1.9166958332061768,5.3447489738464355,7.9956440925598145
1710957477813862100,23.000862060546876,-1.754456639289856,5.189507484436035,8.13395881652832
1710957477832820500,23.019820556640624,-1.5844627618789673,5.036588191986084,8.263936996459961
1710957477851779000,23.038779052734377,-1.3955357074737549,4.882046222686768,8.389784812927246
1710957477870737700,23.057737548828126,-1.195400357246399,4.713196754455566,8.516289710998535
1710957477889696000,23.076696044921874,-1.018949270248413,4.535101413726807,8.635101318359375
1710957477908654600,23.095654541015627,-0.8885830044746399,4.3683695793151855,8.734881401062012
1710957477927613200,23.11461328125,-0.7781747579574585,4.213703632354736,8.820971488952637
1710957477946571800,23.13357177734375,-0.6672756671905518,4.052077770233154,8.905380249023438
1710957477965530400,23.1525302734375,-0.5508438348770142,3.8807969093322754,8.989235877990723
1710957477984488700,23.17148876953125,-0.4265905022621155,3.71626877784729,9.065195083618164
1710957478003447300,23.190447265625,-0.2978074252605438,3.5699987411499023,9.128899574279785
1710957478022406000,23.209406005859375,-0.17021432518959045,3.4414682388305664,9.181379318237305
1710957478041364200,23.2283642578125,-0.051841188222169876,3.3236351013183594,9.226112365722656
1710957478060322800,23.24732275390625,0.05516892299056053,3.2142162322998047,9.264780044555664
1710957478079281400,23.266281494140625,0.15618491172790527,3.111757755279541,9.298545837402344
1710957478098240000,23.285239990234373,0.260238379240036,3.0076749324798584,9.33041000366211
1710957478117198600,23.304198486328126,0.37338557839393616,2.9063193798065186,9.358646392822266
1710957478136157000,23.323156982421875,0.4884500205516815,2.8130385875701904,9.381823539733887
1710957478155115500,23.342115478515623,0.5967381000518799,2.7259347438812256,9.401253700256348
1710957478174074000,23.36107421875,0.690186619758606,2.6416656970977783,9.41889762878418
1710957478193032400,23.380032470703124,0.7713345289230347,2.5571341514587402,9.43591594696045
1710957478211991000,23.398990966796877,0.8360949158668518,2.470682382583618,9.453414916992188
1710957478230949600,23.41794970703125,0.8839020133018494,2.382782220840454,9.471612930297852
1710957478249908200,23.436908203125,0.9264699220657349,2.302278995513916,9.487442016601562
1710957478268866800,23.45586669921875,0.9708561897277832,2.2300195693969727,9.50025463104248
1710957478287825200,23.4748251953125,1.014195442199707,2.1633431911468506,9.511137962341309
1710957478306783700,23.49378369140625,1.061227798461914,2.097508430480957,9.520748138427734
1710957478325742300,23.512742431640625,1.116952896118164,2.0396504402160645,9.526942253112793
1710957478344700700,23.53170068359375,1.1725256443023682,1.9942609071731567,9.529873847961426
1710957478363659300,23.5506591796875,1.2153329849243164,1.9561704397201538,9.532405853271484
1710957478382617900,23.569617919921875,1.2467126846313477,1.9252214431762695,9.534653663635254
1710957478401576400,23.588576416015623,1.2718045711517334,1.8947868347167969,9.537436485290527
1710957478420535000,23.60753515625,1.2945770025253296,1.8636415004730225,9.540507316589355
1710957478439493400,23.626493408203125,1.319303274154663,1.8421725034713745,9.541291236877441
1710957478458452000,23.645451904296873,1.3460726737976074,1.8294517993927002,9.539999961853027
1710957478477410600,23.66441064453125,1.3656326532363892,1.8234665393829346,9.53836441040039
1710957478496369200,23.683369140625,1.3681317567825317,1.8292474746704102,9.53689956665039
1710957478515327700,23.70232763671875,1.3527040481567383,1.8448299169540405,9.53609848022461
1710957478534286000,23.7212861328125,1.332767128944397,1.8656648397445679,9.534852027893066
1710957478553244700,23.74024462890625,1.3074147701263428,1.8828511238098145,9.53498363494873
1710957478572203300,23.759203369140625,1.2727046012878418,1.8960410356521606,9.537066459655762
1710957478591161600,23.77816162109375,1.23697829246521,1.9086161851882935,9.53925895690918
1710957478610120200,23.7971201171875,1.2130552530288696,1.9178134202957153,9.540486335754395
1710957478629078800,23.816078857421875,1.196867823600769,1.921451449394226,9.54179859161377
1710957478648037400,23.835037353515624,1.1833754777908325,1.9228101968765259,9.543207168579102
1710957478666996000,23.853995849609376,1.1716285943984985,1.9218980073928833,9.544840812683105
1710957478685954300,23.872954345703125,1.1722941398620605,1.9182631969451904,9.545489311218262
1710957478704913000,23.891912841796874,1.217668056488037,1.8989753723144531,9.543665885925293
1710957478723871500,23.91087158203125,1.3129762411117554,1.8649141788482666,9.537745475769043
1710957478742829800,23.929829833984375,1.432949185371399,1.8293941020965576,9.527347564697266
1710957478761788400,23.948788330078123,1.5405679941177368,1.7926506996154785,9.517533302307129
1710957478780747000,23.9677470703125,1.6117660999298096,1.7493247985839844,9.513803482055664
1710957478799705600,23.98670556640625,1.6613291501998901,1.7032735347747803,9.513633728027344
1710957478818664200,24.005664306640625,1.7102457284927368,1.662977933883667,9.51209545135498
1710957478837622500,24.02462255859375,1.7722514867782593,1.6325302124023438,9.506016731262207
1710957478856581000,24.0435810546875,1.844186782836914,1.6129714250564575,9.495667457580566
1710957478875539700,24.062539794921875,1.90477454662323,1.6026338338851929,9.485451698303223
1710957478894498000,24.081498046875,1.9438261985778809,1.5961329936981201,9.478622436523438
1710957478913456600,24.10045654296875,1.9512484073638916,1.5937193632125854,9.477503776550293
1710957478932415200,24.119415283203125,1.9342544078826904,1.5994353294372559,9.480024337768555
1710957478951373800,24.138373779296874,1.9174188375473022,1.613079309463501,9.481132507324219
1710957478970332200,24.157332275390626,1.91439950466156,1.63579261302948,9.477850914001465
1710957478989290800,24.176290771484375,1.9276304244995117,1.664731740951538,9.470126152038574
1710957479008249300,24.195249267578124,1.9340893030166626,1.692604899406433,9.463866233825684
1710957479027208000,24.2142080078125,1.9052380323410034,1.721437692642212,9.464518547058105
1710957479046166300,24.233166259765625,1.8522164821624756,1.749845027923584,9.469832420349121
1710957479065124900,24.252124755859374,1.8107506036758423,1.7654755115509033,9.47494888305664
1710957479084083500,24.27108349609375,1.7953119277954102,1.7694573402404785,9.477144241333008
1710957479103042000,24.2900419921875,1.7940069437026978,1.7755357027053833,9.4762544631958
1710957479122000400,24.30900048828125,1.7960906028747559,1.7907551527023315,9.47299575805664
1710957479140959000,24.327958984375,1.7938827276229858,1.8045903444290161,9.47078800201416
1710957479159917600,24.34691748046875,1.7896089553833008,1.8068387508392334,9.471168518066406
1710957479178876200,24.365876220703125,1.7880898714065552,1.8017417192459106,9.47242546081543
1710957479197834500,24.38483447265625,1.793880820274353,1.80320405960083,9.471053123474121
1710957479216793000,24.40379296875,1.8156733512878418,1.8078994750976562,9.46600341796875
1710957479235751700,24.422751708984375,1.8544690608978271,1.8085911273956299,9.458348274230957
1710957479254710300,24.441710205078124,1.903130054473877,1.8073806762695312,9.448907852172852
1710957479273668600,24.460668701171876,1.9494229555130005,1.8182299137115479,9.437382698059082
1710957479292627200,24.479627197265625,1.99873685836792,1.8323394060134888,9.424328804016113
1710957479311585800,24.498585693359374,2.066664218902588,1.8330541849136353,9.409526824951172
1710957479330544000,24.517544189453126,2.1406686305999756,1.833086371421814,9.392961502075195
1710957479349502700,24.536502685546875,2.2071025371551514,1.8416768312454224,9.375889778137207
1710957479368461300,24.55546142578125,2.2462804317474365,1.850982904434204,9.364747047424316
1710957479387419600,24.574419677734376,2.2448043823242188,1.8552191257476807,9.364261627197266
1710957479406378200,24.593378173828125,2.2240450382232666,1.8625805377960205,9.367753028869629
1710957479425336800,24.6123369140625,2.2022318840026855,1.8954275846481323,9.366318702697754
1710957479444295200,24.631295166015626,2.1852328777313232,1.9474996328353882,9.359614372253418
1710957479463253800,24.650253662109375,2.1688623428344727,2.001491069793701,9.352029800415039
