time,seconds_elapsed,z,y,x
1710888341666631000,0.124630859375,4.435096740722656,4.790431022644043,3.675375461578369
1710888341685590500,0.143590576171875,3.7328033447265625,4.700700283050537,3.2757742404937744
1710888341704550000,0.1625498046875,3.2650065422058105,5.010570526123047,3.238685369491577
1710888341723509200,0.18150927734375,3.3750762939453125,5.030909538269043,3.7902309894561768
1710888341742468600,0.200468505859375,3.555734395980835,5.691328525543213,4.642076015472412
1710888341761428200,0.21942822265625,3.7902309894561768,6.059823513031006,5.288137912750244
1710888341780387600,0.2383876953125,3.4672000408172607,7.063612461090088,6.128018856048584
1710888341799347000,0.257346923828125,3.528217077255249,7.513463020324707,7.22034215927124
1710888341818306600,0.276306640625,3.7806596755981445,9.073583602905273,8.709874153137207
1710888341837266000,0.295265869140625,3.8297126293182373,8.248059272766113,7.657032489776611
1710888341856225300,0.314225341796875,3.022135019302368,8.433503150939941,6.008377552032471
1710888341875185000,0.333184814453125,2.313859462738037,8.173882484436035,6.1399827003479
1710888341894144300,0.352144287109375,1.566102385520935,8.790034294128418,5.704489231109619
1710888341913103600,0.371103515625,1.423729419708252,9.008976936340332,5.170889854431152
1710888341932063200,0.390063232421875,0.8111668825149536,9.407382011413574,4.3417768478393555
1710888341951022600,0.409022705078125,-0.38763725757598877,9.765109062194824,4.0905303955078125
1710888341969982000,0.42798193359375,-1.184447169303894,10.068997383117676,4.521238327026367
1710888341988941600,0.446941650390625,-1.7563318014144897,9.91825008392334,4.992624282836914
1710888342007901000,0.46590087890625,-1.8269200325012207,9.609575271606445,5.4520463943481445
1710888342026860300,0.4848603515625,-1.4009976387023926,9.276973724365234,5.979663848876953
1710888342045820000,0.50381982421875,-1.0121639966964722,8.879764556884766,6.361319065093994
1710888342064779300,0.522779296875,-0.5539384484291077,8.760123252868652,6.628118515014648
1710888342083738600,0.541738525390625,-0.519242525100708,9.431310653686523,6.564708709716797
1710888342102698200,0.5606982421875,-0.19740787148475647,9.728020668029785,6.159125328063965
1710888342121657600,0.57965771484375,0.3026920557022095,9.609575271606445,5.753541946411133
1710888342140617000,0.598616943359375,0.363709032535553,10.395618438720703,5.588437080383301
1710888342159576600,0.61757666015625,0.2967100143432617,11.374282836914062,6.056233882904053
1710888342178536000,0.636535888671875,1.0432707071304321,10.855039596557617,7.435696601867676
1710888342197495300,0.655495361328125,2.218146562576294,10.031908988952637,7.5673017501831055
1710888342216454700,0.67445458984375,2.688336133956909,9.160921096801758,7.039684295654297
1710888342235414300,0.693414306640625,3.263810157775879,8.110472679138184,6.184250354766846
1710888342254373600,0.71237353515625,3.2614171504974365,7.247859954833984,5.795416355133057
1710888342273333000,0.7313330078125,3.7052857875823975,6.831508636474609,6.248856544494629
1710888342292292600,0.750292724609375,4.372883319854736,7.667799949645996,6.1399827003479
1710888342311252000,0.769251953125,3.992424488067627,8.157132148742676,5.231906890869141
1710888342330211300,0.78821142578125,2.768495798110962,7.7802629470825195,3.9948174953460693
1710888342349171000,0.8071708984375,2.289931297302246,7.050451755523682,3.7232320308685303
1710888342368130300,0.82613037109375,2.65842604637146,6.236892223358154,3.095116138458252
1710888342387089700,0.845089599609375,2.8869404792785645,5.4951171875,3.019742250442505
1710888342406049000,0.864049072265625,3.576073408126831,4.906482696533203,3.528217077255249
1710888342425008600,0.883008544921875,4.073780536651611,4.284348964691162,4.012763500213623
1710888342443968000,0.901968017578125,4.443471431732178,3.9936211109161377,4.563112735748291
1710888342462927400,0.92092724609375,4.728217601776123,4.23649263381958,4.7473602294921875
1710888342481887000,0.939886962890625,4.645665168762207,4.435096740722656,4.366901397705078
1710888342500846300,0.958846435546875,4.7988057136535645,4.6169514656066895,3.8249270915985107
1710888342519805700,0.9778056640625,4.724628448486328,5.140979290008545,3.1094729900360107
1710888342538765300,0.996765380859375,4.6648077964782715,5.907878875732422,3.1728827953338623
1710888342557724700,1.015724609375,5.169693470001221,6.40438985824585,3.9218363761901855
1710888342576684000,1.03468408203125,6.025127410888672,7.3914289474487305,4.613361835479736
1710888342595643600,1.0536435546875,6.473781585693359,8.678768157958984,4.491328239440918
1710888342614603000,1.07260302734375,6.795616149902344,9.765109062194824,4.269991874694824
1710888342633562400,1.091562255859375,7.054041385650635,10.043872833251953,3.9493536949157715
1710888342652522000,1.11052197265625,7.164111137390137,10.003194808959961,4.046263217926025
1710888342671481300,1.1294814453125,7.464410305023193,9.891928672790527,4.095315933227539
1710888342690440700,1.148440673828125,7.500302791595459,9.089137077331543,3.5808591842651367
1710888342709400300,1.167400390625,6.93320369720459,8.141578674316406,2.612962245941162
1710888342728359700,1.186359619140625,5.888736724853516,8.118846893310547,2.2205393314361572
1710888342747319000,1.205319091796875,4.7030930519104,8.682356834411621,2.4634108543395996
1710888342766278700,1.224278564453125,4.3752760887146,8.307880401611328,2.717050075531006
1710888342785238000,1.243238037109375,4.366901397705078,7.6151580810546875,2.861815929412842
1710888342804197400,1.262197265625,4.572684288024902,7.21316385269165,3.049652576446533
1710888342823157000,1.281156982421875,4.7988057136535645,7.149754047393799,3.187239646911621
1710888342842116400,1.300116455078125,4.7952165603637695,7.093522548675537,2.991028308868408
1710888342861076000,1.319075927734375,4.687539577484131,7.0959153175354,2.2061824798583984
1710888342880035300,1.338035400390625,4.481756687164307,7.5708909034729,1.6462619304656982
1710888342898994700,1.35699462890625,4.4135613441467285,8.437092781066895,1.6809579133987427
1710888342917954300,1.375954345703125,4.045066833496094,8.873783111572266,1.5122638940811157
1710888342936913700,1.39491357421875,4.402793884277344,8.687142372131348,1.0839486122131348
1710888342955873300,1.413873291015625,4.303491592407227,8.14636516571045,0.6400800347328186
1710888342974832600,1.43283251953125,3.906282901763916,8.111668586730957,1.29810631275177
1710888342993792000,1.4517919921875,3.820141315460205,8.416753768920898,2.390429735183716
1710888343012751600,1.470751708984375,3.875176191329956,8.72782039642334,3.0592236518859863
1710888343031711000,1.4897109375,3.5270206928253174,8.684749603271484,3.0927233695983887
1710888343050670600,1.508670654296875,2.8761727809906006,8.695517539978027,2.744567632675171
1710888343069630000,1.5276298828125,2.823530673980713,9.031708717346191,2.8139593601226807
1710888343088589600,1.546589599609375,3.078366279602051,9.261420249938965,3.0592236518859863
1710888343107549000,1.565548828125,3.376272678375244,9.090332984924316,3.0412776470184326
1710888343126508300,1.58450830078125,3.394218921661377,8.85224723815918,2.830709218978882
1710888343145468000,1.603468017578125,3.5473594665527344,8.678768157958984,2.609373092651367
1710888343164427300,1.62242724609375,3.717249870300293,8.748159408569336,2.3306093215942383
1710888343183387000,1.641386962890625,3.8847475051879883,8.673981666564941,2.1547367572784424
1710888343202346200,1.66034619140625,3.933800458908081,8.551948547363281,2.1930220127105713
1710888343221305600,1.6793056640625,4.1659040451049805,9.008976936340332,2.713460922241211
1710888343240265200,1.69826513671875,4.486542224884033,9.200403213500977,3.2709884643554688
1710888343259224600,1.717224609375,4.785645484924316,9.123832702636719,3.5365917682647705
1710888343278184200,1.73618408203125,4.777270317077637,8.645268440246582,3.4301111698150635
1710888343297143600,1.7551435546875,4.7365922927856445,8.702695846557617,3.4396824836730957
1710888343316103000,1.77410302734375,4.71744966506958,8.96829891204834,3.620340585708618
1710888343335062500,1.7930625,5.1290154457092285,9.175278663635254,3.579662561416626
1710888343354022000,1.81202197265625,4.924428939819336,8.933603286743164,3.06999135017395
1710888343372981500,1.8309814453125,5.02133846282959,8.82233715057373,3.214757204055786
1710888343391940900,1.84994091796875,5.413761138916016,8.566305160522461,3.559323787689209
1710888343410900500,1.868900390625,5.838487148284912,8.243273735046387,4.040280818939209
1710888343429859800,1.88785986328125,6.756134510040283,7.706085205078125,4.604987144470215
1710888343448819500,1.9068193359375,7.148557662963867,7.107879638671875,4.660022258758545
1710888343467778800,1.92577880859375,7.118647575378418,6.27278470993042,4.048655986785889
1710888343486738400,1.944738525390625,7.033702373504639,5.7032928466796875,3.8799619674682617
1710888343505697800,1.96369775390625,6.233303070068359,5.5860443115234375,4.634897232055664
1710888343524657200,1.9826572265625,5.230710506439209,5.705685615539551,3.456432342529297
1710888343543616800,2.00161669921875,4.764110088348389,5.338387489318848,1.934597134590149
1710888343562576100,2.020576171875,5.018945693969727,5.320441246032715,1.8867406845092773
1710888343581535700,2.03953564453125,4.474578380584717,5.757131099700928,1.0636097192764282
1710888343600495400,2.058495361328125,4.5308098793029785,6.2297139167785645,0.9667003750801086
1710888343619454700,2.077454833984375,5.801398277282715,6.270391941070557,1.8029918670654297
1710888343638414300,2.096414306640625,6.516852378845215,6.5874409675598145,3.008974552154541
1710888343657373700,2.115373779296875,6.192625045776367,7.249056339263916,3.4157543182373047
1710888343676333300,2.134333251953125,6.020341873168945,7.331608772277832,3.5090744495391846
1710888343695292700,2.153292724609375,6.1675004959106445,7.347161769866943,4.54636287689209
1710888343714252300,2.172252197265625,6.203392505645752,7.013363361358643,4.729413986206055
1710888343733211600,2.191211669921875,6.03110933303833,6.6149582862854,3.7986059188842773
1710888343752171000,2.2101708984375,5.8719868659973145,6.550352096557617,2.80558443069458
1710888343771130600,2.229130615234375,5.838487148284912,6.406782627105713,2.4717857837677
1710888343790090000,2.248090087890625,5.501099109649658,6.421139717102051,2.5531418323516846
1710888343809049600,2.267049560546875,5.272584915161133,6.865008354187012,2.957528829574585
1710888343828009000,2.286009033203125,5.320441246032715,7.133004188537598,3.372683525085449
1710888343846968600,2.304968505859375,5.507081508636475,7.007380962371826,3.6610186100006104
1710888343865928200,2.32392822265625,5.2737812995910645,6.550352096557617,3.85483717918396
1710888343884887600,2.342887451171875,5.191228866577148,6.327819347381592,3.906282901763916
1710888343903847200,2.36184716796875,5.091926574707031,6.165107727050781,3.9565322399139404
1710888343922806500,2.380806640625,5.004588603973389,5.940182209014893,3.838087558746338
1710888343941766100,2.39976611328125,5.127819061279297,5.794219970703125,3.6263227462768555
1710888343960725500,2.4187255859375,5.036891460418701,5.9198431968688965,3.45882511138916
1710888343979684900,2.437684814453125,5.08355188369751,6.362515449523926,3.2171499729156494
1710888343998644500,2.45664453125,5.02133846282959,7.241877555847168,2.667997360229492
1710888344017604000,2.47560400390625,4.675575256347656,8.689535140991211,2.3736801147460938
1710888344036563500,2.4945634765625,4.8299126625061035,10.192228317260742,2.5160529613494873
1710888344055523000,2.513523193359375,5.444868087768555,10.50090217590332,2.908475875854492
1710888344074482400,2.532482421875,6.22492790222168,9.846465110778809,3.1800613403320312
1710888344093442000,2.551442138671875,6.5288166999816895,9.332008361816406,3.377469062805176
1710888344112401400,2.5704013671875,6.187839508056641,9.422935485839844,3.243471145629883
1710888344131361000,2.589361083984375,5.507081508636475,9.729216575622559,3.0376882553100586
1710888344150320400,2.6083203125,5.182853698730469,9.600004196166992,2.8103702068328857
1710888344169280000,2.627280029296875,4.856233596801758,9.42772102355957,2.8354947566986084
1710888344188239400,2.6462392578125,4.4961137771606445,8.94676399230957,3.0687949657440186
1710888344207199000,2.665198974609375,4.335794448852539,8.549555778503418,3.0448668003082275
1710888344226158300,2.684158447265625,3.937389612197876,8.24686336517334,2.6907291412353516
1710888344245118000,2.703117919921875,3.570091485977173,7.8317084312438965,2.2061824798583984
1710888344264077600,2.72207763671875,3.377469062805176,7.509873867034912,1.8065811395645142
1710888344283037000,2.741036865234375,3.5916268825531006,7.746763229370117,1.7742780447006226
1710888344301996500,2.75999658203125,3.865604877471924,8.277970314025879,1.8795621395111084
1710888344320956000,2.778955810546875,4.063013076782227,8.817551612854004,1.867598056793213
1710888344339915500,2.79791552734375,4.252045631408691,8.94676399230957,1.7312071323394775
1710888344358875000,2.816875,4.301098823547363,8.792427062988281,1.4835500717163086
1710888344377834500,2.83583447265625,4.241278171539307,8.672785758972168,1.3555340766906738
1710888344396793900,2.8547939453125,4.048655986785889,8.672785758972168,1.2394821643829346
1710888344415753500,2.87375341796875,3.7184464931488037,8.591429710388184,1.2885349988937378
1710888344434712800,2.892712890625,3.3308091163635254,8.683553695678711,1.4057832956314087
1710888344453672400,2.91167236328125,3.095116138458252,8.595019340515137,1.5002998113632202
1710888344472632000,2.930632080078125,3.1489546298980713,8.518448829650879,1.423729419708252
1710888344491591400,2.94959130859375,3.1106693744659424,8.653642654418945,1.2406785488128662
1710888344510551000,2.968551025390625,2.884547710418701,8.96231746673584,1.1473584175109863
1710888344529510400,2.987510498046875,2.977867841720581,9.08674430847168,1.3950155973434448
1710888344548469800,3.0064697265625,3.1992039680480957,9.123832702636719,1.5864413976669312
1710888344567429400,3.025429443359375,3.2315070629119873,9.390632629394531,1.7479569911956787
1710888344586389000,3.044388916015625,3.1142587661743164,9.688538551330566,1.9692929983139038
1710888344605348400,3.063348388671875,2.9001009464263916,9.884750366210938,2.0985054969787598
1710888344624308000,3.082307861328125,2.957528829574585,9.641879081726074,2.1822543144226074
1710888344643267300,3.101267333984375,2.9048867225646973,9.328418731689453,2.146361827850342
1710888344662227000,3.12022705078125,2.6979074478149414,9.266205787658691,2.1894326210021973
1710888344681186600,3.1391865234375,2.451446771621704,9.226723670959473,2.335394859313965
1710888344700146000,3.15814599609375,2.493321180343628,9.31047248840332,2.328216314315796
1710888344719105300,3.177105224609375,2.1571295261383057,9.485149383544922,2.287538528442383
1710888344738065000,3.19606494140625,2.252842426300049,9.28893756866455,2.4227328300476074
1710888344757024500,3.2150244140625,2.4705893993377686,8.901300430297852,2.344966173171997
1710888344775983900,3.23398388671875,2.50289249420166,8.730213165283203,2.2061824798583984
1710888344794943500,3.252943603515625,2.4095723628997803,8.786444664001465,2.066202402114868
1710888344813902800,3.27190283203125,2.200200319290161,8.873783111572266,1.8807586431503296
1710888344832862500,3.290862548828125,2.1858434677124023,8.894122123718262,1.6761722564697266
1710888344851822000,3.309822021484375,2.396411895751953,9.125029563903809,1.4799607992172241
1710888344870781400,3.328781494140625,2.4323041439056396,9.943374633789062,1.9776679277420044
1710888344889740800,3.34774072265625,2.407179594039917,10.430314064025879,2.5878376960754395
1710888344908700400,3.366700439453125,2.7254250049591064,10.01156997680664,2.853440999984741
1710888344927659800,3.38565966796875,2.9479575157165527,9.756733894348145,2.937189817428589
1710888344946619400,3.404619384765625,3.0544381141662598,9.522237777709961,3.1130621433258057
1710888344965579000,3.4235791015625,2.882154941558838,9.384650230407715,3.0628130435943604
1710888344984538400,3.442538330078125,2.796013355255127,8.842676162719727,2.462214469909668
1710888345003498000,3.461498046875,2.6739792823791504,8.61057186126709,1.7060825824737549
1710888345022457300,3.480457275390625,2.6632115840911865,8.6967134475708,1.23589289188385
1710888345041417000,3.4994169921875,2.8582265377044678,9.058030128479004,1.1892328262329102
1710888345060376300,3.518376220703125,3.245863914489746,9.494720458984375,1.5672988891601562
1710888345079336000,3.5373359375,3.418147087097168,9.748359680175781,2.059023857116699
1710888345098295300,3.55629541015625,3.7674992084503174,9.589237213134766,2.3234307765960693
1710888345117255000,3.5752548828125,4.061816215515137,9.059226989746094,2.200200319290161
1710888345136214500,3.594214599609375,4.089334011077881,8.598608016967773,1.9680966138839722
1710888345155174000,3.613173828125,4.078566074371338,8.294719696044922,1.7922241687774658
1710888345174133500,3.632133544921875,4.01754903793335,7.99800968170166,1.659422516822815
1710888345193092900,3.6510927734375,4.06540584564209,8.288737297058105,1.6163517236709595
1710888345212052500,3.670052490234375,3.933800458908081,8.681160926818848,1.734796404838562
1710888345231011800,3.68901171875,3.9014973640441895,8.878568649291992,1.9513468742370605
1710888345249971500,3.707971435546875,3.845266103744507,9.158528327941895,2.148754835128784
1710888345268930800,3.726930908203125,3.5533416271209717,9.637093544006348,2.3030917644500732
1710888345287890400,3.745890380859375,3.311666488647461,9.852447509765625,2.4765713214874268
1710888345306850000,3.76485009765625,3.253042459487915,9.519845008850098,2.7385854721069336
1710888345325809400,3.783809326171875,3.2135608196258545,8.994620323181152,2.9563324451446533
1710888345344769000,3.80276904296875,3.0005996227264404,8.666803359985352,3.0592236518859863
1710888345363728400,3.821728271484375,2.7768707275390625,8.475378036499023,3.095116138458252
1710888345382688000,3.84068798828125,2.638087034225464,8.413164138793945,3.036491870880127
1710888345401647400,3.8596474609375,2.7014968395233154,8.335397720336914,3.0448668003082275
1710888345420607000,3.87860693359375,2.8737800121307373,8.282755851745605,3.1585259437561035
1710888345439566300,3.89756640625,2.8319056034088135,8.309076309204102,3.22552490234375
1710888345458526000,3.91652587890625,2.794816732406616,8.343772888183594,3.056830883026123
1710888345477485300,3.9354853515625,2.7290141582489014,8.315058708190918,2.823530673980713
1710888345496445000,3.95444482421875,2.8414769172668457,8.118846893310547,2.5567309856414795
1710888345515404500,3.973404541015625,2.9240293502807617,7.789834022521973,2.3461625576019287
1710888345534364000,3.992364013671875,3.043670415878296,7.664210796356201,2.1774685382843018
1710888345553323500,4.011323486328125,3.050848960876465,7.588837146759033,2.035095691680908
1710888345572283000,4.030282958984375,3.188436269760132,7.701299667358398,1.7491533756256104
1710888345591242500,4.049242431640625,3.2207393646240234,7.988438606262207,1.275374412536621
1710888345610201900,4.068201904296875,3.1489546298980713,8.427521705627441,0.8195417523384094
1710888345629161500,4.087161376953125,2.998206853866577,9.266205787658691,0.7214360237121582
1710888345648120800,4.106120849609375,2.912065267562866,10.398011207580566,1.0719845294952393
1710888345667080400,4.12508056640625,3.014956474304199,11.35513973236084,1.545763373374939
1710888345686040000,4.1440400390625,3.2039895057678223,11.649456977844238,1.887937068939209
1710888345704999400,4.16299951171875,3.4540395736694336,11.146964073181152,2.210968017578125
1710888345723959000,4.181958984375,3.6741790771484375,10.340582847595215,2.310270309448242
1710888345742918400,4.20091845703125,3.4911282062530518,9.725627899169922,2.1415762901306152
1710888345761878000,4.2198779296875,3.0185458660125732,9.391828536987305,1.7718851566314697
1710888345780837400,4.23883740234375,2.6368906497955322,9.273384094238281,1.561316728591919
1710888345799797000,4.257796875,2.3916261196136475,9.18006420135498,1.698904037475586
1710888345818756400,4.27675634765625,2.3784656524658203,9.036494255065918,1.9417755603790283
1710888345837716000,4.295716064453125,2.338984251022339,8.796015739440918,2.090130567550659
1710888345856675300,4.31467529296875,2.234896421432495,8.58066177368164,2.0398812294006348
1710888345875635000,4.333635009765625,2.218146562576294,8.484949111938477,1.8711873292922974
1710888345894594600,4.352594482421875,2.2157537937164307,8.691927909851074,1.5625132322311401
1710888345913554000,4.371553955078125,2.293520450592041,9.145368576049805,1.353141188621521
1710888345932513500,4.390513427734375,2.2887349128723145,9.66939640045166,1.058824062347412
1710888345951473000,4.409472900390625,2.338984251022339,9.999606132507324,0.8015955686569214
1710888345970432300,4.428432373046875,2.2911276817321777,10.149157524108887,0.6041877269744873
1710888345989392000,4.447391845703125,2.3808584213256836,10.15753173828125,0.7262216806411743
1710888346008351500,4.4663515625,2.5495524406433105,10.021141052246094,0.8925228714942932
1710888346027310800,4.485310791015625,2.5782663822174072,9.968499183654785,1.0971091985702515
1710888346046270500,4.5042705078125,2.455035924911499,9.839286804199219,1.275374412536621
1710888346065229800,4.523229736328125,2.1379871368408203,9.632308006286621,1.2789636850357056
1710888346084189400,4.542189453125,1.9381862878799438,9.401400566101074,1.168893814086914
1710888346103149000,4.561149169921875,1.7324036359786987,9.274580955505371,1.0707881450653076
1710888346122108400,4.5801083984375,1.6354942321777344,9.266205787658691,1.113858938217163
1710888346141067800,4.59906787109375,1.5625132322311401,9.273384094238281,1.2765709161758423
1710888346160027400,4.61802734375,1.475175142288208,9.376275062561035,1.521835207939148
1710888346178986800,4.63698681640625,1.397408366203308,9.53779125213623,1.698904037475586
1710888346197946400,4.6559462890625,1.3459627628326416,9.414560317993164,1.657029628753662
1710888346216906000,4.674906005859375,1.2789636850357056,9.265008926391602,1.4979069232940674
1710888346235865300,4.693865234375,1.2011969089508057,9.34157943725586,1.4847464561462402
1710888346254825000,4.712824951171875,1.058824062347412,9.475577354431152,1.6354942321777344
1710888346273784300,4.731784423828125,1.0612168312072754,9.461220741271973,1.7455641031265259
1710888346292744000,4.750743896484375,1.1306086778640747,9.409774780273438,1.6175481081008911
1710888346311703300,4.769703369140625,1.210768222808838,9.491130828857422,1.5912270545959473
1710888346330663000,4.788662841796875,1.2251251935958862,9.686145782470703,1.6713865995407104
1710888346349622300,4.807622314453125,1.2921242713928223,9.853643417358398,1.7635103464126587
1710888346368582000,4.826581787109375,1.3806586265563965,9.921838760375977,1.7431713342666626
1710888346387541200,4.845541259765625,1.3040883541107178,9.781859397888184,1.5960127115249634
1710888346406500900,4.8645009765625,1.2442678213119507,9.540184020996094,1.3040883541107178
1710888346425460200,4.883460205078125,1.231107234954834,9.393025398254395,1.0097711086273193
1710888346444419800,4.902419921875,1.2370892763137817,9.492327690124512,0.9930213689804077
1710888346463379200,4.921379150390625,1.306481122970581,9.645467758178711,1.124626636505127
1710888346482338800,4.9403388671875,1.3507484197616577,9.56650447845459,1.2143574953079224
1710888346501298400,4.95929833984375,1.5146567821502686,9.542576789855957,1.2203395366668701
1710888346520257800,4.9782578125,1.7359927892684937,9.82373332977295,1.399801254272461
1710888346539217200,4.997217041015625,1.7694923877716064,10.431509971618652,1.9513468742370605
1710888346558176800,5.0161767578125,1.8149559497833252,10.671989440917969,2.3617160320281982
1710888346577136000,5.03513623046875,1.7324036359786987,10.265209197998047,2.368894338607788
1710888346596095700,5.054095703125,1.7802600860595703,9.680164337158203,2.1020946502685547
1710888346615055000,5.07305517578125,1.6701902151107788,9.17288589477539,1.9645073413848877
1710888346634014700,5.0920146484375,1.4835500717163086,8.921639442443848,2.1655044555664062
1710888346652974300,5.110974365234375,1.3818551301956177,8.884550094604492,2.355733871459961
1710888346671933700,5.12993359375,1.4608181715011597,8.95394229888916,2.6045875549316406
1710888346690893300,5.148893310546875,1.6917256116867065,9.095118522644043,2.9036903381347656
1710888346709852700,5.167852783203125,1.9417755603790283,9.177671432495117,3.0664021968841553
1710888346728812300,5.186812255859375,2.166700839996338,9.083154678344727,2.9072794914245605
1710888346747771600,5.205771728515625,2.3126630783081055,8.993423461914062,2.5902304649353027
1710888346766731000,5.22473095703125,2.355733871459961,9.036494255065918,2.218146562576294
1710888346785690600,5.243690673828125,2.4406790733337402,9.050851821899414,1.9046868085861206
1710888346804650000,5.26264990234375,2.65842604637146,9.05563735961914,1.6821542978286743
1710888346823609600,5.281609619140625,2.9826533794403076,8.988637924194336,1.482353687286377
1710888346842569200,5.3005693359375,3.0544381141662598,9.007781028747559,1.3280165195465088
1710888346861528600,5.319528564453125,2.977867841720581,9.164510726928711,1.3722838163375854
1710888346880488200,5.33848828125,3.001796007156372,9.323633193969727,1.5098711252212524
1710888346899447600,5.357447509765625,2.968296527862549,9.418149948120117,1.6558332443237305
1710888346918407200,5.3764072265625,2.847458839416504,9.572486877441406,1.8580267429351807
1710888346937366500,5.395366455078125,2.792423963546753,9.626325607299805,2.066202402114868
1710888346956326100,5.414326171875,2.6799614429473877,9.600004196166992,2.2061824798583984
1710888346975285500,5.433285400390625,2.6285157203674316,9.487542152404785,2.3748764991760254
1710888346994244900,5.452244873046875,2.640479803085327,9.31047248840332,2.5088746547698975
1710888347013204500,5.47120458984375,2.6799614429473877,9.262616157531738,2.5986053943634033
1710888347032163800,5.490163818359375,2.7553353309631348,9.219545364379883,2.7421748638153076
1710888347051123500,5.50912353515625,2.8187451362609863,9.116654396057129,2.8043880462646484
1710888347070082800,5.528082763671875,2.746960401535034,9.081958770751953,2.6464617252349854
1710888347089042400,5.54704248046875,2.557927370071411,9.154939651489258,2.4227328300476074
1710888347108002000,5.566001953125,2.42512583732605,9.047262191772461,2.1750757694244385
1710888347126961400,5.58496142578125,2.328216314315796,8.825926780700684,2.0003998279571533
1710888347145921000,5.603921142578125,2.152343988418579,8.85942554473877,1.781456470489502
1710888347164880400,5.62288037109375,1.8939191102981567,9.247062683105469,1.5792629718780518
1710888347183840000,5.641840087890625,1.8077775239944458,9.732806205749512,1.526620864868164
1710888347202799400,5.66079931640625,1.9022940397262573,9.58205795288086,1.5182459354400635
1710888347221758700,5.6797587890625,2.0446670055389404,9.075976371765137,1.3519448041915894
1710888347240718300,5.69871826171875,2.2121646404266357,8.757730484008789,1.2765709161758423
1710888347259677700,5.717677734375,2.427518606185913,8.738588333129883,1.31365966796875
1710888347278637300,5.73663720703125,2.551945447921753,8.892925262451172,1.4727823734283447
1710888347297596700,5.7555966796875,2.6213371753692627,9.121439933776855,1.734796404838562
1710888347316556300,5.774556396484375,2.671586513519287,9.276973724365234,1.8975083827972412
1710888347335515600,5.793515625,2.5591237545013428,9.512666702270508,1.9932212829589844
1710888347354475300,5.812475341796875,2.2815563678741455,9.80937671661377,2.1020946502685547
1710888347373434600,5.8314345703125,1.8915263414382935,9.929018020629883,2.328216314315796
1710888347392394200,5.850394287109375,1.9226330518722534,9.714859962463379,2.5603201389312744
1710888347411353600,5.869353515625,2.0039889812469482,9.43609619140625,2.796013355255127
1710888347430313200,5.888313232421875,2.045863389968872,9.2255277633667,2.878565549850464
1710888347449272600,5.9072724609375,2.0614166259765625,9.081958770751953,2.68953275680542
1710888347468232200,5.926232177734375,2.1403799057006836,8.958727836608887,2.328216314315796
1710888347487191600,5.945191650390625,2.108076810836792,8.889336585998535,2.0039889812469482
1710888347506151200,5.964151123046875,1.9621145725250244,8.870193481445312,1.7922241687774658
1710888347525110500,5.983110595703125,1.794616937637329,8.987442016601562,1.8005990982055664
1710888347544070100,6.002070068359375,1.7838492393493652,9.116654396057129,1.9369899034500122
1710888347563029500,6.021029541015625,1.8077775239944458,9.095118522644043,2.1403799057006836
1710888347581989000,6.039989013671875,1.7120646238327026,9.109476089477539,2.3306093215942383
1710888347600948500,6.058948486328125,1.657029628753662,9.235098838806152,2.5076780319213867
1710888347619908000,6.077908203125,1.7611174583435059,9.18006420135498,2.500499725341797
1710888347638867500,6.096867431640625,1.7168502807617188,9.090332984924316,2.4765713214874268
1710888347657827000,6.1158271484375,1.6378871202468872,9.239884376525879,2.5256242752075195
1710888347676786400,6.134786376953125,1.5708880424499512,9.403793334960938,2.6703901290893555
1710888347695746000,6.15374609375,1.5158531665802002,9.407382011413574,2.7517459392547607
1710888347714705400,6.172705322265625,1.4883357286453247,9.364311218261719,2.7326035499572754
1710888347733664800,6.191664794921875,1.5278172492980957,9.382257461547852,2.748156785964966
1710888347752624400,6.210624267578125,1.4261223077774048,9.349954605102539,2.7397818565368652
1710888347771583700,6.229583740234375,1.2693923711776733,9.358329772949219,2.809173822402954
1710888347790543400,6.24854345703125,1.290927767753601,9.290133476257324,2.733799934387207
1710888347809503000,6.2675029296875,1.2801600694656372,9.214759826660156,2.616551637649536
1710888347828462300,6.28646240234375,1.2203395366668701,9.164510726928711,2.5471596717834473
1710888347847422000,6.305421875,1.1318050622940063,9.221938133239746,2.5256242752075195
1710888347866381300,6.32438134765625,1.074377417564392,9.31047248840332,2.5471596717834473
1710888347885341000,6.3433408203125,1.1748759746551514,9.284152030944824,2.568695068359375
1710888347904300300,6.36230029296875,1.2586246728897095,9.163313865661621,2.517249345779419
1710888347923260000,6.381260009765625,1.2382856607437134,9.10229778289795,2.5387847423553467
1710888347942219300,6.40021923828125,1.0791629552841187,9.206384658813477,2.606980323791504
1710888347961179000,6.419178955078125,0.9643075466156006,9.390632629394531,2.662015199661255
1710888347980138200,6.43813818359375,1.0217353105545044,9.454042434692383,2.6703901290893555
1710888347999097900,6.457097900390625,1.1485549211502075,9.367900848388672,2.651247501373291
1710888348018057200,6.47605712890625,1.1904292106628418,9.315258979797363,2.5423741340637207
1710888348037016800,6.495016845703125,1.1832507848739624,9.34875774383545,2.478964328765869
1710888348055976200,6.51397607421875,1.0277173519134521,9.454042434692383,2.4849462509155273
1710888348074935800,6.532935791015625,0.9846464991569519,9.469595909118652,2.451446771621704
1710888348093895400,6.5518955078125,1.0480563640594482,9.605986595153809,2.4717857837677
1710888348112854800,6.570854736328125,1.1150553226470947,9.591629981994629,2.5603201389312744
1710888348131814100,6.589814208984375,1.1258230209350586,9.518648147583008,2.555534601211548
1710888348150773800,6.608773681640625,1.0492527484893799,9.456435203552246,2.4574289321899414
1710888348169733400,6.6277333984375,1.098305583000183,9.274580955505371,2.2707886695861816
1710888348188692700,6.646692626953125,1.0875378847122192,9.247062683105469,2.234896421432495
1710888348207652400,6.66565234375,1.1365907192230225,9.257830619812012,2.283949136734009
1710888348226611700,6.68461181640625,1.160519003868103,9.270991325378418,2.344966173171997
1710888348245571300,6.7035712890625,1.0552347898483276,9.275776863098145,2.3784656524658203
1710888348264531000,6.722531005859375,1.0001999139785767,9.274580955505371,2.4335005283355713
1710888348283490300,6.741490234375,0.9595218896865845,9.247062683105469,2.5148565769195557
1710888348302449700,6.76044970703125,0.9583254456520081,9.324830055236816,2.5567309856414795
1710888348321409300,6.7794091796875,0.9248259663581848,9.58205795288086,2.630908489227295
1710888348340369000,6.798368896484375,0.9535398483276367,9.726823806762695,2.6081767082214355
1710888348359328300,6.817328369140625,0.9978070259094238,9.732806205749512,2.6225335597991943
1710888348378287900,6.836287841796875,1.168893814086914,9.632308006286621,2.493321180343628
1710888348397247500,6.85524755859375,1.1784651279449463,9.592825889587402,2.3330020904541016
1710888348416206800,6.874206787109375,1.1186445951461792,9.66221809387207,2.169093608856201
1710888348435166500,6.89316650390625,1.129412293434143,9.687342643737793,1.9824535846710205
1710888348454125800,6.912125732421875,1.0947163105010986,9.644271850585938,1.887937068939209
1710888348473085400,6.93108544921875,1.2275179624557495,9.728020668029785,1.789831280708313
1710888348492045000,6.950045166015625,1.1497513055801392,9.847661972045898,1.657029628753662
1710888348511004400,6.96900439453125,1.0947163105010986,9.890732765197754,1.6091731786727905
1710888348529964000,6.987964111328125,1.1521440744400024,9.765109062194824,1.6319050788879395
1710888348548923600,7.006923583984375,1.129412293434143,9.698110580444336,1.6606189012527466
1710888348567883000,7.025883056640625,1.1341979503631592,9.602396965026855,1.7312071323394775
1710888348586842400,7.04484228515625,1.195214867591858,9.45164966583252,1.7228323221206665
1710888348605802000,7.063802001953125,1.1353943347930908,9.393025398254395,1.852044701576233
1710888348624761600,7.08276171875,1.2251251935958862,9.254241943359375,2.094916343688965
1710888348643721200,7.10172119140625,1.171286702156067,9.141778945922852,2.359323024749756
1710888348662680600,7.1206806640625,1.2095718383789062,9.047262191772461,2.462214469909668
1710888348681640200,7.13964013671875,1.2681959867477417,8.952746391296387,2.455035924911499
1710888348700599600,7.158599609375,1.2957134246826172,8.935996055603027,2.4705893993377686
1710888348719559200,7.17755908203125,1.412961721420288,8.952746391296387,2.4131617546081543
1710888348738518800,7.196518798828125,1.5314065217971802,9.066405296325684,2.3126630783081055
1710888348757478100,7.21547802734375,1.5589239597320557,9.279366493225098,2.148754835128784
1710888348776437800,7.234437744140625,1.573280930519104,9.461220741271973,2.0195422172546387
1710888348795397400,7.2533974609375,1.576870083808899,9.491130828857422,1.8041882514953613
1710888348814356700,7.272356689453125,1.4919248819351196,9.476774215698242,1.633101463317871
1710888348833316400,7.29131640625,1.4009976387023926,9.527023315429688,1.5314065217971802
1710888348852276000,7.31027587890625,1.3698909282684326,9.611968994140625,1.561316728591919
1710888348871235300,7.3292353515625,1.4093725681304932,9.592825889587402,1.6701902151107788
1710888348890195000,7.34819482421875,1.4500504732131958,9.53061294555664,1.770688772201538
1710888348909154600,7.367154541015625,1.415354609489441,9.565308570861816,1.8699909448623657
1710888348928114000,7.386114013671875,1.3507484197616577,9.643074989318848,1.9728822708129883
1710888348947073500,7.405073486328125,1.3351950645446777,9.632308006286621,2.069791555404663
1710888348966033200,7.424033203125,1.3591232299804688,9.597611427307129,2.1200408935546875
1710888348984992800,7.44299267578125,1.3866406679153442,9.562915802001953,2.1200408935546875
1710888349003952000,7.4619521484375,1.3399807214736938,9.527023315429688,2.0195422172546387
1710888349022911700,7.480911865234375,1.3052847385406494,9.505488395690918,1.903490424156189
1710888349041871400,7.499871337890625,1.277767300605774,9.498309135437012,1.7874385118484497
1710888349060830700,7.518830810546875,1.2215359210968018,9.531808853149414,1.703689694404602
1710888349079790300,7.537790283203125,1.2490534782409668,9.504291534423828,1.7012969255447388
1710888349098750000,7.55675,1.1988041400909424,9.452845573425293,1.750349760055542
1710888349117709600,7.57570947265625,1.2035897970199585,9.373882293701172,1.7790635824203491
1710888349136669000,7.5946689453125,1.1341979503631592,9.540184020996094,1.7826528549194336
1710888349155628500,7.613628662109375,1.1413763761520386,9.627521514892578,1.836491346359253
1710888349174588200,7.632588134765625,1.2394821643829346,9.534201622009277,1.8711873292922974
1710888349193547500,7.651547607421875,1.1976077556610107,9.495916366577148,1.8029918670654297
1710888349212507100,7.670507080078125,1.2658032178878784,9.403793334960938,1.6857435703277588
1710888349231466800,7.689466796875,1.1473584175109863,9.409774780273438,1.6426727771759033
1710888349250426000,7.708426025390625,1.0600204467773438,9.479166984558105,1.667797327041626
1710888349269385700,7.7273857421875,1.0767701864242554,9.511469841003418,1.7647067308425903
1710888349288345300,7.746345458984375,1.1018948554992676,9.578469276428223,1.8137595653533936
1710888349307305000,7.765304931640625,1.1150553226470947,9.637093544006348,1.903490424156189
1710888349326264600,7.7842646484375,1.0791629552841187,9.652647018432617,1.8807586431503296
1710888349345224000,7.803223876953125,1.0719845294952393,9.695717811584473,1.9106688499450684
1710888349364183600,7.82218359375,1.073180913925171,9.66819953918457,1.9573289155960083
1710888349383143200,7.84114306640625,1.0707881450653076,9.588040351867676,1.9776679277420044
1710888349402102800,7.860102783203125,1.057627558708191,9.546165466308594,1.9728822708129883
1710888349421062400,7.8790625,1.0169496536254883,9.517452239990234,1.9980069398880005
1710888349440021800,7.898021728515625,1.058824062347412,9.510273933410645,2.0039889812469482
1710888349458981400,7.9169814453125,1.089930772781372,9.52941608428955,1.978864312171936
1710888349477941000,7.93594091796875,1.0301101207733154,9.56770133972168,1.9932212829589844
1710888349496900600,7.954900634765625,1.062413215637207,9.493523597717285,1.9621145725250244
1710888349515860000,7.97385986328125,1.0923235416412354,9.456435203552246,1.9561325311660767
1710888349534819600,7.992819580078125,1.100698471069336,9.425328254699707,1.947757601737976
1710888349553779200,8.011779296875,1.0911271572113037,9.439684867858887,1.9836499691009521
1710888349572738800,8.03073876953125,1.1210373640060425,9.45045280456543,2.03629207611084
1710888349591698400,8.049698486328126,1.1306086778640747,9.449256896972656,2.066202402114868
1710888349610657800,8.06865771484375,1.1258230209350586,9.45882797241211,2.032702922821045
1710888349629617400,8.087617431640625,1.1078768968582153,9.495916366577148,2.045863389968872
1710888349648577000,8.106576904296874,1.1270195245742798,9.483952522277832,2.069791555404663
1710888349667536600,8.12553662109375,1.1521440744400024,9.588040351867676,2.0673987865448
1710888349686496300,8.144496337890626,1.210768222808838,9.580862045288086,2.0398812294006348
1710888349705455600,8.16345556640625,1.210768222808838,9.512666702270508,2.0243279933929443
1710888349724415200,8.182415283203126,1.23589289188385,9.488738059997559,1.8640087842941284
1710888349743374800,8.201374755859375,1.26699960231781,9.379864692687988,1.7024933099746704
1710888349762334500,8.22033447265625,1.210768222808838,9.372686386108398,1.6582261323928833
1710888349781294000,8.239294189453124,1.1988041400909424,9.378668785095215,1.657029628753662
1710888349800253700,8.258253662109375,1.191625714302063,9.372686386108398,1.7012969255447388
1710888349819213300,8.27721337890625,1.1353943347930908,9.473184585571289,1.7886348962783813
1710888349838172700,8.296172607421875,1.0600204467773438,9.523433685302734,1.8939191102981567
1710888349857132300,8.31513232421875,1.0767701864242554,9.56052303314209,1.994417667388916
1710888349876092000,8.334091796875,1.1318050622940063,9.525827407836914,2.0865414142608643
1710888349895051500,8.353051513671875,1.1593226194381714,9.53061294555664,2.11405873298645
1710888349914011100,8.37201123046875,1.1270195245742798,9.483952522277832,2.021935224533081
1710888349932970500,8.390970458984375,1.0516455173492432,9.460023880004883,1.9334007501602173
1710888349951930000,8.40993017578125,1.0636097192764282,9.511469841003418,1.9106688499450684
1710888349970889700,8.4288896484375,1.113858938217163,9.473184585571289,1.8771693706512451
1710888349989849300,8.447849365234376,1.1330015659332275,9.44327449798584,1.7850457429885864
1710888350008809000,8.46680908203125,1.0289137363433838,9.480362892150879,1.7312071323394775
1710888350027768600,8.4857685546875,0.9367900490760803,9.548559188842773,1.7407784461975098
1710888350046728200,8.504728271484375,0.9379864931106567,9.570094108581543,1.7958134412765503
1710888350065687800,8.523687744140625,0.9942178130149841,9.559326171875,1.887937068939209
1710888350084647200,8.542647216796874,1.0265209674835205,9.596415519714355,1.9968105554580688
1710888350103606800,8.561606689453125,0.9858429431915283,9.609575271606445,2.1535403728485107
1710888350122566400,8.58056640625,1.0193424224853516,9.579665184020996,2.1822543144226074
1710888350141526000,8.599526123046875,0.989432156085968,9.585647583007812,2.1296122074127197
1710888350160485600,8.618485595703126,0.9535398483276367,9.535398483276367,2.0745773315429688
1710888350179445200,8.6374453125,0.9343972206115723,9.588040351867676,1.963310956954956
1710888350198404900,8.65640478515625,1.0193424224853516,9.56889820098877,1.867598056793213
1710888350217364500,8.675364501953124,1.0516455173492432,9.480362892150879,1.8376877307891846
1710888350236323800,8.69432373046875,1.0241280794143677,9.495916366577148,1.781456470489502
1710888350255283500,8.713283447265624,1.0923235416412354,9.43609619140625,1.6498512029647827
1710888350274243000,8.7322431640625,1.0301101207733154,9.437292098999023,1.6342978477478027
1710888350293202700,8.75120263671875,1.0301101207733154,9.491130828857422,1.6857435703277588
1710888350312162300,8.770162353515625,1.0600204467773438,9.516255378723145,1.7575281858444214
1710888350331122000,8.789121826171876,1.054038405418396,9.540184020996094,1.852044701576233
1710888350350081500,8.80808154296875,1.0552347898483276,9.546165466308594,1.8807586431503296
1710888350369041200,8.827041259765625,1.0516455173492432,9.595218658447266,1.9286150932312012
1710888350388000500,8.84600048828125,1.0767701864242554,9.616754531860352,1.9680966138839722
1710888350406960000,8.864960205078125,1.0815558433532715,9.562915802001953,1.9908283948898315
1710888350425919700,8.883919677734376,1.0660024881362915,9.522237777709961,1.9154545068740845
1710888350444879400,8.90287939453125,1.0528420209884644,9.517452239990234,1.872383713722229
1710888350463839000,8.9218388671875,1.0325030088424683,9.522237777709961,1.8388842344284058
1710888350482798600,8.940798583984375,1.0301101207733154,9.521040916442871,1.8867406845092773
1710888350501758200,8.95975830078125,1.0767701864242554,9.555737495422363,1.9381862878799438
1710888350520717600,8.978717529296874,1.1186445951461792,9.565308570861816,2.0231316089630127
1710888350539677200,8.99767724609375,1.1078768968582153,9.580862045288086,2.073380708694458
1710888350558636800,9.01663671875,1.113858938217163,9.586843490600586,2.0650060176849365
1710888350577596400,9.035596435546875,1.1114661693572998,9.58325481414795,2.0159530639648438
1710888350596556000,9.05455615234375,1.1102696657180786,9.56650447845459,1.9597218036651611
1710888350615515600,9.073515625,1.1150553226470947,9.565308570861816,1.9872392416000366
1710888350634475000,9.09247509765625,1.1473584175109863,9.504291534423828,1.978864312171936
1710888350653434600,9.1114345703125,1.1353943347930908,9.455238342285156,2.007578134536743
1710888350672394200,9.130394287109375,1.0145567655563354,9.445667266845703,1.919043779373169
1710888350691353900,9.149353759765624,1.0121639966964722,9.517452239990234,1.8987047672271729
1710888350710313500,9.1683134765625,1.1437692642211914,9.481559753417969,1.9657038450241089
1710888350729273000,9.187273193359376,1.100698471069336,9.521040916442871,2.111665964126587
1710888350748232700,9.206232666015625,1.231107234954834,9.44447135925293,2.03629207611084
1710888350767192000,9.225192138671876,1.2406785488128662,9.34277629852295,1.994417667388916
1710888350786151700,9.244151611328125,1.2023934125900269,9.416953086853027,1.9968105554580688
1710888350805111300,9.263111328125,1.2047861814498901,9.438488960266113,1.9812572002410889
1710888350824071000,9.28207080078125,1.2454642057418823,9.488738059997559,1.9561325311660767
1710888350843030500,9.301030517578125,1.2382856607437134,9.483952522277832,1.9094724655151367
1710888350861990100,9.319990234375,1.1724830865859985,9.558130264282227,1.8915263414382935
1710888350880949800,9.33894970703125,1.164108157157898,9.528220176696777,1.887937068939209
1710888350899909400,9.357909423828126,1.1473584175109863,9.497113227844238,1.8783657550811768
1710888350918868700,9.37686865234375,1.1748759746551514,9.449256896972656,1.908276081085205
1710888350937828400,9.395828369140625,1.191625714302063,9.403793334960938,1.9202401638031006
1710888350956788000,9.4147880859375,1.1653046607971191,9.387042999267578,1.9657038450241089
1710888350975747600,9.43374755859375,1.160519003868103,9.389435768127441,2.0231316089630127
1710888350994707200,9.452707275390624,1.1892328262329102,9.415757179260254,2.0673987865448
1710888351013666800,9.471666748046875,1.1868400573730469,9.464810371398926,2.073380708694458
1710888351032626400,9.49062646484375,1.155733346939087,9.492327690124512,2.018345832824707
1710888351051586000,9.5095859375,1.144965648651123,9.521040916442871,1.9824535846710205
1710888351070545400,9.52854541015625,1.168893814086914,9.517452239990234,1.9669002294540405
1710888351089505000,9.547505126953125,1.211964726448059,9.516255378723145,2.0159530639648438
1710888351108464600,9.566464599609375,1.2610175609588623,9.483952522277832,2.0303099155426025
1710888351127424300,9.58542431640625,1.2693923711776733,9.456435203552246,2.021935224533081
1710888351146383600,9.604383544921875,1.23589289188385,9.477970123291016,2.066202402114868
1710888351165343200,9.62334326171875,1.1330015659332275,9.515059471130371,2.038684844970703
1710888351184302800,9.642302734375,1.1940184831619263,9.540184020996094,2.008774518966675
1710888351203262500,9.661262451171876,1.2837493419647217,9.45763111114502,1.9800606966018677
1710888351222222000,9.68022216796875,1.2047861814498901,9.4660062789917,2.045863389968872
1710888351241181700,9.699181640625,1.2418749332427979,9.390632629394531,1.963310956954956
1710888351260141000,9.71814111328125,1.2598211765289307,9.351150512695312,1.9645073413848877
1710888351279100700,9.7371005859375,1.2370892763137817,9.397810935974121,2.011167526245117
1710888351298060300,9.756060302734374,1.2299108505249023,9.404989242553711,1.9836499691009521
1710888351317020000,9.77502001953125,1.1880364418029785,9.460023880004883,1.9489539861679077
1710888351335979500,9.7939794921875,1.1521440744400024,9.461220741271973,1.9417755603790283
1710888351354939100,9.812939208984375,1.1521440744400024,9.479166984558105,2.0267207622528076
1710888351373898800,9.831898681640626,1.1820544004440308,9.467203140258789,2.1379871368408203
1710888351392858000,9.850858154296875,1.2215359210968018,9.448060035705566,2.228914260864258
1710888351411817700,9.869817626953125,1.2059825658798218,9.414560317993164,2.2229323387145996
1710888351430777300,9.88877734375,1.2191431522369385,9.371489524841309,2.152343988418579
1710888351449737000,9.907737060546875,1.2047861814498901,9.358329772949219,2.0865414142608643
1710888351468696300,9.9266962890625,1.1880364418029785,9.388239860534668,2.0482561588287354
1710888351487656000,9.945656005859375,1.1593226194381714,9.44447135925293,2.0207388401031494
1710888351506615600,9.964615478515626,1.1892328262329102,9.481559753417969,2.056631088256836
1710888351525575200,9.9835751953125,1.2538390159606934,9.481559753417969,2.111665964126587
1710888351544534800,10.00253466796875,1.2705888748168945,9.492327690124512,2.1990039348602295
1710888351563494100,10.021494140625,1.2681959867477417,9.480362892150879,2.221735715866089
1710888351582453800,10.040453857421875,1.28255295753479,9.42772102355957,2.190629243850708
1710888351601413400,10.059413330078126,1.2969099283218384,9.321240425109863,2.1104695796966553
1710888351620373000,10.078373046875,1.2370892763137817,9.369096755981445,2.108076810836792
1710888351639332600,10.09733251953125,1.1676974296569824,9.354740142822266,2.1020946502685547
1710888351658292000,10.1162919921875,1.098305583000183,9.518648147583008,2.115255117416382
1710888351677251600,10.13525146484375,1.2586246728897095,9.464810371398926,2.0985054969787598
1710888351696211200,10.154211181640624,1.23589289188385,9.418149948120117,2.149951219558716
1710888351715170800,10.1731708984375,1.2586246728897095,9.378668785095215,2.0099709033966064
1710888351734130200,10.192130126953124,1.2693923711776733,9.308079719543457,1.9298114776611328
1710888351753089800,10.21108984375,1.2059825658798218,9.387042999267578,2.021935224533081
1710888351772049400,10.23004931640625,1.1940184831619263,9.473184585571289,2.060220241546631
1710888351791009000,10.249009033203125,1.2023934125900269,9.507881164550781,2.0542383193969727
1710888351809968600,10.26796875,1.207179069519043,9.525827407836914,2.0709879398345947
1710888351828928000,10.286927978515624,1.1904292106628418,9.473184585571289,2.049452543258667
1710888351847887600,10.3058876953125,1.1545369625091553,9.473184585571289,2.0685951709747314
1710888351866847200,10.32484716796875,1.1832507848739624,9.449256896972656,2.0985054969787598
1710888351885806800,10.343806884765625,1.2167502641677856,9.433703422546387,2.118844509124756
1710888351904766500,10.362766357421876,1.2059825658798218,9.415757179260254,2.091326951980591
1710888351923725800,10.381725830078125,1.1485549211502075,9.442078590393066,2.0410776138305664
1710888351942685400,10.400685546875,1.0911271572113037,9.45045280456543,2.045863389968872
1710888351961645000,10.41964501953125,1.1341979503631592,9.474381446838379,2.1032910346984863
1710888351980604700,10.438604736328125,1.1377872228622437,9.499505996704102,2.1774685382843018
1710888351999564000,10.45756396484375,1.1126625537872314,9.501898765563965,2.1954147815704346
1710888352018523600,10.476523681640625,1.098305583000183,9.493523597717285,2.1415762901306152
1710888352037483300,10.495483154296876,1.098305583000183,9.500701904296875,2.122433662414551
1710888352056442600,10.514442626953125,1.1270195245742798,9.480362892150879,2.1272194385528564
1710888352075402200,10.53340234375,1.168893814086914,9.462417602539062,2.0997018814086914
1710888352094361900,10.55236181640625,1.1377872228622437,9.45882797241211,2.100898265838623
1710888352113321200,10.5713212890625,1.1282159090042114,9.42891788482666,2.0685951709747314
1710888352132280800,10.59028076171875,1.0432707071304321,9.498309135437012,2.03629207611084
1710888352151240400,10.609240478515625,1.057627558708191,9.56052303314209,2.087737798690796
1710888352170200000,10.628199951171876,1.1114661693572998,9.538987159729004,2.155933141708374
1710888352189159700,10.64715966796875,1.1282159090042114,9.507881164550781,2.1750757694244385
1710888352208119000,10.666119140625,1.1748759746551514,9.424132347106934,2.094916343688965
1710888352227078700,10.68507861328125,1.0707881450653076,9.437292098999023,2.0985054969787598
1710888352246038300,10.704038330078125,1.069591760635376,9.468399047851562,2.091326951980591
1710888352264998000,10.722997802734374,1.0719845294952393,9.4660062789917,2.056631088256836
1710888352283957200,10.741957275390625,1.0145567655563354,9.495916366577148,2.014756679534912
1710888352302916900,10.760916748046874,1.0169496536254883,9.477970123291016,1.9908283948898315
1710888352321876500,10.77987646484375,1.0456634759902954,9.460023880004883,2.0231316089630127
1710888352340835800,10.7988359375,1.0660024881362915,9.476774215698242,2.11405873298645
1710888352359795500,10.81779541015625,1.085145115852356,9.45164966583252,2.214557409286499
1710888352378755000,10.836755126953125,1.1102696657180786,9.433703422546387,2.187039852142334
1710888352397714700,10.855714599609374,1.1042876243591309,9.394221305847168,2.111665964126587
1710888352416674000,10.874674072265625,1.0600204467773438,9.432506561279297,2.0793628692626953
1710888352435633700,10.893633544921874,1.0097711086273193,9.449256896972656,2.045863389968872
1710888352454593300,10.91259326171875,1.0121639966964722,9.4660062789917,2.0793628692626953
1710888352473553000,10.931552978515626,1.007378339767456,9.449256896972656,2.117648124694824
1710888352492512300,10.95051220703125,1.007378339767456,9.461220741271973,2.1607189178466797
1710888352511471900,10.969471923828126,1.0049854516983032,9.440881729125977,2.2097716331481934
1710888352530431500,10.988431396484375,0.98703932762146,9.550951957702637,2.2468605041503906
1710888352549390800,11.007390869140625,0.989432156085968,9.542576789855957,2.231307029724121
1710888352568350500,11.0263505859375,1.0432707071304321,9.518648147583008,2.179861545562744
1710888352587310000,11.04531005859375,1.0372886657714844,9.515059471130371,2.1379871368408203
1710888352606269400,11.06426953125,0.9678967595100403,9.571290969848633,2.0865414142608643
1710888352625229000,11.08322900390625,0.9032905697822571,9.716055870056152,2.087737798690796
1710888352644188700,11.102188720703126,0.9643075466156006,9.694520950317383,2.0518453121185303
1710888352663148300,11.121148193359375,0.849452018737793,9.65503978729248,2.173879384994507
1710888352682108000,11.14010791015625,0.8769695162773132,9.497113227844238,2.1379871368408203
1710888352701067300,11.1590673828125,0.7848458290100098,9.249456405639648,2.1511476039886475
1710888352720027000,11.17802685546875,0.5551348328590393,9.110671997070312,2.348555326461792
1710888352738986500,11.196986572265626,0.39601215720176697,9.044869422912598,2.544766902923584
1710888352757945900,11.21594580078125,0.31824541091918945,8.93838882446289,2.7146573066711426
1710888352776905500,11.234905517578126,0.26560330390930176,8.817551612854004,2.778067111968994
1710888352795865000,11.253864990234375,0.1459621787071228,8.797212600708008,2.68953275680542
1710888352814824400,11.272824462890625,0.062213387340307236,9.034101486206055,2.682354211807251
1710888352833784000,11.2917841796875,0.008374879136681557,9.286544799804688,2.754138946533203
1710888352852743700,11.31074365234375,0.07537391036748886,9.255437850952148,2.7565317153930664
1710888352871703300,11.329703369140624,0.137587308883667,9.114261627197266,2.6703901290893555
1710888352890663000,11.348662841796875,0.14117653667926788,9.114261627197266,2.6356940269470215
1710888352909622300,11.367622314453126,0.11964113265275955,9.34875774383545,2.7601208686828613
1710888352928582000,11.386581787109375,0.16151553392410278,9.650253295898438,2.953939437866211
1710888352947541500,11.40554150390625,0.1543370634317398,9.827322959899902,3.188436269760132
1710888352966501000,11.424501220703124,0.12681959569454193,9.864411354064941,3.469592809677124
1710888352985460500,11.44346044921875,0.2225325107574463,9.80937671661377,3.600001573562622
1710888353004420000,11.462420166015624,0.45583271980285645,9.713663101196289,3.5509488582611084
1710888353023379700,11.481379638671875,0.40319061279296875,9.708877563476562,3.432504177093506
1710888353042339300,11.50033935546875,0.5204389095306396,9.747162818908691,3.291327476501465
1710888353061298700,11.519298583984375,0.8386843204498291,10.028319358825684,2.8390841484069824
1710888353080258300,11.53825830078125,0.989432156085968,9.93380355834961,2.50289249420166
1710888353099218000,11.557218017578125,1.26699960231781,9.462417602539062,2.396411895751953
1710888353118177300,11.57617724609375,1.5696916580200195,8.675178527832031,2.283949136734009
1710888353137137000,11.595136962890624,2.069791555404663,7.6737823486328125,2.183450698852539
1710888353156096500,11.614096435546875,2.3090739250183105,6.778866767883301,2.3880369663238525
1710888353175056100,11.63305615234375,2.5399811267852783,7.16650390625,2.5256242752075195
1710888353194015700,11.652015625,2.2779672145843506,8.616554260253906,2.496910333633423
1710888353212975000,11.67097509765625,2.135594129562378,10.106086730957031,2.7349963188171387
1710888353231934700,11.689934814453125,2.117648124694824,11.09910774230957,2.9826533794403076
1710888353250894300,11.708894287109375,2.1822543144226074,11.661420822143555,3.2039895057678223
1710888353269854000,11.72785400390625,2.612962245941162,11.552547454833984,3.348755359649658
1710888353288813300,11.746813232421875,2.981456995010376,10.774880409240723,3.432504177093506
1710888353307773000,11.76577294921875,2.4909284114837646,9.934999465942383,3.332005500793457
1710888353326732500,11.784732666015625,1.8987047672271729,8.925228118896484,3.376272678375244
1710888353345692200,11.803692138671876,1.4931213855743408,7.217949390411377,3.1645078659057617
1710888353364651800,11.82265185546875,1.7120646238327026,5.227120876312256,2.7086751461029053
1710888353383611100,11.841611083984375,1.3782658576965332,3.8009986877441406,2.583052158355713
1710888353402570800,11.86057080078125,1.2215359210968018,2.8905298709869385,2.715853691101074
1710888353421530400,11.8795302734375,1.9058831930160522,2.7696921825408936,2.7672994136810303
1710888353440490000,11.898489990234374,2.416750907897949,4.198207378387451,2.2360928058624268
1710888353459449600,11.91744970703125,1.8975083827972412,6.666403770446777,1.9669002294540405
1710888353478409200,11.9364091796875,2.8677978515625,9.489934921264648,2.9826533794403076
1710888353497368600,11.95536865234375,2.7828526496887207,12.842279434204102,4.9399824142456055
1710888353516328200,11.974328125,2.6392834186553955,13.971691131591797,6.671189308166504
1710888353535287800,11.993287841796874,2.6177480220794678,13.539787292480469,6.472585201263428
1710888353554247400,12.012247314453125,1.994417667388916,13.048062324523926,5.966503143310547
1710888353573207000,12.03120703125,2.252842426300049,12.876975059509277,5.997610092163086
1710888353592166700,12.050166748046875,3.4755749702453613,12.242877006530762,6.368497371673584
1710888353611126000,12.0691259765625,4.503292083740234,9.734002113342285,4.686343193054199
1710888353630085600,12.088085693359375,4.01754903793335,9.174081802368164,4.238885402679443
1710888353649045200,12.107045166015626,4.096512317657471,9.701699256896973,5.607579708099365
1710888353668004900,12.1260048828125,7.966903209686279,7.159325122833252,5.998806476593018
1710888353686964500,12.144964599609375,10.398011207580566,5.295316696166992,1.6366907358169556
1710888353705923800,12.163923828125,6.403193473815918,7.312466144561768,-2.7840490341186523
1710888353724883500,12.182883544921875,1.089930772781372,11.423335075378418,-3.8488552570343018
1710888353743843000,12.201843017578126,1.7850457429885864,13.87358570098877,-4.3788652420043945
1710888353762802700,12.220802734375,3.820141315460205,16.137195587158203,-6.27278470993042
1710888353781762300,12.23976220703125,2.7122645378112793,19.050457000732422,-3.2004003524780273
1710888353800722000,12.258721923828125,2.943171739578247,23.539392471313477,5.61236572265625
1710888353819681500,12.277681640625,4.164707660675049,22.139591217041016,10.581061363220215
1710888353838641200,12.29664111328125,6.244070529937744,18.40559196472168,12.1866455078125
1710888353857600500,12.3156005859375,4.7988057136535645,15.206387519836426,10.197013854980469
1710888353876560100,12.33456005859375,3.4241292476654053,11.694920539855957,5.965306758880615
1710888353895519700,12.353519775390625,2.196611166000366,8.659625053405762,2.007578134536743
1710888353914479400,12.372479248046876,0.5826523303985596,7.085147857666016,-1.4117653369903564
1710888353933439000,12.39143896484375,-0.39481574296951294,6.251249313354492,-5.705685615539551
1710888353952398600,12.410398681640626,1.994417667388916,4.694717884063721,-8.982656478881836
1710888353971358200,12.429358154296875,2.0231316089630127,2.4287149906158447,-8.645268440246582
1710888353990317600,12.448317626953125,0.08255238085985184,1.7072789669036865,-6.185446739196777
1710888354009277200,12.467277099609374,-0.02512463741004467,1.7084753513336182,-3.9625144004821777
1710888354028236800,12.48623681640625,2.276770830154419,0.5108676552772522,-2.994617462158203
1710888354047196400,12.505196533203126,4.063013076782227,-0.12083754688501358,-2.20737886428833
1710888354066156000,12.524156005859375,3.3343982696533203,-0.017946170642971992,-1.4380863904953003
1710888354085115600,12.54311572265625,2.187039852142334,0.46779683232307434,-0.6747759580612183
1710888354104075300,12.5620751953125,1.4225330352783203,1.6031911373138428,-0.8721838593482971
1710888354123035000,12.581034912109375,0.5024927258491516,5.553741455078125,-2.548356056213379
1710888354141994200,12.599994140625,0.22372891008853912,14.287544250488281,-2.0745773315429688
1710888354160953900,12.618953857421875,4.054637908935547,22.66720962524414,7.5326056480407715
1710888354179913500,12.63791357421875,7.805387496948242,22.955543518066406,13.586446762084961
1710888354198873000,12.656873046875,11.633903503417969,19.12942123413086,11.146964073181152
1710888354217832700,12.675832763671876,11.182856559753418,19.36989974975586,6.329015731811523
1710888354236792300,12.694792236328125,9.21117115020752,19.712072372436523,5.881557941436768
1710888354255752000,12.713751953125,8.037490844726562,18.247665405273438,5.112265586853027
1710888354274711600,12.732711669921875,5.60399055480957,13.789836883544922,3.576073408126831
1710888354293671200,12.751671142578125,1.6474584341049194,10.115657806396484,2.5902304649353027
1710888354312630800,12.770630859375,-0.6592226624488831,6.6006011962890625,2.669193744659424
1710888354331590400,12.78959033203125,-0.15672987699508667,1.3830515146255493,3.841676712036133
1710888354350549800,12.8085498046875,-0.5132604837417603,-2.781656265258789,5.520241737365723
1710888354369509600,12.827509521484375,-2.6979074478149414,-4.356133460998535,5.124229907989502
1710888354388469200,12.84646923828125,-5.630311489105225,-4.90408992767334,3.90987229347229
1710888354407428600,12.8654287109375,-7.052844524383545,-4.211368083953857,2.9838497638702393
1710888354426388200,12.88438818359375,-5.702096462249756,-3.671786308288574,4.789234638214111
1710888354445347800,12.903347900390624,-4.4721856117248535,-3.267399311065674,5.7511491775512695
1710888354464307500,12.922307373046875,-4.110869407653809,-2.225325107574463,5.024927616119385
1710888354483267000,12.94126708984375,-1.8436698913574219,2.932404041290283,2.0446670055389404
1710888354502226700,12.960226806640625,3.6873397827148438,13.298111915588379,-2.163111686706543
1710888354521186300,12.979186279296876,2.5399811267852783,23.7056941986084,-0.9966106414794922
1710888354540146000,12.99814599609375,1.5852450132369995,31.045677185058594,2.478964328765869
1710888354559105500,13.01710546875,10.559526443481445,32.54717254638672,6.601797580718994
1710888354578065200,13.036065185546875,9.491130828857422,28.027132034301758,4.828716278076172
1710888354597024800,13.055024658203125,4.390829563140869,29.47359275817871,10.40758228302002
1710888354615984400,13.073984375,4.308277130126953,23.893529891967773,9.761520385742188
1710888354634944000,13.092944091796875,4.301098823547363,14.852250099182129,4.626522541046143
1710888354653903600,13.111903564453126,2.709871530532837,9.499505996704102,1.92741858959198
1710888354672863200,13.13086328125,0.5108676552772522,7.010970115661621,-0.9798609018325806
1710888354691822800,13.14982275390625,-0.007178467698395252,4.741377830505371,-5.229514122009277
1710888354710782500,13.168782470703125,0.7357929348945618,2.304288148880005,-9.251849174499512
1710888354729742000,13.1877421875,-0.2105683982372284,1.2370892763137817,-10.649256706237793
1710888354748701700,13.20670166015625,-0.4019941985607147,2.1164517402648926,-8.34018325805664
1710888354767661300,13.225661376953125,1.4165509939193726,3.046063184738159,-4.563112735748291
1710888354786621000,13.244620849609374,4.2723846435546875,3.280559778213501,-2.3090739250183105
1710888354805580500,13.26358056640625,5.880361557006836,1.1054840087890625,-2.2743778228759766
1710888354824540200,13.2825400390625,3.7507495880126953,-0.8877372145652771,-3.0245277881622314
1710888354843499800,13.301499755859375,1.7120646238327026,2.530410051345825,-2.551945447921753
1710888354862459100,13.320459228515626,2.8486554622650146,12.516855239868164,-0.5527420043945312
1710888354881419000,13.3394189453125,4.293920040130615,24.00360107421875,8.09850788116455
1710888354900378600,13.358378662109375,8.221738815307617,20.91805648803711,11.802597999572754
1710888354919338000,13.377337890625,13.326826095581055,18.897315979003906,7.438089370727539
1710888354938297900,13.3962978515625,11.018948554992676,22.28435707092285,5.883950710296631
1710888354957257500,13.415257568359374,6.346961975097656,20.99582290649414,4.301098823547363
1710888354976217000,13.434217041015625,4.281956195831299,16.944772720336914,3.098705291748047
1710888354995176400,13.453176513671876,3.4432718753814697,11.617154121398926,3.294916868209839
1710888355014136300,13.47213623046875,2.3437697887420654,7.507481098175049,4.004388809204102
1710888355033096000,13.491095947265626,1.368694543838501,4.692325115203857,3.9038901329040527
1710888355052055300,13.51005517578125,0.6699903607368469,1.9980069398880005,3.704089403152466
1710888355071015200,13.52901513671875,-0.6017948985099792,-1.7491533756256104,2.8725836277008057
1710888355089974800,13.547974853515624,-3.1513473987579346,-4.34536600112915,2.2540390491485596
1710888355108934100,13.56693408203125,-5.601597785949707,-5.1804609298706055,1.8987047672271729
1710888355127894000,13.58589404296875,-5.960521221160889,-4.942375183105469,2.4430718421936035
1710888355146853600,13.604853515625,-5.420939922332764,-4.226921081542969,5.258227825164795
1710888355165813000,13.62381298828125,-5.109872817993164,-4.4374895095825195,6.344569206237793
1710888355184772900,13.64277294921875,-4.902893543243408,-4.11924409866333,5.730810165405273
1710888355203732500,13.661732421875,-3.875176191329956,1.0660024881362915,3.52103853225708
1710888355222691800,13.68069189453125,5.113461971282959,15.108282089233398,-0.6999006271362305
1710888355241651700,13.699651611328125,4.1491546630859375,28.30230712890625,2.3306093215942383
1710888355260611300,13.718611328125,3.3786656856536865,35.62434387207031,7.401000499725342
1710888355279571000,13.737571044921875,17.138591766357422,34.29632568359375,9.403793334960938
1710888355298530600,13.756530517578126,10.213763236999512,25.33759880065918,1.812563180923462
1710888355317490200,13.775490234375,1.7156537771224976,26.189443588256836,5.424529075622559
1710888355336449800,13.79444970703125,0.8315058946609497,22.54756736755371,6.393621921539307
1710888355355409400,13.813409423828125,1.8041882514953613,14.263615608215332,4.071387767791748
1710888355374369000,13.832369140625,1.8293129205703735,9.017352104187012,2.447857618331909
1710888355393328600,13.85132861328125,1.1808580160140991,6.685546398162842,0.2189432680606842
1710888355412288300,13.870288330078125,1.6654045581817627,5.277370452880859,-2.944368362426758
1710888355431248000,13.889247802734374,1.94297194480896,3.6646077632904053,-7.138986587524414
1710888355450207500,13.90820751953125,-0.10767702013254166,1.8400806188583374,-9.647860527038574
1710888355469166800,13.927166748046876,0.7932206988334656,1.482353687286377,-10.04865837097168
1710888355488126700,13.946126708984375,3.2829527854919434,1.454836130142212,-8.980263710021973
1710888355507086300,13.96508642578125,5.590830326080322,2.307877540588379,-7.6474609375
1710888355526045700,13.984045654296875,4.886143684387207,2.6285157203674316,-4.823930263519287
1710888355545005600,14.003005615234375,2.3270199298858643,3.9589250087738037,-2.149951219558716
1710888355563965200,14.021965087890624,2.5974090099334717,10.37767219543457,0.33738797903060913
1710888355582924800,14.0409248046875,2.884547710418701,22.941186904907227,5.418546676635742
1710888355601884400,14.059884521484374,8.286344528198242,21.160926818847656,9.117850303649902
1710888355620844000,14.078843994140625,12.92602825164795,19.744375228881836,7.307680130004883
1710888355639803600,14.0978037109375,8.913264274597168,26.65723991394043,8.276773452758789
1710888355658763000,14.116762939453125,5.5345988273620605,23.423341751098633,5.870790481567383
1710888355677723000,14.135722900390626,3.9840497970581055,16.3046932220459,3.961317777633667
1710888355696682500,14.1546826171875,2.3258235454559326,12.317054748535156,4.997410297393799
1710888355715641900,14.173641845703125,1.0157532691955566,9.664610862731934,5.42572546005249
1710888355734601700,14.192601806640624,0.2871387302875519,6.474977970123291,5.7786664962768555
1710888355753561300,14.211561279296875,-0.27756741642951965,2.3473589420318604,7.054041385650635
1710888355772520700,14.230520751953126,-1.0265209674835205,-2.750549554824829,6.833901405334473
1710888355791480300,14.249480224609375,-4.5308098793029785,-6.7417778968811035,3.946960926055908
1710888355810440200,14.268440185546876,-6.299105644226074,-7.216753005981445,1.7910277843475342
1710888355829399600,14.287399658203125,-6.477370738983154,-5.313262462615967,1.7754744291305542
1710888355848359200,14.306359130859375,-5.532206058502197,-4.013959884643555,3.7435710430145264
1710888355867319000,14.325319091796874,-5.450850009918213,-4.109673023223877,4.3752760887146
1710888355886278400,14.3442783203125,-4.95912504196167,-2.964707374572754,3.245863914489746
1710888355905238000,14.363238037109374,-2.7361927032470703,2.772084951400757,1.0600204467773438
1710888355924197600,14.38219775390625,4.789234638214111,16.291532516479492,-2.3952155113220215
1710888355943157500,14.401157470703126,3.4791641235351562,29.765518188476562,-0.44745782017707825
1710888355962116900,14.420116943359375,5.925825119018555,38.922847747802734,8.855836868286133
1710888355981076500,14.439076416015626,15.488740921020508,38.18107604980469,10.594222068786621
1710888356000036000,14.4580361328125,11.283354759216309,26.40240478515625,9.796216011047363
1710888356018995700,14.47699560546875,4.384847640991211,23.558534622192383,10.183853149414062
1710888356037955300,14.495955322265624,2.159522533416748,16.687545776367188,7.293323516845703
1710888356056915000,14.5149150390625,-0.2512463629245758,9.91705322265625,4.359723091125488
1710888356075874600,14.53387451171875,-0.1495514214038849,6.7621169090271,1.0719845294952393
1710888356094834200,14.552834228515625,1.2275179624557495,4.918447017669678,-2.4430718421936035
1710888356113793800,14.571793701171876,2.4777679443359375,3.9110686779022217,-4.7952165603637695
1710888356132753400,14.59075341796875,1.3722838163375854,2.816352367401123,-6.930810928344727
1710888356151713000,14.609713134765625,0.36251261830329895,2.0315065383911133,-8.492127418518066
1710888356170672600,14.628672607421874,0.3314059376716614,1.8759729862213135,-10.197013854980469
1710888356189632300,14.64763232421875,3.555734395980835,2.2337000370025635,-10.565508842468262
1710888356208592000,14.666591796875,5.429314613342285,2.266003131866455,-8.512466430664062
1710888356227551500,14.685551513671875,4.777270317077637,2.8211379051208496,-6.045466423034668
1710888356246511000,14.704510986328126,3.4683964252471924,6.581458568572998,-4.759324073791504
1710888356265470700,14.723470703125,2.581855535507202,14.92283821105957,-1.9621145725250244
1710888356284430000,14.74243017578125,1.3196417093276978,30.976285934448242,9.868000984191895
1710888356303389700,14.7613896484375,7.603193759918213,28.604997634887695,14.782857894897461
1710888356322349600,14.780349609375,10.96750259399414,22.58704948425293,11.443674087524414
1710888356341309000,14.799308837890624,6.537191390991211,23.55135726928711,9.54377269744873
1710888356360268500,14.8182685546875,0.745364248752594,20.90728759765625,7.056434154510498
1710888356379228200,14.837228271484374,-0.2883351147174835,14.137992858886719,4.223331928253174
1710888356398187800,14.856187744140625,-1.2693923711776733,9.005388259887695,3.6358940601348877
1710888356417147400,14.8751474609375,-2.2169501781463623,6.068198204040527,4.232903480529785
1710888356436107000,14.89410693359375,-1.6067804098129272,2.5974090099334717,5.419743061065674
1710888356455066600,14.913066650390626,-1.0767701864242554,-2.480160713195801,6.567101955413818
1710888356474026200,14.932026123046874,-2.761317253112793,-6.131608009338379,4.945964336395264
1710888356492985900,14.95098583984375,-5.720042705535889,-6.0849480628967285,2.8594231605529785
1710888356511945500,14.969945556640624,-7.070790767669678,-4.682754039764404,2.2085752487182617
1710888356530905000,14.988905029296875,-5.812166213989258,-3.82373046875,4.797609329223633
1710888356549864400,15.007864501953126,-4.314259052276611,-4.474578380584717,5.588437080383301
1710888356568824300,15.02682421875,-4.098905086517334,-4.037888050079346,4.581058979034424
1710888356587784000,15.045783935546876,-4.275974273681641,-0.25004997849464417,3.1345977783203125
1710888356606743300,15.064743408203125,0.8195417523384094,10.455438613891602,0.07417750358581543
1710888356625703000,15.083702880859375,6.94038200378418,22.053449630737305,-1.1868400573730469
1710888356644662500,15.10266259765625,3.3403804302215576,31.094730377197266,3.8189449310302734
1710888356663622100,15.1216220703125,8.74337387084961,39.98645782470703,11.292926788330078
1710888356682581800,15.140581787109374,12.774084091186523,28.50090980529785,6.744170665740967
1710888356701541400,15.159541259765625,4.182653903961182,24.028724670410156,5.61116886138916
1710888356720501000,15.1785009765625,2.6608188152313232,21.33081817626953,7.70967435836792
1710888356739460600,15.197460693359375,2.551945447921753,13.588839530944824,6.175875186920166
1710888356758420000,15.216419921875,0.3517449200153351,9.213563919067383,2.7182464599609375
1710888356777379800,15.2353798828125,1.2059825658798218,6.689135551452637,-1.6821542978286743
1710888356796339500,15.25433935546875,1.550549030303955,4.599005222320557,-5.722435474395752
1710888356815298800,15.273298828125,-0.2967100143432617,3.2374889850616455,-7.482356548309326
1710888356834258400,15.292258544921875,0.7704889178276062,2.3509483337402344,-8.38564682006836
1710888356853218000,15.311218017578126,2.837887763977051,2.2169501781463623,-8.295916557312012
1710888356872177700,15.330177734375,4.426722049713135,3.38105845451355,-7.800601959228516
1710888356891137300,15.34913720703125,5.0356950759887695,4.058227062225342,-6.599404811859131
1710888356910097000,15.368096923828125,6.226124286651611,2.6596224308013916,-6.189035892486572
1710888356929056500,15.387056396484375,4.882554531097412,3.726821184158325,-5.78345251083374
1710888356948016000,15.40601611328125,3.5509488582611084,12.802797317504883,-2.944368362426758
1710888356966975500,15.4249755859375,2.1200408935546875,27.915864944458008,9.08674430847168
1710888356985935000,15.44393505859375,6.100501537322998,21.984058380126953,9.565308570861816
1710888357004894700,15.462894775390625,10.229316711425781,21.6801700592041,6.063412666320801
1710888357023854300,15.481854248046876,3.7818562984466553,25.803003311157227,8.481359481811523
1710888357042814000,15.50081396484375,-0.3732803463935852,22.815563201904297,7.953742504119873
1710888357061773600,15.519773681640626,0.5491527915000916,15.732809066772461,6.406782627105713
1710888357080733200,15.538733154296875,0.7441678643226624,9.885947227478027,6.843472957611084
1710888357099692800,15.55769287109375,-0.6592226624488831,7.0097737312316895,6.894918441772461
1710888357118652200,15.576652099609374,-0.9798609018325806,4.583451747894287,5.918646812438965
1710888357137611800,15.59561181640625,-2.059023857116699,0.137587308883667,5.158925533294678
1710888357156571400,15.6145712890625,-5.277370452880859,-4.280759811401367,4.308277130126953
1710888357175531000,15.633531005859375,-8.120043754577637,-7.013363361358643,3.3403804302215576
1710888357194490600,15.65249072265625,-6.532405853271484,-4.645665168762207,4.013959884643555
1710888357213450200,15.6714501953125,-5.365904808044434,-4.009174346923828,7.207181930541992
1710888357232409900,15.690409912109375,-4.542773723602295,-5.662614822387695,8.73619556427002
1710888357251369500,15.709369384765624,-5.461617469787598,-4.814359188079834,7.302894592285156
1710888357270328800,15.728328857421875,-2.882154941558838,2.0889341831207275,3.4408788681030273
1710888357289288400,15.747288330078124,7.433303356170654,19.051654815673828,-2.610569477081299
1710888357308248000,15.766248046875,0.6604190468788147,31.444082260131836,1.184447169303894
1710888357327207700,15.785207763671876,6.504888534545898,36.85664749145508,2.251646041870117
1710888357346167300,15.804167236328125,8.885746955871582,35.06801223754883,2.4610180854797363
1710888357365126700,15.823126708984375,6.607779502868652,27.907489776611328,0.02392822690308094
1710888357384086300,15.842086181640624,3.6837503910064697,24.690340042114258,8.372486114501953
1710888357403046000,15.8610458984375,4.821537494659424,16.326229095458984,9.868000984191895
1710888357422005500,15.880005615234374,0.5395814776420593,10.17428207397461,6.884150981903076
1710888357440965000,15.898965087890625,-0.007178467698395252,7.727620601654053,2.447857618331909
1710888357459924700,15.9179248046875,0.062213387340307236,5.923432350158691,-2.3641088008880615
1710888357478884400,15.93688427734375,2.049452543258667,3.4265220165252686,-6.0538411140441895
1710888357497843700,15.95584375,2.0709879398345947,0.7286145091056824,-7.774280548095703
1710888357516803300,15.97480322265625,1.5134602785110474,1.5649060010910034,-8.316255569458008
1710888357535763000,15.993762939453125,2.801995277404785,2.1750757694244385,-8.242077827453613
1710888357554722600,16.01272265625,4.17427921295166,2.9347970485687256,-7.35314416885376
1710888357573682200,16.03168212890625,5.931807518005371,2.9599215984344482,-5.058426856994629
1710888357592641500,16.0506416015625,4.8813581466674805,1.2023934125900269,-4.852644443511963
1710888357611601200,16.06960107421875,3.091526746749878,3.2243285179138184,-4.338187217712402
1710888357630560800,16.088560791015624,2.3018953800201416,9.923035621643066,-3.720839262008667
1710888357649520400,16.107520263671876,2.4610180854797363,27.463621139526367,3.346362352371216
1710888357668480000,16.12647998046875,5.749952793121338,32.587852478027344,17.775083541870117
1710888357687439600,16.145439697265626,13.875978469848633,17.983259201049805,11.161321640014648
1710888357706399200,16.164399169921875,10.465009689331055,16.176677703857422,6.965506553649902
1710888357725358800,16.18335888671875,4.435096740722656,18.62932014465332,6.284748554229736
1710888357744318200,16.202318115234377,0.1866401731967926,15.840485572814941,3.968496322631836
1710888357763277800,16.22127783203125,-0.6711867451667786,11.045269012451172,2.03629207611084
1710888357782237400,16.240237548828127,-1.1425727605819702,7.653443336486816,2.8079774379730225
1710888357801197000,16.259197021484376,-1.3591232299804688,4.235296249389648,4.604987144470215
1710888357820156700,16.27815673828125,-1.404586911201477,-1.2681959867477417,5.217549800872803
1710888357839116300,16.2971162109375,-3.3535408973693848,-3.8608193397521973,5.278566837310791
1710888357858076000,16.316075927734374,-5.825326919555664,-4.41475772857666,5.101497650146484
1710888357877035500,16.335035400390623,-7.519444942474365,-4.862215518951416,5.290530681610107
1710888357895995000,16.353994873046876,-5.3347978591918945,-5.839683532714844,6.3361945152282715
1710888357914954500,16.37295458984375,-3.937389612197876,-5.801398277282715,6.5252275466918945
1710888357933914000,16.3919140625,-5.018945693969727,-4.4243292808532715,5.7858452796936035
1710888357952873700,16.410873779296875,-5.973681926727295,-0.22971096634864807,4.047459602355957
1710888357971833300,16.429833251953124,1.4416756629943848,13.97408390045166,-0.37088751792907715
1710888357990793000,16.44879296875,6.853044033050537,34.0414924621582,1.0097711086273193
1710888358009752600,16.467752685546873,4.900500774383545,38.054256439208984,6.909275531768799
1710888358028712200,16.486712158203126,14.71944808959961,34.2867546081543,8.124829292297363
1710888358047671600,16.505671630859375,6.348158359527588,27.585655212402344,2.489732027053833
1710888358066631200,16.524631103515624,2.8414769172668457,24.23570442199707,5.429314613342285
1710888358085590800,16.5435908203125,2.1343977451324463,16.569101333618164,8.353343963623047
1710888358104550400,16.56255029296875,-1.2406785488128662,10.901700019836426,6.7345991134643555
1710888358123510000,16.581510009765626,0.17946170270442963,7.495516777038574,3.0664021968841553
1710888358142469600,16.6004697265625,0.9248259663581848,5.175675392150879,-0.8685946464538574
1710888358161429200,16.61942919921875,1.6474584341049194,3.8009986877441406,-4.47697114944458
1710888358180388600,16.638388671875,1.4488540887832642,2.365305185317993,-7.3292155265808105
1710888358199348200,16.65734814453125,0.1698904037475586,2.8797619342803955,-8.824729919433594
1710888358218307800,16.676307861328127,-0.6747759580612183,4.036691665649414,-11.840883255004883
1710888358237267500,16.695267333984376,2.2719850540161133,3.1142587661743164,-11.614761352539062
1710888358256227000,16.71422705078125,6.453442573547363,0.9343972206115723,-7.707281589508057
1710888358275186700,16.733186767578125,4.542773723602295,1.8987047672271729,-7.9968132972717285
1710888358294146300,16.752146240234374,2.8426733016967773,7.744370460510254,-6.607779502868652
1710888358313106000,16.77110595703125,1.695314884185791,20.548364639282227,-2.183450698852539
1710888358332065300,16.790065185546876,-0.8482556343078613,33.40141296386719,12.386445999145508
1710888358351025000,16.80902490234375,11.167303085327148,22.14318084716797,14.009976387023926
1710888358369984800,16.82798486328125,12.43549919128418,20.58066749572754,9.7005033493042
1710888358388944100,16.846944091796875,5.02133846282959,21.202800750732422,6.333801746368408
1710888358407903700,16.86590380859375,0.14715859293937683,17.3934268951416,4.040280818939209
1710888358426863400,16.88486328125,-1.8508483171463013,12.059825897216797,1.1126625537872314
1710888358445823000,16.903822998046873,-2.4777679443359375,8.717052459716797,1.3603196144104004
1710888358464782600,16.922782470703126,-2.17627215385437,6.064609050750732,4.669593334197998
1710888358483742200,16.9417421875,-1.5696916580200195,1.8759729862213135,8.584251403808594
1710888358502701800,16.960701904296876,-2.7146573066711426,-3.184846878051758,9.134600639343262
1710888358521661400,16.979661376953125,-5.875576019287109,-7.29810905456543,6.052644729614258
1710888358540621000,16.99862109375,-6.872186660766602,-7.853243827819824,2.5459632873535156
1710888358559580700,17.01758056640625,-5.525027275085449,-5.100301265716553,2.0482561588287354
1710888358578540300,17.036540283203124,-5.113461971282959,-3.541377544403076,4.152743816375732
1710888358597500000,17.0555,-5.8133625984191895,-3.207578659057617,5.150550842285156
1710888358616459500,17.07445947265625,-5.407779216766357,-1.7204394340515137,4.894518852233887
1710888358635419100,17.093419189453126,-1.0049854516983032,5.284548759460449,2.6297121047973633
1710888358654378800,17.112378662109375,6.642475605010986,21.38824462890625,-1.2143574953079224
1710888358673338000,17.131338134765624,-1.4165509939193726,32.59622573852539,4.852644443511963
1710888358692297700,17.150297607421876,3.978067636489868,34.907691955566406,5.335994720458984
1710888358711257600,17.169257568359374,8.236095428466797,32.706295013427734,7.10429048538208
1710888358730217000,17.188217041015626,4.911268711090088,29.6877498626709,8.304290771484375
1710888358749176600,17.207176513671875,2.8486554622650146,22.32383918762207,11.653046607971191
1710888358768136200,17.22613623046875,0.2356930375099182,16.226926803588867,9.710074424743652
1710888358787095800,17.245095703125,-0.30628129839897156,10.01874828338623,8.561519622802734
1710888358806055400,17.264055419921874,-2.289931297302246,6.879364967346191,2.6261229515075684
1710888358825015000,17.28301513671875,-0.44027936458587646,5.558526992797852,-3.8632121086120605
1710888358843974700,17.301974609375,3.029313564300537,3.7543387413024902,-8.890532493591309
1710888358862934300,17.320934326171876,3.267399311065674,1.3722838163375854,-10.15753173828125
1710888358881894000,17.339893798828125,1.848455548286438,1.7587246894836426,-10.328619003295898
1710888358900853500,17.358853515625,2.273181438446045,3.5234313011169434,-9.658628463745117
1710888358919813000,17.377813232421875,5.7858452796936035,4.597808837890625,-7.039684295654297
1710888358938772700,17.396772705078124,6.836294174194336,3.3882367610931396,-5.164907455444336
1710888358957732400,17.415732421875,4.72582483291626,5.37069034576416,-4.246063709259033
1710888358976692000,17.43469189453125,3.160918712615967,13.916656494140625,-2.007578134536743
1710888358995651600,17.453651611328127,0.11605189740657806,32.00519943237305,6.774080753326416
1710888359014611200,17.472611083984376,5.715256690979004,26.810380935668945,11.531012535095215
1710888359033570800,17.49157080078125,10.015159606933594,19.987247467041016,4.043870449066162
1710888359052530400,17.510530517578125,4.835894584655762,23.143381118774414,6.154339790344238
1710888359071490000,17.529489990234374,0.5790630578994751,24.620948791503906,7.420143127441406
1710888359090449700,17.54844970703125,0.4893322288990021,18.418752670288086,5.757131099700928
1710888359109409300,17.5674091796875,-0.6436693072319031,13.183256149291992,4.689932346343994
1710888359128369000,17.586368896484377,-3.1214370727539062,7.720442295074463,5.085944652557373
1710888359147328500,17.60532861328125,-5.398207664489746,4.012763500213623,5.288137912750244
1710888359166288100,17.6242880859375,-4.064209461212158,-1.1054840087890625,6.527620315551758
1710888359185247700,17.643247802734376,-4.144368648529053,-4.828716278076172,7.140182971954346
1710888359204207400,17.662207275390625,-4.9052863121032715,-5.240281581878662,5.893522262573242
1710888359223167000,17.6811669921875,-6.8482584953308105,-5.182853698730469,3.882354736328125
1710888359242126600,17.700126708984374,-7.685746192932129,-6.39721155166626,4.4650068283081055
1710888359261086500,17.71908642578125,-5.933003902435303,-7.438089370727539,5.68175745010376
1710888359280045800,17.7380458984375,-5.469992637634277,-6.811169624328613,4.226921081542969
1710888359299005700,17.757005615234377,-5.548955917358398,-2.4131617546081543,2.9790642261505127
1710888359317965300,17.77596533203125,-2.60339093208313,7.576872825622559,1.0839486122131348
1710888359336925000,17.794925048828127,1.648654818534851,25.021745681762695,-1.1629117727279663
1710888359355884500,17.813884521484376,-2.63449764251709,32.73859786987305,3.1417760848999023
1710888359374844200,17.83284423828125,-0.7070791125297546,31.753952026367188,8.49571704864502
1710888359393803800,17.8518037109375,14.053047180175781,32.30071258544922,13.893924713134766
1710888359412763400,17.870763427734374,10.620543479919434,25.018157958984375,11.71406364440918
1710888359431723000,17.889722900390623,1.8939191102981567,22.12643051147461,15.339189529418945
1710888359450682600,17.9086826171875,-0.4247260093688965,16.693527221679688,7.690532207489014
1710888359469642200,17.927642333984377,1.6199408769607544,12.900903701782227,1.8340985774993896
1710888359488601900,17.946601806640626,0.6711867451667786,8.597412109375,-2.0781664848327637
1710888359507561500,17.9655615234375,3.964907169342041,5.06082010269165,-4.926821708679199
1710888359526521000,17.98452099609375,4.697110652923584,2.9874391555786133,-7.153343200683594
1710888359545480700,18.003480712890624,3.4097721576690674,2.1343977451324463,-8.62612533569336
1710888359564440300,18.0224404296875,4.792823791503906,2.8893332481384277,-8.82233715057373
1710888359583400200,18.041400146484374,6.227321147918701,3.720839262008667,-7.509873867034912
1710888359602359600,18.060359619140623,5.704489231109619,3.981656789779663,-6.1950178146362305
1710888359621319400,18.0793193359375,3.8285162448883057,4.8191447257995605,-4.1383867263793945
1710888359640279000,18.098279052734377,3.2518460750579834,7.345965385437012,-1.4799607992172241
1710888359659238700,18.11723876953125,4.518845558166504,17.10030746459961,1.604387640953064
1710888359678198300,18.1361982421875,1.2287144660949707,32.894134521484375,14.380864143371582
1710888359697158000,18.155157958984375,5.986842155456543,23.284557342529297,11.749955177307129
1710888359716117500,18.174117431640624,9.667003631591797,19.277774810791016,8.069794654846191
1710888359735077000,18.1930771484375,6.476174354553223,18.770496368408203,8.380861282348633
1710888359754036700,18.21203662109375,3.755535125732422,17.497514724731445,8.009973526000977
1710888359772996400,18.230996337890623,0.02153540402650833,13.886746406555176,5.56450891494751
1710888359791956200,18.249956298828124,-2.827120065689087,9.196813583374023,2.967100143432617
1710888359810915800,18.268915771484377,-3.8536407947540283,5.66620397567749,2.857030153274536
1710888359829875500,18.28787548828125,-2.286342144012451,0.259621262550354,4.631308078765869
1710888359848835000,18.3068349609375,-4.359723091125488,-5.891129493713379,5.210371494293213
1710888359867794700,18.325794677734375,-7.6977105140686035,-7.142575740814209,5.051248550415039
1710888359886754300,18.34475439453125,-6.87099027633667,-5.508277893066406,5.711667537689209
1710888359905714000,18.3637138671875,-5.6793646812438965,-4.2795634269714355,7.087540626525879
1710888359924673500,18.382673583984374,-6.004788398742676,-4.241278171539307,6.942774772644043
1710888359943633400,18.40163330078125,-5.691328525543213,-3.8811583518981934,5.723631858825684
1710888359962593000,18.420593017578124,-5.298905849456787,-1.2442678213119507,4.147958278656006
1710888359981552600,18.439552734375,1.6366907358169556,9.608379364013672,0.22013968229293823
1710888360000512300,18.45851220703125,6.057430744171143,24.65325164794922,1.0432707071304321
1710888360019472000,18.477471923828126,-7.124629497528076,32.342586517333984,5.682953834533691
1710888360038431500,18.496431396484375,4.944767951965332,30.689146041870117,5.332405090332031
1710888360057391000,18.51539111328125,11.00578784942627,30.24886703491211,7.788637638092041
1710888360076350700,18.534350830078125,4.883750915527344,26.349763870239258,9.306883811950684
1710888360095310300,18.553310302734374,2.0338993072509766,23.982065200805664,14.190634727478027
1710888360114270200,18.572270263671875,1.7204394340515137,15.468401908874512,8.553144454956055
1710888360133229800,18.591229736328124,2.3844478130340576,9.133403778076172,3.8285162448883057
1710888360152189400,18.610189453125,0.5240281820297241,6.099305152893066,-0.8745766878128052
1710888360171149000,18.629149169921874,2.1511476039886475,4.067798614501953,-5.536991596221924
1710888360190108700,18.648108642578126,3.7507495880126953,1.9573289155960083,-9.163313865661621
1710888360209068300,18.667068359375,2.472982168197632,0.3038884699344635,-11.93061351776123
1710888360228028000,18.68602783203125,3.4755749702453613,2.4873390197753906,-11.758330345153809
1710888360246987500,18.704987548828125,5.5142598152160645,4.567898273468018,-9.821340560913086
1710888360265947400,18.723947509765626,6.668796539306641,5.55733060836792,-5.131408214569092
1710888360284906800,18.74290673828125,6.174678802490234,5.699703693389893,-2.359323024749756
1710888360303866600,18.76186669921875,3.906282901763916,7.2681989669799805,-1.794616937637329
1710888360322826200,18.780826171875,2.390429735183716,14.732608795166016,0.39960137009620667
1710888360341785900,18.799785888671874,-1.5984054803848267,34.523643493652344,14.458630561828613
1710888360360745500,18.818745361328126,6.15553617477417,25.239492416381836,15.471991539001465
1710888360379705000,18.837705078125,9.558130264282227,20.133209228515625,10.552348136901855
1710888360398664700,18.856664794921876,7.3399834632873535,19.421344757080078,8.58903694152832
1710888360417624600,18.87562451171875,3.4229328632354736,16.01875114440918,5.017749309539795
1710888360436584000,18.894583984375,0.833898663520813,11.422139167785645,3.198007345199585
1710888360455543800,18.913543701171875,-2.060220241546631,8.148757934570312,1.5254244804382324
1710888360474503400,18.93250341796875,-3.793820381164551,7.109076023101807,1.1126625537872314
1710888360493463000,18.951463134765625,-3.410968780517578,3.8464624881744385,3.5306098461151123
1710888360512422700,18.970422607421874,-2.620140790939331,0.4043870270252228,6.798008918762207
1710888360531382300,18.98938232421875,-4.316651821136475,-1.8424733877182007,7.642675399780273
1710888360550342000,19.008341796875,-6.5419769287109375,-3.7914273738861084,5.763113498687744
1710888360569301500,19.027301513671876,-7.336394309997559,-6.043073654174805,4.783252239227295
1710888360588261000,19.04626123046875,-6.794419765472412,-7.475177764892578,5.3694939613342285
1710888360607221000,19.065220947265626,-4.011567115783691,-7.211967468261719,4.919643402099609
1710888360626180600,19.0841806640625,-5.175675392150879,-5.123033046722412,4.04985237121582
1710888360645140200,19.10314013671875,-7.154539585113525,-0.6592226624488831,3.2554352283477783
1710888360664099800,19.122099853515625,-1.7587246894836426,10.584650993347168,0.9523434042930603
1710888360683059500,19.1410595703125,4.644468784332275,29.398218154907227,-0.5790630578994751
1710888360702019000,19.16001904296875,-3.6155550479888916,36.518062591552734,6.1603217124938965
1710888360720978700,19.178978759765624,6.089733600616455,32.97907638549805,10.04148006439209
1710888360739938300,19.197938232421876,15.742380142211914,29.417362213134766,8.518448829650879
1710888360758898000,19.21689794921875,2.5399811267852783,27.0006103515625,12.746565818786621
1710888360777857800,19.23585791015625,2.307877540588379,21.529420852661133,12.208181381225586
1710888360796817200,19.254817138671875,4.516452789306641,13.12104320526123,6.807580471038818
1710888360815777000,19.273777099609376,3.267399311065674,8.287541389465332,3.48993182182312
1710888360834736600,19.292736572265625,3.775874137878418,5.434100151062012,-1.0372886657714844
1710888360853696300,19.3116962890625,3.647858142852783,2.699103832244873,-5.909075736999512
1710888360872656000,19.33065576171875,2.2468605041503906,1.6019947528839111,-10.183853149414062
1710888360891615500,19.349615478515624,1.628315806388855,1.810170292854309,-12.845868110656738
1710888360910575000,19.3685751953125,3.0065815448760986,4.29033088684082,-10.301101684570312
1710888360929534700,19.38753466796875,5.84446907043457,5.218746185302734,-6.358926296234131
1710888360948494300,19.406494384765626,5.706881999969482,4.293920040130615,-4.807180881500244
1710888360967454000,19.425453857421875,3.2937204837799072,5.356333255767822,-3.8979079723358154
1710888360986413600,19.44441357421875,3.3714871406555176,13.355539321899414,-0.059820566326379776
1710888361005373400,19.46337353515625,1.384247899055481,28.175487518310547,12.201003074645996
1710888361024332800,19.482332763671874,6.302694797515869,20.25763702392578,13.728819847106934
1710888361043292700,19.501292724609375,10.65523910522461,17.84447479248047,8.664410591125488
1710888361062252300,19.520252197265624,5.473581790924072,22.77967071533203,11.624332427978516
1710888361081212000,19.5392119140625,1.8735800981521606,21.37628173828125,10.016355514526367
1710888361100171500,19.558171630859373,0.005982056725770235,13.105489730834961,4.683950424194336
1710888361119131100,19.577131103515626,-1.9860427379608154,7.456035137176514,2.616551637649536
1710888361138090800,19.5960908203125,-3.838087558746338,5.784648895263672,3.239881753921509
1710888361157050400,19.61505029296875,-2.4131617546081543,3.4815568923950195,4.4135613441467285
1710888361176010000,19.634010009765625,-2.066202402114868,-0.27038896083831787,5.889933109283447
1710888361194969600,19.652969482421874,-4.790431022644043,-2.7565317153930664,5.921039581298828
1710888361213929200,19.67192919921875,-6.7178497314453125,-5.6793646812438965,4.2723846435546875
1710888361232888800,19.690888916015624,-5.816951751708984,-7.056434154510498,4.296313285827637
1710888361251848400,19.709848388671876,-4.076173305511475,-6.166304111480713,5.873183250427246
1710888361270808000,19.72880810546875,-4.167100429534912,-4.871787071228027,6.6939215660095215
1710888361289767700,19.747767578125,-4.785645484924316,-1.643869161605835,5.766702651977539
1710888361308727300,19.766727294921875,-1.3615161180496216,8.492127418518066,2.018345832824707
1710888361327687000,19.78568701171875,1.1114661693572998,23.11945152282715,1.7790635824203491
1710888361346646500,19.804646484375,-1.557727575302124,30.516862869262695,5.224728107452393
1710888361365606100,19.823606201171874,0.7896314859390259,30.814769744873047,12.5742826461792
1710888361384566000,19.84256591796875,16.704294204711914,28.558338165283203,9.972088813781738
1710888361403525600,19.861525634765623,9.10827922821045,23.564517974853516,7.299305438995361
1710888361422485000,19.880485107421876,2.779263496398926,25.93580436706543,9.77707290649414
1710888361441444900,19.89944482421875,0.8410771489143372,18.624534606933594,5.442475318908691
1710888361460404500,19.918404541015626,2.4741785526275635,9.555737495422363,0.9930213689804077
1710888361479364000,19.937364013671875,3.201596736907959,4.205385684967041,-1.085145115852356
1710888361498323700,19.95632373046875,3.91705060005188,0.4055834412574768,-3.152543783187866
1710888361517283300,19.975283447265625,4.676771640777588,0.3326023519039154,-4.685146808624268
1710888361536243000,19.994242919921874,1.3459627628326416,2.8139593601226807,-6.196214199066162
1710888361555202600,20.01320263671875,3.1920254230499268,3.955335855484009,-6.896114826202393
1710888361574162200,20.032162109375,6.022734642028809,3.45882511138916,-7.435696601867676
1710888361593121800,20.051121826171876,6.244070529937744,2.554338216781616,-7.076773166656494
1710888361612081400,20.070081298828125,3.7220356464385986,3.724428415298462,-6.200999736785889
1710888361631041000,20.089041015625,3.1489546298980713,5.61116886138916,-4.025924205780029
1710888361650000600,20.108000732421875,3.6849467754364014,7.917850017547607,-1.277767300605774
1710888361668960300,20.126960205078124,4.785645484924316,19.109081268310547,4.948357105255127
1710888361687919900,20.145919921875,5.267798900604248,30.762128829956055,16.88854217529297
1710888361706879200,20.164879150390625,11.407781600952148,22.729421615600586,12.483355522155762
1710888361725839000,20.183839111328126,11.599207878112793,19.02652931213379,7.8556365966796875
1710888361744798700,20.202798828125,7.188039302825928,19.910676956176758,6.005984783172607
1710888361763758300,20.22175830078125,2.172683000564575,17.27259063720703,3.779463291168213
1710888361782718000,20.240718017578125,-1.231107234954834,12.184252738952637,1.667797327041626
1710888361801677600,20.259677490234374,-3.4265220165252686,8.396414756774902,1.5780665874481201
1710888361820637200,20.27863720703125,-3.0137600898742676,3.871587038040161,4.7796630859375
1710888361839596500,20.297596435546875,-2.5124638080596924,-0.2871387302875519,7.170093059539795
1710888361858556400,20.316556396484376,-4.867001056671143,-2.025524377822876,7.496713161468506
1710888361877516000,20.33551611328125,-7.134200572967529,-3.1956145763397217,6.872186660766602
1710888361896475400,20.354475341796874,-6.903293132781982,-4.871787071228027,5.571687698364258
1710888361915435300,20.373435302734375,-5.219942569732666,-6.047859191894531,5.582455158233643
1710888361934395000,20.392394775390624,-5.131408214569092,-6.3254265785217285,5.5932230949401855
1710888361953354200,20.411354248046877,-5.883950710296631,-4.691128730773926,4.470989227294922
1710888361972313900,20.43031396484375,-6.908079147338867,-0.9858429431915283,3.9110686779022217
1710888361991273500,20.4492734375,-2.9730820655822754,10.214960098266602,2.273181438446045
1710888362010233000,20.468233154296875,8.415556907653809,28.413572311401367,0.1746760457754135
1710888362029192700,20.487192626953124,-2.5734808444976807,34.120452880859375,5.793023586273193
1710888362048152300,20.50615234375,13.654642105102539,33.5665168762207,3.170490026473999
1710888362067112000,20.52511181640625,3.452843189239502,28.692337036132812,-2.675175666809082
1710888362086071600,20.544071533203127,2.8654050827026367,30.794431686401367,2.218146562576294
1710888362105031200,20.56303125,6.921239376068115,22.14078712463379,10.488938331604004
1710888362123990800,20.58199072265625,2.00518536567688,14.723037719726562,10.387243270874023
1710888362142950400,20.600950439453126,0.656829833984375,8.636893272399902,3.9912281036376953
1710888362161910000,20.619909912109375,0.275174617767334,5.351547718048096,-2.307877540588379
1710888362180869600,20.63886962890625,0.7214360237121582,5.198407173156738,-7.038487911224365
1710888362199829200,20.657829345703124,1.8759729862213135,3.0424740314483643,-8.194221496582031
1710888362218788900,20.676788818359373,2.152343988418579,1.4117653369903564,-8.6907320022583
1710888362237748500,20.69574853515625,3.5461630821228027,1.9226330518722534,-9.377471923828125
1710888362256708000,20.7147080078125,3.669393539428711,2.5878376960754395,-9.565308570861816
1710888362275667700,20.733667724609376,4.253242015838623,3.129812002182007,-8.376075744628906
1710888362294627000,20.752626953125,3.7256247997283936,2.6488547325134277,-8.206185340881348
1710888362313586700,20.771586669921874,2.82951283454895,3.232703447341919,-8.24566650390625
1710888362332546300,20.79054638671875,2.1954147815704346,9.585647583007812,-4.53200626373291
1710888362351506000,20.809505859375,1.1413763761520386,28.120450973510742,3.8368911743164062
1710888362370465500,20.828465576171876,6.664011001586914,30.08854866027832,15.665809631347656
1710888362389425200,20.847425048828125,14.100903511047363,23.231914520263672,10.917253494262695
1710888362408384800,20.866384765625,8.34018325805664,25.530221939086914,8.126026153564453
1710888362427344400,20.885344482421875,1.5912270545959473,22.067806243896484,4.1144585609436035
1710888362446304000,20.904303955078124,-0.1136590763926506,14.590235710144043,0.7190431952476501
1710888362465263600,20.923263671875,-2.018345832824707,10.01994514465332,1.6103696823120117
1710888362484223200,20.94222314453125,-3.348755359649658,8.200202941894531,4.247260093688965
1710888362503182600,20.9611826171875,-1.9489539861679077,4.395615100860596,7.058826923370361
1710888362522142500,20.980142578125,-1.2167502641677856,-0.6819544434547424,8.684749603271484
1710888362541102000,20.99910205078125,-4.315455436706543,-3.951746702194214,7.054041385650635
1710888362560061400,21.0180615234375,-8.426324844360352,-6.697510719299316,3.036491870880127
1710888362579021000,21.03702099609375,-7.540980339050293,-6.8997039794921875,1.5493526458740234
1710888362597980700,21.055980712890626,-4.813162803649902,-4.837090969085693,6.117250919342041
1710888362616940300,21.074940185546875,-5.347958564758301,-4.54636287689209,7.677371501922607
1710888362635900000,21.09389990234375,-6.104090690612793,-4.535595417022705,6.297909259796143
1710888362654859500,21.112859619140625,-7.3052873611450195,-2.352144718170166,4.394418716430664
1710888362673819100,21.131819091796874,-3.414557933807373,8.169096946716309,1.5996019840240479
1710888362692778800,21.15077880859375,4.176671981811523,30.25724220275879,-0.46899324655532837
1710888362711738400,21.16973828125,-3.9672999382019043,39.568912506103516,6.695117950439453
1710888362730698000,21.188697998046877,5.570491313934326,36.41876220703125,10.907682418823242
1710888362749657600,21.20765771484375,10.800004959106445,28.84069061279297,7.988438606262207
1710888362768617000,21.226616943359375,4.7712883949279785,26.00758934020996,7.9489569664001465
1710888362787576600,21.24557666015625,3.4959139823913574,21.19562339782715,9.227920532226562
1710888362806536200,21.2645361328125,3.8261234760284424,13.825729370117188,7.066005229949951
1710888362825495800,21.283495849609373,1.2945170402526855,9.284152030944824,3.6945180892944336
1710888362844455400,21.302455322265626,2.4598217010498047,6.306283950805664,-1.7060825824737549
1710888362863415000,21.3214150390625,3.7088751792907715,4.280759811401367,-6.728617191314697
1710888362882374700,21.340374755859376,2.7421748638153076,1.9884356260299683,-10.476973533630371
1710888362901334300,21.359334228515625,2.7565317153930664,0.5706881880760193,-10.784451484680176
1710888362920294000,21.3782939453125,3.8524444103240967,3.0891339778900146,-8.568697929382324
1710888362939253500,21.39725341796875,5.120640277862549,4.143172264099121,-6.122036933898926
1710888362958213000,21.416213134765623,5.435296535491943,2.2408783435821533,-5.136193752288818
1710888362977172700,21.4351728515625,3.893122434616089,2.5663022994995117,-4.2795634269714355
1710888362996132400,21.45413232421875,2.750549554824829,6.254838466644287,-2.647658348083496
1710888363015092000,21.473092041015626,4.794020175933838,17.36351776123047,0.711864709854126
1710888363034051300,21.49205126953125,4.35254430770874,32.373695373535156,11.424531936645508
1710888363053011000,21.511010986328124,10.705488204956055,24.332612991333008,11.93898868560791
1710888363071970600,21.529970458984376,13.328022003173828,16.411174774169922,7.4261250495910645
1710888363090930200,21.54893017578125,8.572287559509277,18.55394744873047,6.467799663543701
1710888363109889800,21.567889892578126,2.5986053943634033,18.30509376525879,5.478367328643799
1710888363128849400,21.586849365234375,-1.2346965074539185,13.256237030029297,2.8498518466949463
1710888363147809000,21.60580908203125,-2.6596224308013916,8.431110382080078,1.9489539861679077
1710888363166768600,21.6247685546875,-2.5399811267852783,4.935196876525879,3.623929977416992
1710888363185728300,21.643728271484374,-1.4117653369903564,1.0085747241973877,5.142175674438477
1710888363204688000,21.66268798828125,-3.518645763397217,-2.5351955890655518,5.144568920135498
1710888363223647500,21.6816474609375,-5.680561065673828,-3.803391695022583,3.9218363761901855
1710888363242607000,21.700607177734376,-6.636493682861328,-4.485345840454102,4.171886444091797
1710888363261566700,21.719566650390625,-5.929414749145508,-5.794219970703125,6.751348972320557
1710888363280526300,21.7385263671875,-5.241477966308594,-6.826723098754883,7.672585964202881
1710888363299486000,21.75748583984375,-5.017749309539795,-6.45822811126709,5.787041664123535
1710888363318445600,21.776445556640624,-7.518248558044434,-4.18983268737793,4.6169514656066895
1710888363337405200,21.7954052734375,-7.7252278327941895,1.4404792785644531,3.311666488647461
1710888363356364800,21.81436474609375,1.597209095954895,18.504894256591797,-0.28953152894973755
1710888363375324400,21.833324462890626,0.003589233849197626,38.63212203979492,2.9072794914245605
1710888363394284000,21.852283935546875,-4.264009952545166,33.04487991333008,11.667403221130371
1710888363413243600,21.87124365234375,18.013168334960938,32.471797943115234,14.672788619995117
1710888363432203300,21.890203369140625,11.296515464782715,25.42613410949707,7.341179847717285
1710888363451163000,21.909162841796874,1.1676974296569824,27.188447952270508,12.842279434204102
1710888363470122500,21.92812255859375,1.262213945388794,19.33879280090332,7.412964344024658
1710888363489082000,21.94708203125,3.5377883911132812,11.175678253173828,3.1561331748962402
1710888363508041700,21.966041748046877,0.4977070987224579,6.948757171630859,-0.3278166949748993
1710888363527001300,21.98500146484375,1.7120646238327026,3.851248025894165,-4.8191447257995605
1710888363545961000,22.0039609375,3.1106693744659424,1.1940184831619263,-8.166703224182129
1710888363564920600,22.022920654296875,3.0005996227264404,0.18544375896453857,-8.768498420715332
1710888363583880200,22.041880126953124,4.280759811401367,1.7766708135604858,-7.542177200317383
1710888363602839800,22.06083984375,5.106283664703369,4.675575256347656,-6.317051887512207
1710888363621799400,22.07979931640625,5.748756408691406,4.561916351318359,-5.330012321472168
1710888363640759000,22.098759033203127,4.667200565338135,3.3966116905212402,-5.577669620513916
1710888363659718400,22.117718505859376,2.768495798110962,4.639683246612549,-4.4410786628723145
1710888363678678300,22.13667822265625,3.3332018852233887,11.393424987792969,-1.6893328428268433
1710888363697638000,22.155637939453126,1.3746765851974487,26.358137130737305,6.238088607788086
1710888363716597500,22.174597412109375,5.029713153839111,27.37508773803711,12.08614730834961
1710888363735557000,22.19355712890625,12.421142578125,22.36930274963379,7.077969551086426
1710888363754516700,22.212516845703124,8.650053977966309,23.094327926635742,8.388039588928223
1710888363773476400,22.231476318359373,4.186243057250977,21.765113830566406,8.191828727722168
1710888363792436000,22.25043603515625,2.768495798110962,15.730416297912598,5.170889854431152
1710888363811395600,22.2693955078125,0.26081767678260803,10.226923942565918,3.6873397827148438
1710888363830355200,22.288355224609376,-2.9838497638702393,7.039684295654297,2.2887349128723145
1710888363849314800,22.307314697265625,-4.473381996154785,3.6849467754364014,1.3746765851974487
1710888363868274400,22.3262744140625,-4.390829563140869,-1.7611174583435059,2.3700907230377197
1710888363887234000,22.345234130859374,-4.238885402679443,-5.079962253570557,4.73300313949585
1710888363906193700,22.364193603515623,-5.801398277282715,-5.37069034576416,5.558526992797852
1710888363925153300,22.3831533203125,-7.34476900100708,-5.089533805847168,6.104090690612793
1710888363944113000,22.40211279296875,-7.061219692230225,-5.0117669105529785,6.7417778968811035
1710888363963072500,22.421072509765626,-4.749752998352051,-5.61116886138916,5.985645771026611
1710888363982032100,22.4400322265625,-4.156332969665527,-5.313262462615967,4.675575256347656
1710888364000991700,22.45899169921875,-5.06799840927124,-2.1894326210021973,3.3535408973693848
1710888364019951400,22.477951416015625,1.176072359085083,10.978270530700684,-0.06939185410737991
1710888364038911200,22.4969111328125,2.0781664848327637,31.56492042541504,1.786242127418518
1710888364057870600,22.51587060546875,-6.083751678466797,34.208988189697266,7.077969551086426
1710888364076830500,22.53483056640625,9.42173957824707,30.465417861938477,11.373085975646973
1710888364095790000,22.5537900390625,12.575479507446289,27.997220993041992,7.856832981109619
1710888364114749400,22.57274951171875,1.7407784461975098,27.91347312927246,12.239287376403809
1710888364133709300,22.591709228515626,1.3399807214736938,20.799610137939453,11.519047737121582
1710888364152669000,22.6106689453125,1.9262222051620483,13.538590431213379,6.278766632080078
1710888364171628500,22.629628662109376,1.5182459354400635,9.375079154968262,3.9601213932037354
1710888364190588200,22.648588134765625,0.6484549641609192,6.698707103729248,0.4833501875400543
1710888364209547800,22.6675478515625,0.8949156403541565,4.935196876525879,-3.0927233695983887
1710888364228507400,22.68650732421875,3.8871402740478516,1.9334007501602173,-6.8554368019104
1710888364247467000,22.705467041015623,3.810570001602173,-0.8877372145652771,-9.274580955505371
1710888364266427000,22.724427001953124,3.0831520557403564,2.00518536567688,-10.959127426147461
1710888364285386200,22.74338623046875,3.9421753883361816,4.7712883949279785,-9.859625816345215
1710888364304346000,22.76234619140625,6.97986364364624,5.307280540466309,-6.398407936096191
1710888364323305700,22.7813056640625,7.229913711547852,5.838487148284912,-5.598008632659912
1710888364342265300,22.800265380859376,4.198207378387451,7.435696601867676,-3.9457645416259766
1710888364361225000,22.819224853515625,3.6442689895629883,20.273189544677734,1.4691931009292603
1710888364380184600,22.8381845703125,-0.33858439326286316,35.65305709838867,15.580864906311035
1710888364399144200,22.857144287109374,6.562315940856934,21.84048843383789,9.468399047851562
1710888364418103800,22.876103759765623,7.714460372924805,18.2165584564209,7.131807804107666
1710888364437063400,22.8950634765625,4.334598064422607,20.545970916748047,8.666803359985352
1710888364456023000,22.91402294921875,1.9286150932312012,19.051654815673828,7.357929706573486
1710888364474983000,22.93298291015625,0.8805587291717529,14.715859413146973,4.869394302368164
1710888364493942300,22.9519423828125,0.44027936458587646,9.736394882202148,3.3822548389434814
1710888364512902100,22.970902099609376,-1.7288143634796143,7.1856465339660645,2.5076780319213867
1710888364531861800,22.98986181640625,-4.683950424194336,6.072983741760254,1.923829436302185
1710888364550821400,23.0088212890625,-5.793023586273193,2.3150558471679688,2.7517459392547607
1710888364569781000,23.027781005859374,-5.2283172607421875,-3.1106693744659424,3.651447296142578
1710888364588740600,23.04674072265625,-6.1603217124938965,-7.720442295074463,4.00319242477417
1710888364607700200,23.0657001953125,-5.928217887878418,-7.730013370513916,4.882554531097412
1710888364626660000,23.08466015625,-6.570691108703613,-7.338787078857422,5.430510997772217
1710888364645619500,23.103619384765626,-3.493520975112915,-7.8388872146606445,4.8538408279418945
1710888364664579300,23.122579345703127,-5.0225348472595215,-5.444868087768555,4.074976921081543
1710888364683539000,23.1415390625,-7.408178806304932,-1.825723648071289,4.171886444091797
1710888364702498600,23.16049853515625,-7.328019142150879,4.163511276245117,4.145565032958984
1710888364721458200,23.179458251953125,1.4033905267715454,22.08934211730957,2.713460922241211
1710888364740417800,23.198417724609374,-0.6831508874893188,38.03630828857422,12.15673542022705
1710888364759377400,23.21737744140625,1.6247265338897705,31.186853408813477,13.179667472839355
1710888364778337300,23.236337158203124,13.329218864440918,28.967510223388672,15.767504692077637
1710888364797297000,23.255296875,1.6402798891067505,24.397220611572266,5.9306111335754395
1710888364816256500,23.274256591796874,-2.8737800121307373,26.884559631347656,6.939185619354248
1710888364835216100,23.293216064453127,-1.2550355195999146,21.288942337036133,4.859822750091553
1710888364854175700,23.31217578125,-0.8913264274597168,14.398810386657715,1.8532410860061646
1710888364873135400,23.33113525390625,0.849452018737793,10.029516220092773,-1.0887342691421509
1710888364892095000,23.350094970703125,3.190829038619995,6.588637351989746,-2.9001009464263916
1710888364911054800,23.369054931640626,3.985246181488037,4.135993957519531,-6.021538257598877
1710888364930014500,23.388014404296875,3.5952160358428955,1.3423734903335571,-9.755537986755371
1710888364948974000,23.40697412109375,2.417947292327881,0.4833501875400543,-11.412567138671875
1710888364967933700,23.42593359375,3.728017568588257,4.199403762817383,-9.491130828857422
1710888364986893300,23.444893310546874,4.814359188079834,5.936593055725098,-5.747560024261475
1710888365005853000,23.46385302734375,5.61954402923584,3.8045880794525146,-3.0173492431640625
1710888365024812800,23.482812744140624,4.1419758796691895,3.8009986877441406,-1.4715858697891235
1710888365043772400,23.5017724609375,2.53399920463562,7.336394309997559,0.3326023519039154
1710888365062732000,23.52073193359375,2.7876384258270264,19.70489501953125,4.5236310958862305
1710888365081691600,23.539691650390626,1.2442678213119507,30.668807983398438,14.136795997619629
1710888365100651300,23.5586513671875,8.233702659606934,19.958534240722656,9.345169067382812
1710888365119611100,23.577611083984376,10.49970531463623,17.685352325439453,5.50229549407959
1710888365138570500,23.596570556640625,7.015756130218506,19.79103660583496,5.405386447906494
1710888365157530400,23.6155302734375,3.198007345199585,19.998014450073242,4.845465660095215
1710888365176490000,23.634489990234375,0.9978070259094238,14.737394332885742,3.2590243816375732
1710888365195449600,23.65344970703125,-0.5874379873275757,9.337990760803223,2.7457640171051025
1710888365214409200,23.6724091796875,-2.9359934329986572,6.52044153213501,3.3655049800872803
1710888365233368800,23.691368896484374,-4.443471431732178,3.504288673400879,4.420739650726318
1710888365252328700,23.71032861328125,-4.49252462387085,-0.486939400434494,6.232106685638428
1710888365271288300,23.729288330078123,-5.004588603973389,-3.775874137878418,6.8757758140563965
1710888365290248000,23.748248046875,-6.094519138336182,-5.570491313934326,6.449853420257568
1710888365309207600,23.76720751953125,-5.894718647003174,-5.618347644805908,5.78345251083374
1710888365328167200,23.786167236328126,-4.895715236663818,-5.545366287231445,6.348158359527588
1710888365347126800,23.805126708984375,-4.671986103057861,-5.6685967445373535,5.882754325866699
1710888365366086700,23.824086669921876,-5.327619552612305,-3.9972102642059326,4.473381996154785
1710888365385046300,23.84304638671875,-4.724628448486328,1.4428720474243164,2.9168508052825928
1710888365404006000,23.862005859375,1.3316057920455933,14.83789348602295,-0.2727817893028259
1710888365422965500,23.880965576171874,0.6041877269744873,28.450660705566406,1.7216359376907349
1710888365441925000,23.899925048828123,-2.1714866161346436,29.997621536254883,6.591030120849609
1710888365460885000,23.918885009765624,3.893122434616089,29.617162704467773,8.48016357421875
1710888365479844400,23.93784423828125,12.768101692199707,31.875986099243164,12.937992095947266
1710888365498804200,23.95680419921875,5.340780258178711,27.03171730041504,12.556336402893066
1710888365517763800,23.975763916015627,0.9607182741165161,21.22194480895996,11.394621849060059
1710888365536723500,23.994723388671876,-0.3026920557022095,14.182259559631348,3.298506021499634
1710888365555683000,24.01368310546875,1.0528420209884644,9.495916366577148,0.1495514214038849
1710888365574642700,24.032642578125,1.8269200325012207,6.2536420822143555,-0.7716853022575378
1710888365593602300,24.051602294921874,1.9489539861679077,4.132404804229736,-3.108276605606079
1710888365612562200,24.070562255859375,4.246063709259033,2.5363919734954834,-5.838487148284912
1710888365631521800,24.089521728515624,4.494917392730713,0.7884350419044495,-7.7216386795043945
1710888365650481400,24.1084814453125,3.5365917682647705,2.568695068359375,-8.134400367736816
1710888365669441000,24.12744091796875,3.7423746585845947,4.935196876525879,-8.123632431030273
1710888365688400600,24.146400634765627,5.320441246032715,4.262813568115234,-6.695117950439453
1710888365707360300,24.1653603515625,5.157729148864746,3.032902717590332,-5.0703911781311035
1710888365726319900,24.18431982421875,3.751945972442627,4.423132419586182,-3.5808591842651367
1710888365745279700,24.20327978515625,2.9694929122924805,9.787840843200684,-1.7252250909805298
1710888365764239400,24.2222392578125,1.9621145725250244,25.410579681396484,5.015356063842773
1710888365783199000,24.241198974609375,3.7567315101623535,29.420949935913086,15.31885051727295
1710888365802158600,24.26015869140625,9.790233612060547,20.383258819580078,8.294719696044922
1710888365821118200,24.2791181640625,8.791230201721191,19.318452835083008,6.674778938293457
1710888365840077800,24.298077880859374,6.332605361938477,19.95973014831543,6.178267955780029
1710888365859037700,24.31703759765625,3.601198196411133,18.370895385742188,5.574080467224121
1710888365877997000,24.3359970703125,0.48574298620224,14.489737510681152,3.968496322631836
1710888365896957000,24.35495703125,-1.4691931009292603,9.56650447845459,2.8390841484069824
1710888365915916500,24.37391650390625,-3.1238300800323486,6.618547439575195,2.933600664138794
1710888365934876200,24.392876220703126,-3.8213376998901367,2.730210542678833,4.335794448852539
1710888365953835800,24.411835693359375,-3.335594654083252,-1.710868239402771,6.362515449523926
1710888365972795400,24.43079541015625,-5.8133625984191895,-5.111069202423096,6.3493547439575195
1710888365991755000,24.449755126953125,-8.158329010009766,-7.27537727355957,5.095515727996826
1710888366010715000,24.46871484375,-6.214160442352295,-6.448657035827637,5.824130535125732
1710888366029674200,24.48767431640625,-4.890929698944092,-5.836094379425049,6.415157318115234
1710888366048634000,24.506634033203124,-4.785645484924316,-5.283352375030518,5.8612189292907715
