time,seconds_elapsed,z,y,x
1711422444988703500,0.066703369140625,0,0,0
1711422445007664400,0.085664306640625,-0.0993194580078125,0.024468183517456055,-0.14155948162078857
1711422445026625000,0.104625,-0.16245365142822266,-0.013466358184814453,-0.45036256313323975
1711422445045600300,0.123600341796875,-0.22741985321044922,0.11376643180847168,-0.43909990787506104
1711422445064546600,0.142546630859375,-0.779789924621582,0.21425461769104004,-0.3884146809577942
1711422445083507200,0.161507080078125,-1.3541631698608398,0.40221714973449707,-0.4105648398399353
1711422445102468000,0.180468017578125,-1.3865032196044922,0.43245744705200195,-0.0232735276222229
1711422445121429000,0.199428955078125,-1.351933479309082,0.20642614364624023,0.29455500841140747
1711422445140389600,0.2183896484375,-1.5366525650024414,-0.20920753479003906,0.20541727542877197
1711422445159350300,0.237350341796875,-1.731551170349121,-0.12022709846496582,0.44316238164901733
1711422445178311200,0.256311279296875,-4.060612678527832,-0.8900699615478516,0.5628147125244141
1711422445197271800,0.275271728515625,-2.9090375900268555,1.0269415378570557,0.5186634659767151
1711422445216232700,0.294232666015625,-1.9876699447631836,0.5139822959899902,-0.19381098449230194
1711422445235193300,0.313193359375,-1.993485450744629,1.3313746452331543,-0.9266749024391174
1711422445254154200,0.332154296875,0.4886913299560547,0.6351375579833984,-1.0563275814056396
1711422445273115000,0.351114990234375,0.10956859588623047,-1.5705804824829102,-1.6185917854309082
1711422445292075800,0.37007568359375,3.939152717590332,0.7644007205963135,-1.9336826801300049
1711422445311036400,0.389036376953125,-1.2760629653930664,0.09004926681518555,-4.087491989135742
1711422445329997300,0.407997314453125,-1.9024624824523926,0.09778928756713867,-3.8421502113342285
1711422445348958000,0.4269580078125,-2.282197952270508,1.137779712677002,-0.5805558562278748
1711422445367918800,0.4459189453125,-0.798609733581543,1.4906301498413086,1.6099772453308105
1711422445386879500,0.46487939453125,-1.274043083190918,0.7240993976593018,0.40810975432395935
1711422445405840400,0.48384033203125,2.7310714721679688,-0.2603973150253296,1.6154017448425293
1711422445424801000,0.502801025390625,0.9408111572265625,2.385861396789551,0.04661530256271362
1711422445443762000,0.521761962890625,-0.3255319595336914,2.8728818893432617,-0.89381343126297
1711422445462722600,0.54072265625,-0.46639537811279297,3.1294116973876953,-0.24619054794311523
1711422445481683500,0.559683349609375,-0.08376693725585938,2.7813069820404053,0.41067221760749817
1711422445500644000,0.57864404296875,1.6219558715820312,0.6498724222183228,0.6882062554359436
1711422445519605000,0.59760498046875,2.3543872833251953,-0.5146158933639526,1.0551366806030273
1711422445538565600,0.616565673828125,1.8197755813598633,-0.8053389191627502,0.9179439544677734
1711422445557526500,0.635526611328125,0.3792572021484375,-0.30338871479034424,1.0262830257415771
1711422445576487200,0.654487060546875,-0.2199106216430664,-0.8341265320777893,1.0609244108200073
1711422445595448000,0.673447998046875,-1.1818265914916992,-1.2261979579925537,1.3310282230377197
1711422445614408700,0.69240869140625,-1.3116340637207031,-1.3909177780151367,1.2293071746826172
1711422445633369600,0.71136962890625,-1.8789386749267578,-1.3111997842788696,1.3714652061462402
1711422445652330200,0.730330322265625,-2.6499128341674805,-1.268459677696228,1.1159815788269043
1711422445671291100,0.749291015625,-2.096883773803711,-1.0250684022903442,0.9925206899642944
1711422445690251800,0.768251708984375,-0.7974529266357422,-1.2011290788650513,0.7512532472610474
1711422445709212700,0.787212646484375,-0.41747093200683594,-1.0654388666152954,0.847245454788208
1711422445728173600,0.806173583984375,-0.7700424194335938,-0.7623336315155029,0.5293446779251099
1711422445747134200,0.82513427734375,0.17050743103027344,-1.0154038667678833,0.19048897922039032
1711422445766095000,0.84409521484375,0.5784902572631836,-1.5097296237945557,0.4479748606681824
1711422445785055700,0.8630556640625,-0.32369422912597656,-0.5995851755142212,-0.4008760452270508
1711422445804016600,0.8820166015625,0.05170917510986328,0.5235567688941956,-0.862080991268158
1711422445822977300,0.900977294921875,1.115321159362793,0.6190283298492432,-0.5803341865539551
1711422445841938200,0.919938232421875,1.4501094818115234,0.5247037410736084,-1.1668626070022583
1711422445860898800,0.93889892578125,0.4721536636352539,1.0831271409988403,-0.6618787050247192
1711422445879859700,0.957859619140625,0.2969064712524414,0.8353744149208069,-1.166845679283142
1711422445898820400,0.9768203125,1.2880620956420898,0.46343356370925903,-0.8716409802436829
1711422445917781200,0.99578125,0.18350696563720703,0.5840392112731934,-0.24955904483795166
1711422445936742000,1.014741943359375,-2.632430076599121,0.06731656193733215,-0.09928786754608154
1711422445955702800,1.033702880859375,-2.884103298187256,-0.5099824070930481,-1.7809231281280518
1711422445974663700,1.05266357421875,-1.6750545501708984,-0.21929144859313965,-0.9836769104003906
1711422445993624300,1.071624267578125,-1.2244672775268555,0.48731932044029236,-0.7609365582466125
1711422446012585200,1.090585205078125,-1.6568593978881836,0.21504247188568115,-0.2822961211204529
1711422446031545900,1.1095458984375,-1.5711660385131836,-0.7564029097557068,0.0863613486289978
1711422446050506800,1.1285068359375,-0.4561347961425781,-1.505347490310669,-0.07825982570648193
1711422446069467400,1.14746728515625,0.8152742385864258,-1.659502387046814,0.31999480724334717
1711422446088428300,1.16642822265625,0.3178539276123047,-0.9841116666793823,0.43978893756866455
1711422446107389000,1.185388916015625,-0.3876218795776367,-0.5038106441497803,-0.13577353954315186
1711422446126349800,1.204349853515625,1.537489891052246,0.19983482360839844,0.142409086227417
1711422446145310700,1.223310791015625,1.1438684463500977,0.4432520866394043,0.242933988571167
1711422446164271400,1.242271240234375,1.416372299194336,-0.0905224084854126,-0.05899190902709961
1711422446183232300,1.261232177734375,0.9374456405639648,-0.02526378631591797,0.2216203212738037
1711422446202193000,1.28019287109375,0.2695646286010742,0.035767555236816406,0.30806803703308105
1711422446221153800,1.29915380859375,1.1291790008544922,0.2573932409286499,0.00010514259338378906
1711422446240114400,1.318114501953125,0.18489456176757812,0.4946359395980835,0.2837095260620117
1711422446259075300,1.337075439453125,2.1381397247314453,0.41991257667541504,0.3516249656677246
1711422446278036000,1.356035888671875,3.181046485900879,0.330216646194458,0.6586732864379883
1711422446296996900,1.374996826171875,2.0918045043945312,-0.104766845703125,0.49920082092285156
1711422446315957500,1.39395751953125,0.651616096496582,0.18244147300720215,0.5219898223876953
1711422446334918400,1.41291845703125,0.4982175827026367,0.35161709785461426,0.017126083374023438
1711422446353879300,1.43187939453125,-0.5617265701293945,0.39620471000671387,0.2493910789489746
1711422446372840000,1.45083984375,0.44287776947021484,0.3821728229522705,-0.03696298599243164
1711422446391800800,1.46980078125,1.7751798629760742,0.4877634048461914,0.633906364440918
1711422446410761500,1.488761474609375,0.8697175979614258,0.440537691116333,0.18786859512329102
1711422446429722400,1.507722412109375,0.03390979766845703,0.21420669555664062,0.11146020889282227
1711422446448683300,1.526683349609375,0.3633451461791992,0.17895150184631348,-0.32808685302734375
1711422446467644000,1.545643798828125,-0.057473182678222656,0.4219353199005127,-0.4468059539794922
1711422446486604800,1.564604736328125,-0.7336673736572266,0.5160791873931885,-0.29412078857421875
1711422446505565400,1.5835654296875,-0.29224109649658203,0.5319454669952393,-0.40474843978881836
1711422446524526300,1.6025263671875,1.7294349670410156,0.2819943428039551,-0.49567461013793945
1711422446543487200,1.6214873046875,1.7377090454101562,0.696425199508667,0.16130685806274414
1711422446562448000,1.64044775390625,1.504042625427246,0.16279077529907227,0.3970303535461426
1711422446581408800,1.65940869140625,0.3036184310913086,-0.5411796569824219,0.9230213165283203
1711422446600369400,1.678369384765625,-0.9475870132446289,-0.9475867748260498,0.798525333404541
1711422446619330300,1.697330322265625,-2.0474929809570312,-0.8741846084594727,0.7466065883636475
1711422446638291000,1.716291015625,-2.7455215454101562,-0.7581233978271484,0.16704082489013672
1711422446657251800,1.735251953125,-1.5781116485595703,0.15225744247436523,-0.243330717086792
1711422446676212700,1.754212646484375,0.3899660110473633,0.5268278121948242,0.5590744018554688
1711422446695173400,1.77317333984375,1.5158109664916992,0.9135875701904297,0.27968382835388184
1711422446714134300,1.79213427734375,0.9230833053588867,0.3645603656768799,-0.4147815704345703
1711422446733095000,1.811094970703125,0.2161865234375,0.23713898658752441,-0.6716046333312988
1711422446752055800,1.830055908203125,0.6008834838867188,0.4287421703338623,-0.3964805603027344
1711422446771016700,1.8490166015625,0.09817123413085938,0.13687515258789062,-0.17740917205810547
1711422446789977300,1.867977294921875,-0.8856315612792969,0.14826750755310059,0.3273742198944092
1711422446808938200,1.886938232421875,-0.29145240783691406,-0.279987096786499,0.783095121383667
1711422446827899100,1.905899169921875,0.850153923034668,-0.2700765132904053,1.698859453201294
1711422446846859800,1.92485986328125,-0.8585042953491211,-1.2798354625701904,0.7352997064590454
1711422446865820700,1.943820556640625,-1.7557764053344727,-0.3704986572265625,1.0419577360153198
1711422446884781300,1.96278125,-1.7985754013061523,-1.6814488172531128,1.4261449575424194
1711422446903742200,1.9817421875,-2.6244797706604004,-1.7262458801269531,1.8436206579208374
1711422446922703000,2.000703125,-0.4584674835205078,-0.8786740303039551,1.3185886144638062
1711422446941663700,2.019663818359375,2.347026824951172,-0.6457703113555908,1.651593565940857
1711422446960624600,2.038624755859375,-1.5484275817871094,-0.8365501165390015,0.5918888449668884
1711422446979585500,2.05758544921875,-2.256931781768799,0.03719592094421387,-0.20000702142715454
1711422446998546200,2.076546142578125,0.5114030838012695,0.5608333349227905,0.3384898900985718
1711422447017507000,2.095507080078125,0.8406991958618164,1.0295830965042114,0.4763227701187134
1711422447036467700,2.1144677734375,4.064879417419434,0.013762474060058594,-0.1613258719444275
1711422447055428600,2.1334287109375,-4.432574272155762,-0.89551842212677,0.498440682888031
1711422447074389500,2.152389404296875,-0.6906576156616211,-0.8473442792892456,-0.06785237789154053
1711422447093350100,2.17135009765625,2.3516197204589844,0.16652464866638184,0.5512938499450684
1711422447112311000,2.19031103515625,1.9803972244262695,-0.2589242458343506,0.3510160446166992
1711422447131271700,2.209271728515625,1.4595603942871094,0.3060091733932495,0.32976770401000977
1711422447150232600,2.228232666015625,0.6724109649658203,-0.04996299743652344,-0.34604308009147644
1711422447169193500,2.247193359375,-1.571608543395996,-0.718847393989563,-0.3796256184577942
1711422447188154000,2.266154052734375,-0.4247255325317383,-0.15309298038482666,0.1846439391374588
1711422447207115000,2.285114990234375,-1.466252326965332,-0.19468021392822266,0.9572538137435913
1711422447226075600,2.30407568359375,-2.224349021911621,0.413250207901001,0.6024525165557861
1711422447245036500,2.32303662109375,-2.728994846343994,0.8777828216552734,0.14061641693115234
1711422447263997400,2.34199755859375,1.1861658096313477,0.9261354207992554,-0.3592718839645386
1711422447282958300,2.360958251953125,6.166049957275391,1.6011823415756226,-0.7066958546638489
1711422447301919000,2.3799189453125,3.9371423721313477,1.2122302055358887,-1.291719913482666
1711422447320879900,2.3988798828125,0.8764514923095703,1.1160753965377808,-1.3998500108718872
1711422447339840800,2.4178408203125,0.5360908508300781,0.9387153387069702,-1.3246281147003174
1711422447358801400,2.436801513671875,-0.5105810165405273,0.29389071464538574,-1.4676997661590576
1711422447377762300,2.45576220703125,-2.71319580078125,0.8622446060180664,-2.005967617034912
1711422447396723000,2.474722900390625,-1.526130199432373,0.9422626495361328,-1.6295716762542725
1711422447415683800,2.493683837890625,-0.25745677947998047,-2.9345738887786865,1.9430816173553467
1711422447434644500,2.51264453125,-1.6864891052246094,-2.8918237686157227,3.446876049041748
1711422447453605400,2.53160546875,-4.508435249328613,1.7206822633743286,1.7656124830245972
1711422447472566300,2.550566162109375,-2.5695724487304688,-0.563668966293335,-0.2160435914993286
1711422447491527000,2.56952685546875,1.6873950958251953,0.2463374137878418,0.024658918380737305
1711422447510487800,2.58848779296875,1.4623336791992188,-0.19747447967529297,0.512054443359375
1711422447529448700,2.60744873046875,1.6121482849121094,0.7029614448547363,1.3891183137893677
1711422447548409600,2.62640966796875,6.561033248901367,0.7940537929534912,-0.9283083081245422
1711422447567370200,2.645370361328125,-3.056260585784912,0.526249885559082,-0.06718838214874268
1711422447586331100,2.6643310546875,-1.3956937789916992,-1.3671090602874756,-0.36538374423980713
1711422447605291800,2.683291748046875,1.9475250244140625,-1.3026270866394043,0.25921744108200073
1711422447624252700,2.702252685546875,-0.08104801177978516,-1.2735075950622559,1.793224811553955
1711422447643213600,2.721213623046875,1.5710630416870117,0.07281708717346191,1.3053643703460693
1711422447662174200,2.74017431640625,1.4842376708984375,-0.28215789794921875,0.17137420177459717
1711422447681135000,2.759135009765625,0.8677434921264648,0.31508588790893555,-0.3053946793079376
1711422447700095700,2.778095703125,1.6429452896118164,0.052126169204711914,1.004915714263916
1711422447719056600,2.797056640625,0.5361013412475586,-0.8691549301147461,0.6095362901687622
1711422447738017500,2.816017578125,-0.5195283889770508,-0.05778169631958008,-0.5785209536552429
1711422447756978400,2.834978515625,-1.106698989868164,0.7634472846984863,-0.7302277088165283
1711422447775939000,2.85393896484375,0.2004985809326172,0.6927435398101807,-0.18032927811145782
1711422447794900000,2.87289990234375,0.3708982467651367,0.1075890064239502,0.4329875111579895
1711422447813860900,2.89186083984375,-1.0978870391845703,0.5965008735656738,-0.49843865633010864
1711422447832821500,2.910821533203125,-1.7125482559204102,0.9286274909973145,0.13893696665763855
1711422447851782400,2.929782470703125,-1.1410789489746094,0.9359662532806396,-0.29921257495880127
1711422447870743000,2.948742919921875,-2.4253549575805664,0.4133155345916748,-1.2261792421340942
1711422447889704000,2.967703857421875,-2.2231178283691406,0.2998359203338623,-0.3226791322231293
1711422447908664800,2.986664794921875,-0.7266874313354492,0.22032475471496582,0.02766956388950348
1711422447927625500,3.00562548828125,-0.16798114776611328,0.7914237976074219,-0.3531261682510376
1711422447946586400,3.02458642578125,0.4046592712402344,0.5604922771453857,-0.625225841999054
1711422447965547300,3.04354736328125,1.2397327423095703,0.33837080001831055,-0.7435498237609863
1711422447984508200,3.062508056640625,2.163715362548828,0.3218233585357666,-0.9397408962249756
1711422448003468800,3.08146875,1.34759521484375,0.09883427619934082,-1.425199031829834
1711422448022429700,3.1004296875,-1.322591781616211,-0.5791668891906738,-1.0551778078079224
1711422448041390300,3.119390380859375,-2.566880226135254,-1.3173730373382568,-0.5121621489524841
1711422448060351200,3.138351318359375,-0.5277938842773438,0.25826168060302734,0.8377015590667725
1711422448079312100,3.15731201171875,2.2042617797851562,0.9305949211120605,0.8986964821815491
1711422448098272800,3.176272705078125,2.114651679992676,0.10379385948181152,0.6888003945350647
1711422448117233700,3.195233642578125,1.1770648956298828,0.4990391731262207,0.0715179443359375
1711422448136194600,3.214194580078125,0.8912220001220703,1.2245993614196777,-0.6787952184677124
1711422448155155200,3.2331552734375,1.3230314254760742,1.563612937927246,-0.752214789390564
1711422448174116000,3.2521162109375,1.2583122253417969,1.0519697666168213,-1.1681057214736938
1711422448193077000,3.271076904296875,0.2514638900756836,1.5910754203796387,-0.6633607745170593
1711422448212037600,3.29003759765625,2.800495147705078,0.4958786964416504,-0.056812822818756104
1711422448230998500,3.30899853515625,-0.8084373474121094,0.3279690742492676,-0.12084716558456421
1711422448249959200,3.327959228515625,-1.536294937133789,0.20395755767822266,-0.5562388896942139
1711422448268920000,3.346920166015625,0.5324440002441406,0.3026857376098633,0.1760648488998413
1711422448287881000,3.365880859375,0.07365798950195312,0.17286419868469238,0.07962954044342041
1711422448306841900,3.384841796875,-0.6749734878540039,0.45958590507507324,0.1658915877342224
1711422448325802500,3.403802490234375,-0.35976314544677734,0.38010406494140625,0.20904675126075745
1711422448344763400,3.422763427734375,-1.3319921493530273,0.24499964714050293,0.13033714890480042
1711422448363724300,3.441724365234375,-1.5142393112182617,0.12208008766174316,0.08209103345870972
1711422448382685000,3.460684814453125,-1.224740982055664,-0.03561663627624512,0.1070600152015686
1711422448401645800,3.479645751953125,-0.7192134857177734,0.02726435661315918,-0.3730522096157074
1711422448420606500,3.4986064453125,-0.6423854827880859,-0.20333385467529297,0.29097580909729004
1711422448439567400,3.5175673828125,-0.4125537872314453,-0.614100456237793,1.0967738628387451
1711422448458528300,3.5365283203125,-0.06841850280761719,-1.5039901733398438,0.911476731300354
1711422448477489000,3.555489013671875,0.7443046569824219,-0.8812391757965088,0.5404836535453796
1711422448496449800,3.57444970703125,-0.18744182586669922,0.14963746070861816,0.2166474461555481
1711422448515410700,3.59341064453125,0.023935317993164062,-0.6332683563232422,0.10358989238739014
1711422448534371600,3.61237158203125,1.2605161666870117,-1.3988707065582275,0.03593003749847412
1711422448553332200,3.631332275390625,1.6717891693115234,-0.253145694732666,-0.5806225538253784
1711422448572293000,3.650293212890625,0.42711353302001953,0.08076024055480957,-0.8208045363426208
1711422448591253800,3.669253662109375,0.6685581207275391,1.1606197357177734,-1.3162193298339844
1711422448610214700,3.688214599609375,1.4186735153198242,2.1914401054382324,-1.739599347114563
1711422448629175600,3.707175537109375,1.7099857330322266,2.354783773422241,-1.6125150918960571
1711422448648136200,3.72613623046875,1.5633659362792969,2.2016408443450928,-1.400294542312622
1711422448667097000,3.74509716796875,1.3975162506103516,1.198136329650879,-0.6515863537788391
1711422448686058000,3.76405810546875,0.8834428787231445,-0.19635891914367676,0.7223178744316101
1711422448705019000,3.783018798828125,-0.621037483215332,-1.237687110900879,1.7793269157409668
1711422448723979500,3.8019794921875,-1.965188980102539,-2.392505645751953,2.7786412239074707
1711422448742940400,3.8209404296875,-2.21136474609375,-2.7042598724365234,2.23559308052063
1711422448761901000,3.839901123046875,-2.5985169410705566,-1.7202765941619873,2.193578004837036
1711422448780862000,3.858862060546875,-2.1421279907226562,-1.8696329593658447,1.8343384265899658
1711422448799822800,3.87782275390625,-0.7630548477172852,-0.22588539123535156,1.0689667463302612
1711422448818783500,3.896783447265625,0.5642843246459961,0.9512724876403809,-0.24243782460689545
1711422448837744400,3.915744384765625,1.0320205688476562,1.3899595737457275,-0.9614320993423462
1711422448856705300,3.934705322265625,0.9366941452026367,0.6526875495910645,-1.226057529449463
1711422448875666000,3.953666015625,-0.32558441162109375,-0.07615375518798828,-0.07273120433092117
1711422448894626800,3.972626708984375,-0.24554157257080078,-0.8670263290405273,1.0134414434432983
1711422448913587700,3.991587646484375,-0.7149486541748047,-1.040590524673462,1.6294400691986084
1711422448932548400,4.01054833984375,-0.8703937530517578,-1.1217007637023926,2.012866973876953
1711422448951509200,4.02950927734375,-0.2951622009277344,-0.9656956195831299,1.8503477573394775
1711422448970470100,4.04847021484375,-0.22802734375,-0.1671161651611328,1.2922863960266113
1711422448989430800,4.0674306640625,0.17188358306884766,-0.6684432029724121,0.7856327295303345
1711422449008391700,4.0863916015625,0.6598749160766602,-0.1364445686340332,-0.18299919366836548
1711422449027352600,4.1053525390625,1.8842639923095703,1.2830361127853394,-1.9552710056304932
1711422449046313200,4.124313232421875,0.7383089065551758,-0.14294815063476562,-0.7174623608589172
1711422449065274000,4.143274169921875,-0.24193096160888672,-0.6514520645141602,-1.2783048152923584
1711422449084235000,4.162235107421875,-0.5761680603027344,-0.22620534896850586,-1.387012243270874
1711422449103195600,4.181195556640625,-0.9351844787597656,-0.06881523132324219,-1.6135520935058594
1711422449122156500,4.200156494140625,-0.6190452575683594,0.33794260025024414,-0.47675561904907227
1711422449141117400,4.219117431640625,0.02736186981201172,-0.3192930221557617,1.2559514045715332
1711422449160078000,4.238078125,0.9629611968994141,0.014196634292602539,0.36956751346588135
1711422449179039000,4.2570390625,1.8437623977661133,1.2506998777389526,-0.2403850555419922
1711422449197999600,4.27599951171875,1.0179357528686523,1.2216112613677979,-0.6347934007644653
1711422449216960500,4.29496044921875,0.9137182235717773,0.7773250341415405,-0.9839087128639221
1711422449235921400,4.31392138671875,0.6909151077270508,0.2814795970916748,-0.39265936613082886
1711422449254882300,4.33288232421875,-0.01968669891357422,-0.14344072341918945,0.6317721009254456
1711422449273843000,4.351843017578125,-1.0810174942016602,-0.4212675094604492,0.5950751900672913
1711422449292803800,4.370803955078125,-1.685368537902832,-0.13273930549621582,0.3699645400047302
1711422449311764500,4.389764404296875,-0.7751922607421875,0.15933609008789062,0.007421731948852539
1711422449330725400,4.408725341796875,-0.6751937866210938,0.3554239273071289,-0.04105174541473389
1711422449349686300,4.427686279296875,-0.15458393096923828,0.28620028495788574,0.015952467918395996
1711422449368647000,4.44664697265625,-1.088637351989746,0.42835235595703125,-0.5663686394691467
1711422449387607800,4.46560791015625,-0.2631998062133789,0.07723522186279297,-0.09907841682434082
1711422449406568700,4.484568603515625,-0.38763427734375,0.08925771713256836,0.10381424427032471
1711422449425529300,4.503529296875,0.022626876831054688,0.43476366996765137,0.1264636516571045
1711422449444490200,4.522490234375,1.2556276321411133,0.3276808261871338,-0.0748637318611145
1711422449463451100,4.541451171875,0.6130495071411133,0.12635159492492676,-0.18354985117912292
1711422449482411800,4.560411865234375,1.0344104766845703,0.007536888122558594,-0.2786322236061096
1711422449501372700,4.57937255859375,0.7082710266113281,0.3230319023132324,-0.2697139382362366
1711422449520333600,4.59833349609375,0.7152023315429688,0.08320450782775879,-0.0038796067237854004
1711422449539294200,4.617294189453125,0.2797365188598633,0.3537411689758301,0.38045620918273926
1711422449558255000,4.636255126953125,-0.2112874984741211,-1.0699546337127686,1.1355351209640503
1711422449577215700,4.6552158203125,-0.007016181945800781,-1.4276764392852783,1.4527668952941895
1711422449596176600,4.6741767578125,0.038428306579589844,-0.9061954021453857,1.1786034107208252
1711422449615137500,4.693137451171875,-0.42027759552001953,-0.5948431491851807,0.31302791833877563
1711422449634098400,4.712098388671875,-0.5656700134277344,-0.2809138298034668,-0.021455660462379456
1711422449653059000,4.73105908203125,-0.7413778305053711,-0.9859764575958252,0.1654493659734726
1711422449672020000,4.75002001953125,0.010982513427734375,-0.4495267868041992,-0.046682924032211304
1711422449690980900,4.76898095703125,0.060759544372558594,0.5225157737731934,-0.3711763918399811
1711422449709941500,4.78794140625,0.08309555053710938,0.6784155368804932,0.2857656180858612
1711422449728902400,4.80690234375,-0.31203460693359375,-0.06158161163330078,0.1796797811985016
1711422449747863000,4.825863037109375,-0.6340398788452148,0.29164791107177734,-1.0457106828689575
1711422449766824000,4.844823974609375,-0.026086807250976562,1.5152627229690552,-1.2154520750045776
1711422449785784800,4.863784912109375,-0.03789710998535156,1.2944612503051758,-1.1023130416870117
1711422449804745500,4.882745361328125,-0.2223186492919922,0.6289365291595459,-0.8754041194915771
1711422449823706400,4.901706298828125,0.0031452178955078125,0.6402387619018555,-0.7850393652915955
1711422449842667300,4.920667236328125,-0.03904247283935547,0.30359387397766113,-0.14894145727157593
1711422449861628200,4.939628173828125,0.44880008697509766,0.04328632354736328,-0.3154246509075165
1711422449880588800,4.9585888671875,0.3198833465576172,0.5223696231842041,-0.3518924415111542
1711422449899549700,4.9775498046875,0.013156890869140625,0.24839448928833008,-0.021375879645347595
1711422449918510300,4.99651025390625,0.2878227233886719,0.027365446090698242,0.26832014322280884
1711422449937471200,5.01547119140625,0.5419654846191406,0.1635899543762207,0.27919885516166687
1711422449956432100,5.03443212890625,0.4739112854003906,0.4233870506286621,0.2642834186553955
1711422449975392800,5.053392822265625,0.1701030731201172,0.2442612648010254,-0.13345982134342194
1711422449994353700,5.072353759765625,-0.30623626708984375,0.3794698715209961,-0.37263715267181396
1711422450013314600,5.091314453125,-0.8586397171020508,0.01111602783203125,0.05887828767299652
1711422450032275200,5.110275146484375,-0.7479286193847656,-0.3906373977661133,0.14656011760234833
1711422450051236000,5.129236083984375,-0.3574085235595703,-0.20357131958007812,0.19937999546527863
1711422450070197000,5.148197021484375,-0.14003849029541016,0.040528059005737305,0.3274710178375244
1711422450089157600,5.16715771484375,-0.4036092758178711,-0.1752181053161621,0.3432290852069855
1711422450108118500,5.186118408203125,-0.10201072692871094,-0.6553452014923096,0.1937435269355774
1711422450127079200,5.2050791015625,-0.3283720016479492,-0.6150543689727783,0.29043424129486084
1711422450146040000,5.2240400390625,-0.1322002410888672,-0.46086907386779785,0.36307135224342346
1711422450165001000,5.2430009765625,-0.14315319061279297,-0.5076589584350586,0.6315953731536865
1711422450183961900,5.2619619140625,0.2855358123779297,-0.28635120391845703,-0.007796294987201691
1711422450202922500,5.280922607421875,0.4777259826660156,0.24800658226013184,0.06935863941907883
1711422450221883400,5.29988330078125,0.6821985244750977,-0.3377571105957031,0.0458068810403347
1711422450240844300,5.31884423828125,0.6483325958251953,0.10094571113586426,-0.05694332346320152
1711422450259805000,5.337804931640625,0.35471630096435547,-0.1057741641998291,0.057957250624895096
1711422450278765800,5.356765869140625,-0.049683570861816406,-0.05562567710876465,0.23207172751426697
1711422450297726500,5.3757265625,-0.28505992889404297,-0.13388347625732422,0.24066638946533203
1711422450316687400,5.394687255859375,-0.20869731903076172,-0.21549558639526367,0.3066384792327881
1711422450335648300,5.413648193359375,-0.21371078491210938,-0.0540313720703125,0.2107340693473816
1711422450354609000,5.43260888671875,-0.2957324981689453,-0.25367283821105957,0.2956683039665222
1711422450373569800,5.45156982421875,-0.1164712905883789,-0.4078562259674072,0.300041526556015
1711422450392530700,5.47053076171875,0.4292478561401367,-0.1537015438079834,0.15908250212669373
1711422450411491600,5.48949169921875,0.44360923767089844,-0.08915829658508301,-0.12401974201202393
1711422450430452200,5.5084521484375,0.036269187927246094,0.10891532897949219,-0.2846298813819885
1711422450449413000,5.5274130859375,-0.056453704833984375,0.11325931549072266,-0.199895441532135
1711422450468373800,5.546373779296875,-0.1916513442993164,0.004390716552734375,-0.3004295825958252
1711422450487334700,5.565334716796875,-0.3334159851074219,0.2292168140411377,-0.4366910755634308
1711422450506295600,5.584295654296875,-0.1732931137084961,0.09203338623046875,-0.06563079357147217
1711422450525256200,5.603256103515625,0.05339813232421875,0.08754754066467285,0.22474798560142517
1711422450544217000,5.622217041015625,0.019283294677734375,0.10207200050354004,0.0875048041343689
1711422450563178000,5.641177978515625,0.1488800048828125,0.18020188808441162,-0.391723096370697
1711422450582138600,5.660138671875,0.4731016159057617,0.3064640760421753,-0.4142870604991913
1711422450601099500,5.679099609375,0.8116216659545898,-0.034497618675231934,-0.013956248760223389
1711422450620060400,5.698060302734375,0.4039163589477539,-0.17417609691619873,0.07075455784797668
1711422450639021000,5.71702099609375,0.3197746276855469,0.45898473262786865,-0.6512316465377808
1711422450657982000,5.73598193359375,0.9189167022705078,0.837053656578064,-0.5540270209312439
1711422450676942800,5.75494287109375,0.985234260559082,0.6733415126800537,-0.5106027722358704
1711422450695903500,5.773903564453125,0.8800029754638672,0.4693002700805664,-0.41848310828208923
1711422450714864400,5.792864501953125,0.3918294906616211,0.27775537967681885,0.005593597888946533
1711422450733825300,5.8118251953125,0.623931884765625,-0.22115802764892578,0.2876785099506378
1711422450752786000,5.830785888671875,0.37422752380371094,0.07897019386291504,-0.018350297585129738
1711422450771746800,5.849746826171875,0.7425422668457031,0.19079923629760742,-1.1627840995788574
1711422450790707700,5.868707763671875,1.6110830307006836,0.31615424156188965,0.1758192479610443
1711422450809668400,5.88766845703125,0.32320594787597656,-0.322359561920166,-0.23726873099803925
1711422450828629200,5.906629150390625,-0.5835351943969727,-0.1408858299255371,-0.32443496584892273
1711422450847590100,5.925590087890625,0.058960914611816406,-0.02135181427001953,0.004233062267303467
1711422450866550800,5.94455078125,0.10644340515136719,0.09052872657775879,0.7454010248184204
1711422450885511700,5.96351171875,0.13524723052978516,0.04429483413696289,0.4234808385372162
1711422450904472600,5.98247265625,-0.35022640228271484,0.13563084602355957,0.274044394493103
1711422450923433200,6.00143310546875,-0.13636302947998047,-0.33521556854248047,0.48253828287124634
1711422450942394000,6.02039404296875,-0.3531026840209961,-0.3652472496032715,-0.04664143919944763
1711422450961355000,6.03935498046875,-0.40233707427978516,-0.4340214729309082,-1.1396970748901367
1711422450980315600,6.058315673828125,-1.0394258499145508,-0.6529507637023926,-1.1251745223999023
1711422450999276500,6.077276611328125,-1.6056814193725586,-0.24357962608337402,0.12986451387405396
1711422451018237400,6.096237548828125,0.7432155609130859,0.8622238636016846,0.6535693407058716
1711422451037198000,6.115197998046875,0.8839759826660156,1.882822871208191,-0.6152549982070923
1711422451056159000,6.134158935546875,-0.07706832885742188,1.0702433586120605,-0.8068649768829346
1711422451075119900,6.153119873046875,0.7190113067626953,-0.031686604022979736,-1.4897849559783936
1711422451094080800,6.172080810546875,-0.08587074279785156,0.6303967237472534,-0.30948901176452637
1711422451113041400,6.19104150390625,-1.151651382446289,0.6127719879150391,0.3222804069519043
1711422451132002300,6.210002197265625,-1.7513251304626465,0.10249355435371399,1.0482516288757324
1711422451150963000,6.228962890625,-0.6615715026855469,-0.6100075244903564,1.5082147121429443
1711422451169923800,6.247923828125,1.6108016967773438,-0.6190030574798584,0.8336615562438965
1711422451188884700,6.266884765625,0.545353889465332,-0.72203528881073,0.28894293308258057
1711422451207845600,6.285845703125,-1.9018750190734863,0.00988614559173584,0.6981198787689209
1711422451226806300,6.30480615234375,1.0984010696411133,-1.0762330293655396,-0.19075942039489746
1711422451245767200,6.32376708984375,1.0277376174926758,-1.3266934156417847,0.20517051219940186
1711422451264728000,6.34272802734375,0.5603752136230469,-1.1000781059265137,0.7588691711425781
1711422451283688700,6.361688720703125,0.4664163589477539,-0.8273909091949463,0.5863385200500488
1711422451302649600,6.380649658203125,0.6918268203735352,-0.29106199741363525,0.5492793321609497
1711422451321610500,6.399610595703125,-0.03628730773925781,-0.17516231536865234,0.19618678092956543
1711422451340571400,6.4185712890625,0.10413455963134766,-0.019498229026794434,0.30282163619995117
1711422451359532000,6.437531982421875,-0.13425159454345703,0.24046337604522705,0.137658953666687
1711422451378493000,6.456492919921875,-0.7080020904541016,0.4678274393081665,0.27557194232940674
1711422451397453800,6.475453857421875,0.1269397735595703,0.1652510166168213,-0.44037604331970215
1711422451416414700,6.494414794921875,0.6000423431396484,0.236089825630188,-0.29928886890411377
1711422451435375400,6.513375244140625,0.21761417388916016,0.19054388999938965,0.6966308355331421
1711422451454336300,6.532336181640625,2.0080223083496094,-0.08175837993621826,0.4990108013153076
1711422451473297200,6.551297119140625,2.2431650161743164,-0.3275432586669922,0.458087682723999
1711422451492258000,6.570258056640625,1.4690189361572266,-0.008595585823059082,-0.15732359886169434
1711422451511218700,6.58921875,0.5354976654052734,0.07356691360473633,-1.0763983726501465
1711422451530179600,6.6081796875,0.22501182556152344,0.2786078453063965,-1.7761915922164917
1711422451549140500,6.627140380859375,-1.2208671569824219,0.14314234256744385,-0.05088925361633301
1711422451568101000,6.64610107421875,-0.9889707565307617,1.0493830442428589,0.17795181274414062
1711422451587062000,6.66506201171875,-1.420884132385254,0.9940595030784607,0.7102057933807373
1711422451606023000,6.68402294921875,-1.5863213539123535,0.4207402467727661,0.9555783271789551
1711422451624983600,6.702983642578125,-1.4146728515625,-0.1435602903366089,0.18824458122253418
1711422451643944400,6.7219443359375,0.1255474090576172,-2.5381264686584473,-0.2848719358444214
1711422451662905300,6.7409052734375,0.2830829620361328,-1.866586446762085,-0.2928774356842041
1711422451681866200,6.7598662109375,0.365142822265625,-1.4620387554168701,-1.9400303363800049
1711422451700827000,6.778826904296875,0.3622150421142578,0.23847103118896484,-1.238254189491272
1711422451719787800,6.797787841796875,1.2273626327514648,2.3631269931793213,0.38891172409057617
1711422451738748700,6.816748779296875,1.3001575469970703,1.8525233268737793,1.0009267330169678
1711422451757709600,6.83570947265625,1.235579490661621,1.148728847503662,0.9641783237457275
1711422451776670500,6.85467041015625,0.6545915603637695,0.7951047420501709,-1.0803583860397339
1711422451795631000,6.873631103515625,-2.136795997619629,1.8545860052108765,-0.7626743316650391
1711422451814592000,6.892592041015625,-3.693920135498047,0.8241168260574341,-0.7818613052368164
1711422451833553000,6.911552978515625,-4.841647148132324,1.0825430154800415,-1.115464687347412
1711422451852513800,6.930513671875,-4.4346604347229,1.3884025812149048,-1.482969880104065
1711422451871474400,6.949474365234375,10.236178398132324,-8.279712677001953,-1.8340492248535156
1711422451890435300,6.968435302734375,-2.1338138580322266,-3.5092692375183105,-1.142310380935669
1711422451909396200,6.987396240234375,-1.5965776443481445,-1.0309138298034668,-1.1252515316009521
1711422451928357000,7.006357177734375,1.1933479309082031,-0.5236432552337646,-0.8508801460266113
1711422451947317800,7.02531787109375,-0.579655647277832,3.1070477962493896,-0.4308040142059326
1711422451966278700,7.044278564453125,-4.11165189743042,4.3751068115234375,-0.8013408184051514
1711422451985239600,7.063239501953125,-0.28075218200683594,1.1181354522705078,-1.1968204975128174
1711422452004200400,7.082200439453125,6.424685478210449,-1.6620862483978271,0.20186185836791992
1711422452023161300,7.101161376953125,-1.9155693054199219,0.35572242736816406,2.7513012886047363
1711422452042122000,7.1201220703125,-2.798135280609131,1.7777159214019775,0.3004927635192871
1711422452061083000,7.139082763671875,-2.5381736755371094,2.7594151496887207,-2.0598621368408203
1711422452080043800,7.158043701171875,2.6505022048950195,1.523518443107605,-3.172497272491455
1711422452099004700,7.177004638671875,-2.1847023963928223,2.0919604301452637,-0.7920963764190674
1711422452117965600,7.195965576171875,-0.9607620239257812,1.9849905967712402,-1.2777199745178223
1711422452136926200,7.21492626953125,-1.6570148468017578,3.382737159729004,-1.5614826679229736
1711422452155887000,7.23388720703125,-6.000046730041504,4.463183879852295,-1.4472274780273438
1711422452174848000,7.252847900390625,-5.090428829193115,4.0069756507873535,-1.54048490524292
1711422452193809000,7.271808837890625,12.59852123260498,-2.0667309761047363,3.385043144226074
1711422452212769500,7.29076953125,5.21995735168457,-4.908190727233887,4.729475498199463
1711422452231730400,7.30973046875,-0.08949995040893555,-0.8285787105560303,-2.5083539485931396
1711422452250691300,7.32869140625,2.144798755645752,-1.221271276473999,1.3979291915893555
1711422452269652200,7.34765234375,2.9778265953063965,-2.9922127723693848,1.674959659576416
1711422452288612900,7.36661279296875,3.098461627960205,-3.3483519554138184,1.4017081260681152
1711422452307573800,7.38557373046875,0.5271134376525879,-3.377962827682495,-0.7297844886779785
1711422452326534700,7.40453466796875,2.672079086303711,-4.1672163009643555,0.8713765144348145
1711422452345495600,7.42349560546875,1.9417943954467773,-4.215726852416992,2.372044086456299
1711422452364456200,7.442456298828125,-0.04387617111206055,-3.054006338119507,4.396457672119141
1711422452383417000,7.4614169921875,-0.5803747177124023,-1.8144807815551758,5.243876934051514
1711422452402378000,7.4803779296875,0.5173959732055664,-1.2067441940307617,2.9554710388183594
1711422452421339000,7.4993388671875,1.2034354209899902,0.09899377822875977,1.4070663452148438
1711422452440299800,7.5182998046875,1.414433479309082,0.7423392534255981,0.8348665237426758
1711422452459260700,7.5372607421875,-0.06530380249023438,1.2120747566223145,-0.42778491973876953
1711422452478221300,7.55622119140625,-2.112740993499756,1.2577192783355713,-0.21804428100585938
1711422452497182200,7.57518212890625,-0.11340141296386719,0.7358965873718262,1.5042738914489746
1711422452516143000,7.59414306640625,-0.4240589141845703,0.1692371368408203,1.5034122467041016
1711422452535104000,7.61310400390625,-2.414576530456543,-0.377077579498291,0.8029170036315918
1711422452554064600,7.632064697265625,-2.2731027603149414,-0.4954030513763428,-0.43851685523986816
1711422452573025500,7.651025634765625,-0.17969417572021484,-0.576197624206543,-0.7315540313720703
1711422452591986400,7.669986328125,-0.6491155624389648,0.5431883335113525,-1.7200679779052734
1711422452610947300,7.688947265625,-1.156050682067871,1.2308441400527954,-0.8619494438171387
1711422452629908000,7.707907958984375,-0.5213050842285156,0.7556029558181763,-0.3214101791381836
1711422452648868900,7.726868896484375,-0.5130834579467773,0.294783353805542,0.15954208374023438
1711422452667829800,7.745829833984375,-0.32222843170166016,0.57783043384552,-0.4575841426849365
1711422452686790700,7.764790771484375,0.02826213836669922,0.5309960842132568,0.9871513843536377
1711422452705751600,7.78375146484375,-0.5198087692260742,0.33376383781433105,1.2797021865844727
1711422452724712200,7.802712158203125,-1.0508346557617188,0.14101827144622803,0.9862208366394043
1711422452743673000,7.821673095703125,-0.8182468414306641,-0.7448595762252808,1.498645544052124
1711422452762634000,7.840634033203125,0.1575613021850586,-0.6619178056716919,0.48680567741394043
1711422452781595000,7.859594970703125,-2.2152223587036133,0.14330393075942993,-0.2913323640823364
1711422452800555800,7.8785556640625,-0.6660003662109375,0.11946797370910645,-0.10362327098846436
1711422452819516400,7.897516357421875,1.397979736328125,-0.39009982347488403,-0.30902230739593506
1711422452838477300,7.916477294921875,0.7482490539550781,-1.1514670848846436,1.5227742195129395
1711422452857438200,7.935438232421875,2.4676151275634766,-0.5584137439727783,-1.2149178981781006
1711422452876399000,7.954399169921875,-0.6550989151000977,0.4830248951911926,1.177217960357666
1711422452895359700,7.97335986328125,2.1826467514038086,-0.19236141443252563,1.5212539434432983
1711422452914320600,7.992320556640625,0.9339628219604492,-0.16381537914276123,2.9124441146850586
1711422452933281500,8.011281494140626,0.45335960388183594,-0.811700165271759,1.6496343612670898
1711422452952242400,8.030242431640625,-1.2361526489257812,-1.1192840337753296,-0.11711293458938599
1711422452971203300,8.049203369140624,-0.16299152374267578,-0.992850661277771,-1.798972249031067
1711422452990164000,8.0681640625,0.21677017211914062,-0.9307342767715454,-0.6540584564208984
1711422453009124900,8.087124755859374,-0.10043525695800781,-1.0777775049209595,1.2743066549301147
1711422453028085800,8.106085693359375,-0.8405885696411133,-0.8537068963050842,1.719466209411621
1711422453047046700,8.125046630859375,-1.729513168334961,-0.4441255033016205,-0.028988361358642578
1711422453066007300,8.14400732421875,-1.862710952758789,-0.5256370306015015,-0.7511481046676636
1711422453084968400,8.162968505859375,-1.0063085556030273,-1.4542953968048096,-2.6689343452453613
1711422453103929000,8.18192919921875,1.1614904403686523,-1.2807564735412598,-6.095175266265869
1711422453122890000,8.200889892578125,3.3788204193115234,-0.5328851938247681,-7.0840983390808105
1711422453141851000,8.219850830078125,2.2182254791259766,1.3263859748840332,-3.891767978668213
1711422453160811800,8.238811767578126,3.465595245361328,1.0788284540176392,0.5905811786651611
1711422453179772400,8.2577724609375,2.8580236434936523,-1.3189723491668701,-0.7425875663757324
1711422453198733600,8.276733642578124,-3.4069910049438477,-0.02638399600982666,1.4563010931015015
1711422453217694200,8.295694091796875,-9.395045280456543,2.2173023223876953,0.977301836013794
1711422453236655000,8.314655029296874,-4.527972221374512,3.0820083618164062,-0.35133910179138184
1711422453255616000,8.333615966796875,-3.3896355628967285,3.4896960258483887,-1.02854323387146
1711422453274577000,8.352576904296875,-4.096451282501221,4.0946044921875,-1.5573989152908325
1711422453293537800,8.371537841796876,-5.810896396636963,4.825760841369629,-2.8161208629608154
1711422453312498700,8.390498779296875,-8.283884048461914,5.042247772216797,-1.3431565761566162
1711422453331459300,8.409459228515624,-9.287097930908203,4.3930559158325195,2.676889657974243
1711422453350420200,8.428420166015625,-2.320816993713379,1.201361060142517,6.235587120056152
1711422453369381000,8.447381103515625,-2.518848419189453,-2.366983413696289,9.44118881225586
1711422453388342000,8.466342041015626,0.11657142639160156,-6.297028064727783,6.73991584777832
1711422453407303000,8.485302978515625,-4.817758560180664,-10.20708179473877,5.950359344482422
1711422453426263600,8.504263671875,8.259736061096191,-8.883776664733887,2.20424747467041
1711422453445224700,8.523224609375,12.375527381896973,-0.9193111062049866,0.6959261894226074
1711422453464185300,8.542185302734374,10.25383472442627,2.941420078277588,2.2384514808654785
1711422453483146200,8.561146240234375,6.437260150909424,2.447688102722168,3.8565025329589844
1711422453502107100,8.580107177734375,1.5452547073364258,1.7715035676956177,2.824099063873291
1711422453521068000,8.599068115234376,-1.5090374946594238,2.1354424953460693,1.7866168022155762
1711422453540029000,8.61802880859375,-3.156900405883789,2.426077365875244,0.410459041595459
1711422453558989800,8.63698974609375,-3.4981513023376465,0.32724645733833313,1.0786528587341309
1711422453577950700,8.65595068359375,-2.554119110107422,0.5533123016357422,-1.3996210098266602
1711422453596911400,8.674911376953125,-0.37448692321777344,0.2745150029659271,0.23607206344604492
1711422453615872300,8.693872314453126,2.190985679626465,-0.12986436486244202,0.45331430435180664
1711422453634833200,8.712833251953125,2.8932456970214844,0.6634997725486755,2.363680839538574
1711422453653794000,8.7317939453125,1.743703842163086,0.48374998569488525,3.130276679992676
1711422453672755000,8.7507548828125,1.4166622161865234,-0.21392172574996948,1.3136215209960938
1711422453691715800,8.7697158203125,1.7121400833129883,0.5147689580917358,2.144169807434082
1711422453710676700,8.7886767578125,1.9564447402954102,0.09959551692008972,2.4742448329925537
1711422453729637600,8.8076376953125,-1.0590991973876953,-0.5010937452316284,2.0665526390075684
1711422453748598500,8.8265986328125,-1.0735492706298828,-0.24074363708496094,1.0735015869140625
1711422453767559400,8.845559326171875,-0.11722755432128906,-0.47438013553619385,-0.8110103607177734
1711422453786520300,8.864520263671874,-0.33945369720458984,-1.8300285339355469,-2.534208297729492
1711422453805481200,8.883481201171875,-0.7601070404052734,-2.7633047103881836,-2.8526482582092285
1711422453824442000,8.902442138671875,-4.016547203063965,-1.5515930652618408,-0.9192216992378235
1711422453843403000,8.921403076171876,-3.237057685852051,-0.5160378217697144,-0.7989725470542908
1711422453862363600,8.94036376953125,-2.420809745788574,-0.21768462657928467,-0.9038593769073486
1711422453881324800,8.95932470703125,-1.6237754821777344,-0.7619720697402954,-1.3584864139556885
1711422453900285400,8.978285400390625,0.9150180816650391,-0.9655402898788452,0.1338512897491455
1711422453919246600,8.99724658203125,2.4587697982788086,-1.0557371377944946,1.224151849746704
1711422453938207200,9.016207275390625,0.9476146697998047,-0.3333789110183716,1.079216480255127
1711422453957168000,9.035168212890625,-0.6088752746582031,0.7162197828292847,0.7164389491081238
1711422453976129300,9.05412939453125,-1.6438713073730469,1.0177772045135498,1.2123594284057617
1711422453995090000,9.07308984375,-2.086939811706543,1.4027442932128906,1.8905251026153564
1711422454014051000,9.092051025390624,0.4610891342163086,1.4396001100540161,2.2985832691192627
1711422454033011700,9.11101171875,1.7395744323730469,1.0786724090576172,2.7798709869384766
1711422454051972600,9.12997265625,-0.02455425262451172,-0.3322267234325409,1.9957764148712158
1711422454070933500,9.14893359375,0.6145591735839844,-1.5378975868225098,0.01749948412179947
1711422454089894400,9.167894287109375,0.5660581588745117,-2.102632999420166,-2.162294626235962
1711422454108855600,9.18685546875,0.4148721694946289,-1.4685816764831543,-3.538490056991577
1711422454127816200,9.205816162109375,1.1347713470458984,-0.6300291419029236,-2.7341549396514893
1711422454146777000,9.224777099609375,0.6273736953735352,-0.0660976767539978,-1.108837366104126
1711422454165738200,9.24373828125,2.375307083129883,-0.48038673400878906,-0.8609435558319092
1711422454184699000,9.262698974609375,1.5394515991210938,-1.191208004951477,-0.6257346272468567
1711422454203660000,9.281659912109374,1.9936237335205078,-0.8384124040603638,-0.04347705841064453
1711422454222621000,9.300620849609375,1.5600404739379883,0.059084177017211914,0.7882094383239746
1711422454241581600,9.31958154296875,-0.06651592254638672,0.05058014392852783,1.077329158782959
1711422454260542700,9.338542724609376,-4.107022285461426,-0.44840627908706665,1.5680878162384033
1711422454279503600,9.357503662109375,-3.3099279403686523,0.8364348411560059,-1.4345884323120117
1711422454298464500,9.376464599609376,-2.1098690032958984,2.157899856567383,-4.519710063934326
1711422454317425400,9.39542529296875,-2.92087459564209,1.8923622369766235,-5.15931510925293
1711422454336386300,9.41438623046875,-1.5582876205444336,0.7775317430496216,-4.197088241577148
1711422454355347200,9.43334716796875,-1.0618877410888672,0.8249903917312622,-2.4317240715026855
1711422454374308000,9.45230810546875,-1.3898591995239258,1.072303056716919,0.5800225734710693
1711422454393269000,9.47126904296875,0.05956745147705078,1.4121522903442383,3.2834768295288086
1711422454412230000,9.49022998046875,-0.3682079315185547,1.9144067764282227,3.6149559020996094
1711422454431190800,9.509190673828124,2.127073287963867,1.1695493459701538,4.216281414031982
1711422454450151700,9.528151611328125,2.874260902404785,-2.5312533378601074,2.5772476196289062
1711422454469112600,9.547112548828125,1.2404108047485352,-3.8837103843688965,1.6931854486465454
1711422454488073500,9.566073486328126,0.7871036529541016,-2.794064521789551,1.1668952703475952
1711422454507034600,9.58503466796875,0.5575723648071289,-2.2311339378356934,-0.34035825729370117
1711422454525995500,9.60399560546875,0.3102254867553711,-0.9206337928771973,0.03538405895233154
1711422454544956400,9.622956298828125,0.3151073455810547,0.06163258105516434,0.3692384958267212
1711422454563917300,9.641917236328124,-0.17940330505371094,-1.3902692794799805,-0.462277889251709
1711422454582878200,9.660878173828126,-2.1415224075317383,-0.965753436088562,-0.5656614303588867
1711422454601839000,9.679839111328125,-3.386746406555176,3.9518940448760986,0.16984224319458008
1711422454620800000,9.698800048828126,-2.8938722610473633,3.891014575958252,1.078750491142273
1711422454639761000,9.717760986328125,-3.177107334136963,0.8796480894088745,-1.391254186630249
1711422454658721800,9.7367216796875,-2.318387031555176,6.2498555183410645,2.460042953491211
1711422454677683000,9.755682861328125,-3.290985107421875,2.5472986698150635,-0.1525152623653412
1711422454696643800,9.774643798828125,-1.3050708770751953,0.06600344181060791,-2.132659435272217
1711422454715604700,9.793604736328126,-2.705211639404297,2.5859715938568115,-1.3679174184799194
1711422454734565600,9.812565673828125,-9.222100257873535,8.397977828979492,-0.4246399402618408
1711422454753526500,9.831526611328124,5.977506637573242,1.4008653163909912,-0.3138866424560547
1711422454772487400,9.8504873046875,8.469014167785645,-10.167936325073242,-0.8732016086578369
1711422454791448600,9.869448486328125,8.666730880737305,-13.623163223266602,0.48592090606689453
1711422454810409500,9.888409423828126,2.9801063537597656,-8.274734497070312,3.0515010356903076
1711422454829370400,9.907370361328125,1.2867012023925781,-4.01068115234375,2.568267822265625
1711422454848331300,9.926331298828124,-0.9198741912841797,-2.6124162673950195,1.3826591968536377
1711422454867292200,9.945292236328125,-1.4978561401367188,-1.7658793926239014,0.6432394981384277
1711422454886253000,9.964253173828125,-1.9150214195251465,-0.21155273914337158,0.05073690414428711
1711422454905214000,9.9832138671875,-1.547041416168213,0.30651164054870605,0.11967015266418457
1711422454924174800,10.0021748046875,0.5097885131835938,-0.4708113670349121,0.15949058532714844
1711422454943135700,10.0211357421875,0.5496177673339844,-0.3311591148376465,0.7464051246643066
1711422454962097000,10.040096923828125,1.3094720840454102,-0.6155554056167603,0.2567570209503174
1711422454981057800,10.059057861328125,0.11949443817138672,-0.5543644428253174,0.32218050956726074
1711422455000018700,10.078018798828126,-1.215315818786621,1.3136696815490723,0.3112664222717285
1711422455018979600,10.0969794921875,-1.367793083190918,1.9088850021362305,-0.4672577381134033
1711422455037940500,10.1159404296875,-1.3920602798461914,-0.0536649227142334,-0.6528860330581665
1711422455056901400,10.1349013671875,-0.19544029235839844,-1.3988895416259766,-0.7665755748748779
1711422455075862500,10.153862548828124,-0.3791980743408203,-1.0760438442230225,-0.4041135311126709
1711422455094823400,10.172823486328125,-0.7081241607666016,-0.35323476791381836,0.10867345333099365
1711422455113784300,10.191784423828125,-0.5233221054077148,-0.08470726013183594,0.38232922554016113
1711422455132745200,10.2107451171875,-0.2682151794433594,-0.0377652645111084,-0.05584144592285156
1711422455151706000,10.2297060546875,-0.2704944610595703,-1.471677303314209,3.686647891998291
1711422455170667000,10.2486669921875,0.42507171630859375,-0.21674728393554688,0.9327069520950317
1711422455189628200,10.267628173828125,-0.23267650604248047,-0.6616544723510742,-1.9146000146865845
1711422455208589000,10.286589111328125,0.23571205139160156,-0.43732762336730957,-2.288303852081299
1711422455227550000,10.305550048828126,-0.016425132751464844,-0.15208816528320312,-1.4179909229278564
1711422455246510800,10.3245107421875,0.4620628356933594,-0.16410541534423828,-0.9908517003059387
1711422455265471700,10.3434716796875,-0.10877132415771484,-0.055142879486083984,-0.7931077480316162
1711422455284432600,10.3624326171875,-0.054657936096191406,-0.18649530410766602,-0.10194265842437744
1711422455303393800,10.381393798828125,0.6153154373168945,-0.25208044052124023,-0.4838113784790039
1711422455322354700,10.400354736328126,-0.014623641967773438,0.24869251251220703,-1.2904075384140015
1711422455341315600,10.419315673828125,-1.0374011993408203,0.7967109680175781,-0.6176484227180481
1711422455360276500,10.4382763671875,-0.07678031921386719,1.343015193939209,0.0316849946975708
1711422455379237600,10.457237548828125,0.7014560699462891,0.9310946464538574,-0.4381117820739746
1711422455398198500,10.476198486328125,0.5528240203857422,0.19071435928344727,-0.9711734652519226
1711422455417159400,10.495159423828126,0.35752010345458984,0.1709434986114502,-0.5517146587371826
1711422455436120300,10.514120361328125,0.12923336029052734,0.5005447864532471,0.44743335247039795
1711422455455081200,10.533081298828124,0.08156394958496094,0.36661815643310547,0.9448450803756714
1711422455474042000,10.5520419921875,-0.23417282104492188,-0.46196842193603516,0.4334530830383301
1711422455493003300,10.571003173828124,1.5217876434326172,-1.3924217224121094,-1.2778289318084717
1711422455511964200,10.589964111328126,-0.16095829010009766,-1.5845375061035156,-3.1778531074523926
1711422455530925000,10.608925048828125,-1.6376581192016602,-0.6176626682281494,-1.289198637008667
1711422455549886000,10.627885986328126,-0.8394670486450195,1.6758222579956055,0.5004528760910034
1711422455568846800,10.646846923828125,-0.5221929550170898,1.821648120880127,0.24902558326721191
1711422455587807700,10.665807861328124,-0.826848030090332,0.5871634483337402,-0.837226390838623
1711422455606769000,10.684768798828125,-0.06172943115234375,0.16309309005737305,-2.1624197959899902
1711422455625729800,10.703729736328125,-0.5611543655395508,0.08347368240356445,-2.0011188983917236
1711422455644690700,10.722690673828126,-1.4050283432006836,0.7141218185424805,-2.7747995853424072
1711422455663651600,10.741651611328125,-2.4944467544555664,0.9774079322814941,-3.0652244091033936
1711422455682612500,10.760612548828124,0.08812999725341797,0.7683210372924805,-0.9420866966247559
1711422455701573400,10.779573486328125,0.016527175903320312,0.31121015548706055,-1.3906495571136475
1711422455720534300,10.7985341796875,0.42379283905029297,0.2243185043334961,-0.8084325790405273
1711422455739495400,10.817495361328126,-0.5709648132324219,0.6259195804595947,0.016811370849609375
1711422455758456300,10.836456298828125,-0.33795976638793945,-0.12787532806396484,0.9522285461425781
1711422455777417200,10.855417236328124,-1.534864902496338,0.24029898643493652,-0.4769892692565918
1711422455796378000,10.874378173828125,-2.2936582565307617,-0.5274403095245361,3.6057233810424805
1711422455815339000,10.893339111328125,0.15042495727539062,-0.6136391162872314,1.7945494651794434
1711422455834300000,10.9122998046875,-0.8390626907348633,-0.6986672878265381,-0.30243539810180664
1711422455853261000,10.931260986328125,-0.7487325668334961,-0.06208658218383789,-0.7683501243591309
1711422455872222000,10.950221923828124,-1.365541934967041,0.00735020637512207,-0.8875761032104492
1711422455891182800,10.969182861328125,-1.4913311004638672,0.18422222137451172,-0.668647289276123
1711422455910143700,10.988143798828125,0.17162036895751953,0.33098649978637695,0.5568771362304688
1711422455929104600,11.007104736328126,0.664360761642456,0.9522743225097656,-0.6753320693969727
1711422455948065500,11.0260654296875,-0.19580292701721191,2.314589262008667,-1.8067893981933594
1711422455967026700,11.045026611328124,0.7547049522399902,1.6643531322479248,0.39011669158935547
1711422455985987300,11.0639873046875,0.5779201984405518,-0.32732629776000977,2.48709774017334
1711422456004948500,11.082948486328124,0.31553471088409424,-2.644047737121582,3.3889694213867188
1711422456023909400,11.101909423828126,3.785627841949463,-3.4951953887939453,3.504969596862793
1711422456042870300,11.120870361328125,3.7929186820983887,-2.851735830307007,2.5503692626953125
1711422456061831200,11.1398310546875,3.512939691543579,-2.3837194442749023,3.918275833129883
1711422456080792000,11.1587919921875,4.093556880950928,-1.4288182258605957,3.2385740280151367
1711422456099753000,11.1777529296875,2.0975894927978516,-0.6934432983398438,3.2071895599365234
1711422456118713900,11.1967138671875,1.0951247215270996,-0.8846125602722168,3.4913253784179688
1711422456137675000,11.215675048828125,-0.4335899353027344,-0.7898105382919312,3.0808115005493164
1711422456156636000,11.234635986328126,-4.244845867156982,0.05008411407470703,3.512910842895508
1711422456175596800,11.2535966796875,-4.539764404296875,-0.4849271774291992,1.9182000160217285
1711422456194557700,11.2725576171875,-4.596975326538086,-1.7684636116027832,-0.17900466918945312
1711422456213518600,11.2915185546875,-5.0289764404296875,-1.2327349185943604,-0.8288521766662598
1711422456232479500,11.3104794921875,-5.221348285675049,-0.6167716979980469,-1.085679292678833
1711422456251440600,11.329440673828126,-3.5982022285461426,-1.3512287139892578,-1.5295641422271729
1711422456270401500,11.348401611328125,-2.698945999145508,-1.4622859954833984,-1.3722012042999268
1711422456289362400,11.367362548828124,0.17427730560302734,-1.7725934982299805,-1.811159372329712
1711422456308323300,11.3863232421875,1.6294536590576172,0.02635955810546875,0.6171550750732422
1711422456327284200,11.4052841796875,2.6706290245056152,0.8924651145935059,2.341299295425415
1711422456346245000,11.4242451171875,3.148465156555176,0.7731542587280273,2.0995771884918213
1711422456365206000,11.4432060546875,2.8659300804138184,0.7348308563232422,1.0836658477783203
1711422456384167000,11.4621669921875,0.852271556854248,1.3748202323913574,0.43007850646972656
1711422456403128000,11.481128173828125,-0.5742983818054199,1.3994102478027344,-1.5817666053771973
1711422456422089000,11.5000888671875,-0.8317852020263672,0.6437101364135742,-2.7321629524230957
1711422456441049900,11.5190498046875,-0.822807788848877,0.5909609794616699,-2.037935495376587
1711422456460010800,11.5380107421875,-1.1693973541259766,0.7564010620117188,-2.711275100708008
1711422456478971600,11.5569716796875,-0.5002231597900391,1.287978172302246,-1.561249017715454
1711422456497932500,11.5759326171875,0.794342041015625,1.1848721504211426,-0.7247476577758789
1711422456516893400,11.5948935546875,0.9484772682189941,0.617009162902832,1.6000800132751465
1711422456535854300,11.613854248046875,0.4507441520690918,-0.6880693435668945,2.0524072647094727
1711422456554815200,11.632815185546875,1.1084914207458496,-1.0535845756530762,1.396501064300537
1711422456573776400,11.6517763671875,0.28654956817626953,0.34750986099243164,0.7158231735229492
1711422456592737000,11.670737060546875,-1.0105152130126953,1.3535785675048828,-1.4256477355957031
1711422456611698000,11.689697998046874,-2.5532453060150146,2.461463689804077,-3.215043783187866
1711422456630659000,11.7086591796875,-2.919724464416504,2.7537710666656494,-4.658376693725586
1711422456649620000,11.727619873046875,-1.4380946159362793,-0.5432898998260498,-3.408642292022705
1711422456668580900,11.746580810546876,-0.834402322769165,-1.4237236976623535,-3.2097063064575195
1711422456687541800,11.765541748046875,0.7355320453643799,1.8546292781829834,-3.8218703269958496
1711422456706502700,11.784502685546874,-0.7813113331794739,4.3382768630981445,-6.2032790184021
1711422456725463600,11.803463623046875,-3.936877489089966,2.65859055519104,-3.9224061965942383
1711422456744424400,11.822424560546875,-3.742866277694702,-0.4399600028991699,1.4342927932739258
1711422456763385300,11.84138525390625,-1.781179666519165,-1.7859618663787842,2.443831443786621
1711422456782346200,11.86034619140625,0.6061396598815918,-1.2782487869262695,5.271450996398926
1711422456801307100,11.87930712890625,4.038869380950928,-3.8150570392608643,9.492461204528809
1711422456820268000,11.89826806640625,5.814833164215088,-7.2436676025390625,6.780506134033203
1711422456839229200,11.917229248046874,4.102210521697998,-3.7472004890441895,3.3971033096313477
1711422456858190000,11.936190185546875,1.193217396736145,0.1099708080291748,5.357077598571777
1711422456877151000,11.95515087890625,0.011545121669769287,-1.2779273986816406,6.071596145629883
1711422456896111900,11.97411181640625,0.08657622337341309,-2.751580238342285,3.049118995666504
1711422456915072800,11.99307275390625,-0.2913022041320801,-0.8760025501251221,4.180620193481445
1711422456934033700,12.01203369140625,-1.8027467727661133,0.8398342132568359,4.0543060302734375
1711422456952994600,12.03099462890625,-3.6296169757843018,0.743436336517334,2.035536766052246
1711422456971955500,12.04995556640625,-4.678297519683838,-0.09148454666137695,-0.6815075874328613
1711422456990916400,12.068916259765626,-3.8073978424072266,0.5226893424987793,-2.65023136138916
1711422457009877200,12.087877197265625,-3.7620553970336914,-0.09628820419311523,-2.7851521968841553
1711422457028838100,12.106838134765624,-2.710049629211426,-0.7560939788818359,-3.08514404296875
1711422457047799000,12.125799072265625,-1.9043850898742676,-0.9764618873596191,-2.164522171020508
1711422457066760000,12.144760009765625,-2.1472690105438232,0.07002830505371094,-0.7114219665527344
1711422457085721000,12.16372119140625,-2.9709763526916504,-0.5767383575439453,-2.9993624687194824
1711422457104681700,12.182681640625,-3.771991729736328,0.12504863739013672,-3.3590736389160156
1711422457123642600,12.201642578125,-2.7556581497192383,-0.019156932830810547,-2.577467918395996
1711422457142603800,12.220603759765625,-1.3935317993164062,-0.369204044342041,-1.0197486877441406
1711422457161564400,12.239564453125,1.0046453475952148,-0.5098166465759277,0.4706001281738281
1711422457180525600,12.258525634765626,2.913964033126831,0.5217628479003906,2.1086578369140625
1711422457199486500,12.277486572265625,3.987328290939331,0.958066463470459,2.8312435150146484
1711422457218447000,12.296447021484376,3.510422468185425,0.8724708557128906,3.091733455657959
1711422457237408300,12.315408203125,2.0327091217041016,0.5407586097717285,2.120168685913086
1711422457256369200,12.334369140625,0.7086968421936035,0.23266363143920898,0.7154603004455566
1711422457275330000,12.353330078125,-0.33241748809814453,-0.19268226623535156,-1.0766968727111816
1711422457294291000,12.372291015625,-0.5996289253234863,0.07161712646484375,-0.47315406799316406
1711422457313251800,12.391251953125,-0.7549750804901123,0.41356945037841797,-0.07746744155883789
1711422457332212700,12.410212646484375,-0.70688796043396,0.11752796173095703,-0.8972749710083008
1711422457351173600,12.429173583984374,-0.6283097267150879,-0.09929561614990234,-0.8403100967407227
1711422457370134500,12.448134521484375,0.31142258644104004,-0.5227742195129395,-0.6237092018127441
1711422457389095400,12.467095458984375,0.9836530685424805,-0.509270191192627,-0.2738189697265625
1711422457408056300,12.486056396484376,0.2329413890838623,0.09100198745727539,-0.10247993469238281
1711422457427017200,12.505017333984375,-0.07261013984680176,0.5082216262817383,0.13925457000732422
1711422457445978000,12.52397802734375,0.29377150535583496,-0.2505345344543457,0.16907215118408203
1711422457464939000,12.54293896484375,0.07833075523376465,-0.16563749313354492,0.6093692779541016
1711422457483900000,12.56189990234375,0.9313850402832031,0.22165441513061523,0.24321365356445312
1711422457502860800,12.58086083984375,0.42410945892333984,0.09174013137817383,1.1957530975341797
1711422457521821700,12.59982177734375,0.16037297248840332,-0.33254575729370117,0.0628213882446289
1711422457540782600,12.618782470703126,0.14599061012268066,-0.4488053321838379,0.3155651092529297
1711422457559743500,12.637743408203125,-0.0856027603149414,-0.10426855087280273,0.04977989196777344
1711422457578704400,12.656704345703124,0.5626542568206787,-0.05719566345214844,-0.3114008903503418
1711422457597665300,12.675665283203125,-0.17781376838684082,0.11757659912109375,-0.9211797714233398
1711422457616626200,12.694626220703125,-0.37560367584228516,0.07824373245239258,-0.14942550659179688
1711422457635587000,12.713587158203126,-0.5808840990066528,-0.09180212020874023,-0.22080039978027344
1711422457654548000,12.7325478515625,-0.4134615659713745,-0.20587778091430664,-0.39134836196899414
1711422457673508900,12.7515087890625,-0.6816564798355103,-0.14066171646118164,-0.3020591735839844
1711422457692469800,12.7704697265625,-0.27151989936828613,-0.3068256378173828,-0.7901825904846191
1711422457711430700,12.7894306640625,-0.007890105247497559,-0.36573076248168945,-0.9606151580810547
1711422457730391600,12.8083916015625,0.2614189386367798,-0.18920326232910156,-0.6852874755859375
1711422457749352400,12.8273525390625,0.47172224521636963,0.30533266067504883,-0.3028984069824219
1711422457768313300,12.846313232421876,0.8586603403091431,0.7104482650756836,0.970794677734375
1711422457787274200,12.865274169921875,1.2909315824508667,0.22503995895385742,0.5545549392700195
1711422457806235100,12.884235107421874,1.5345205068588257,-0.1485605239868164,0.030920028686523438
1711422457825196000,12.903196044921875,0.9322109222412109,0.28878259658813477,0.3323020935058594
1711422457844157000,12.922156982421875,0.18687975406646729,0.692018985748291,0.9887895584106445
1711422457863117800,12.941117919921876,0.13956594467163086,0.13268470764160156,0.8017826080322266
1711422457882078700,12.96007861328125,-0.1247628927230835,-0.34713029861450195,0.5502023696899414
1711422457901039600,12.97903955078125,-0.017061352729797363,-0.058580875396728516,0.15684223175048828
1711422457920000500,12.99800048828125,0.5360376834869385,-0.22434663772583008,0.8222522735595703
1711422457938961400,13.01696142578125,0.35466575622558594,0.01127004623413086,0.9935331344604492
1711422457957922300,13.03592236328125,-0.2024632692337036,0.007586002349853516,-0.698939323425293
1711422457976883200,13.05488330078125,0.5037992000579834,-0.5708761215209961,-0.10879850387573242
1711422457995844000,13.073843994140624,1.9139575958251953,-0.10299873352050781,-1.1134448051452637
1711422458014805000,13.092804931640625,5.705981731414795,0.5629997253417969,-1.1250286102294922
1711422458033766000,13.111765869140624,-4.785082817077637,0.7897415161132812,6.573424339294434
1711422458052726800,13.130726806640626,0.4098317623138428,-0.3336019515991211,-2.492537021636963
1711422458071687700,13.149687744140625,-4.166416645050049,-0.6418547630310059,-3.8642585277557373
1711422458090648600,13.168648681640626,-3.5736124515533447,-0.21898269653320312,-4.390859127044678
1711422458109609500,13.187609375,0.4415128231048584,0.16807985305786133,-1.9727802276611328
1711422458128570000,13.206570068359374,0.8788113594055176,0.6277966499328613,-0.08759069442749023
1711422458147531300,13.22553125,0.9663708209991455,0.30539464950561523,1.2235188484191895
1711422458166492000,13.244491943359375,1.160722255706787,0.23668432235717773,2.200382709503174
1711422458185453000,13.263453125,-0.3705925941467285,-0.2813701629638672,0.8732857704162598
1711422458204413700,13.28241357421875,-2.4849390983581543,-0.5121030807495117,-1.0053372383117676
1711422458223374600,13.30137451171875,-2.683370351791382,-0.9122772216796875,-1.9353723526000977
1711422458242335500,13.32033544921875,-1.6830735206604004,-0.7400245666503906,-1.2760729789733887
1711422458261296400,13.33929638671875,-0.552983283996582,-0.3438301086425781,-0.3319559097290039
1711422458280257300,13.35825732421875,0.16323256492614746,-0.14393377304077148,0.40506935119628906
1711422458299218200,13.37721826171875,0.7381365299224854,-0.23026132583618164,0.5924668312072754
1711422458318179000,13.396178955078126,0.9164443016052246,-0.22832584381103516,-0.4107398986816406
1711422458337140000,13.415139892578125,0.13865041732788086,-0.014274120330810547,-1.1014032363891602
1711422458356100900,13.434100830078124,0.1315368413925171,0.4154200553894043,0.23673343658447266
1711422458375061800,13.453061767578125,0.9653458595275879,0.6474361419677734,0.9514245986938477
1711422458394022700,13.472022705078125,1.491809368133545,0.004193782806396484,-0.17453575134277344
1711422458412983600,13.490983642578126,1.4169121980667114,-0.4955558776855469,-0.5030546188354492
1711422458431944400,13.5099443359375,1.0697708129882812,-0.43927526473999023,0.11683273315429688
1711422458450905300,13.5289052734375,-1.6244710683822632,2.52963924407959,-4.936211109161377
1711422458469866200,13.5478662109375,0.9113302230834961,-0.586026668548584,-0.2565908432006836
1711422458488827000,13.566826904296875,0.9853689670562744,-1.4042859077453613,3.207350730895996
1711422458507788000,13.5857880859375,1.6816139221191406,0.5876145362854004,1.1996269226074219
1711422458526748700,13.604748779296875,0.16512763500213623,0.9033594131469727,2.1858606338500977
1711422458545709800,13.623709716796874,-0.7860643863677979,0.010393619537353516,0.11208534240722656
1711422458564670500,13.64267041015625,-1.0548946857452393,-0.31998586654663086,-3.1283364295959473
1711422458583631400,13.66163134765625,-2.355891466140747,0.41738414764404297,-3.0886497497558594
1711422458602592300,13.68059228515625,-2.053468942642212,0.961573600769043,-0.7540950775146484
1711422458621553200,13.69955322265625,0.4809558391571045,0.4132108688354492,0.011178970336914062
1711422458640514000,13.71851416015625,1.3613476753234863,0.561121940612793,1.361445426940918
1711422458659475000,13.737474853515625,1.7827966213226318,0.6241555213928223,2.606947898864746
1711422458678435800,13.756435791015624,2.039574384689331,0.014758586883544922,2.3364086151123047
1711422458697396700,13.775396728515625,1.5969657897949219,-1.1932032108306885,1.1065387725830078
1711422458716357600,13.794357666015625,1.1429153680801392,-1.1187224388122559,1.3432855606079102
1711422458735318500,13.813318603515626,1.4756420850753784,-0.29752588272094727,1.4510564804077148
1711422458754279200,13.832279052734375,0.6166805028915405,0.11123275756835938,1.0505199432373047
1711422458773240300,13.851240234375,-0.5648848414421082,-0.10051345825195312,-0.7298455238342285
1711422458792201000,13.870200927734375,-1.3364388942718506,-0.9090533256530762,-2.6033620834350586
1711422458811162000,13.889162109375,-0.8286542296409607,-0.3940606117248535,-0.9970269203186035
1711422458830122800,13.908122802734376,1.1119476556777954,-0.05901813507080078,1.9817724227905273
1711422458849083600,13.927083740234375,2.2119975090026855,-0.4701080322265625,2.9781064987182617
1711422458868044500,13.94604443359375,1.7361770868301392,-0.5087618827819824,0.9063491821289062
1711422458887005400,13.96500537109375,-0.13367557525634766,-0.06620407104492188,-3.3171181678771973
1711422458905966300,13.98396630859375,-0.4547819495201111,0.7227649688720703,-1.196044921875
1711422458924927200,14.00292724609375,-0.7715890407562256,1.8048276901245117,-0.9068360328674316
1711422458943888100,14.02188818359375,0.42371881008148193,0.20394611358642578,-0.03831005096435547
1711422458962849000,14.04084912109375,0.5287599563598633,-0.9094448089599609,-0.7381844520568848
1711422458981810000,14.059809814453125,-0.46033596992492676,-0.16681146621704102,-0.9962882995605469
1711422459000770800,14.078770751953124,-1.0517842769622803,0.9387807846069336,0.30323076248168945
1711422459019731700,14.097731689453125,-0.9805595874786377,0.7622947692871094,0.2976722717285156
1711422459038692400,14.1166923828125,-0.6895256042480469,0.01531362533569336,0.16189098358154297
1711422459057653200,14.1356533203125,0.38016581535339355,-0.45699501037597656,0.8829188346862793
1711422459076614100,14.1546142578125,0.9460086822509766,-0.13799571990966797,1.5186586380004883
1711422459095575000,14.173574951171876,0.6100091934204102,-0.11611366271972656,0.45206546783447266
1711422459114536000,14.192535888671875,-0.41942858695983887,-0.10384273529052734,-0.4025306701660156
1711422459133496800,14.211496826171874,-0.7180335521697998,-0.04013967514038086,-0.6963167190551758
1711422459152457700,14.230457763671875,-1.0527386665344238,0.17731666564941406,-0.5574727058410645
1711422459171418600,14.249418701171875,-0.9192190170288086,-0.1652970314025879,0.40305185317993164
1711422459190379500,14.268379638671876,-0.23915362358093262,0.013048648834228516,-0.07636451721191406
1711422459209340400,14.28734033203125,0.17029523849487305,-0.2703886032104492,0.1865839958190918
1711422459228301000,14.306301025390624,0.5669677257537842,-0.365450382232666,1.0569367408752441
1711422459247262000,14.325261962890625,0.08654356002807617,-0.3234720230102539,0.5270700454711914
1711422459266222800,14.344222900390625,0.38770556449890137,-0.572883129119873,0.14753484725952148
1711422459285183700,14.363183837890626,-0.3108944892883301,-0.378756046295166,-0.22246170043945312
1711422459304144600,14.38214453125,-0.3578038215637207,-0.1676807403564453,0.337155818939209
1711422459323105500,14.40110546875,0.2543973922729492,-0.15668201446533203,0.168121337890625
1711422459342066400,14.42006640625,-0.12108993530273438,-0.3463582992553711,-0.10739898681640625
1711422459361027300,14.43902734375,-1.101961374282837,-0.3830699920654297,-1.5848331451416016
1711422459379988000,14.457988037109375,-1.5349726676940918,-0.15403318405151367,-1.7968549728393555
1711422459398948900,14.476948974609375,-1.4943976402282715,0.0006017684936523438,-1.4440813064575195
1711422459417909800,14.49590966796875,-1.466628074645996,-0.1347808837890625,-1.4830818176269531
1711422459436870700,14.51487060546875,-1.2754566669464111,-0.12068843841552734,-1.4009599685668945
1711422459455831600,14.53383154296875,-0.8851988315582275,-0.24677038192749023,-1.235701084136963
1711422459474792400,14.55279248046875,-0.0844881534576416,-0.39469051361083984,-0.034173011779785156
1711422459493753300,14.57175341796875,0.7474610805511475,-0.3723616600036621,0.6953468322753906
1711422459512714200,14.59071435546875,0.5968677997589111,-0.24358129501342773,0.7947816848754883
1711422459531675100,14.609675048828125,0.11438703536987305,-0.16564035415649414,0.6829128265380859
1711422459550635800,14.6286357421875,-0.10628676414489746,0.012457847595214844,0.48429012298583984
1711422459569596700,14.6475966796875,0.0647282600402832,0.15502548217773438,0.3988971710205078
1711422459588557600,14.6665576171875,0.340456485748291,0.006581306457519531,0.1760573387145996
1711422459607518500,14.6855185546875,0.5026650428771973,-0.023179054260253906,-0.19880104064941406
1711422459626479400,14.704479248046875,0.766364336013794,0.3240513801574707,0.29504823684692383
1711422459645440300,14.723440185546876,0.5555012226104736,0.43620967864990234,0.6692919731140137
1711422459664401200,14.742401123046875,0.18420469760894775,0.29528141021728516,0.5221376419067383
1711422459683361800,14.76136181640625,0.30049943923950195,0.22955560684204102,0.2848238945007324
1711422459702322700,14.78032275390625,0.10338437557220459,0.24257135391235352,0.33073949813842773
1711422459721283600,14.79928369140625,-0.09462511539459229,0.37885189056396484,0.32268238067626953
1711422459740244500,14.818244384765626,0.388299822807312,0.32215118408203125,0.32611942291259766
1711422459759205400,14.837205322265625,0.5741367340087891,-0.18625116348266602,0.33512210845947266
1711422459778166300,14.856166259765626,0.8545541763305664,-0.4522857666015625,1.2080068588256836
1711422459797127000,14.875126953125,0.48682379722595215,-0.1876978874206543,0.18258380889892578
1711422459816088000,14.894088134765624,-0.5121626853942871,0.2137470245361328,-0.9576692581176758
1711422459835048700,14.913048583984375,-0.9419625997543335,0.13447093963623047,-1.5079669952392578
1711422459854009600,14.932009521484375,-0.5122559666633606,-0.26992082595825195,-1.1012563705444336
1711422459872970500,14.950970458984376,0.2664557695388794,-0.3014101982116699,-0.44769859313964844
1711422459891931400,14.969931396484375,0.47254884243011475,-0.10937643051147461,-0.1029362678527832
1711422459910892300,14.988892333984374,0.10953706502914429,-0.028770923614501953,-0.5290622711181641
1711422459929853000,15.00785302734375,0.07852983474731445,-0.04922962188720703,-0.860692024230957
1711422459948813800,15.026813720703124,0.0398176908493042,-0.2766551971435547,-0.7192859649658203
1711422459967774700,15.045774658203126,-0.09831646084785461,-0.22435998916625977,-0.47469377517700195
1711422459986735600,15.064735595703125,-0.16399993002414703,0.21506309509277344,-0.5307431221008301
1711422460005696500,15.083696533203126,-0.02521008439362049,0.40331411361694336,-0.11596155166625977
1711422460024657400,15.102657470703125,-0.13513252139091492,0.3235182762145996,0.3258204460144043
1711422460043618000,15.1216181640625,-0.19944816827774048,0.017561912536621094,-0.14625930786132812
1711422460062579000,15.140578857421875,0.20400993525981903,0.014711856842041016,-0.09194803237915039
1711422460081539800,15.159539794921875,0.1879488229751587,0.01857614517211914,0.283660888671875
1711422460100500700,15.178500732421876,0.32814475893974304,-0.17651081085205078,0.5749831199645996
1711422460119461600,15.197461669921875,0.8405967950820923,-0.13000202178955078,1.5442452430725098
1711422460138422500,15.216422607421874,0.6019380688667297,-0.3175048828125,1.8915553092956543
1711422460157383200,15.235383056640625,0.703388512134552,-0.3589329719543457,1.7253222465515137
1711422460176344000,15.254343994140624,0.13804632425308228,-0.0717167854309082,1.0319175720214844
1711422460195305000,15.273304931640626,-0.33720195293426514,0.1673269271850586,0.23566102981567383
1711422460214265900,15.292265869140625,-0.8649616241455078,0.1643977165222168,-0.34371471405029297
1711422460233226800,15.311226806640626,-0.10720217227935791,-0.24414300918579102,-0.3346247673034668
1711422460252187600,15.330187744140625,0.12998846173286438,-0.22162199020385742,-0.052019596099853516
1711422460271148300,15.349148193359374,0.15818119049072266,0.08283758163452148,0.38866472244262695
1711422460290109200,15.368109130859375,-0.06017303466796875,-0.038819313049316406,0.33440542221069336
1711422460309070000,15.387070068359375,-0.26797759532928467,-0.28767967224121094,0.2763400077819824
1711422460328031000,15.406031005859376,-0.513518750667572,-0.309445858001709,0.08843326568603516
1711422460346991900,15.424991943359375,-0.5425646901130676,-0.2736473083496094,0.18961715698242188
1711422460365952500,15.443952392578124,-0.5147257447242737,-0.43654441833496094,0.10234451293945312
1711422460384913400,15.462913330078125,-0.469906747341156,-0.3320808410644531,0.20996761322021484
1711422460403874300,15.481874267578124,-0.0671657919883728,-0.12806987762451172,0.41236209869384766
1711422460422835200,15.500835205078126,0.706654965877533,-0.06944990158081055,0.8089694976806641
1711422460441795800,15.5197958984375,1.4191049337387085,-0.16190147399902344,1.8838777542114258
1711422460460757000,15.538757080078126,1.3068363666534424,-0.3569622039794922,2.4326729774475098
1711422460479717600,15.557717529296875,0.7935601472854614,-0.19604158401489258,1.7636828422546387
1711422460498678500,15.576678466796874,0.7097586393356323,-0.5292873382568359,1.0732145309448242
1711422460517639400,15.595639404296875,-0.8045008182525635,-0.2617669105529785,1.172330379486084
1711422460536600300,15.614600341796875,-1.50966215133667,0.1397390365600586,0.5782651901245117
1711422460555561000,15.63356103515625,-1.892333745956421,0.031882286071777344,-0.5780482292175293
1711422460574521900,15.65252197265625,-2.193537950515747,-0.44625377655029297,-2.049405574798584
1711422460593482800,15.671482666015624,-2.057507276535034,-0.5126705169677734,-3.1853952407836914
1711422460612443600,15.690443603515625,-1.8916682004928589,-0.16034889221191406,-3.5722310543060303
1711422460631404300,15.709404296875,-1.9642030000686646,-0.03954601287841797,-3.05452299118042
1711422460650365400,15.728365478515625,-1.6792385578155518,0.11945343017578125,-2.278425693511963
1711422460669326000,15.747326171875,-1.3630468845367432,0.059029579162597656,-1.492258071899414
1711422460688287000,15.766286865234376,-0.7915762662887573,0.16263198852539062,-0.8861825466156006
1711422460707247900,15.785247802734375,0.7367367744445801,0.20116329193115234,-0.11695671081542969
1711422460726208800,15.804208740234374,2.189922332763672,0.19887161254882812,1.16265869140625
1711422460745169400,15.82316943359375,2.0679850578308105,-0.5990018844604492,2.5921106338500977
1711422460764130300,15.84213037109375,1.3637715578079224,-0.9866752624511719,3.0678625106811523
1711422460783091200,15.86109130859375,0.6652862429618835,-0.6374950408935547,3.0771844387054443
1711422460802052000,15.880052001953125,-0.21321189403533936,0.1502981185913086,2.9657208919525146
1711422460821012700,15.8990126953125,-0.6756095886230469,0.28673458099365234,2.4637603759765625
1711422460839973600,15.9179736328125,-0.5834179520606995,0.07306671142578125,1.561527967453003
1711422460858934500,15.9369345703125,-0.5018331408500671,0.14267730712890625,0.18493914604187012
1711422460877895400,15.9558955078125,-0.20535552501678467,0.33255958557128906,-0.9798588752746582
1711422460896856300,15.974856201171875,-0.2083044946193695,0.32811737060546875,-1.64878511428833
1711422460915817200,15.993817138671876,-0.32526451349258423,0.2308034896850586,-1.9393880367279053
1711422460934777900,16.01277783203125,-0.08435654640197754,0.2568550109863281,-1.937736988067627
1711422460953738800,16.03173876953125,-0.20000237226486206,0.39983367919921875,-1.5413635969161987
1711422460972699600,16.05069970703125,-0.5492321252822876,0.35483455657958984,-1.2095947265625
1711422460991660500,16.06966064453125,-0.3825419843196869,0.22370624542236328,-0.8805596828460693
1711422461010621200,16.08862109375,0.3954010605812073,0.16392898559570312,-0.5606582164764404
1711422461029582000,16.10758203125,-0.22948351502418518,0.46436119079589844,0.3384876251220703
1711422461048543000,16.12654296875,-0.39508503675460815,0.3159828186035156,-0.033484697341918945
1711422461067503900,16.14550390625,0.3152178227901459,-0.3032054901123047,-0.36609435081481934
1711422461086464500,16.164464599609374,0.4139235019683838,-0.3719158172607422,-0.23514819145202637
1711422461105425400,16.18342529296875,0.261696994304657,-0.048152923583984375,-0.2667257785797119
1711422461124386300,16.20238623046875,-0.0471058189868927,0.29097557067871094,-0.4655892848968506
1711422461143347200,16.22134716796875,-0.3105711042881012,0.3433666229248047,-0.7102417945861816
1711422461162307800,16.240307861328127,-0.12748867273330688,0.19948863983154297,-0.6549134254455566
1711422461181269000,16.25926904296875,0.03813791275024414,0.1223602294921875,-0.37366557121276855
1711422461200229600,16.278229736328125,0.16754692792892456,0.17023849487304688,-0.12296414375305176
1711422461219190500,16.2971904296875,-0.18691018223762512,0.2511615753173828,0.23810482025146484
1711422461238151400,16.3161513671875,-0.3075334429740906,0.11368942260742188,0.17354249954223633
1711422461257112300,16.3351123046875,-0.13200268149375916,-0.2481222152709961,-0.012846231460571289
1711422461276073000,16.354072998046874,-0.12810343503952026,-0.5524711608886719,-0.13389968872070312
1711422461295033900,16.373033935546875,-0.4390799105167389,-0.39626121520996094,0.12777471542358398
1711422461313994800,16.391994873046876,-0.2811564803123474,-0.1818218231201172,0.33141279220581055
1711422461332955600,16.41095556640625,-0.10969704389572144,-0.28169727325439453,0.4504694938659668
1711422461351916500,16.42991650390625,0.011054158210754395,-0.43772315979003906,0.4515700340270996
1711422461370877400,16.44887744140625,-0.051392197608947754,-0.37917327880859375,0.3085975646972656
1711422461389838000,16.467838134765625,-0.15675508975982666,-0.30823612213134766,0.28855037689208984
1711422461408799000,16.486799072265626,-0.08748120069503784,-0.4042501449584961,0.2654409408569336
1711422461427759900,16.505759765625,0.025581657886505127,-0.36957836151123047,0.19940948486328125
1711422461446720800,16.524720703125,0.02544867992401123,-0.2671394348144531,-0.03906965255737305
1711422461465681400,16.543681396484374,-0.06847995519638062,-0.04316997528076172,-0.0763394832611084
1711422461484642300,16.562642333984375,-0.10260045528411865,0.19581317901611328,-0.059943199157714844
1711422461503603200,16.581603271484376,0.1180846095085144,0.3561582565307617,0.04417538642883301
1711422461522564000,16.600564208984373,0.2733882665634155,0.3668489456176758,-0.11202883720397949
1711422461541525000,16.61952490234375,0.38921624422073364,0.2167949676513672,-0.370630145072937
1711422461560485600,16.638485595703123,0.5353760719299316,0.02096080780029297,-0.6395282745361328
1711422461579446500,16.657446533203125,0.27275800704956055,0.1238565444946289,-0.9555827379226685
1711422461598407400,16.676407470703126,-0.021123647689819336,0.2732419967651367,-1.211423397064209
1711422461617368300,16.695368408203127,0.012334942817687988,0.12391185760498047,-1.2607001066207886
1711422461636329200,16.7143291015625,0.2541567087173462,-0.024985313415527344,-1.0762327909469604
1711422461655290000,16.7332900390625,0.2843611240386963,0.09418201446533203,-0.7389845848083496
1711422461674251000,16.7522509765625,0.2021949291229248,0.2782745361328125,-0.5641223192214966
1711422461693212000,16.7712119140625,0.3290799856185913,0.25580596923828125,-0.5540742874145508
1711422461712172500,16.790172607421876,0.4134816527366638,0.03446197509765625,-0.49430274963378906
1711422461731133400,16.809133544921874,0.23807293176651,0.07908248901367188,-0.44010424613952637
1711422461750094300,16.82809423828125,0.042909860610961914,0.19143390655517578,-0.5238044261932373
1711422461769055200,16.84705517578125,0.0901290774345398,0.1327342987060547,-0.7891454696655273
1711422461788016000,16.86601611328125,0.09818750619888306,0.0950479507446289,-0.8986493349075317
1711422461806977000,16.88497705078125,0.0733252763748169,0.09588623046875,-0.7699465751647949
1711422461825938000,16.90393798828125,0.14763551950454712,0.15668392181396484,-0.7145440578460693
1711422461844898600,16.922898681640625,0.08121711015701294,0.12902164459228516,-0.556929349899292
1711422461863859500,16.941859375,0.22471410036087036,0.12454509735107422,-0.16526460647583008
1711422461882820400,16.9608203125,0.47701209783554077,0.1284351348876953,0.18676018714904785
1711422461901781200,16.97978125,0.45190519094467163,0.17777061462402344,0.29496288299560547
1711422461920742100,16.9987421875,0.24055910110473633,0.2775087356567383,0.323169469833374
1711422461939703000,17.017703125,0.06549602746963501,0.15674686431884766,0.14391469955444336
1711422461958664000,17.036663818359376,0.03324007987976074,-0.1731128692626953,-0.02440810203552246
1711422461977624800,17.055624755859377,-0.04120743274688721,-0.3497657775878906,-0.04243135452270508
1711422461996585500,17.07458544921875,-0.15413004159927368,-0.19054412841796875,0.12207436561584473
1711422462015546400,17.09354638671875,-0.25025439262390137,-0.0768899917602539,0.252286434173584
1711422462034507300,17.11250732421875,-0.25702083110809326,-0.09710311889648438,0.346663236618042
1711422462053468200,17.13146826171875,-0.1369936466217041,-0.22637557983398438,0.31212949752807617
1711422462072429000,17.150428955078127,-0.18786680698394775,-0.23937606811523438,0.21816778182983398
1711422462091390000,17.169389892578124,-0.1948002576828003,-0.17210674285888672,0.1951456069946289
1711422462110350800,17.188350830078125,-0.1472233533859253,-0.16986942291259766,0.14534330368041992
1711422462129311700,17.207311767578126,-0.26368093490600586,-0.14357757568359375,0.153578519821167
1711422462148272600,17.226272705078124,-0.3236364722251892,-0.06523323059082031,0.10938024520874023
1711422462167233500,17.245233642578125,-0.20495080947875977,-0.13284873962402344,0.03597569465637207
1711422462186194200,17.264194091796874,-0.08491861820220947,-0.12874507904052734,-0.014774084091186523
1711422462205155300,17.2831552734375,-0.1156543493270874,-0.08186531066894531,0.0004761219024658203
1711422462224116000,17.302115966796876,-0.12213736772537231,-0.014342308044433594,0.02031850814819336
1711422462243077000,17.3210771484375,-0.08534008264541626,0.03281402587890625,-0.026914596557617188
1711422462262037800,17.340037841796875,-0.0569111704826355,0.09797286987304688,-0.07274293899536133
1711422462280998700,17.35899853515625,-0.04201936721801758,0.09576797485351562,-0.13445544242858887
1711422462299959600,17.37795947265625,-0.04998093843460083,0.1323099136352539,-0.04675889015197754
1711422462318920400,17.39692041015625,-0.019674360752105713,0.0716094970703125,-0.08741569519042969
1711422462337881300,17.41588134765625,0.06936639547348022,-0.0745248794555664,-0.20343399047851562
1711422462356842200,17.43484228515625,0.0824819803237915,-0.0018978118896484375,-0.1998753547668457
1711422462375803100,17.45380322265625,0.0281982421875,0.06599712371826172,-0.14747953414916992
1711422462394764000,17.472763916015627,-0.08933365345001221,0.21942424774169922,-0.054602861404418945
1711422462413725000,17.491724853515624,-0.13155680894851685,0.26142215728759766,0.05063223838806152
1711422462432685800,17.510685791015625,0.11433988809585571,-0.1310749053955078,0.04851961135864258
1711422462451646700,17.529646728515626,0.21461546421051025,-0.3339223861694336,-0.04684805870056152
1711422462470607600,17.548607666015624,-0.02953559160232544,-0.04679393768310547,0.022036075592041016
1711422462489568500,17.567568603515625,-0.17879998683929443,0.0707540512084961,0.02150106430053711
1711422462508529400,17.586529296875,-0.08164757490158081,-0.10421276092529297,0.013956308364868164
1711422462527490300,17.605490234375,-0.0019573569297790527,-0.18414592742919922,0.09174919128417969
1711422462546451200,17.624451171875,0.004950344562530518,-0.047210693359375,0.14668703079223633
1711422462565412000,17.643412109375,-0.00896608829498291,-0.009867668151855469,0.07461857795715332
1711422462584373000,17.662373046875,0.03067612648010254,0.017429351806640625,-0.023682832717895508
1711422462603334000,17.681333984375,0.06821095943450928,-0.012892723083496094,-0.08641958236694336
1711422462622294800,17.700294677734377,-0.022042453289031982,0.06737804412841797,-0.08446741104125977
1711422462641255400,17.71925537109375,-0.05297607183456421,0.14026355743408203,-0.029165029525756836
1711422462660216600,17.738216552734375,0.006512820720672607,0.15088844299316406,0.013690948486328125
1711422462679177200,17.75717724609375,0.09216022491455078,0.062432289123535156,-0.04758453369140625
1711422462698138400,17.776138427734374,-0.05483168363571167,0.04825115203857422,-0.1096649169921875
1711422462717099000,17.79509912109375,-0.09533154964447021,0.014148712158203125,-0.08803033828735352
1711422462736060000,17.814059814453124,-0.08207970857620239,-0.006115913391113281,-0.09302353858947754
1711422462755020800,17.833020751953125,-0.04712897539138794,-0.06539154052734375,-0.1732933521270752
1711422462773981700,17.851981689453126,-0.09984451532363892,-0.13976287841796875,-0.31314051151275635
1711422462792942800,17.87094287109375,-0.11551082134246826,-0.04429912567138672,-0.3072371482849121
1711422462811903500,17.889903564453125,-0.05794119834899902,-0.06306838989257812,-0.20084381103515625
1711422462830864400,17.908864501953126,0.09416532516479492,-0.15290260314941406,-0.11780381202697754
1711422462849825300,17.9278251953125,0.16528689861297607,-0.10311222076416016,-0.11385464668273926
1711422462868786200,17.9467861328125,0.16267985105514526,-0.0285491943359375,-0.052031517028808594
1711422462887747000,17.9657470703125,0.20679974555969238,-0.015344619750976562,-0.046716928482055664
1711422462906708000,17.9847080078125,0.2109087109565735,-0.10320281982421875,-0.07699251174926758
1711422462925668900,18.0036689453125,0.19287770986557007,-0.1570568084716797,-0.07253479957580566
1711422462944629800,18.022629638671877,0.2314150333404541,-0.12975406646728516,-0.03873443603515625
1711422462963590700,18.041590576171874,0.23458224534988403,-0.06137561798095703,0.09261512756347656
1711422462982551600,18.060551513671875,0.24651777744293213,-0.050388336181640625,0.0638282299041748
1711422463001512400,18.079512451171876,0.09321379661560059,0.03686046600341797,0.01647353172302246
1711422463020473300,18.098473388671874,0.07917612791061401,0.07249259948730469,0.03837728500366211
1711422463039434200,18.117434326171875,0.21282315254211426,-0.08121776580810547,0.03467130661010742
1711422463058395100,18.13639501953125,0.2055668830871582,-0.21799373626708984,0.0290377140045166
1711422463077356000,18.15535595703125,0.253251314163208,-0.150909423828125,0.039606332778930664
1711422463096317000,18.17431689453125,0.17256492376327515,-0.11417675018310547,-0.06638407707214355
1711422463115277800,18.19327783203125,0.25466281175613403,0.011104583740234375,-0.14476299285888672
1711422463134238700,18.21223876953125,0.36034226417541504,0.05247020721435547,-0.15124940872192383
1711422463153199600,18.23119970703125,0.5177756547927856,0.1570596694946289,-0.23897552490234375
1711422463172160500,18.250160400390627,0.7205401062965393,0.48494434356689453,-0.44335126876831055
1711422463191121400,18.269121337890624,0.3735980987548828,1.1279296875,-0.46142077445983887
1711422463210082300,18.288082275390625,-0.28073614835739136,1.5120525360107422,-0.5215344429016113
1711422463229043200,18.307043212890626,-0.3406526446342468,1.0374822616577148,-0.5287268161773682
1711422463248004000,18.326004150390624,0.07353192567825317,0.01959705352783203,-0.122406005859375
1711422463266965000,18.344965087890625,0.340090811252594,-0.6065673828125,0.33916258811950684
1711422463285926000,18.36392578125,-0.15650570392608643,-0.6728858947753906,0.5470371246337891
1711422463304886800,18.38288671875,-0.8288661241531372,-0.23361682891845703,0.6927580833435059
1711422463323847700,18.40184765625,-0.984337329864502,0.0390625,0.617788553237915
1711422463342808600,18.42080859375,-0.9708175659179688,-0.030180931091308594,0.3487236499786377
1711422463361769500,18.43976953125,-0.7588399648666382,-0.1287984848022461,0.16685175895690918
1711422463380730400,18.45873046875,-0.5813060998916626,-0.13271713256835938,-0.23158907890319824
1711422463399691300,18.477691162109377,-0.5489435195922852,-0.052722930908203125,-0.5462266206741333
1711422463418652200,18.496652099609374,-0.2385118305683136,0.013733863830566406,-0.5926530361175537
1711422463437613000,18.515613037109375,0.17763972282409668,-0.24947452545166016,-0.6063923835754395
1711422463456574000,18.534573974609376,0.6191361546516418,-0.4343547821044922,-0.49019432067871094
1711422463475534800,18.553534912109374,0.6232234239578247,-0.23460865020751953,-0.4672582149505615
1711422463494495700,18.572495849609375,0.23743003606796265,0.22353553771972656,-0.4555990695953369
1711422463513456600,18.59145654296875,0.15302704274654388,0.19362449645996094,-0.36263489723205566
1711422463532417500,18.61041748046875,0.5274065732955933,-0.27409839630126953,-0.7182824611663818
1711422463551378400,18.62937841796875,0.1081199124455452,-0.48388004302978516,-0.3768930435180664
1711422463570339000,18.648339111328124,0.2539770305156708,-0.03130912780761719,0.813575029373169
1711422463589300200,18.66730029296875,-0.12061641365289688,0.21685314178466797,0.3036797046661377
1711422463608260900,18.6862607421875,-1.025741696357727,0.23756980895996094,0.00736689567565918
1711422463627222000,18.705221923828127,-0.8939810991287231,-0.6429853439331055,-0.9090383052825928
1711422463646182700,18.7241826171875,-1.251358985900879,-0.9043340682983398,-0.929589033126831
1711422463665143600,18.7431435546875,-0.9527243375778198,-0.4820995330810547,-0.10153579711914062
1711422463684104400,18.7621044921875,-0.4814562201499939,-0.04954051971435547,0.8912789821624756
1711422463703065300,18.7810654296875,-0.1933082789182663,-0.04960918426513672,1.4756219387054443
1711422463722026500,18.800026611328125,-0.10661453753709793,-0.043170928955078125,1.2637028694152832
1711422463740987100,18.818987060546874,-0.23167897760868073,0.08249282836914062,0.7299401760101318
1711422463759948000,18.837947998046875,-0.37789231538772583,0.11783981323242188,0.18094897270202637
1711422463778909000,18.856908935546876,-0.1885325312614441,0.1623697280883789,-0.017232418060302734
1711422463797869800,18.875869873046874,-0.21466173231601715,0.23343753814697266,0.006353855133056641
1711422463816830700,18.894830810546875,-0.055192090570926666,-0.062109947204589844,-0.017307043075561523
1711422463835791600,18.91379150390625,-0.12017811089754105,-0.09914684295654297,0.10500812530517578
1711422463854752500,18.93275244140625,-0.15912197530269623,-0.18311786651611328,0.4423222541809082
1711422463873713400,18.95171337890625,0.015483774244785309,-0.011607170104980469,0.4721827507019043
1711422463892674300,18.97067431640625,-0.1242489144206047,-0.04539012908935547,0.42134547233581543
1711422463911635200,18.98963525390625,-0.32234615087509155,-0.2563657760620117,0.027174711227416992
1711422463930596000,19.00859619140625,-0.2898252010345459,-0.2951517105102539,-0.5012390613555908
1711422463949557000,19.027556884765627,-0.1400638222694397,0.22909164428710938,-0.4218294620513916
1711422463968518000,19.046517822265624,-0.22266244888305664,-0.11873054504394531,-0.41550540924072266
1711422463987478800,19.065478759765625,0.09330350905656815,0.15955638885498047,-0.2372753620147705
1711422464006439700,19.084439697265626,0.2056872546672821,0.1467905044555664,-0.1768789291381836
1711422464025400300,19.103400390625,-0.19869109988212585,0.04024219512939453,-0.4137864112854004
1711422464044361500,19.122361572265625,-0.46876925230026245,0.12085342407226562,-0.6737692356109619
1711422464063322000,19.141322021484374,-0.4661836624145508,-0.09165000915527344,-0.5448722839355469
1711422464082283300,19.160283203125,-0.5905998945236206,-0.3567371368408203,-0.19779372215270996
1711422464101244000,19.179243896484376,-0.5615459680557251,-0.32583045959472656,0.5424425601959229
1711422464120204800,19.198204833984374,0.24562324583530426,-0.45017528533935547,1.1707866191864014
1711422464139165700,19.217165771484375,0.2093372941017151,-0.33645057678222656,1.4097611904144287
1711422464158126600,19.236126708984376,-0.23492808640003204,0.016611099243164062,0.5416841506958008
1711422464177087500,19.25508740234375,-0.06364715099334717,0.14678478240966797,-0.29923319816589355
1711422464196048400,19.27404833984375,0.049159303307533264,-0.10963630676269531,-0.4906272888183594
1711422464215009300,19.29300927734375,0.2187999039888382,0.1226797103881836,-0.21694350242614746
1711422464233970200,19.31197021484375,0.4999472498893738,0.12909221649169922,0.05947542190551758
1711422464252931000,19.33093115234375,0.3126943111419678,0.04964447021484375,0.2183361053466797
1711422464271892000,19.34989208984375,-0.1289084255695343,0.021184921264648438,0.004403591156005859
1711422464290852900,19.368852783203124,-0.43546199798583984,0.008953094482421875,-0.5578055381774902
1711422464309813800,19.387813720703125,-0.26490092277526855,-0.1808462142944336,-0.41733765602111816
1711422464328774700,19.406774658203126,0.1640111356973648,-0.3120918273925781,0.022934436798095703
1711422464347735600,19.425735595703124,0.030976831912994385,-0.09195423126220703,0.4626798629760742
1711422464366696400,19.444696533203125,0.1434728503227234,-0.12889480590820312,0.7763254642486572
1711422464385657000,19.463656982421874,0.382834792137146,-0.29620838165283203,1.017909288406372
1711422464404618000,19.482617919921875,0.3359178602695465,-0.2266063690185547,1.041773796081543
1711422464423579000,19.501578857421876,-0.31052854657173157,-0.08398246765136719,0.35309410095214844
1711422464442539800,19.520539794921874,-0.45530322194099426,0.10085201263427734,-0.5948340892791748
1711422464461500700,19.539500732421875,-0.38108259439468384,-0.05986976623535156,-0.6721301078796387
1711422464480461600,19.558461669921876,-0.14969708025455475,-0.09742450714111328,-0.24671411514282227
1711422464499422500,19.57742236328125,-0.6313217282295227,0.038360595703125,-0.2988576889038086
1711422464518383400,19.59638330078125,-0.7913713455200195,0.03066730499267578,-0.6563518047332764
1711422464537344300,19.61534423828125,-1.0785408020019531,0.1382465362548828,-0.8281881809234619
1711422464556305200,19.63430517578125,-1.223335862159729,0.08793354034423828,-1.0719273090362549
1711422464575266000,19.65326611328125,-0.9911776185035706,-0.21520423889160156,-1.2368381023406982
1711422464594226700,19.672226806640627,0.15021219849586487,-0.9169654846191406,-0.6859374046325684
1711422464613187800,19.691187744140624,1.1300342082977295,-0.5351963043212891,0.8615260124206543
1711422464632148500,19.7101484375,1.2845237255096436,0.13132190704345703,1.8520362377166748
1711422464651109400,19.729109375,1.0302865505218506,0.36288928985595703,1.9369711875915527
1711422464670070300,19.7480703125,-0.0045854151248931885,0.41443729400634766,1.2619757652282715
1711422464689031200,19.76703125,-0.6631268262863159,0.3172016143798828,0.7786917686462402
1711422464707992000,19.785991943359374,-0.692141592502594,0.14410018920898438,0.12446165084838867
1711422464726953000,19.804952880859375,-0.8069241046905518,-0.00290679931640625,-0.13967299461364746
1711422464745913900,19.823913818359376,-0.6877344846725464,-0.02951526641845703,-0.3020796775817871
1711422464764874800,19.842874755859373,-0.35436195135116577,-0.03876495361328125,-0.3025329113006592
1711422464783835600,19.861835693359374,-0.10066501796245575,-0.08989524841308594,-0.35234808921813965
1711422464802796300,19.88079638671875,0.0277450829744339,-0.1617908477783203,-0.47274351119995117
1711422464821757400,19.89975732421875,0.06727482378482819,0.0032339096069335938,-0.37458014488220215
1711422464840718000,19.918718017578126,0.009265899658203125,0.15011310577392578,-0.22511649131774902
1711422464859679000,19.937678955078123,0.11555804312229156,0.2172403335571289,-0.022117137908935547
1711422464878639900,19.956639892578124,0.08806131780147552,0.2592277526855469,0.04308772087097168
1711422464897600800,19.975600830078125,0.16775234043598175,0.1478118896484375,-0.048664093017578125
1711422464916561700,19.994561767578126,-0.016038596630096436,0.08012008666992188,-0.2354874610900879
1711422464935522600,20.0135224609375,-0.09554430842399597,0.0955190658569336,-0.3731722831726074
1711422464954483500,20.0324833984375,0.0288122296333313,0.11551761627197266,-0.31693148612976074
1711422464973444000,20.051444091796874,0.22736620903015137,-0.043212890625,0.062377214431762695
1711422464992405200,20.0704052734375,-0.0399746298789978,0.04918670654296875,-0.06198549270629883
1711422465011366000,20.089365966796876,0.1949215680360794,0.12489032745361328,-0.3019998073577881
1711422465030326800,20.108326904296874,0.5541361570358276,-0.012949943542480469,0.12392878532409668
1711422465049287700,20.12728759765625,-0.00549432635307312,0.14943981170654297,0.36488914489746094
1711422465068248600,20.14624853515625,-0.457269549369812,0.25752830505371094,-0.20549702644348145
1711422465087209500,20.16520947265625,-0.8650957345962524,-0.2077646255493164,-1.2341985702514648
1711422465106170000,20.184170166015626,-0.6939303278923035,-0.3335752487182617,-1.1865198612213135
1711422465125131300,20.20313134765625,-0.022227555513381958,-0.3049201965332031,-0.5130531787872314
1711422465144092000,20.222091796875,0.09351825714111328,-0.2584571838378906,0.5154449939727783
1711422465163052800,20.241052734375,0.4037818908691406,-0.011250495910644531,0.02220439910888672
1711422465182013700,20.260013671875,0.49121081829071045,0.11591053009033203,-0.2757437229156494
1711422465200974600,20.278974609375,0.8350566625595093,-0.15097808837890625,1.4006800651550293
1711422465219935500,20.297935546875,0.999922513961792,0.7451229095458984,0.35640692710876465
1711422465238896400,20.316896484375,0.613479733467102,0.3634376525878906,0.030426025390625
1711422465257857300,20.335857177734376,-0.26343193650245667,-0.18993759155273438,-0.5548267364501953
1711422465276818000,20.35481787109375,-0.5546643733978271,-0.38341236114501953,-0.6268620491027832
1711422465295778800,20.37377880859375,-0.33240774273872375,-0.012197494506835938,-0.03275251388549805
1711422465314739700,20.39273974609375,-0.4071793556213379,0.3744020462036133,1.0963940620422363
1711422465333700600,20.41170068359375,-0.10339817404747009,0.12441158294677734,1.35526442527771
1711422465352661500,20.43066162109375,-0.02937757968902588,-0.2325754165649414,1.109978437423706
1711422465371622400,20.449622314453126,-0.09933924674987793,-0.17132091522216797,0.6175765991210938
1711422465390583000,20.4685830078125,-0.39592865109443665,-0.09005069732666016,0.3295445442199707
1711422465409544200,20.487544189453125,-0.4926171898841858,-0.3906669616699219,0.2112891674041748
1711422465428504800,20.5065048828125,-0.2443092167377472,-0.4374961853027344,0.1988215446472168
1711422465447465700,20.5254658203125,-0.17993731796741486,-0.4420747756958008,0.3954048156738281
1711422465466426600,20.544426513671876,-0.14794108271598816,-0.5180330276489258,0.5616307258605957
1711422465485387500,20.563387451171874,-0.5687398910522461,-0.2641639709472656,0.449155330657959
1711422465504348400,20.582348388671875,-0.5753562450408936,-0.025063514709472656,0.28339505195617676
1711422465523309300,20.601309326171876,-0.48054489493370056,-0.061733245849609375,0.37912726402282715
1711422465542270000,20.62027001953125,-0.46116966009140015,-0.1511545181274414,0.025696992874145508
1711422465561230800,20.63923095703125,-0.7288979887962341,-0.2695789337158203,-0.434367299079895
1711422465580191700,20.658191650390624,-0.7887501120567322,-0.30486392974853516,-0.6905235052108765
1711422465599152600,20.677152587890625,-0.9008989930152893,-0.2525300979614258,-0.8850997686386108
1711422465618113500,20.696113525390626,-0.8954725861549377,-0.2855796813964844,-0.9251157641410828
1711422465637074200,20.71507421875,-0.8889719843864441,-0.2828636169433594,-0.9226881861686707
1711422465656035000,20.73403515625,-0.5446270704269409,-0.1688098907470703,-0.6076756715774536
1711422465674996000,20.752995849609373,-0.33879995346069336,-0.11211299896240234,-0.19488108158111572
1711422465693956900,20.771956787109374,-0.19647549092769623,0.16214466094970703,0.03369283676147461
1711422465712917800,20.790917724609375,-0.08561204373836517,0.0998086929321289,-0.23884201049804688
1711422465731878700,20.809878662109377,-0.12418234348297119,0.041380882263183594,-0.6204380989074707
1711422465750839300,20.82883935546875,-0.21240168809890747,0.31340789794921875,-0.931087851524353
1711422465769800200,20.84780029296875,-0.25806719064712524,0.4495506286621094,-1.1916749477386475
1711422465788761000,20.866760986328124,-0.12090519070625305,0.5469503402709961,-1.2261621952056885
1711422465807722000,20.885721923828125,0.06824420392513275,0.5801057815551758,-1.0453383922576904
1711422465826683000,20.904682861328126,0.12174952030181885,0.5465354919433594,-1.0046703815460205
1711422465845643800,20.923643798828124,0.12001314014196396,0.6243886947631836,-1.1251733303070068
1711422465864604400,20.9426044921875,0.05636976659297943,0.4593315124511719,-1.372666835784912
1711422465883565300,20.9615654296875,0.06746001541614532,0.38492488861083984,-1.354660987854004
1711422465902526200,20.980526123046875,-0.06576283276081085,0.45033931732177734,-1.3986902236938477
1711422465921487000,20.999487060546876,-0.37807995080947876,0.519383430480957,-1.2692205905914307
1711422465940448000,21.018447998046874,-0.36577343940734863,0.6845846176147461,-0.750473141670227
1711422465959409000,21.037408935546875,0.1761949062347412,0.7078695297241211,-0.42529845237731934
1711422465978369500,21.05636962890625,0.6919319033622742,0.7018308639526367,-0.4055742025375366
1711422465997330400,21.075330322265625,0.7647568583488464,0.8559951782226562,-0.5952794551849365
1711422466016291300,21.094291259765626,0.2912178337574005,1.1566476821899414,-0.9881572723388672
1711422466035252200,21.113252197265624,-0.1625039279460907,1.0142593383789062,-1.267226219177246
1711422466054213000,21.132213134765625,-0.011256277561187744,0.4016408920288086,-1.2718932628631592
1711422466073173800,21.151173828125,0.5690869092941284,0.1749277114868164,-0.7419483661651611
1711422466092134700,21.170134765625,0.4664050042629242,0.4450874328613281,-0.16189241409301758
1711422466111095600,21.189095458984376,0.20721039175987244,0.3729743957519531,0.02271723747253418
1711422466130056400,21.208056396484373,0.014082729816436768,-0.014787673950195312,-0.4988088607788086
1711422466149017300,21.227017333984374,-0.07288867235183716,-0.13200855255126953,-0.7328058481216431
1711422466167978200,21.245978271484375,-0.22755050659179688,0.3510446548461914,-0.6186397075653076
1711422466186939000,21.26493896484375,0.07787925004959106,0.4149656295776367,-0.27666378021240234
1711422466205899800,21.283899658203126,0.4261804223060608,0.42247962951660156,-0.1096045970916748
1711422466224860700,21.302860595703127,0.6100387573242188,0.3220186233520508,0.0951225757598877
1711422466243821600,21.321821533203124,0.6469334363937378,0.15814590454101562,0.02187824249267578
1711422466262782500,21.340782470703125,0.45001220703125,0.16540813446044922,-0.20131444931030273
1711422466281743400,21.359743408203126,0.24603891372680664,0.12828445434570312,-0.4100682735443115
1711422466300704000,21.3787041015625,0.0761556625366211,0.023398399353027344,-0.6912856101989746
1711422466319665200,21.3976650390625,-0.03661656379699707,-0.023545265197753906,-0.7717154026031494
1711422466338625800,21.416625732421874,-0.21026229858398438,0.054236412048339844,-0.5025379657745361
1711422466357586700,21.435586669921875,-0.40373659133911133,0.21442890167236328,-0.2023296356201172
1711422466376547600,21.454547607421876,-0.5500686168670654,0.2345876693725586,-0.14898920059204102
1711422466395508500,21.473508544921874,-0.7034852504730225,0.1597909927368164,-0.4589965343475342
1711422466414469400,21.492469482421875,-0.829587459564209,-0.1085367202758789,-0.8936290740966797
1711422466433430000,21.511429931640624,-0.9456921815872192,-0.3297548294067383,-1.0144715309143066
1711422466452391200,21.53039111328125,-1.1552298069000244,-0.21765518188476562,-0.8704912662506104
1711422466471351800,21.549351806640626,-1.296116590499878,-0.19238567352294922,-0.4004833698272705
1711422466490312700,21.568312744140623,-1.2785122394561768,-0.3650245666503906,0.07427382469177246
1711422466509273600,21.587273681640625,-1.073021411895752,-0.7407302856445312,0.7533884048461914
1711422466528234500,21.606234375,-0.7306644916534424,-0.8275084495544434,1.175379991531372
1711422466547195400,21.6251953125,-0.8937101364135742,-0.8109979629516602,1.2535858154296875
1711422466566156300,21.64415625,-1.2007684707641602,-0.8665065765380859,0.8107683658599854
1711422466585117200,21.6631171875,-1.537921667098999,-0.9092917442321777,0.3092057704925537
1711422466604077800,21.682077880859374,-1.8213129043579102,-0.8599863052368164,0.3150637149810791
1711422466623038700,21.701038818359375,-1.902054786682129,-0.870640754699707,0.6948537826538086
1711422466641999600,21.71999951171875,-1.8319554328918457,-0.9283132553100586,1.1223623752593994
1711422466660960500,21.73896044921875,-1.7539366483688354,-0.6732673645019531,1.4559965133666992
1711422466679921400,21.75792138671875,-1.6371607780456543,-0.46202659606933594,2.3291308879852295
1711422466698882300,21.77688232421875,-1.713960886001587,-0.857457160949707,2.994720935821533
1711422466717843200,21.79584326171875,-1.972881555557251,-1.5540103912353516,3.16660213470459
1711422466736804000,21.81480419921875,-2.002089023590088,-1.812448501586914,2.7818002700805664
1711422466755765000,21.833764892578124,-1.7363102436065674,-1.539893627166748,2.650510787963867
1711422466774725600,21.8527255859375,-1.5539307594299316,-1.1223068237304688,2.4305362701416016
1711422466793686800,21.871686767578126,-1.4491664171218872,-1.0046062469482422,2.0150060653686523
1711422466812647400,21.8906474609375,-1.3620307445526123,-1.2160930633544922,1.632084846496582
1711422466831608300,21.9096083984375,-1.255785346031189,-1.3210296630859375,1.2947216033935547
1711422466850569200,21.9285693359375,-1.0462359189987183,-1.1742067337036133,0.8194451332092285
1711422466869530000,21.947530029296875,-1.0006675720214844,-0.5491933822631836,0.9518179893493652
1711422466888491000,21.966490966796876,-0.9174538254737854,0.2013864517211914,1.380826473236084
1711422466907452000,21.985451904296873,-0.9394233226776123,0.6098966598510742,1.4549193382263184
1711422466926412800,22.004412841796874,-0.9285812973976135,0.976567268371582,1.4426307678222656
1711422466945373700,22.023373779296875,-0.8203424215316772,1.1683454513549805,1.3970246315002441
1711422466964334600,22.04233447265625,-0.6069445610046387,0.841759204864502,1.1401000022888184
1711422466983295500,22.06129541015625,-0.3686596751213074,0.8128523826599121,1.1931276321411133
1711422467002256400,22.08025634765625,0.022902846336364746,1.2369904518127441,1.2790613174438477
1711422467021217300,22.09921728515625,0.46227461099624634,1.812572956085205,0.8551325798034668
1711422467040178000,22.118177978515625,0.29266732931137085,2.133974552154541,0.3425107002258301
1711422467059139000,22.13713916015625,-0.5714204907417297,2.347085475921631,-0.8515739440917969
1711422467078099700,22.156099609375,-1.6562721729278564,3.039763927459717,-1.5481553077697754
1711422467097060900,22.175060791015625,-0.7132975459098816,4.004997730255127,0.22179794311523438
1711422467116021500,22.194021484375,2.2099714279174805,4.124007701873779,0.6395444869995117
1711422467134982400,22.212982421875,2.8838751316070557,2.6901750564575195,1.4456615447998047
1711422467153943300,22.231943359375,-0.6300138235092163,1.6892352104187012,-0.5768623352050781
1711422467172904200,22.250904296875,-1.169847846031189,3.9816746711730957,-1.1341853141784668
1711422467191865000,22.269864990234375,-2.1990489959716797,2.8856639862060547,-3.408663272857666
1711422467210826000,22.288825927734376,-2.1467113494873047,1.7418999671936035,-3.233658790588379
1711422467229787000,22.307786865234377,-1.7359297275543213,2.3925042152404785,-3.5798916816711426
1711422467248747800,22.326747802734374,-0.8102198839187622,1.8042759895324707,-3.171651840209961
1711422467267708700,22.345708740234375,2.1370954513549805,2.277873992919922,-1.0474252700805664
1711422467286669600,22.364669677734376,0.4582982063293457,1.5785889625549316,-0.0847320556640625
1711422467305630500,22.38363037109375,-1.7196069955825806,0.8129615783691406,-1.0036563873291016
1711422467324591400,22.40259130859375,-1.8172317743301392,-0.5067191123962402,-3.392549514770508
1711422467343552300,22.42155224609375,-0.5557061433792114,-0.6996541023254395,-3.168158531188965
1711422467362513200,22.44051318359375,-0.00500178337097168,0.7726559638977051,0.30274009704589844
1711422467381474000,22.45947412109375,-0.2729225158691406,0.7332582473754883,2.4911842346191406
1711422467400435000,22.47843505859375,-0.3525731563568115,1.153730869293213,3.221381187438965
1711422467419395800,22.497395751953125,-1.9061589241027832,1.011364459991455,0.2588653564453125
1711422467438356700,22.516356689453126,-1.553147315979004,-0.35002660751342773,-3.1348767280578613
1711422467457317600,22.535317626953123,-0.8342311382293701,-0.011453628540039062,-0.5383319854736328
1711422467476278500,22.554278564453124,-1.6314325332641602,0.3103957176208496,1.5983214378356934
1711422467495239400,22.573239501953125,-2.2654547691345215,-0.6029424667358398,-0.1468191146850586
1711422467514200300,22.592200439453126,-0.8790583610534668,-1.158799409866333,-1.8521709442138672
1711422467533161200,22.6111611328125,-1.804826259613037,0.24024438858032227,0.6907696723937988
1711422467552122000,22.6301220703125,-0.888310432434082,-0.16724014282226562,-1.249788761138916
1711422467571083000,22.6490830078125,0.44234180450439453,-0.5417952537536621,-0.6915421485900879
1711422467590044000,22.6680439453125,0.13643407821655273,-0.13439607620239258,1.8136301040649414
1711422467609004800,22.6870048828125,-0.5253448486328125,-1.666388988494873,-0.1466994285583496
1711422467627965700,22.705965576171874,-0.1769275665283203,-1.219059944152832,-1.8915677070617676
1711422467646926600,22.724926513671875,-0.5464868545532227,-0.5125951766967773,-0.5425095558166504
1711422467665887500,22.743887451171876,-0.5149970054626465,-1.0947270393371582,-1.288820743560791
1711422467684848400,22.762848388671873,-0.031226158142089844,-1.1353211402893066,-2.921895980834961
1711422467703809300,22.781809326171874,-0.18816328048706055,-0.6071405410766602,-2.5064990520477295
1711422467722770200,22.800770263671875,0.11761474609375,-0.6232318878173828,-1.583909273147583
1711422467741731000,22.81973095703125,0.4173307418823242,-0.6620802879333496,-1.3253321647644043
1711422467760692000,22.83869189453125,0.9826736450195312,-0.8248999118804932,-0.818671703338623
1711422467779652900,22.85765283203125,0.8060808181762695,-0.8768112659454346,-0.9642143249511719
1711422467798613800,22.87661376953125,0.38812875747680664,-0.7864241600036621,-0.9082446098327637
1711422467817574700,22.89557470703125,0.33763885498046875,-0.6177892684936523,-0.9421358108520508
1711422467836535600,22.91453564453125,0.10408306121826172,-0.43373918533325195,-1.072798252105713
1711422467855496400,22.933496337890624,0.11951541900634766,0.047115325927734375,-0.3793778419494629
1711422467874457300,22.952457275390625,1.0052051544189453,-0.09475088119506836,0.8622198104858398
1711422467893418200,22.971418212890626,1.4911470413208008,-0.21192598342895508,1.135347843170166
1711422467912379100,22.990379150390623,0.41493940353393555,0.07117795944213867,0.24137353897094727
1711422467931340000,23.009340087890624,-0.9251708984375,0.15587711334228516,-1.1524085998535156
1711422467950301000,23.028301025390626,-0.7874979972839355,-0.1303119659423828,-1.5124578475952148
1711422467969261800,23.04726171875,-1.2341809272766113,-0.48100709915161133,-2.2936525344848633
1711422467988222700,23.06622265625,-0.642570972442627,-0.1429147720336914,-2.4603428840637207
1711422468007183600,23.08518359375,-1.1023597717285156,-0.42231225967407227,-3.0057411193847656
1711422468026144500,23.10414453125,-1.345179557800293,-0.7155478000640869,-3.1398491859436035
1711422468045105400,23.12310546875,-0.9208416938781738,-0.6491901874542236,-1.0934267044067383
1711422468064066300,23.14206640625,0.9780216217041016,0.9203627109527588,2.713499069213867
1711422468083027200,23.161027099609374,1.9604535102844238,1.1996724605560303,4.615610122680664
1711422468101988000,23.179988037109375,2.501070261001587,0.8391149044036865,5.755810737609863
1711422468120949000,23.198948974609376,2.238595485687256,0.11337590217590332,4.138201713562012
1711422468139910000,23.217909912109373,0.6102752685546875,-0.23055481910705566,1.6352109909057617
1711422468158870800,23.236870849609375,-0.7850189208984375,-0.23334646224975586,0.11970329284667969
1711422468177831700,23.255831787109376,-1.4259376525878906,-0.40273022651672363,-0.9366464614868164
1711422468196792600,23.27479248046875,-1.1471848487854004,-0.5908939838409424,-1.137998104095459
1711422468215753500,23.29375341796875,-0.5477972030639648,-0.17257022857666016,-1.1747450828552246
1711422468234714400,23.31271435546875,-0.5330212116241455,0.514763593673706,-0.2233443260192871
1711422468253675300,23.33167529296875,-0.2588951587677002,0.6120340824127197,0.7755374908447266
1711422468272636200,23.35063623046875,0.20768165588378906,0.37942028045654297,1.0408811569213867
1711422468291597000,23.36959716796875,0.03955888748168945,0.11413168907165527,0.7181816101074219
1711422468310558000,23.388557861328124,-0.22642803192138672,0.11486983299255371,0.6428260803222656
1711422468329518800,23.407518798828125,-0.29320192337036133,0.09409213066101074,0.5872879028320312
1711422468348479700,23.426479736328126,0.004800319671630859,0.1055760383605957,0.4020671844482422
1711422468367440600,23.445440673828124,0.12009382247924805,0.3253633975982666,-0.18838977813720703
1711422468386401500,23.464401611328125,0.2629361152648926,0.5046703815460205,-0.47660350799560547
1711422468405362400,23.483362548828126,0.14766597747802734,0.715308666229248,0.0019712448120117188
1711422468424323300,23.5023232421875,-0.22301387786865234,0.3157773017883301,0.39235687255859375
1711422468443284200,23.5212841796875,-0.2597999572753906,-0.24313664436340332,0.4584808349609375
1711422468462245000,23.5402451171875,-0.6019964218139648,-0.2685074806213379,0.35001468658447266
