time,seconds_elapsed,z,y,x
1707165598788907300,0.0519072265625,-0.4814378023147583,-0.45478883385658264,-0.0818558782339096
1707165598807867100,0.0708671875,-0.5926151871681213,-0.47006043791770935,-0.06505709886550903
1707165598826826800,0.08982666015625,-0.6573668718338013,-0.6130027770996094,-0.03023780696094036
1707165598845786400,0.108786376953125,-0.7044034600257874,-0.8481857180595398,0.029626941308379173
1707165598864746000,0.12774609375,-0.718758761882782,-1.1676679849624634,0.05039634555578232
1707165598883705900,0.146705810546875,-0.7117338180541992,-1.4657700061798096,0.000610864779446274
1707165598902665500,0.16566552734375,-0.727921724319458,-1.8985676765441895,-0.05589412897825241
1707165598921625000,0.184625,-0.7404444813728333,-2.4636175632476807,-0.12370011955499649
1707165598940585000,0.2035849609375,-0.8693369626998901,-2.98163104057312,-0.15271618962287903
1707165598959544600,0.222544677734375,-1.1048252582550049,-3.3075273036956787,-0.2156352698802948
1707165598978504200,0.241504150390625,-1.6744567155838013,-3.9385507106781006,-0.2809978127479553
1707165598997463800,0.2604638671875,-1.7358486652374268,-4.247037410736084,-0.3961458206176758
1707165599016423700,0.279423583984375,-2.0290637016296387,-4.4189958572387695,-0.4926624298095703
1707165599035383300,0.29838330078125,-2.2633304595947266,-4.577515125274658,-0.7015781998634338
1707165599054343000,0.317343017578125,-1.9746967554092407,-4.331642150878906,-0.9297361969947815
1707165599073302500,0.336302490234375,-1.7752493619918823,-3.824929714202881,-1.0216712951660156
1707165599092262400,0.355262451171875,-1.6643774509429932,-3.5167484283447266,-1.045189619064331
1707165599111222000,0.374221923828125,-1.605123519897461,-3.3295185565948486,-1.1398736238479614
1707165599130181600,0.393181640625,-1.568777084350586,-3.1056365966796875,-1.2828160524368286
1707165599149141500,0.4121416015625,-1.4178935289382935,-2.746448040008545,-1.370169758796692
1707165599168101000,0.43110107421875,-1.2877793312072754,-2.3933682441711426,-1.4437788724899292
1707165599187060700,0.450060791015625,-1.3073270320892334,-2.232100009918213,-1.5610649585723877
1707165599206020400,0.469020263671875,-1.366275429725647,-2.234848737716675,-1.6740748882293701
1707165599224980200,0.487980224609375,-1.3904045820236206,-2.3457207679748535,-1.8011348247528076
1707165599243939800,0.50693994140625,-1.3293181657791138,-2.4959933757781982,-1.9031492471694946
1707165599262899500,0.5258994140625,-1.2419644594192505,-2.654818296432495,-1.9593487977981567
1707165599281859300,0.544859375,-1.2874739170074463,-2.6957461833953857,-1.9162827730178833
1707165599300819000,0.56381884765625,-1.3607776165008545,-2.543335437774658,-1.8011348247528076
1707165599319778600,0.582778564453125,-1.4701224565505981,-2.2479825019836426,-1.6279546022415161
1707165599338738200,0.60173828125,-1.5357904434204102,-1.9278892278671265,-1.4074324369430542
1707165599357698000,0.620697998046875,-1.5275437831878662,-1.6804890632629395,-1.1698060035705566
1707165599376657700,0.63965771484375,-1.3977349996566772,-1.5775582790374756,-0.9303470849990845
1707165599395617300,0.6586171875,-1.2147809267044067,-1.6022982597351074,-0.7687733173370361
1707165599414577200,0.6775771484375,-1.1252893209457397,-1.73088538646698,-0.7018836140632629
1707165599433536800,0.696536865234375,-1.1213186979293823,-1.9022328853607178,-0.7018836140632629
1707165599452496400,0.715496337890625,-1.1298707723617554,-2.019824504852295,-0.7168498039245605
1707165599471456300,0.734456298828125,-1.135979413986206,-2.076329469680786,-0.7544180154800415
1707165599490415900,0.753415771484375,-1.1234567165374756,-2.120311737060547,-0.8255837559700012
1707165599509375500,0.77237548828125,-1.0889428853988647,-2.123365879058838,-0.9107993841171265
1707165599528335400,0.79133544921875,-1.0651191473007202,-2.0635011196136475,-0.9954041838645935
1707165599547295000,0.810294921875,-1.078863501548767,-1.9007058143615723,-1.0543526411056519
1707165599566254600,0.829254638671875,-1.1133774518966675,-1.6392556428909302,-1.056185245513916
1707165599585214200,0.848214111328125,-1.135979413986206,-1.341459035873413,-0.9929606914520264
1707165599604174000,0.867174072265625,-1.1365902423858643,-0.9850194454193115,-0.9071341753005981
1707165599623133700,0.8861337890625,-1.0950515270233154,-0.6508764028549194,-0.832608699798584
1707165599642093300,0.90509326171875,-1.0055598020553589,-0.3640754222869873,-0.7422007322311401
1707165599661053200,0.92405322265625,-0.9029344916343689,-0.13988803327083588,-0.6896663308143616
1707165599680012800,0.9430126953125,-0.8452077507972717,-0.04367683082818985,-0.6817250847816467
1707165599698972400,0.961972412109375,-0.8158862590789795,-0.012217295356094837,-0.6740893125534058
1707165599717932000,0.98093212890625,-0.7612138986587524,0.0870482325553894,-0.6316341757774353
1707165599736892000,0.999891845703125,-0.6332377195358276,0.3136790692806244,-0.5797106623649597
1707165599755851500,1.0188515625,-0.4753291606903076,0.516791582107544,-0.5201513767242432
1707165599774811400,1.037811279296875,-0.3531562089920044,0.6123919486999512,-0.4153880476951599
1707165599793771000,1.05677099609375,-0.24930918216705322,0.5873464941978455,-0.29046618938446045
1707165599812730600,1.075730712890625,-0.12988512217998505,0.48594292998313904,-0.21655155718326569
1707165599831690200,1.094690185546875,0.021914774551987648,0.36254823207855225,-0.19792018830776215
1707165599850650000,1.113650146484375,0.13339759409427643,0.17562362551689148,-0.18845178186893463
1707165599869609700,1.132609619140625,0.19967642426490784,-0.09498947113752365,-0.28588470816612244
1707165599888569600,1.151569580078125,0.3132972717285156,-0.3738492429256439,-0.48013970255851746
1707165599907529200,1.170529296875,0.4794524908065796,-0.4978547990322113,-0.6588176488876343
1707165599926488800,1.18948876953125,0.6288089156150818,-0.3640754222869873,-0.813060998916626
1707165599945448700,1.20844873046875,0.7186060547828674,0.006414080038666725,-0.9502001404762268
1707165599964408300,1.227408203125,0.7912989854812622,0.4523453712463379,-1.047938585281372
1707165599983368200,1.2463681640625,0.8572723865509033,0.8940005898475647,-1.1242966651916504
1707165600002327800,1.265327880859375,0.7821359634399414,1.0971131324768066,-1.1487312316894531
1707165600021287400,1.284287353515625,0.6734020709991455,1.0372483730316162,-1.1313215494155884
1707165600040247300,1.303247314453125,0.6514109373092651,0.8029817342758179,-1.1560616493225098
1707165600059207000,1.32220703125,0.6410261988639832,0.44440412521362305,-1.2021819353103638
1707165600078166800,1.341166748046875,0.5930733680725098,0,-1.1646137237548828
1707165600097126400,1.36012646484375,0.512133777141571,-0.33047783374786377,-1.1404845714569092
1707165600116086300,1.379086181640625,0.4314996004104614,-0.4477638900279999,-1.1230748891830444
1707165600135046000,1.3980458984375,0.37316203117370605,-0.42363473773002625,-1.0571014881134033
1707165600154005500,1.417005615234375,0.3771326541900635,-0.2883281707763672,-0.925460159778595
1707165600172965400,1.43596533203125,0.36827510595321655,0.007024944759905338,-0.8017600178718567
1707165600191925000,1.454925048828125,0.3139081299304962,0.21960589289665222,-0.7177661061286926
1707165600210884900,1.473884765625,0.26687154173851013,0.26939135789871216,-0.6071996092796326
1707165600229844500,1.492844482421875,0.30077454447746277,0.16096286475658417,-0.5158752799034119
1707165600248804000,1.51180419921875,0.3554469347000122,0.027488915249705315,-0.37812530994415283
1707165600267764000,1.530763916015625,0.32154396176338196,-0.03634645417332649,-0.2415970265865326
1707165600286723600,1.5497236328125,0.27664539217948914,0.03298669680953026,-0.019853105768561363
1707165600305683500,1.568683349609375,0.247629314661026,0.287106454372406,0.26358816027641296
1707165600324643000,1.58764306640625,0.1608865112066269,0.5067123174667358,0.4825831651687622
1707165600343603000,1.60660302734375,0.10835213959217072,0.47067132592201233,0.693636953830719
1707165600362562600,1.6255625,0.1508072465658188,0.2306014597415924,0.8952223062515259
1707165600381522400,1.6445224609375,0.22594361007213593,-0.0565049909055233,1.0158681869506836
1707165600400482300,1.663482421875,0.22930335998535156,-0.34147340059280396,1.1059707403182983
1707165600419442000,1.68244189453125,0.22075125575065613,-0.5494728684425354,1.1878265142440796
1707165600438401800,1.70140185546875,0.2589302957057953,-0.6221657991409302,1.2483022212982178
1707165600457361400,1.720361328125,0.34170249104499817,-0.5732966065406799,1.2299761772155762
1707165600476321300,1.7393212890625,0.35758498311042786,-0.3121519088745117,1.118798851966858
1707165600495281000,1.758281005859375,0.2671769857406616,0.2565632164478302,1.0067051649093628
1707165600514240800,1.77724072265625,0.2644280791282654,0.8918625712394714,0.7745765447616577
1707165600533200400,1.796200439453125,0.1963166743516922,1.3176352977752686,0.47525280714035034
1707165600552160300,1.81516015625,0.04329504072666168,1.5018110275268555,0.19364413619041443
1707165600571119900,1.834119873046875,-0.08559742569923401,1.385746717453003,-0.09498947113752365
1707165600590079700,1.853079833984375,-0.22670719027519226,0.8936951756477356,-0.3796524703502655
1707165600609039600,1.87203955078125,-0.36048656702041626,0.1902843713760376,-0.6688969135284424
1707165600627999200,1.890999267578125,-0.4240165054798126,-0.3787361681461334,-0.8875865340232849
1707165600646959000,1.909958984375,-0.5223657488822937,-0.6820304989814758,-0.9666935205459595
1707165600665918700,1.928918701171875,-0.6558396816253662,-0.8011491298675537,-0.9495893120765686
1707165600684878600,1.947878662109375,-0.6427060961723328,-0.7718276381492615,-0.8943060636520386
1707165600703838200,1.966838134765625,-0.5553524494171143,-0.6065887212753296,-0.8176425099372864
1707165600722798000,1.985798095703125,-0.46311184763908386,-0.3744601011276245,-0.7162389755249023
1707165600741758000,2.004758056640625,-0.3946950137615204,-0.08093958348035812,-0.5962040424346924
1707165600760717600,2.023717529296875,-0.45242172479629517,0.15546508133411407,-0.4569268524646759
1707165600779677400,2.042677490234375,-0.5361102223396301,0.2718348205089569,-0.3854556679725647
1707165600798637000,2.061636962890625,-0.5764272809028625,0.24831652641296387,-0.33047783374786377
1707165600817597000,2.080596923828125,-0.6240747570991516,-0.006414080038666725,-0.30512696504592896
1707165600836556800,2.099556884765625,-0.6304888129234314,-0.30482152104377747,-0.29535311460494995
1707165600855516400,2.118516357421875,-0.6353757381439209,-0.4459312856197357,-0.31184646487236023
1707165600874476300,2.137476318359375,-0.6698895692825317,-0.43371400237083435,-0.29993459582328796
1707165600893436200,2.156436279296875,-0.6943241953849792,-0.2419024556875229,-0.287106454372406
1707165600912395800,2.175395751953125,-0.6323214173316956,0.054672397673130035,-0.29016077518463135
1707165600931355600,2.194355712890625,-0.5681806206703186,0.425467312335968,-0.2577849328517914
1707165600950315300,2.213315185546875,-0.5920043587684631,0.6337721943855286,-0.258395791053772
1707165600969275100,2.232275146484375,-0.581314206123352,0.6661480665206909,-0.26542073488235474
1707165600988235000,2.251235107421875,-0.5009855031967163,0.572685718536377,-0.24740023910999298
1707165601007194600,2.270194580078125,-0.4548651874065399,0.4529562294483185,-0.19822561740875244
1707165601026154500,2.289154541015625,-0.3577376902103424,0.3497200906276703,-0.11606431007385254
1707165601045114400,2.3081142578125,-0.23342670500278473,0.4159989058971405,0.005192350596189499
1707165601064074000,2.327073974609375,-0.3278053104877472,0.861319363117218,0.3081812858581543
1707165601083033900,2.346033935546875,-0.418824166059494,1.4685189723968506,0.4944950342178345
1707165601101993700,2.36499365234375,-0.326583594083786,1.553429126739502,0.5769617557525635
1707165601120953600,2.38395361328125,-0.2969566285610199,1.4999784231185913,0.5867356061935425
1707165601139913200,2.402913330078125,-0.13904809951782227,0.8790343999862671,0.4276053309440613
1707165601158873000,2.421873046875,0.14103341102600098,-0.012522728182375431,0.23976442217826843
1707165601177833000,2.4408330078125,0.4336376488208771,-0.7367029190063477,0.019242240116000175
1707165601196792800,2.459792724609375,0.48189595341682434,-0.850934624671936,-0.08643736690282822
1707165601215752400,2.47875244140625,0.432721346616745,-0.48044514656066895,-0.06933315098285675
1707165601234712300,2.49771240234375,0.29619306325912476,-0.0772743970155716,0.0409279391169548
1707165601253672200,2.516672119140625,0.2219729870557785,-0.06780599057674408,0.13194678723812103
1707165601272631800,2.5356318359375,0.3242928385734558,-0.49571678042411804,0.17195843160152435
1707165601291591700,2.554591796875,0.5359575152397156,-0.9935715794563293,0.11117739230394363
1707165601310551600,2.573551513671875,0.5924624800682068,-1.3170244693756104,0.028099779039621353
1707165601329511400,2.592511474609375,0.46143198013305664,-1.4126248359680176,-0.008246674202382565
1707165601348471300,2.61147119140625,0.27511823177337646,-1.4272855520248413,0.04825831577181816
1707165601367431000,2.630430908203125,0.2173915058374405,-1.3390156030654907,0.15607595443725586
1707165601386390800,2.649390869140625,0.28703010082244873,-1.1869102716445923,0.2837466895580292
1707165601405350700,2.6683505859375,0.28703010082244873,-0.9828814268112183,0.3787361681461334
1707165601424310500,2.687310546875,0.22472187876701355,-0.8365793228149414,0.4514290690422058
1707165601443270100,2.706270263671875,0.21922409534454346,-0.702799916267395,0.5381718873977661
1707165601462230000,2.72522998046875,0.23907721042633057,-0.4312705397605896,0.6646208763122559
1707165601481190000,2.74418994140625,0.21861323714256287,-0.13041962683200836,0.6954695582389832
1707165601500149800,2.763149658203125,0.14592032134532928,0.0922405794262886,0.6994401812553406
1707165601519109600,2.782109619140625,0.07964149862527847,0.21288637816905975,0.6979129910469055
1707165601538069200,2.8010693359375,0.01824958436191082,0.2055560052394867,0.6988292932510376
1707165601557029000,2.820029052734375,-0.057497646659612656,0.09957095980644226,0.6921098232269287
1707165601575989000,2.838989013671875,-0.1375209391117096,0.039706211537122726,0.7348703145980835
1707165601594948900,2.857948974609375,-0.2569449841976166,0.00946840364485979,0.7247910499572754
1707165601613908700,2.87690869140625,-0.3540725111961365,-0.05558869615197182,0.6988292932510376
1707165601632868600,2.89586865234375,-0.39133524894714355,-0.08643736690282822,0.685390293598175
1707165601651828200,2.914828125,-0.38522660732269287,-0.03756818547844887,0.7134900689125061
1707165601670788000,2.9337880859375,-0.362930029630661,0.1078176349401474,0.6945532560348511
1707165601689748000,2.952748046875,-0.3788125216960907,0.2712239623069763,0.7098248600959778
1707165601708707800,2.971707763671875,-0.4243219494819641,0.3539961278438568,0.7519745230674744
1707165601727667700,2.990667724609375,-0.4093557596206665,0.3381136655807495,0.813671886920929
1707165601746627300,3.00962744140625,-0.32902705669403076,0.2715294063091278,0.7418952584266663
1707165601765587200,3.028587158203125,-0.2618319094181061,0.20952661335468292,0.6911935210227966
1707165601784547000,3.047547119140625,-0.2089921087026596,0.20677772164344788,0.711046576499939
1707165601803507000,3.0665068359375,-0.17722713947296143,0.2721402645111084,0.8118392825126648
1707165601822466800,3.085466796875,-0.106366828083992,0.38789913058280945,0.9874629378318787
1707165601841426700,3.1044267578125,-0.04741837829351425,0.5369501113891602,1.1114684343338013
1707165601860386600,3.123386474609375,0.030161447823047638,0.6783653497695923,1.1704169511795044
1707165601879346200,3.14234619140625,0.11659881472587585,0.7559451460838318,1.2067633867263794
1707165601898306000,3.16130615234375,0.19570580124855042,0.7611374855041504,1.2843432426452637
1707165601917266000,3.180265869140625,0.2784779667854309,0.7556397318840027,1.342680811882019
1707165601936225800,3.199225830078125,0.2381609082221985,0.7147117853164673,1.2702933549880981
1707165601955185700,3.218185546875,0.19814926385879517,0.5699368119239807,1.138651967048645
1707165601974145500,3.2371455078125,0.24152065813541412,0.4422661066055298,0.999069333076477
1707165601993105400,3.25610546875,0.3032180070877075,0.3582721948623657,0.8726203441619873
1707165602012065000,3.27506494140625,0.3908770978450775,0.37323838472366333,0.7422007322311401
1707165602031025200,3.294025146484375,0.4632645845413208,0.5024362802505493,0.5809323787689209
1707165602049984800,3.31298486328125,0.45043641328811646,0.4676169753074646,0.4379900395870209
1707165602068944600,3.331944580078125,0.39912378787994385,0.38881543278694153,0.36651885509490967
1707165602087904500,3.350904541015625,0.39820748567581177,0.35216355323791504,0.3402516841888428
1707165602106864400,3.369864501953125,0.4672352075576782,0.3497200906276703,0.3179551064968109
1707165602125824300,3.38882421875,0.4232529401779175,0.27977606654167175,0.2617555558681488
1707165602144784100,3.4077841796875,0.3340666890144348,0.06963858753442764,0.2565632164478302
1707165602163744000,3.426743896484375,0.28031057119369507,-0.034208428114652634,0.2834412455558777
1707165602182703900,3.445703857421875,0.2693150043487549,-0.04428769648075104,0.3133736252784729
1707165602201663700,3.464663818359375,0.2699258625507355,0.022296564653515816,0.3197877109050751
1707165602220623400,3.483623291015625,0.24671301245689392,0.10506874322891235,0.3173442482948303
1707165602239583500,3.50258349609375,0.20547963678836823,0.14538581669330597,0.3387245237827301
1707165602258543400,3.52154345703125,0.1761581301689148,0.18356487154960632,0.3750709891319275
1707165602277503000,3.5405029296875,0.1804341822862625,0.23304490745067596,0.40347617864608765
1707165602296462800,3.559462890625,0.20914483070373535,0.3087921440601349,0.416304349899292
1707165602315422700,3.578422607421875,0.22991423308849335,0.3906480371952057,0.40225446224212646
1707165602334382600,3.597382568359375,0.19326233863830566,0.3539961278438568,0.37201663851737976
1707165602353342500,3.616342529296875,0.1193477064371109,0.231212317943573,0.35613417625427246
1707165602372302300,3.63530224609375,0.05581776797771454,0.1389717310667038,0.33658650517463684
1707165602391262200,3.65426220703125,0.012446369975805283,0.09834922850131989,0.2981020212173462
1707165602410222000,3.67322216796875,-0.014737112447619438,0.1386663019657135,0.2409861534833908
1707165602429182000,3.692181884765625,-0.046196650713682175,0.16554436087608337,0.17715078592300415
1707165602448141800,3.711141845703125,-0.06849320977926254,0.1597411334514618,0.12950333952903748
1707165602467101700,3.730101806640625,-0.0910952091217041,0.12247838824987411,0.08155044913291931
1707165602486061600,3.7490615234375,-0.11858412623405457,0.03481929376721382,0.035124726593494415
1707165602505021400,3.768021484375,-0.13904809951782227,-0.034208428114652634,-0.006108647678047419
1707165602523981300,3.786981201171875,-0.15859577059745789,-0.07422006875276566,-0.04520399495959282
1707165602542941200,3.805941162109375,-0.1833357959985733,-0.10109812021255493,-0.08032871782779694
1707165602561901000,3.824901123046875,-0.20288346707820892,-0.1026252806186676,-0.10384701192378998
1707165602580861000,3.84386083984375,-0.22059854865074158,-0.10842850059270859,-0.13164135813713074
1707165602599820500,3.862820556640625,-0.23403756320476532,-0.11942406743764877,-0.15821397304534912
1707165602618780700,3.88178076171875,-0.24136795103549957,-0.13744457066059113,-0.18631376326084137
1707165602637740500,3.900740478515625,-0.2502254843711853,-0.16126830875873566,-0.21807873249053955
1707165602656700400,3.919700439453125,-0.2548069655895233,-0.1951712965965271,-0.24892739951610565
1707165602675660000,3.938659912109375,-0.2502254843711853,-0.21410810947418213,-0.26908594369888306
1707165602694620200,3.9576201171875,-0.24167338013648987,-0.23365578055381775,-0.2919933497905731
1707165602713580000,3.976580078125,-0.22823435068130493,-0.2370155304670334,-0.3017672002315521
1707165602732539600,3.99553955078125,-0.2199876755475998,-0.2257145345211029,-0.30604326725006104
1707165602751499500,4.01449951171875,-0.22151483595371246,-0.22968515753746033,-0.3170388340950012
1707165602770459600,4.033459716796875,-0.22151483595371246,-0.2660316228866577,-0.33108872175216675
1707165602789419500,4.05241943359375,-0.21846051514148712,-0.3017672002315521,-0.3326158821582794
1707165602808379400,4.07137939453125,-0.21784965693950653,-0.3430005609989166,-0.32620179653167725
1707165602827339000,4.090339111328125,-0.21876594424247742,-0.36132651567459106,-0.32100942730903625
1707165602846299000,4.109298828125,-0.22640176117420197,-0.3491092324256897,-0.3133736252784729
1707165602865259000,4.128259033203125,-0.22731806337833405,-0.31093016266822815,-0.3094030022621155
1707165602884219000,4.147218994140625,-0.22640176117420197,-0.2730565667152405,-0.314289927482605
1707165602903178500,4.166178466796875,-0.2196822464466095,-0.20372340083122253,-0.32131487131118774
1707165602922138400,4.185138427734375,-0.2193768173456192,-0.11514800786972046,-0.33139413595199585
1707165602941098500,4.204098388671875,-0.2190713882446289,-0.06352993845939636,-0.33108872175216675
1707165602960058400,4.223058349609375,-0.2141844630241394,-0.04367683082818985,-0.33689191937446594
1707165602979018200,4.242018310546875,-0.23312127590179443,-0.1026252806186676,-0.36621344089508057
1707165602997977900,4.260977783203125,-0.2654971182346344,-0.21166464686393738,-0.3799578845500946
1707165603016938000,4.27993798828125,-0.28993168473243713,-0.2556469142436981,-0.36621344089508057
1707165603035897900,4.29889794921875,-0.30856308341026306,-0.25411975383758545,-0.3549124300479889
1707165603054857700,4.317857666015625,-0.3482692837715149,-0.26511532068252563,-0.35643959045410156
1707165603073817600,4.336817626953125,-0.3849211633205414,-0.2562577724456787,-0.3494146466255188
1707165603092777500,4.355777587890625,-0.40691229701042175,-0.24404047429561615,-0.3228420317173004
1707165603111737300,4.3747373046875,-0.4246273934841156,-0.24465134739875793,-0.2938259541988373
1707165603130697200,4.393697265625,-0.43837183713912964,-0.23426663875579834,-0.2519817352294922
1707165603149657000,4.412656982421875,-0.4515054225921631,-0.19792018830776215,-0.20189081132411957
1707165603168617000,4.431616943359375,-0.46433359384536743,-0.12095122784376144,-0.17715078592300415
1707165603187576800,4.450576904296875,-0.48265954852104187,-0.02718348242342472,-0.1853974610567093
1707165603206536700,4.46953662109375,-0.5077049732208252,0.03848448023200035,-0.19364413619041443
1707165603225496600,4.48849658203125,-0.5303069949150085,0.09285144507884979,-0.18264856934547424
1707165603244456400,4.50745654296875,-0.544967770576477,0.12095122784376144,-0.15210533142089844
1707165603263416300,4.526416259765625,-0.5495492219924927,0.16340632736682892,-0.1078176349401474
1707165603282376200,4.545376220703125,-0.5834522247314453,0.13500112295150757,-0.07910698652267456
1707165603301336000,4.564336181640625,-0.6433169841766357,0.0308486707508564,-0.06902772188186646
1707165603320296000,4.5832958984375,-0.7077631950378418,-0.09621120244264603,-0.0772743970155716
1707165603339255800,4.602255859375,-0.764879047870636,-0.19333870708942413,-0.09529490768909454
1707165603358215700,4.621215576171875,-0.8226057887077332,-0.1844811588525772,-0.1182023361325264
1707165603377175600,4.640175537109375,-0.8846085667610168,-0.02626718580722809,-0.13958260416984558
1707165603396135700,4.6591357421875,-0.9310342669487,0.19425499439239502,-0.1747073233127594
1707165603415095300,4.67809521484375,-0.9554688930511475,0.49663305282592773,-0.21227550506591797
1707165603434055200,4.69705517578125,-0.9524145722389221,0.7483093738555908,-0.21349723637104034
1707165603453015000,4.71601513671875,-0.8812488317489624,0.7901535630226135,-0.21197007596492767
1707165603471975200,4.73497509765625,-0.664391815662384,0.6982184648513794,-0.2617555558681488
1707165603490935000,4.75393505859375,-0.35529422760009766,0.3857611119747162,-0.4098902642726898
1707165603509895000,4.77289501953125,0.24640758335590363,0.021380268037319183,-0.582459568977356
1707165603528854800,4.791854736328125,0.8942296504974365,-0.30604326725006104,-0.6530144214630127
1707165603547814700,4.810814697265625,1.5069270133972168,-0.6921098232269287,-0.5904008150100708
1707165603566774500,4.8297744140625,2.0035600662231445,-0.9269872903823853,-0.3338375985622406
1707165603585734400,4.848734375,2.417726516723633,-1.2397500276565552,-0.15546508133411407
1707165603604694300,4.8676943359375,2.540815591812134,-1.7263038158416748,0.037262752652168274
1707165603623654100,4.886654052734375,2.5899903774261475,-1.9761475324630737,0.3802633285522461
1707165603642614000,4.905614013671875,2.379547357559204,-1.8698570728302002,0.66645348072052
1707165603661574000,4.924573974609375,1.519755244255066,-1.4269801378250122,0.8225294351577759
1707165603680533800,4.94353369140625,0.5933787822723389,-0.4043924808502197,0.7464767694473267
1707165603699493600,4.96249365234375,0.04390590637922287,0.5241219997406006,0.4667007029056549
1707165603718453500,4.98145361328125,-0.31497713923454285,0.9865466356277466,0.11942406743764877
1707165603737413400,5.000413330078125,-0.3494910001754761,1.1979057788848877,-0.19089524447917938
1707165603756373500,5.01937353515625,0.02130390889942646,1.2773182392120361,-0.42943793535232544
1707165603775333400,5.03833349609375,0.4846448302268982,1.2547162771224976,-0.6713404059410095
1707165603794293200,5.057293212890625,0.7296016216278076,0.9007201194763184,-0.9978476166725159
1707165603813253000,5.076253173828125,0.43608108162879944,0.6273581385612488,-0.8558215498924255
1707165603832213000,5.095212890625,-0.6268236041069031,0.19700388610363007,-1.2257001399993896
1707165603851172900,5.1141728515625,-1.8839833736419678,-0.20311254262924194,-1.877492904663086
1707165603870132700,5.1331328125,-2.418184518814087,-0.31459537148475647,-1.9917246103286743
1707165603889092600,5.152092529296875,-2.172006130218506,-0.5149590373039246,-1.9187263250350952
1707165603908052500,5.171052490234375,-1.7059162855148315,-0.8967494964599609,-1.8243476152420044
1707165603927012400,5.190012451171875,-1.837252140045166,-1.20981764793396,-1.9202533960342407
1707165603945972200,5.20897216796875,-2.7660720348358154,-0.9758564829826355,-2.467282772064209
1707165603964932400,5.227932373046875,-2.3583197593688965,-1.4587451219558716,-3.207650899887085
1707165603983892200,5.246892333984375,-1.6616286039352417,-1.2064579725265503,-3.481318473815918
1707165604002852000,5.26585205078125,-1.5758020877838135,-0.27580544352531433,-3.2006258964538574
1707165604021812000,5.28481201171875,-1.719660758972168,0.4575377106666565,-2.366795539855957
1707165604040771800,5.303771728515625,-1.93376886844635,0.5879573225975037,-1.4477494955062866
1707165604059731700,5.322731689453125,-2.032728910446167,-0.030543239787220955,-0.7470875978469849
1707165604078691600,5.341691650390625,-1.6326124668121338,-0.8142827749252319,-0.19883649051189423
1707165604097651500,5.3606513671875,-0.9802088737487793,-1.4865394830703735,0.11636973917484283
1707165604116611300,5.379611328125,-0.4441750645637512,-1.5063925981521606,0.5387827157974243
1707165604135571200,5.3985712890625,-0.173256516456604,-0.8301652073860168,1.1508692502975464
1707165604154531000,5.417531005859375,-0.06879864633083344,-0.10659590363502502,1.8292346000671387
1707165604173491200,5.4364912109375,0.05367974191904068,0.37232208251953125,2.3478586673736572
1707165604192451000,5.455451171875,0.247629314661026,0.5684096813201904,2.657567262649536
1707165604211411000,5.474410888671875,0.6682097315788269,0.6352993845939636,2.7336199283599854
1707165604230370800,5.493370849609375,1.159345030784607,0.6175842881202698,2.6019785404205322
1707165604249330700,5.51233056640625,1.5951969623565674,0.6637045741081238,2.4434590339660645
1707165604268290600,5.53129052734375,2.1348960399627686,1.1032217741012573,2.3897030353546143
1707165604287250400,5.55025048828125,3.181612730026245,1.9843941926956177,2.4245223999023438
1707165604306210300,5.569210205078125,4.454655170440674,2.768439292907715,2.589761257171631
1707165604325170200,5.588170166015625,4.516963481903076,1.9746203422546387,2.305098295211792
1707165604344130000,5.607130126953125,4.521544933319092,0.2657261788845062,2.2388193607330322
1707165604363090000,5.62608984375,3.4339001178741455,-0.9477567076683044,2.4382667541503906
1707165604382050000,5.645050048828125,1.7448588609695435,-1.2464696168899536,2.2727224826812744
1707165604401010000,5.664010009765625,0.6098721027374268,-0.9334014058113098,1.4721840620040894
1707165604419969800,5.6829697265625,0.5081631541252136,-0.006719512399286032,0.8915571570396423
1707165604438929700,5.7019296875,0.2934441566467285,0.916602611541748,0.6172788739204407
1707165604457889500,5.7208896484375,-0.25938844680786133,1.739132046699524,0.36682429909706116
1707165604476849400,5.739849365234375,-0.5767326951026917,2.3457207679748535,-0.06902772188186646
1707165604495809300,5.758809326171875,-0.5538252592086792,2.290742874145508,-0.41813695430755615
1707165604514769200,5.77776904296875,-0.507094144821167,1.2742639780044556,-0.8222240209579468
1707165604533729300,5.796729248046875,-0.3543779253959656,0.02779434807598591,-1.0564906597137451
1707165604552689200,5.815689208984375,-0.1576794683933258,-1.0403027534484863,-1.1759146451950073
1707165604571649000,5.83464892578125,-0.2618319094181061,-1.5943571329116821,-1.2626575231552124
1707165604590609000,5.85360888671875,-0.7706822752952576,-1.7376048564910889,-1.3390156030654907
1707165604609568800,5.87256884765625,-1.3387864828109741,-1.4923427104949951,-1.4370594024658203
1707165604628528600,5.891528564453125,-1.590157389640808,-1.0161736011505127,-1.4550799131393433
1707165604647488500,5.910488525390625,-1.4337760210037231,-0.7861829996109009,-1.583056092262268
1707165604666448400,5.929448486328125,-1.2932771444320679,-0.8988875150680542,-1.8124357461929321
1707165604685408300,5.948408203125,-1.3656646013259888,-0.39278605580329895,-2.44162654876709
1707165604704368400,5.967368408203125,-2.035783290863037,-0.9404263496398926,-3.2207846641540527
1707165604723328300,5.986328369140625,-2.172311544418335,-1.156977891921997,-3.0772314071655273
1707165604742288100,6.0052880859375,-1.5449533462524414,-1.0323615074157715,-2.6816964149475098
1707165604761248000,6.024248046875,-1.1946223974227905,-0.8909462690353394,-2.165821075439453
1707165604780207900,6.043207763671875,-1.3525309562683105,-1.2437206506729126,-1.6117666959762573
1707165604799167700,6.062167724609375,-1.683619737625122,-2.006690740585327,-1.1774418354034424
1707165604818128000,6.0811279296875,-1.6310852766036987,-2.3790128231048584,-0.8106175661087036
1707165604837087700,6.100087646484375,-1.4105631113052368,-2.207054376602173,-0.4663952589035034
1707165604856047600,6.119047607421875,-1.2239439487457275,-1.6285655498504639,-0.19761475920677185
1707165604875007500,6.138007568359375,-1.1564433574676514,-0.9975422024726868,0.1948658674955368
1707165604893967400,6.15696728515625,-1.023885726928711,-0.3958403766155243,0.7122683525085449
1707165604912927200,6.17592724609375,-0.8051961660385132,-0.05436696484684944,1.1856884956359863
1707165604931887400,6.194887451171875,-0.48449212312698364,-0.05345066636800766,1.4617993831634521
1707165604950847200,6.21384716796875,0.03260490670800209,-0.06536252796649933,1.6050472259521484
1707165604969807000,6.23280712890625,0.5539780259132385,0.0873536616563797,1.654221773147583
1707165604988767000,6.25176708984375,1.0060179233551025,0.2608392536640167,1.7540981769561768
1707165605007727000,6.27072705078125,1.5670971870422363,0.7168498039245605,1.91414475440979
1707165605026687000,6.28968701171875,2.3810746669769287,1.9526292085647583,2.1722352504730225
1707165605045646800,6.308646728515625,3.538663387298584,3.5534005165100098,2.958418130874634
1707165605064606700,6.327606689453125,3.614410638809204,3.4852890968322754,2.7904303073883057
1707165605083566600,6.346566650390625,2.7210206985473633,2.0720534324645996,2.6667301654815674
1707165605102526700,6.365526611328125,1.4131592512130737,1.3802490234375,3.182910919189453
1707165605121486600,6.384486572265625,1.0390046834945679,0.8921679854393005,2.5390594005584717
1707165605140446500,6.403446533203125,0.4076758921146393,0.2834412455558777,1.63620126247406
1707165605159406300,6.42240625,0.0631481483578682,0.3283398151397705,1.0943642854690552
1707165605178366500,6.441366455078125,-0.26946771144866943,0.94439697265625,0.6450732350349426
1707165605197326300,6.460326416015625,-0.30398157238960266,1.8002184629440308,0.23518294095993042
1707165605216286200,6.4792861328125,-0.014737112447619438,2.218050003051758,-0.10537417232990265
1707165605235246000,6.49824609375,0.19784383475780487,1.5604541301727295,-0.6511818766593933
1707165605254206200,6.517206298828125,0.26564982533454895,0.5619956254959106,-1.2257001399993896
1707165605273166000,6.536166015625,0.3096320927143097,-0.2510654330253601,-1.5583161115646362
1707165605292126000,6.5551259765625,0.43913543224334717,-0.9657772183418274,-1.775783896446228
1707165605311086000,6.574086181640625,0.1755472719669342,-1.4715732336044312,-1.951712965965271
1707165605330046000,6.5930458984375,-0.626518189907074,-1.4737112522125244,-2.020129919052124
1707165605349005800,6.612005859375,-1.4450769424438477,-1.2690715789794922,-2.036623239517212
1707165605367965700,6.630965576171875,-1.7651700973510742,-1.0201442241668701,-2.0628902912139893
1707165605386925800,6.64992578125,-1.62742018699646,-1.0228930711746216,-2.0723588466644287
1707165605405885700,6.6688857421875,-1.5861867666244507,-0.813060998916626,-2.221104383468628
1707165605424845600,6.687845458984375,-1.458821415901184,-0.18417572975158691,-3.0213372707366943
1707165605443805400,6.706805419921875,-2.3613741397857666,-1.6725478172302246,-3.1587817668914795
1707165605462765600,6.725765625,-2.043419122695923,-1.5671736001968384,-2.5524985790252686
1707165605481725400,6.744725341796875,-1.0302997827529907,-1.0986403226852417,-2.01188325881958
1707165605500685600,6.763685546875,-0.6759982109069824,-0.6047561168670654,-1.3723077774047852
1707165605519645400,6.7826455078125,-1.1924843788146973,-0.9037744402885437,-0.7999274134635925
1707165605538605300,6.801605224609375,-1.5806889533996582,-1.571755051612854,-0.48655378818511963
1707165605557565400,6.8205654296875,-1.4337760210037231,-1.9468261003494263,-0.31093016266822815
1707165605576525300,6.839525390625,-1.1631629467010498,-1.8106032609939575,-0.11331541836261749
1707165605595485200,6.858485107421875,-1.0599267482757568,-1.4062107801437378,0.18631376326084137
1707165605614445300,6.8774453125,-1.0006728172302246,-0.8017600178718567,0.7199041247367859
1707165605633405200,6.8964052734375,-0.8375719785690308,-0.1637117564678192,1.3206896781921387
1707165605652365000,6.915364990234375,-0.6570614576339722,0.2767217457294464,1.7751730680465698
1707165605671325000,6.934324951171875,-0.3827831447124481,0.5073232054710388,2.022573232650757
1707165605690285000,6.95328515625,0.18471023440361023,0.675616443157196,2.123365879058838
1707165605709245000,6.972244873046875,0.9091958403587341,1.0042617321014404,2.1725406646728516
1707165605728205000,6.991205078125,1.8187735080718994,1.592524528503418,2.2846343517303467
1707165605747165000,7.0101650390625,2.943986415863037,2.615722894668579,2.3292274475097656
1707165605766125000,7.029125,4.486114501953125,4.317592144012451,2.5726571083068848
1707165605785085000,7.0480849609375,4.604011535644531,4.178315162658691,2.944979190826416
1707165605804045000,7.067045166015625,3.6232681274414062,1.820376992225647,2.3087635040283203
1707165605823005000,7.0860048828125,1.8731404542922974,0.5213730931282043,2.984379768371582
1707165605841964800,7.10496484375,1.2182934284210205,0.4312705397605896,2.866482973098755
1707165605860925000,7.123925048828125,0.7103593945503235,0.45875945687294006,1.8350378274917603
1707165605879884800,7.142884765625,0.6233111619949341,0.730594277381897,1.3011419773101807
1707165605898845000,7.161844970703125,0.26015204191207886,1.0308343172073364,1.0867284536361694
1707165605917804800,7.1808046875,-0.3571268320083618,1.3289363384246826,0.7171552777290344
1707165605936764700,7.1997646484375,-0.5394699573516846,1.7944152355194092,0.3500255048274994
1707165605955724800,7.218724853515625,-0.32566729187965393,1.9935572147369385,0.06047561392188072
1707165605974684700,7.2376845703125,-0.2514472007751465,1.4352267980575562,-0.5968148708343506
1707165605993644800,7.256644775390625,-0.11033745110034943,0.7379246354103088,-1.0723731517791748
1707165606012604700,7.275604736328125,0.2271653413772583,0.13683371245861053,-1.1151336431503296
1707165606031564500,7.294564453125,0.30291256308555603,-0.5146535634994507,-1.2547162771224976
1707165606050524700,7.313524658203125,-0.3268890082836151,-1.035415768623352,-1.431867003440857
1707165606069484500,7.332484619140625,-1.1295653581619263,-1.2956441640853882,-1.4459168910980225
1707165606088444700,7.351444580078125,-1.4496585130691528,-1.1352921724319458,-1.5296053886413574
1707165606107404500,7.370404541015625,-1.318933367729187,-1.036332130432129,-1.6435316801071167
1707165606126364700,7.38936474609375,-1.377576470375061,-0.9706641435623169,-1.6450588703155518
1707165606145324500,7.408324462890625,-1.9801945686340332,0.15515965223312378,-2.1297800540924072
1707165606164284700,7.42728466796875,-2.3131158351898193,-0.6444623470306396,-2.7840161323547363
1707165606183244500,7.44624462890625,-1.8787909746170044,-0.8161153197288513,-2.461174249649048
1707165606202204700,7.46520458984375,-1.0864993333816528,-1.1536180973052979,-2.3435826301574707
1707165606221164500,7.48416455078125,-0.866893470287323,-1.0259474515914917,-1.9950844049453735
1707165606240124400,7.50312451171875,-1.3167953491210938,-1.470046043395996,-1.6496403217315674
1707165606259084500,7.52208447265625,-1.6390265226364136,-2.014326572418213,-1.3823870420455933
1707165606278044400,7.54104443359375,-1.5950442552566528,-2.207665205001831,-1.083979606628418
1707165606297004500,7.560004638671875,-1.3671917915344238,-2.213163137435913,-0.8836159110069275
1707165606315964400,7.57896435546875,-1.1726312637329102,-1.9101741313934326,-0.6230821013450623
1707165606334924500,7.597924560546875,-1.0461822748184204,-1.3542872667312622,-0.16096286475658417
1707165606353884400,7.616884521484375,-0.8464295268058777,-0.722347617149353,0.4196641147136688
1707165606372844500,7.635844482421875,-0.5614610910415649,-0.32528549432754517,0.9480621218681335
1707165606391804400,7.654804443359375,-0.06391172856092453,-0.12522727251052856,1.4440842866897583
1707165606410764500,7.6737646484375,0.6144536137580872,0.2571740746498108,1.8857395648956299
1707165606429724400,7.692724365234375,1.3068687915802002,0.7006618976593018,2.154825448989868
1707165606448684500,7.7116845703125,2.1150429248809814,1.314581036567688,2.4049746990203857
1707165606467644400,7.73064453125,3.1382415294647217,2.6890268325805664,2.6386303901672363
1707165606486604500,7.7496044921875,4.688310623168945,4.3713483810424805,3.445582866668701
1707165606505564400,7.768564453125,4.35508394241333,3.6089890003204346,3.001178741455078
1707165606524524500,7.787524658203125,1.640401005744934,0.7009673118591309,2.9407031536102295
1707165606543484400,7.806484375,-0.49396052956581116,-0.481361448764801,3.859138250350952
1707165606562444500,7.825444580078125,-0.3073413372039795,-1.3066397905349731,2.545168161392212
1707165606581404400,7.844404296875,0.0475710928440094,-1.4868448972702026,1.5164718627929688
1707165606600364500,7.863364501953125,-0.3485747277736664,-1.0308343172073364,0.9605848789215088
1707165606619324400,7.882324462890625,-0.5672643184661865,0.943175196647644,0.30085089802742004
1707165606638284500,7.901284423828125,0.24426954984664917,2.6972734928131104,-0.1740964651107788
1707165606657244400,7.920244384765625,0.6049851775169373,3.4165666103363037,-0.5262600183486938
1707165606676204500,7.93920458984375,0.5044979453086853,2.7724099159240723,-1.174692988395691
1707165606695164700,7.95816455078125,0.2738964855670929,1.5610649585723877,-1.5018110275268555
1707165606714124500,7.97712451171875,0.19540037214756012,0.23273947834968567,-1.4828742742538452
1707165606733084700,7.996084716796875,0.016416991129517555,-0.924849271774292,-1.3555089235305786
1707165606752044500,8.01504443359375,-0.6619483232498169,-1.4953969717025757,-1.2797616720199585
1707165606771004700,8.034004638671876,-1.6002366542816162,-1.5851941108703613,-1.2202024459838867
1707165606789964500,8.052964599609375,-2.143906354904175,-1.387579321861267,-1.1417062282562256
1707165606808924700,8.071924560546876,-2.1826961040496826,-1.0687079429626465,-1.1365139484405518
1707165606827884500,8.090884521484375,-2.320446252822876,-0.573602020740509,-1.314886450767517
1707165606846844700,8.1098447265625,-2.4007749557495117,-0.32681265473365784,-2.0131049156188965
1707165606865804500,8.128804443359375,-2.912679672241211,-1.28556489944458,-2.3814563751220703
1707165606884764700,8.1477646484375,-1.8794018030166626,-1.5115848779678345,-2.500575065612793
1707165606903724500,8.166724609375,-0.857119619846344,-1.4926481246948242,-2.598924160003662
1707165606922684700,8.1856845703125,-0.6381246447563171,-1.499062180519104,-2.0949606895446777
1707165606941644500,8.20464453125,-1.1851540803909302,-1.4208714962005615,-1.6056580543518066
1707165606960604700,8.223604736328125,-1.7224096059799194,-1.1615593433380127,-1.232419729232788
1707165606979564800,8.242564697265625,-1.9591196775436401,-1.2302817106246948,-1.0021237134933472
1707165606998524700,8.261524658203125,-1.8595486879348755,-1.4407246112823486,-0.7571669220924377
1707165607017484800,8.28048486328125,-1.7138575315475464,-1.7085888385772705,-0.3222311735153198
1707165607036444700,8.299444580078125,-1.4753148555755615,-1.5763366222381592,0.3069595396518707
1707165607055404800,8.31840478515625,-1.1594977378845215,-1.2281436920166016,0.8304706811904907
1707165607074364700,8.33736474609375,-0.711122989654541,-1.1410953998565674,1.092226266860962
1707165607093324800,8.35632470703125,-0.13935352861881256,-0.8399390578269958,1.275791049003601
1707165607112284700,8.37528466796875,0.4571559429168701,-0.05192350596189499,1.4874557256698608
1707165607131244800,8.394244873046874,1.0356448888778687,1.053741693496704,1.852752923965454
1707165607150205000,8.413204833984375,1.6614758968353271,2.32464599609375,2.414748430252075
1707165607169164800,8.432164794921874,2.628474712371826,3.9186975955963135,2.973078966140747
1707165607188125000,8.451125,4.387459754943848,6.322450637817383,3.5246896743774414
1707165607207084800,8.470084716796874,4.842248916625977,6.028624534606934,3.068373680114746
1707165607226045000,8.489044921875,4.078056812286377,2.780656576156616,2.452927589416504
1707165607245004800,8.5080048828125,2.331899881362915,-0.1029307171702385,3.4739880561828613
1707165607263965000,8.52696484375,2.0279946327209473,-1.3362667560577393,2.9578073024749756
1707165607282924800,8.5459248046875,1.4635556936264038,-1.054658055305481,1.9260566234588623
1707165607301885000,8.564885009765625,1.0237330198287964,-0.21380266547203064,1.2941170930862427
1707165607320844800,8.5838447265625,0.6474403142929077,1.4602723121643066,0.9107993841171265
1707165607339805000,8.602804931640625,0.5747473835945129,2.6899430751800537,0.4221075773239136
1707165607358765000,8.62176513671875,0.6239219903945923,2.660010576248169,-0.1997527778148651
1707165607377725000,8.640724853515625,0.5252673625946045,1.8090760707855225,-0.7232639193534851
1707165607396685000,8.65968505859375,0.40523242950439453,0.5962040424346924,-1.0900882482528687
1707165607415645000,8.67864501953125,0.31848961114883423,-0.5619956254959106,-1.2122611999511719
1707165607434605000,8.69760498046875,0.09582941234111786,-1.1502584218978882,-1.2089014053344727
1707165607453565000,8.71656494140625,-0.38614290952682495,-1.1026109457015991,-1.2214241027832031
1707165607472525000,8.735525146484376,-1.1787399053573608,-0.8643736839294434,-1.1255183219909668
1707165607491485000,8.75448486328125,-1.8494694232940674,-0.7021890878677368,-1.0403027534484863
1707165607510445000,8.773445068359376,-2.027536630630493,-0.7919861674308777,-1.1249074935913086
1707165607529405000,8.792405029296875,-1.802127480506897,-1.1331541538238525,-1.4621047973632812
1707165607548365000,8.811364990234376,-1.8488585948944092,-0.6365211009979248,-2.388481378555298
1707165607567325000,8.830324951171875,-3.368690252304077,-1.181717872619629,-2.9965972900390625
1707165607586285000,8.84928515625,-2.600527763366699,-0.9862411618232727,-2.528369426727295
1707165607605245000,8.868244873046875,-1.5834379196166992,-0.8173370957374573,-2.5692973136901855
1707165607624205000,8.887205078125,-1.497305989265442,-1.0341941118240356,-2.478583812713623
1707165607643165000,8.9061650390625,-1.8900920152664185,-1.7996076345443726,-2.0974042415618896
1707165607662125000,8.925125,-2.1200826168060303,-2.5268421173095703,-1.8380920886993408
1707165607681085000,8.9440849609375,-2.216904640197754,-2.822195291519165,-1.6627739667892456
1707165607700045000,8.963045166015625,-2.152763843536377,-2.6560399532318115,-1.4972295761108398
1707165607719005200,8.982005126953124,-1.8464151620864868,-2.1117594242095947,-1.1255183219909668
1707165607737965000,9.000965087890625,-1.4521019458770752,-1.462715744972229,-0.38301220536231995
1707165607756925200,9.01992529296875,-1.0370193719863892,-1.073289394378662,0.3750709891319275
1707165607775885000,9.038885009765625,-0.6445387005805969,-0.8958331942558289,0.7599157691001892
1707165607794845200,9.05784521484375,-0.2395353466272354,-0.4841103255748749,0.9883792400360107
1707165607813805000,9.07680517578125,0.17463096976280212,0.3280344009399414,1.3371829986572266
1707165607832765200,9.09576513671875,0.6138427257537842,1.4184280633926392,1.7510439157485962
1707165607851725000,9.11472509765625,1.233870506286621,2.501185894012451,2.1245877742767334
1707165607870685200,9.133685302734374,2.136728525161743,3.426035165786743,2.293797254562378
1707165607889645000,9.15264501953125,3.183445453643799,4.3829545974731445,2.361603260040283
1707165607908605200,9.171605224609374,4.79704475402832,4.919599533081055,3.067457437515259
1707165607927565300,9.1905654296875,4.954342365264893,2.8008151054382324,2.1856741905212402
1707165607946525200,9.209525146484374,2.9696428775787354,-0.6249146461486816,2.4043638706207275
1707165607965485300,9.2284853515625,1.1254420280456543,-1.6517783403396606,3.400073289871216
1707165607984445200,9.247445068359376,1.0628283023834229,-1.2299761772155762,2.581209182739258
1707165608003405300,9.2664052734375,0.9290489554405212,-0.26022839546203613,1.7091996669769287
1707165608022365200,9.285365234375,0.5646681189537048,0.8063415288925171,1.1808016300201416
1707165608041325300,9.3043251953125,0.1245400533080101,2.2730278968811035,1.035110354423523
1707165608060285200,9.32328515625,0.1914297491312027,3.1758859157562256,0.7516691088676453
1707165608079245300,9.342245361328125,0.18012875318527222,2.85854172706604,0.05406153202056885
1707165608098205400,9.361205322265626,0.01977674663066864,1.5094468593597412,-0.49052441120147705
1707165608117165300,9.380165283203125,0.093691386282444,0.10079269111156464,-0.7373138070106506
1707165608136125400,9.39912548828125,0.2833648920059204,-0.8350521326065063,-0.9874629378318787
1707165608155085300,9.418085205078125,0.30627232789993286,-1.3271037340164185,-1.237917423248291
1707165608174045400,9.43704541015625,-0.08254310488700867,-1.306334376335144,-1.3405427932739258
1707165608193005300,9.45600537109375,-0.7984766364097595,-1.0137300491333008,-1.5528182983398438
1707165608211965400,9.47496533203125,-1.404149055480957,-0.5137372612953186,-1.7886121273040771
1707165608230925300,9.49392529296875,-1.7419573068618774,-0.26389357447624207,-2.0124940872192383
1707165608249885400,9.512885498046876,-1.9533164501190186,-0.03817904740571976,-2.4355177879333496
1707165608268845300,9.53184521484375,-3.077613115310669,-0.9025527238845825,-2.87747859954834
1707165608287805400,9.550805419921875,-2.943222761154175,-1.4886775016784668,-2.4633121490478516
1707165608306765300,9.569765380859375,-1.827478289604187,-1.3405427932739258,-2.4049746990203857
1707165608325725400,9.588725341796875,-1.6567416191101074,-1.443168044090271,-2.522566080093384
1707165608344685600,9.607685546875,-1.6924772262573242,-1.757763385772705,-2.1215333938598633
1707165608363645400,9.6266455078125,-1.716911792755127,-1.842979073524475,-1.644142508506775
1707165608382605600,9.64560546875,-1.9050581455230713,-1.7876957654953003,-1.3368775844573975
1707165608401565400,9.6645654296875,-2.0345613956451416,-1.5216641426086426,-1.0497710704803467
1707165608420525600,9.683525634765624,-1.8989495038986206,-1.248913049697876,-0.7339540123939514
1707165608439485400,9.7024853515625,-1.7114139795303345,-1.044884204864502,-0.2629773020744324
1707165608458445600,9.721445556640624,-1.367802619934082,-0.7834340929985046,0.2816086709499359
1707165608477405400,9.740405517578125,-0.8409317135810852,-0.6884446144104004,0.6472112536430359
1707165608496365600,9.759365478515624,-0.21601705253124237,-0.7544180154800415,0.8124501705169678
1707165608515325400,9.778325439453125,0.3908770978450775,-0.4474584460258484,1.018311619758606
1707165608534285600,9.79728564453125,0.9693660736083984,0.2767217457294464,1.3597849607467651
1707165608553245400,9.816245361328125,1.5228095054626465,1.2968659400939941,1.6679662466049194
1707165608572205600,9.83520556640625,2.102214813232422,2.321286201477051,1.9767584800720215
1707165608591165400,9.85416552734375,2.834030866622925,3.3377652168273926,2.1172573566436768
1707165608610125600,9.87312548828125,3.8251588344573975,4.819112300872803,2.34694242477417
1707165608629085400,9.89208544921875,4.798266410827637,4.736645698547363,3.0463826656341553
1707165608648045600,9.911045654296874,4.895699501037598,3.0744824409484863,1.9269729852676392
1707165608667005400,9.93000537109375,2.375882148742676,1.3997966051101685,3.126405954360962
1707165608685965600,9.948965576171876,1.3911681175231934,0.9364557266235352,3.481013059616089
1707165608704925400,9.967925537109375,1.1617884635925293,-0.08155044913291931,2.357938051223755
1707165608723885600,9.986885498046876,0.8704059720039368,-0.8011491298675537,1.5036436319351196
1707165608742845400,10.005845458984375,0.47028952836990356,-0.7043271064758301,1.405294418334961
1707165608761805600,10.0248056640625,-0.31467172503471375,0.30451610684394836,1.2846486568450928
1707165608780765400,10.043765380859375,-0.3748418986797333,1.898873209953308,0.8313869833946228
1707165608799725600,10.0627255859375,-0.022678354755043983,2.6193881034851074,0.04428769648075104
1707165608818685400,10.081685546875,0.2629009187221527,1.959959626197815,-0.6554579138755798
1707165608837645600,10.1006455078125,0.6437751054763794,0.6918043494224548,-1.083979606628418
1707165608856605400,10.11960546875,0.594295084476471,-0.758083164691925,-1.4382811784744263
1707165608875565600,10.138565673828126,-0.07338013499975204,-1.7150028944015503,-1.617569923400879
1707165608894525400,10.157525390625,-0.802752673625946,-1.8130466938018799,-1.6841541528701782
1707165608913485600,10.176485595703125,-1.3510037660598755,-1.3405427932739258,-1.832594394683838
1707165608932445400,10.195445556640625,-1.719660758972168,-0.8374956250190735,-2.1447463035583496
1707165608951405600,10.214405517578125,-2.0651047229766846,-0.45478883385658264,-2.483776092529297
1707165608970365400,10.233365478515625,-1.5648064613342285,0.31673339009284973,-2.9804091453552246
1707165608989325600,10.25232568359375,-2.5198936462402344,-1.2809834480285645,-3.1844379901885986
1707165609008285700,10.27128564453125,-2.613355875015259,-2.0659446716308594,-2.442237377166748
1707165609027245600,10.29024560546875,-1.3638319969177246,-1.6869031190872192,-1.9007058143615723
1707165609046205700,10.309205810546874,-1.4438552856445312,-1.627343773841858,-1.5048654079437256
1707165609065165600,10.32816552734375,-1.9997422695159912,-1.8836015462875366,-1.1988221406936646
1707165609084125700,10.347125732421874,-2.1707842350006104,-2.2809691429138184,-1.102000117301941
1707165609103085600,10.36608544921875,-2.0819034576416016,-2.0158538818359375,-0.9596685767173767
1707165609122045700,10.385045654296874,-1.9279656410217285,-1.4639374017715454,-0.8646790981292725
1707165609141005600,10.404005615234375,-1.7245476245880127,-1.0372483730316162,-0.6319395899772644
1707165609159965700,10.422965576171874,-1.4820343255996704,-0.8817833065986633,-0.10140355676412582
1707165609178925600,10.441925537109375,-1.2328014373779297,-1.0671807527542114,0.3637699782848358
1707165609197885700,10.4608857421875,-0.9069051146507263,-1.2464696168899536,0.627968966960907
1707165609216845600,10.479845458984375,-0.2771035432815552,-0.9355394244194031,0.7834340929985046
1707165609235805700,10.4988056640625,0.36949682235717773,-0.13744457066059113,0.9312633275985718
1707165609254765600,10.517765625,0.8832340836524963,0.7806851863861084,1.277012825012207
1707165609273725700,10.5367255859375,1.5194498300552368,1.7171409130096436,1.7983858585357666
1707165609292685600,10.555685546875,2.3642756938934326,2.819140911102295,2.224158763885498
1707165609311645700,10.574645751953126,3.50842547416687,4.558272838592529,2.6392412185668945
1707165609330605600,10.59360546875,4.312934398651123,4.685027599334717,3.126711368560791
1707165609349565700,10.612565673828126,3.499567985534668,2.785543441772461,2.0271546840667725
1707165609368525600,10.631525634765625,1.7427208423614502,1.155145287513733,3.2061238288879395
1707165609387485700,10.650485595703126,1.557628870010376,0.6319395899772644,3.4468045234680176
1707165609406445600,10.669445556640625,1.3193916082382202,-0.35216355323791504,2.4352123737335205
1707165609425405700,10.68840576171875,0.6654608249664307,-0.9245438575744629,1.8374812602996826
1707165609444365600,10.707365478515625,0.2430478185415268,-0.3759872615337372,1.7715078592300415
1707165609463325700,10.72632568359375,-0.018402300775051117,0.9416480660438538,1.7088942527770996
1707165609482285600,10.74528564453125,0.3340666890144348,2.2146902084350586,1.1441497802734375
1707165609501245700,10.76424560546875,0.7103593945503235,2.3032655715942383,0.30634868144989014
1707165609520205600,10.78320556640625,0.8856775760650635,1.5097522735595703,-0.27000224590301514
1707165609539165700,10.802165771484376,0.9696714878082275,0.4786125421524048,-0.5882627964019775
1707165609558125600,10.82112548828125,0.566500723361969,-0.7806851863861084,-0.8545998334884644
1707165609577085700,10.840085693359375,-0.2865719497203827,-1.6053526401519775,-1.046411395072937
1707165609596045600,10.859045654296875,-1.0309107303619385,-1.7278310060501099,-1.2101231813430786
1707165609615005700,10.878005615234375,-1.451491117477417,-1.2898409366607666,-1.4013237953186035
1707165609633965600,10.896965576171874,-1.6203951835632324,-0.9230166673660278,-1.8435899019241333
1707165609652925700,10.91592578125,-1.6533818244934082,-0.3848448097705841,-2.5198171138763428
1707165609671885600,10.934885498046874,-2.292041063308716,-0.49082985520362854,-3.2314746379852295
1707165609690845700,10.953845703125,-3.1692428588867188,-0.961195707321167,-3.230558395385742
1707165609709805600,10.9728056640625,-1.9740859270095825,-1.220813274383545,-2.7320926189422607
1707165609728765700,10.991765625,-1.4047598838806152,-1.507308840751648,-2.6258022785186768
1707165609747725600,11.0107255859375,-1.4905864000320435,-1.943466305732727,-2.268141031265259
1707165609766685700,11.029685791015625,-1.856494426727295,-2.3032655715942383,-1.9031492471694946
1707165609785645600,11.0486455078125,-1.9713369607925415,-2.3463315963745117,-1.5763366222381592
1707165609804605700,11.067605712890625,-2.0085997581481934,-2.170707941055298,-1.370475172996521
1707165609823565600,11.086565673828124,-1.9423209428787231,-1.9587379693984985,-1.2302817106246948
1707165609842525700,11.105525634765625,-1.7489821910858154,-1.6924008131027222,-0.9334014058113098
1707165609861485600,11.124485595703124,-1.4707332849502563,-1.3490948677062988,-0.4373791813850403
1707165609880445700,11.14344580078125,-1.1671335697174072,-1.000596523284912,0.0513126403093338
1707165609899405600,11.162405517578126,-0.6979893445968628,-0.712573766708374,0.40866854786872864
1707165609918365700,11.18136572265625,-0.024205517023801804,-0.3130682110786438,0.7733548283576965
1707165609937325600,11.20032568359375,0.7543416619300842,0.2528980076313019,1.1059707403182983
1707165609956285700,11.21928564453125,1.648342251777649,1.0454950332641602,1.444389820098877
1707165609975245800,11.238245849609376,2.58296537399292,2.028376579284668,1.8671082258224487
1707165609994205700,11.257205810546875,3.524613380432129,3.285230875015259,2.2009458541870117
1707165610013165800,11.276165771484376,4.704803943634033,4.91196346282959,2.3900084495544434
1707165610032125700,11.295125732421875,4.790019989013672,3.9938340187072754,1.8002184629440308
1707165610051085800,11.3140859375,2.4537675380706787,1.4645483493804932,1.9550727605819702
1707165610070045700,11.333045654296875,0.900338351726532,0.8426879644393921,3.165501356124878
1707165610089005800,11.352005859375,1.054581642150879,0.4010327160358429,2.534477949142456
1707165610107965700,11.370965576171875,0.7204386591911316,-0.1792888194322586,1.7861685752868652
1707165610126925800,11.38992578125,0.38324129581451416,-0.30634868144989014,1.7137811183929443
1707165610145886000,11.408885986328125,-0.16103923320770264,0.3283398151397705,1.711643099784851
1707165610164845800,11.427845703125,-0.2606101930141449,1.6591087579727173,1.5433498620986938
1707165610183806000,11.446805908203125,0.17890702188014984,2.4935500621795654,1.1994329690933228
1707165610202765800,11.465765869140625,0.5136609077453613,2.240346670150757,0.5476402640342712
1707165610221726000,11.484725830078125,0.6944769024848938,1.2638791799545288,-0.06994401663541794
1707165610240686000,11.50368603515625,0.7583122849464417,0.39736753702163696,-0.29504770040512085
1707165610259646000,11.52264599609375,0.6724857687950134,-0.4477638900279999,-0.4053087830543518
1707165610278606000,11.541606201171875,0.16699515283107758,-0.8839213252067566,-0.49571678042411804
1707165610297566000,11.56056591796875,-0.7511346340179443,-1.0210604667663574,-0.5342012643814087
1707165610316526000,11.579526123046875,-1.5470913648605347,-1.005788803100586,-0.6985238790512085
1707165610335486200,11.598486328125,-1.7288236618041992,-1.036332130432129,-1.0577123165130615
1707165610354446000,11.617446044921875,-1.5101341009140015,-1.10230553150177,-1.5586215257644653
1707165610373406200,11.63640625,-2.234314203262329,-1.2556325197219849,-2.355494499206543
1707165610392366000,11.655365966796875,-2.756298303604126,-0.8188642263412476,-2.6615378856658936
1707165610411326200,11.674326171875,-1.6478841304779053,-0.6276635527610779,-2.6224424839019775
1707165610430286000,11.6932861328125,-1.2141700983047485,-0.9324851036071777,-2.5524985790252686
1707165610449246200,11.71224609375,-1.1213186979293823,-1.5864158868789673,-2.3784019947052
1707165610468206300,11.731206298828125,-1.4371356964111328,-1.915366530418396,-2.0039420127868652
1707165610487166200,11.750166259765624,-1.7361540794372559,-2.1187844276428223,-1.7452406883239746
1707165610506126300,11.769126220703125,-2.021122455596924,-2.126420259475708,-1.562286615371704
1707165610525086200,11.788086181640624,-1.9985204935073853,-1.9935572147369385,-1.2974767684936523
1707165610544046300,11.80704638671875,-1.775554895401001,-1.6410882472991943,-0.7880155444145203
1707165610563006500,11.82600634765625,-1.3910154104232788,-1.135903000831604,-0.1380554437637329
1707165610581966600,11.844966552734375,-0.8751401305198669,-0.5790998339653015,0.3860665261745453
1707165610600926500,11.863926513671874,-0.29940009117126465,-0.11362084746360779,0.6768381595611572
1707165610619886600,11.882886474609375,0.428139865398407,0.3274235129356384,0.9034690260887146
1707165610638846700,11.9018466796875,1.1599558591842651,0.8735366463661194,1.1588104963302612
1707165610657806600,11.920806640625,1.8288527727127075,1.5598431825637817,1.5042544603347778
1707165610676766700,11.9397666015625,2.4339144229888916,2.517984628677368,1.8274019956588745
1707165610695726600,11.9587265625,3.108614444732666,3.562258005142212,1.859777808189392
1707165610714686700,11.977686767578126,4.087219715118408,4.822777271270752,2.1505494117736816
1707165610733646800,11.996646728515625,4.910054683685303,4.471529960632324,1.8063271045684814
1707165610752606700,12.015606689453126,3.4225990772247314,2.1725406646728516,1.8866559267044067
1707165610771566800,12.03456689453125,1.4015529155731201,-0.5335903763771057,2.7650794982910156
1707165610790527000,12.05352685546875,0.8591049313545227,-0.9776890873908997,2.1416919231414795
1707165610809487000,12.072487060546875,0.1043815165758133,-1.275485634803772,1.5867213010787964
1707165610828447000,12.091447021484376,-0.2086866796016693,-0.8393282294273376,1.3762784004211426
1707165610847407000,12.110406982421875,-0.4960985481739044,0.3494146466255188,1.293811559677124
1707165610866367200,12.1293671875,-0.6372083425521851,1.4575233459472656,1.145371437072754
1707165610885327000,12.1483271484375,-0.30520331859588623,1.9077306985855103,0.7449495792388916
1707165610904287200,12.167287353515626,0.11232276260852814,1.5445716381072998,0.13591741025447845
1707165610923247400,12.186247314453125,0.47059494256973267,0.6765327453613281,-0.17287473380565643
1707165610942207200,12.205207275390626,0.8420007228851318,-0.3237583339214325,-0.3695732057094574
1707165610961167400,12.22416748046875,0.9220240116119385,-0.8582650423049927,-0.5430588126182556
1707165610980127500,12.24312744140625,0.4592939615249634,-0.8347467184066772,-0.5696313977241516
1707165610999087400,12.26208740234375,-0.4145480990409851,-0.6068941354751587,-0.5494728684425354
1707165611018047500,12.281047607421876,-1.201647400856018,-0.3808741867542267,-0.6994401812553406
1707165611037007600,12.300007568359375,-1.550756573677063,-0.3173442482948303,-1.1117738485336304
1707165611055967700,12.3189677734375,-1.2670098543167114,-0.8011491298675537,-1.6545273065567017
1707165611074927900,12.337927978515625,-1.2065342664718628,-1.3240493535995483,-2.1355831623077393
1707165611093887700,12.3568876953125,-2.941084861755371,-1.68354332447052,-2.6890268325805664
1707165611112848000,12.375847900390625,-2.1930809020996094,-0.7611374855041504,-2.6410739421844482
1707165611131807700,12.394807861328125,-1.190040946006775,-0.4938841760158539,-2.27730393409729
1707165611150767900,12.413767822265624,-1.0138064622879028,-1.0906990766525269,-2.012188673019409
1707165611169728000,12.43272802734375,-1.1924843788146973,-2.0693044662475586,-1.851225733757019
1707165611188688100,12.451688232421875,-1.4701224565505981,-2.5583016872406006,-1.5876375436782837
1707165611207648000,12.47064794921875,-1.6106213331222534,-2.5830416679382324,-1.4541635513305664
1707165611226608000,12.489608154296874,-1.6851468086242676,-2.2421791553497314,-1.3814706802368164
1707165611245568300,12.508568359375,-1.6930880546569824,-1.8390084505081177,-1.1282672882080078
1707165611264528400,12.5275283203125,-1.626198410987854,-1.3997966051101685,-0.5131264328956604
1707165611283488300,12.54648828125,-1.4554617404937744,-0.9398154616355896,0.18325942754745483
1707165611302448400,12.565448486328124,-1.0956623554229736,-0.5067123174667358,0.7137954831123352
1707165611321408500,12.584408447265625,-0.5700132250785828,-0.09162971377372742,1.0968077182769775
1707165611340368600,12.60336865234375,0.14928008615970612,0.374765545129776,1.3121376037597656
1707165611359328500,12.62232861328125,0.9507346749305725,1.0961968898773193,1.4831796884536743
1707165611378288600,12.64128857421875,1.7586033344268799,2.065028429031372,1.748905897140503
1707165611397248800,12.660248779296875,2.568915367126465,3.2174248695373535,1.8796309232711792
1707165611416209000,12.679208984375,3.6910741329193115,4.534449100494385,1.879020094871521
1707165611435169000,12.6981689453125,5.261607646942139,4.5585784912109375,1.924834966659546
1707165611454129000,12.71712890625,3.634263753890991,2.076329469680786,1.45294189453125
1707165611473089000,12.736089111328125,1.0286198854446411,0.618806004524231,2.2696681022644043
1707165611492049000,12.755048828125,0.24029892683029175,0.41355544328689575,2.070526123046875
1707165611511009000,12.774009033203125,0.2222784161567688,0.1805105358362198,1.3106104135513306
1707165611529969200,12.79296923828125,0.1037706509232521,0.1331685185432434,1.0399973392486572
1707165611548929300,12.81192919921875,-0.224569171667099,0.509155809879303,0.8222240209579468
1707165611567889400,12.830889404296874,-0.4930442273616791,1.1716386079788208,0.8720094561576843
1707165611586849500,12.849849609375,-0.26305365562438965,1.4413354396820068,0.8029817342758179
1707165611605809400,12.868809326171874,0.20334161818027496,1.3350449800491333,0.4514290690422058
1707165611624769500,12.88776953125,0.6856193542480469,0.7800742983818054,-0.14172062277793884
1707165611643729400,12.9067294921875,0.9027817845344543,0.36193737387657166,-0.5271763205528259
1707165611662689500,12.925689453125,0.7644209265708923,-0.03787361457943916,-0.6918043494224548
1707165611681649700,12.944649658203126,0.13339759409427643,-0.33047783374786377,-0.8414662480354309
1707165611700609800,12.96360986328125,-0.737695574760437,-0.43493571877479553,-0.8765909671783447
1707165611719570000,12.98256982421875,-1.42522394657135,-0.5375609993934631,-0.9920443892478943
1707165611738530000,13.001530029296875,-1.633223295211792,-0.952643632888794,-1.314581036567688
1707165611757490000,13.020489990234376,-1.543731689453125,-1.6624685525894165,-1.7708970308303833
1707165611776450000,13.039449951171875,-1.4093414545059204,-2.0271546840667725,-2.3261730670928955
1707165611795410000,13.058409912109376,-1.7999894618988037,-1.7220277786254883,-2.63740873336792
1707165611814370000,13.0773701171875,-2.430096387863159,-1.4098758697509766,-2.4746131896972656
1707165611833330200,13.096330078125,-1.726991057395935,-0.6533198952674866,-1.8744385242462158
1707165611852290300,13.115290283203125,-0.9652426838874817,-0.40286532044410706,-1.2061525583267212
1707165611871250400,13.13425048828125,-0.9802088737487793,-0.8219185471534729,-0.9004147052764893
1707165611890210600,13.15321044921875,-1.25479257106781,-1.7232495546340942,-0.720820426940918
1707165611909170400,13.17217041015625,-1.2868629693984985,-2.196364402770996,-0.5488619804382324
1707165611928130600,13.191130615234375,-1.2254711389541626,-2.226602077484131,-0.3811796307563782
1707165611947090700,13.210090576171876,-1.2868629693984985,-1.8359540700912476,-0.01435532234609127
1707165611966050600,13.229050537109375,-1.3787981271743774,-1.3319905996322632,0.5812378525733948
1707165611985010700,13.2480107421875,-1.2795326709747314,-0.916602611541748,0.963333785533905
1707165612003970800,13.266970703125,-0.9139300584793091,-0.48105600476264954,0.8991929292678833
1707165612022931000,13.285930908203126,-0.4139372408390045,0.12675444781780243,0.7357866168022156
1707165612041891000,13.30489111328125,0.35361436009407043,0.7822123765945435,0.6713404059410095
1707165612060851000,13.323850830078126,1.352072834968567,1.2959495782852173,0.8011491298675537
1707165612079811000,13.34281103515625,2.3108251094818115,1.7916663885116577,1.0522146224975586
1707165612098771200,13.361771240234376,3.2384233474731445,2.3460261821746826,1.3362667560577393
1707165612117731000,13.38073095703125,4.072253704071045,3.2959208488464355,1.5561779737472534
1707165612136691200,13.399691162109375,5.178224563598633,3.903120517730713,2.4966044425964355
1707165612155651300,13.4186513671875,5.0462775230407715,2.3041820526123047,1.988059401512146
1707165612174611500,13.437611572265626,3.351738691329956,-0.07422006875276566,2.5528039932250977
1707165612193571600,13.456571533203125,1.7439426183700562,-1.1340705156326294,3.4101526737213135
1707165612212531500,13.475531494140625,1.13002347946167,-0.7446441650390625,2.880838394165039
1707165612231491600,13.49449169921875,0.6062069535255432,-0.06566796451807022,1.7534873485565186
1707165612250451700,13.51345166015625,0.03352120518684387,0.5852084755897522,1.4300343990325928
1707165612269411800,13.532411865234375,-0.7694605588912964,1.194240689277649,1.406821608543396
1707165612288371700,13.551371826171875,-1.2780054807662964,1.8081597089767456,1.3267983198165894
1707165612307331800,13.570331787109374,-1.1194860935211182,2.154825448989868,1.0418298244476318
1707165612326292000,13.5892919921875,-0.7434988021850586,1.6090178489685059,0.34727662801742554
1707165612345251800,13.608251953125,-0.42707082629203796,0.4379900395870209,-0.37232208251953125
1707165612364212000,13.6272119140625,0.06986765563488007,-0.29077163338661194,-0.7727439403533936
1707165612383172000,13.646172119140624,0.4278344213962555,-0.6597339510917664,-0.998763918876648
1707165612402132200,13.66513232421875,-0.0025198173243552446,-0.8973603844642639,-1.0506874322891235
1707165612421092400,13.68409228515625,-0.9850957989692688,-0.9728021621704102,-1.2070688009262085
1707165612440052200,13.70305224609375,-1.5305980443954468,-0.665842592716217,-1.4859285354614258
1707165612459012400,13.722012451171874,-1.3800199031829834,-0.5540543794631958,-1.8646647930145264
1707165612477972500,13.740972412109375,-0.9017127752304077,-0.8744529485702515,-2.40039324760437
1707165612496932400,13.759932373046874,-1.3256529569625854,-1.3686425685882568,-2.817003011703491
1707165612515892500,13.778892578125,-2.6600871086120605,-1.6505566835403442,-3.00056791305542
1707165612534852600,13.7978525390625,-2.169562578201294,-0.962417483329773,-2.587317705154419
1707165612553812700,13.816812744140625,-1.57060968875885,-0.7394518256187439,-1.9031492471694946
1707165612572772600,13.835772705078124,-1.19156813621521,-0.9688315391540527,-1.6340632438659668
1707165612591732700,13.854732666015625,-1.2413536310195923,-1.6444480419158936,-1.472795009613037
1707165612610692900,13.87369287109375,-1.2407426834106445,-2.001193046569824,-1.2541054487228394
1707165612629652700,13.89265283203125,-1.3149627447128296,-1.9853105545043945,-1.1227694749832153
1707165612648612900,13.91161279296875,-1.284114122390747,-1.8090760707855225,-1.0299180746078491
1707165612667573000,13.930572998046875,-1.0538181066513062,-1.4508038759231567,-0.7657189965248108
1707165612686533000,13.949533203125,-0.79358971118927,-0.9868520498275757,-0.24251331388950348
1707165612705493000,13.968492919921875,-0.35468336939811707,-0.34666576981544495,0.32070401310920715
1707165612724453000,13.987453125,0.3001636862754822,0.29901832342147827,0.7855721116065979
1707165612743413200,14.006413330078125,1.1092541217803955,0.8994984030723572,1.0250310897827148
1707165612762373400,14.025373291015624,1.8673372268676758,1.5460987091064453,1.1911863088607788
1707165612781333500,14.04433349609375,2.508439779281616,2.15726900100708,1.3735294342041016
1707165612800293400,14.06329345703125,3.0994515419006348,2.797455310821533,1.6245949268341064
1707165612819253500,14.08225341796875,3.8303513526916504,3.743684768676758,1.9764529466629028
1707165612838213400,14.10121337890625,5.1162214279174805,4.578736782073975,2.5995349884033203
1707165612857173500,14.120173583984375,5.500455379486084,3.0741770267486572,2.062279462814331
1707165612876133600,14.139133544921876,3.625100612640381,0.11026109009981155,1.6875139474868774
1707165612895093800,14.15809375,1.684994101524353,-2.0305144786834717,3.0384414196014404
1707165612914053600,14.1770537109375,0.6862302422523499,-1.4309507608413696,3.124573230743408
1707165612933013800,14.196013671875,-0.3950004279613495,-0.314289927482605,1.877798318862915
1707165612951974000,14.214973876953126,-0.9670752882957458,0.499381959438324,1.4550799131393433
1707165612970934000,14.23393408203125,-1.1588867902755737,1.1655299663543701,1.4092650413513184
1707165612989894000,14.252893798828126,-1.4197261333465576,1.638644814491272,1.369253396987915
1707165613008854000,14.27185400390625,-1.4331650733947754,2.212857723236084,1.2880083322525024
1707165613027814100,14.290814208984376,-0.9316451549530029,2.246149778366089,0.8619301915168762
1707165613046774000,14.30977392578125,-0.37697991728782654,1.6551381349563599,0.23487751185894012
1707165613065734100,14.328734130859376,0.0576503649353981,0.2877173125743866,-0.6249146461486816
1707165613084694300,14.3476943359375,0.4119519293308258,-1.1313215494155884,-1.4159845113754272
1707165613103654400,14.366654296875,0.26595523953437805,-1.7632611989974976,-1.590997338294983
1707165613122614300,14.3856142578125,-0.2508363425731659,-1.5424336194992065,-1.601076602935791
1707165613141574400,14.404574462890626,-1.0119738578796387,-0.739757239818573,-1.8072434663772583
1707165613160534500,14.423534423828125,-1.562057614326477,-0.2205221801996231,-2.1059563159942627
1707165613179494400,14.442494384765626,-1.506163477897644,-0.5384773015975952,-2.542113780975342
1707165613198454500,14.46145458984375,-1.155527114868164,-1.3478730916976929,-2.8368561267852783
1707165613217414700,14.48041455078125,-1.461570382118225,-1.525634765625,-3.0808966159820557
1707165613236374500,14.49937451171875,-2.3470189571380615,-1.978285551071167,-2.8176138401031494
1707165613255334700,14.518334716796875,-1.8644356727600098,-1.7104213237762451,-2.0525057315826416
1707165613274294800,14.537294677734375,-1.4884483814239502,-1.6988149881362915,-1.4159845113754272
1707165613293255000,14.5562548828125,-1.216613531112671,-1.5308271646499634,-1.1514800786972046
1707165613312214800,14.57521484375,-1.3430625200271606,-1.5286891460418701,-0.7687733173370361
1707165613331175000,14.5941748046875,-1.5660282373428345,-1.6239839792251587,-0.6331613659858704
1707165613350135000,14.613135009765625,-1.5654174089431763,-1.4969241619110107,-0.6438514590263367
1707165613369095000,14.632094970703125,-1.3781872987747192,-1.2647955417633057,-0.5943714380264282
1707165613388055000,14.651054931640624,-1.1814888715744019,-0.9303470849990845,-0.3491092324256897
1707165613407015200,14.67001513671875,-0.9346994757652283,-0.5577195286750793,0.10751219838857651
1707165613425975000,14.68897509765625,-0.5724566578865051,-0.31459537148475647,0.5174024701118469
1707165613444935200,14.70793505859375,0.034437503665685654,-0.015271619893610477,0.82436203956604
1707165613463895300,14.726895263671874,0.7583122849464417,0.4471530318260193,1.0244202613830566
1707165613482855200,14.745855224609375,1.4730240106582642,1.0259474515914917,1.2101231813430786
1707165613501815300,14.764815185546874,2.068617105484009,1.7400482892990112,1.5222749710083008
1707165613520775400,14.783775390625,2.6208388805389404,2.511875867843628,1.766010046005249
1707165613539735300,14.8027353515625,3.4873507022857666,3.587303400039673,2.260199785232544
1707165613558695400,14.8216953125,4.720381259918213,3.9162540435791016,2.8658721446990967
1707165613577655600,14.840655517578124,4.469621181488037,2.564410448074341,1.9117013216018677
1707165613596615700,14.85961572265625,2.287306785583496,0.731510579586029,2.355189085006714
1707165613615575600,14.878575439453124,0.7354048490524292,0.10140355676412582,2.9162683486938477
1707165613634535700,14.89753564453125,0.28733551502227783,-0.04764745384454727,2.176816701889038
1707165613653495600,14.91649560546875,-0.054443322122097015,-0.07055488228797913,1.3564252853393555
1707165613672455700,14.93545556640625,-0.2862665057182312,0.2623664140701294,1.110857605934143
1707165613691415800,14.954415771484374,-0.7599921226501465,0.9929606914520264,1.147204041481018
1707165613710375700,14.973375732421875,-0.7092903852462769,2.0268492698669434,1.0137300491333008
1707165613729335800,14.992335693359376,0.09460768103599548,2.6731443405151367,0.6212494969367981
1707165613748296000,15.0112958984375,0.631557822227478,2.274554967880249,-0.08460476994514465
1707165613767256000,15.030256103515624,0.845360517501831,1.2779290676116943,-0.6346884965896606
1707165613786216000,15.0492158203125,0.9070578217506409,0.16126830875873566,-0.9642500281333923
1707165613805176000,15.068176025390626,0.5390118360519409,-0.6530144214630127,-1.0091485977172852
1707165613824136200,15.08713623046875,-0.29848378896713257,-0.9184352159500122,-0.9746347665786743
1707165613843096000,15.106095947265626,-1.199814796447754,-0.5842921733856201,-1.1255183219909668
1707165613862056200,15.12505615234375,-1.6885066032409668,-0.3946186602115631,-1.4437788724899292
1707165613881016300,15.144016357421876,-1.8076252937316895,-0.7739656567573547,-1.7235549688339233
1707165613899976200,15.16297607421875,-1.4181989431381226,-1.3185516595840454,-2.0127995014190674
1707165613918936300,15.181936279296876,-1.4936407804489136,-1.5326597690582275,-2.514930248260498
1707165613937896200,15.200896240234375,-2.8216607570648193,-1.5512911081314087,-2.7708826065063477
1707165613956856300,15.219856201171876,-2.6121342182159424,-1.3576469421386719,-2.576322317123413
1707165613975816400,15.23881640625,-1.6683480739593506,-1.2858703136444092,-2.061974048614502
1707165613994776300,15.2577763671875,-1.0431280136108398,-1.035415768623352,-1.7467678785324097
1707165614013736400,15.276736328125,-1.0935243368148804,-0.9676098227500916,-1.3869684934616089
1707165614032696600,15.295696533203126,-1.2893065214157104,-0.9349285364151001,-1.0500766038894653
1707165614051656400,15.314656494140625,-1.3122138977050781,-0.7583886384963989,-0.7910698652267456
1707165614070616600,15.333616455078126,-1.2410482168197632,-0.767551600933075,-0.5693259835243225
1707165614089576700,15.35257666015625,-1.1326196193695068,-0.8109229803085327,-0.364991694688797
1707165614108536600,15.37153662109375,-0.8769727349281311,-0.8408553600311279,-0.07116574794054031
1707165614127496700,15.39049658203125,-0.44234246015548706,-0.7629700899124146,0.22846342623233795
1707165614146456800,15.409456787109375,0.21036656200885773,-0.3912588953971863,0.5232056975364685
1707165614165416700,15.428416748046875,1.0374774932861328,0.2525925934314728,0.7779362797737122
1707165614184376800,15.447376953125,1.8490113019943237,0.8817833065986633,1.036637544631958
1707165614203336700,15.466336669921875,2.5209624767303467,1.3096940517425537,1.3469568490982056
1707165614222296800,15.485296875,3.181612730026245,1.5741984844207764,1.690262794494629
1707165614241257000,15.504257080078125,3.661447048187256,2.142608165740967,1.9049818515777588
1707165614260216800,15.523216796875,4.613480091094971,3.232696294784546,2.5363106727600098
1707165614279177000,15.542177001953124,4.445797443389893,2.173762321472168,2.157574415206909
1707165614298137000,15.56113720703125,2.4302492141723633,0.526870846748352,2.319453477859497
1707165614317097000,15.580096923828124,0.6480512022972107,0.40927940607070923,3.9684829711914062
1707165614336057000,15.59905712890625,0.3154352903366089,1.1465932130813599,3.4831509590148926
1707165614355017200,15.618017333984374,-0.4878518879413605,0.3952295184135437,2.1468842029571533
1707165614373977000,15.63697705078125,-1.0489312410354614,-0.48075059056282043,1.8109086751937866
1707165614392937200,15.655937255859374,-1.479285478591919,-0.3124573230743408,1.8637484312057495
1707165614411897300,15.6748974609375,-1.9334633350372314,0.7901535630226135,1.6697988510131836
1707165614430857200,15.693857177734374,-1.0608429908752441,2.2418737411499023,1.0882556438446045
1707165614449817300,15.7128173828125,0.08758273720741272,2.7837107181549072,0.49571678042411804
1707165614468777200,15.731777099609374,0.7115811109542847,2.2513420581817627,-0.3124573230743408
1707165614487737300,15.7507373046875,1.1193333864212036,1.1478148698806763,-1.1496474742889404
1707165614506697200,15.769697265625,1.251585602760315,-0.17318016290664673,-1.6145156621932983
1707165614525657300,15.7886572265625,0.9586759209632874,-0.8579595685005188,-1.5219695568084717
1707165614544617500,15.807617431640624,0.17157664895057678,-1.0143409967422485,-1.5131120681762695
1707165614563577300,15.826577392578125,-0.8751401305198669,-0.8478803038597107,-1.7925827503204346
1707165614582537500,15.845537353515626,-1.6830087900161743,-0.7278453707695007,-2.0152428150177
1707165614601497600,15.86449755859375,-1.9899684190750122,-0.6078104376792908,-2.1340560913085938
1707165614620457500,15.88345751953125,-1.3623048067092896,-0.28924447298049927,-2.545473575592041
1707165614639417600,15.90241748046875,-1.8137339353561401,-1.3833032846450806,-3.0998332500457764
1707165614658377700,15.921377685546876,-2.6991822719573975,-1.8338160514831543,-2.8206682205200195
1707165614677337600,15.940337646484375,-1.8595486879348755,-1.766010046005249,-2.495687961578369
1707165614696297700,15.959297607421876,-1.1072688102722168,-1.351232886314392,-1.8081597089767456
1707165614715257900,15.9782578125,-0.9166789650917053,-1.1728603839874268,-1.451414704322815
1707165614734217700,15.9972177734375,-1.1512510776519775,-1.2388337850570679,-1.1814124584197998
1707165614753177900,16.016177734375,-1.2844195365905762,-1.1728603839874268,-0.9462295174598694
1707165614772138000,16.035137939453126,-1.3091596364974976,-1.2327251434326172,-0.7336485981941223
1707165614791097900,16.054097900390627,-1.153999924659729,-1.2220350503921509,-0.5577195286750793
1707165614810058000,16.07305810546875,-0.9298125505447388,-1.1435388326644897,-0.2617555558681488
1707165614829017900,16.092017822265625,-0.7593812942504883,-1.0012073516845703,0.12553271651268005
1707165614847978000,16.11097802734375,-0.6384300589561462,-0.7699950337409973,0.4773908257484436
1707165614866937900,16.129937744140626,-0.409050315618515,-0.4196641147136688,0.7800742983818054
1707165614885898000,16.14889794921875,0.10285435616970062,0.15149445831775665,1.0244202613830566
1707165614904858000,16.167858154296876,0.8526908755302429,0.8915571570396423,1.3481786251068115
1707165614923818000,16.18681787109375,1.6914081573486328,1.627343773841858,1.6975932121276855
1707165614942778000,16.205778076171875,2.683452606201172,2.227518320083618,2.0341796875
1707165614961738200,16.22473828125,3.982456684112549,3.3515095710754395,2.411694049835205
1707165614980698400,16.243698486328125,5.177002429962158,3.9275550842285156,2.769050121307373
1707165614999658200,16.262658203125,3.9421393871307373,1.8228205442428589,1.8518365621566772
1707165615018618400,16.281618408203126,2.4559054374694824,0.43401941657066345,3.222006320953369
1707165615037578500,16.30057861328125,1.1865284442901611,0.5076286196708679,4.0139923095703125
1707165615056538400,16.319538330078124,0.12851068377494812,0.8378010392189026,3.0970845222473145
1707165615075498500,16.33849853515625,-0.6243801712989807,0.37751442193984985,2.003025531768799
1707165615094458400,16.357458251953126,-0.6833286285400391,0.20463970303535461,1.719584345817566
1707165615113418500,16.37641845703125,-1.0547343492507935,0.18845178186893463,1.5968005657196045
1707165615132378600,16.395378662109376,-1.4133120775222778,1.0063997507095337,1.352149248123169
1707165615151338500,16.41433837890625,-0.6136900186538696,2.0323472023010254,0.7278453707695007
1707165615170298600,16.433298583984374,0.21067199110984802,2.4605634212493896,0.16768237948417664
1707165615189258800,16.4522587890625,0.7015018463134766,1.8044945001602173,-0.6615665555000305
1707165615208219000,16.471218994140624,1.1532363891601562,0.7107411623001099,-1.3713914155960083
1707165615227178800,16.4901787109375,1.1184170246124268,-0.600785493850708,-1.7473787069320679
1707165615246139000,16.509138916015626,0.3563632369041443,-1.4789036512374878,-1.860999584197998
1707165615265099000,16.52809912109375,-0.6674461364746094,-1.7162245512008667,-1.9767584800720215
1707165615284059000,16.547058837890624,-1.5247948169708252,-1.3267983198165894,-2.2983787059783936
1707165615303019000,16.56601904296875,-2.007072687149048,-0.9123265743255615,-2.5124869346618652
1707165615321979100,16.584979248046874,-2.1985785961151123,-0.6264418363571167,-2.64382266998291
1707165615340939000,16.60393896484375,-1.5449533462524414,-0.13530655205249786,-3.0589053630828857
1707165615359899100,16.622899169921876,-1.5086069107055664,-0.7644972801208496,-3.282787322998047
1707165615378859300,16.641859375,-2.5849506855010986,-1.6420044898986816,-2.9187119007110596
1707165615397819400,16.6608193359375,-1.8742095232009888,-1.9544618129730225,-2.4214680194854736
1707165615416779300,16.679779296875,-1.1384228467941284,-1.7067562341690063,-1.554650902748108
1707165615435739400,16.698739501953124,-0.942335307598114,-1.4654645919799805,-1.0387755632400513
1707165615454699500,16.717699462890625,-1.2862521409988403,-1.3405427932739258,-0.7024945020675659
1707165615473659600,16.73665966796875,-1.4414118528366089,-1.349705696105957,-0.5137372612953186
1707165615492619500,16.75561962890625,-1.4624866247177124,-1.148425817489624,-0.30573782324790955
1707165615511579600,16.77457958984375,-1.356501579284668,-0.9392045736312866,-0.16584978997707367
1707165615530539800,16.793539794921877,-1.2499057054519653,-0.842382550239563,0.017104214057326317
1707165615549499600,16.812499755859374,-1.0709223747253418,-0.6133082509040833,0.33567020297050476
1707165615568459800,16.831459716796875,-0.7618247270584106,-0.24831652641296387,0.7641918659210205
1707165615587420000,16.850419921875,-0.3522399067878723,0.04825831577181816,1.1065815687179565
1707165615606380000,16.869380126953125,0.3200167715549469,0.3249800503253937,1.2678498029708862
1707165615625340200,16.888340087890626,1.2314270734786987,0.7345649003982544,1.3643665313720703
1707165615644300000,16.907300048828127,2.0964114665985107,1.1184934377670288,1.5329651832580566
1707165615663260200,16.92626025390625,2.980332851409912,1.480736255645752,1.8704679012298584
1707165615682220300,16.94522021484375,3.870668411254883,2.2788310050964355,2.3231186866760254
1707165615701180400,16.964180419921874,5.216708660125732,3.75559663772583,2.952920436859131
1707165615720140300,16.983140380859375,4.700528144836426,2.847851514816284,2.5809037685394287
1707165615739100400,17.002100341796876,3.166646718978882,1.322827696800232,2.3313653469085693
1707165615758060500,17.021060546875,1.7082070112228394,0.20127993822097778,3.4431393146514893
1707165615777020700,17.040020751953126,1.2369247674942017,0.5491674542427063,3.330740213394165
1707165615795980500,17.05898046875,0.3249036967754364,0.6511818766593933,2.163377523422241
1707165615814940700,17.077940673828124,-0.4823541045188904,0.3900371491909027,1.5393792390823364
1707165615833900800,17.09690087890625,-0.8635337352752686,0.4407389461994171,1.3448188304901123
1707165615852861000,17.11586083984375,-1.0831396579742432,0.6637045741081238,1.1264346837997437
1707165615871821000,17.134821044921875,-0.9539417028427124,1.229670763015747,0.8643736839294434
1707165615890781200,17.15378125,-0.3528507649898529,1.7898337841033936,0.3759872615337372
1707165615909741000,17.172740966796876,0.11049016565084457,1.8377866744995117,-0.3222311735153198
1707165615928701200,17.191701171875,0.583910346031189,1.331685185432434,-0.9471458196640015
1707165615947661300,17.210661376953126,0.8505528569221497,0.41416633129119873,-1.3384047746658325
1707165615966621400,17.229621337890624,0.5909352898597717,-0.5039634704589844,-1.5766420364379883
1707165615985581600,17.24858154296875,-0.009850194677710533,-0.9257655739784241,-1.6502511501312256
1707165616004541400,17.26754150390625,-0.6109411120414734,-0.9266818761825562,-1.8090760707855225
1707165616023501600,17.28650146484375,-0.9921207427978516,-0.8408553600311279,-2.050673007965088
1707165616042461700,17.305461669921876,-1.017166256904602,-0.8268054723739624,-2.332892656326294
1707165616061421800,17.324421875,-0.8543707728385925,-0.5210676789283752,-2.866788387298584
1707165616080381700,17.343381591796874,-1.025412917137146,-0.8521563410758972,-3.4019060134887695
1707165616099341800,17.362341796875,-3.0763914585113525,-1.8005239963531494,-3.517359495162964
1707165616118302000,17.381302001953124,-2.3253331184387207,-1.6307035684585571,-3.015533924102783
1707165616137262000,17.400261962890625,-1.3708568811416626,-1.3439024686813354,-2.05953049659729
1707165616156222200,17.41922216796875,-1.119180679321289,-1.4462224245071411,-1.6215405464172363
1707165616175182300,17.438182373046875,-1.3656646013259888,-1.2205078601837158,-1.2742639780044556
1707165616194142500,17.457142578125,-1.6090941429138184,-0.8738420605659485,-0.8164207935333252
1707165616213102300,17.476102294921876,-1.7685298919677734,-0.7660244107246399,-0.4718930423259735
1707165616232062500,17.4950625,-1.7080543041229248,-0.7544180154800415,-0.2861901521682739
1707165616251022600,17.514022705078126,-1.517464518547058,-0.8112284541130066,-0.13775001466274261
1707165616269982700,17.532982666015624,-1.420642375946045,-0.9266818761825562,-0.026878049597144127
1707165616288942800,17.55194287109375,-1.341230034828186,-0.9975422024726868,0.18570289015769958
1707165616307903000,17.570903076171874,-1.0782526731491089,-0.6933315396308899,0.5048797130584717
1707165616326862800,17.58986279296875,-0.6625592112541199,-0.0824667438864708,0.8436042666435242
1707165616345823000,17.608822998046875,-0.046196650713682175,0.638353705406189,1.21287202835083
1707165616364783000,17.627783203125,0.8985057473182678,1.324660301208496,1.5958842039108276
1707165616383743200,17.6467431640625,1.8670318126678467,1.7821979522705078,1.8634430170059204
1707165616402703400,17.665703369140626,2.8438045978546143,2.263253927230835,2.2287402153015137
1707165616421663500,17.68466357421875,3.9308385848999023,3.2406375408172607,2.8368561267852783
1707165616440623400,17.703623291015624,5.237783908843994,4.131889343261719,3.316384792327881
1707165616459583500,17.72258349609375,4.494972229003906,1.5335760116577148,2.4178028106689453
1707165616478543600,17.741543701171874,1.7576870918273926,-1.092531681060791,2.8881685733795166
1707165616497503700,17.760503662109375,0.43088874220848083,-1.0803143978118896,3.4263405799865723
1707165616516463900,17.7794638671875,-0.12408190965652466,-0.12705987691879272,2.802647590637207
1707165616535424000,17.798424072265625,-0.616744339466095,0.48655378818511963,2.0491459369659424
1707165616554384100,17.817384033203126,-0.7086794972419739,1.0598503351211548,1.676518440246582
1707165616573344000,17.836343994140623,-0.9634101390838623,1.7055344581604004,1.2831214666366577
1707165616592304000,17.85530419921875,-0.8662826418876648,2.2330162525177,0.9279035925865173
1707165616611264300,17.87426416015625,-0.23220497369766235,2.492022752761841,0.5769617557525635
1707165616630224400,17.893224365234374,0.3084103465080261,2.184452533721924,0.014966187067329884
1707165616649184500,17.9121845703125,0.7555633783340454,1.4566071033477783,-0.619722306728363
1707165616668144600,17.93114453125,1.0814597606658936,0.5668824911117554,-0.9523382186889648
1707165616687104500,17.9501044921875,1.0664935111999512,-0.4309650957584381,-1.1071923971176147
1707165616706064600,17.969064697265626,0.47639816999435425,-1.146898627281189,-1.2605195045471191
1707165616725024800,17.988024658203123,-0.5639045238494873,-1.4844014644622803,-1.331379771232605
1707165616743985000,18.00698486328125,-1.4997494220733643,-1.2599085569381714,-1.5821397304534912
1707165616762945000,18.025945068359373,-1.9410991668701172,-0.9819651246070862,-1.7818925380706787
1707165616781905200,18.0449052734375,-2.161926746368408,-0.8494074940681458,-1.79410982131958
1707165616800865000,18.063864990234375,-2.781649112701416,-0.24495677649974823,-2.4462080001831055
1707165616819825200,18.0828251953125,-2.7752349376678467,-0.6130027770996094,-2.807839870452881
1707165616838785300,18.101785400390625,-1.365053653717041,-0.11514800786972046,-2.3487751483917236
1707165616857745400,18.120745361328126,-0.6769145131111145,-0.3179551064968109,-2.1310017108917236
1707165616876705500,18.13970556640625,-0.48479756712913513,-0.7745765447616577,-1.7522655725479126
1707165616895665700,18.158665771484376,-0.5703186392784119,-0.8017600178718567,-1.379027247428894
1707165616914625800,18.177625732421873,-0.8317687511444092,-0.7382301092147827,-1.0201442241668701
1707165616933586000,18.1965859375,-1.1701878309249878,-0.7058542370796204,-0.7092140316963196
1707165616952545800,18.2155458984375,-1.3962078094482422,-0.8518509268760681,-0.6233875155448914
1707165616971506000,18.234505859375,-1.4084250926971436,-1.028085470199585,-0.535728394985199
1707165616990466000,18.253466064453125,-1.3623048067092896,-1.2803726196289062,-0.2309068888425827
1707165617009426200,18.27242626953125,-1.1234567165374756,-1.214093804359436,0.13225223124027252
1707165617028386300,18.29138623046875,-0.7242565751075745,-0.8634573817253113,0.4718930423259735
1707165617047346400,18.310346435546876,-0.1885281354188919,-0.3539961278438568,0.7278453707695007
1707165617066306600,18.329306640625,0.5820778012275696,0.24434591829776764,0.9944878816604614
1707165617085266400,18.348266357421874,1.5191442966461182,0.9553925395011902,1.2565488815307617
1707165617104226600,18.3672265625,2.591822862625122,1.6423099040985107,1.4312561750411987
1707165617123186700,18.386186767578124,3.910374641418457,2.3799290657043457,1.3808598518371582
1707165617142146800,18.405146728515625,5.177918910980225,3.296837329864502,1.3350449800491333
1707165617161107000,18.42410693359375,5.765876293182373,3.320050001144409,1.8093814849853516
1707165617180067000,18.443067138671875,4.653797149658203,1.1313215494155884,1.4950915575027466
1707165617199027200,18.462027099609376,2.4055092334747314,-1.22234046459198,2.34999680519104
1707165617217987000,18.480987060546877,1.2402845621109009,-0.9196569323539734,3.1981825828552246
1707165617236947200,18.499947265625,0.08513928204774857,0.07910698652267456,2.483776092529297
1707165617255907300,18.5189072265625,-0.6081922650337219,0.3341430425643921,1.8643592596054077
1707165617274867500,18.537867431640624,-0.8161917328834534,0.4202749729156494,1.8551963567733765
1707165617293827600,18.55682763671875,-1.191873550415039,0.29901832342147827,1.8002184629440308
1707165617312787700,18.57578759765625,-1.4805071353912354,0.7006618976593018,1.7061452865600586
1707165617331747800,18.594747802734375,-0.7438042163848877,1.4734058380126953,1.3240493535995483
1707165617350707700,18.613707763671876,0.1193477064371109,1.887572169303894,0.8585704565048218
1707165617369667800,18.632667724609377,0.3963748812675476,1.469740629196167,0.1533270627260208
1707165617388628000,18.6516279296875,0.5066359639167786,0.3075704276561737,-0.620333194732666
1707165617407588000,18.670588134765627,0.3756054937839508,-0.9187406301498413,-0.9828814268112183
1707165617426548200,18.68954833984375,-0.055970486253499985,-1.3765838146209717,-1.1572833061218262
1707165617445508400,18.70850830078125,-0.7178424596786499,-0.9908226728439331,-1.3634501695632935
1707165617464468200,18.72746826171875,-1.357723355293274,-0.44409868121147156,-1.637423038482666
1707165617483428400,18.746428466796875,-1.7786091566085815,-0.39797839522361755,-1.8545855283737183
1707165617502388500,18.765388427734376,-1.8283946514129639,-0.31551164388656616,-2.1080944538116455
1707165617521348600,18.7843486328125,-1.8247294425964355,-0.36804601550102234,-2.735146999359131
1707165617540308700,18.803308837890626,-2.8054728507995605,-0.9007201194763184,-2.752251148223877
1707165617559268600,18.8222685546875,-1.968282699584961,-0.5690205693244934,-2.4541492462158203
1707165617578228700,18.841228759765624,-1.3867393732070923,-0.7067705392837524,-1.9941680431365967
1707165617597188900,18.86018896484375,-1.081612467765808,-1.1221586465835571,-1.884517788887024
1707165617616149000,18.87914892578125,-1.0510692596435547,-1.186299443244934,-1.5754202604293823
1707165617635109000,18.898109130859375,-1.293582558631897,-1.3271037340164185,-1.2446370124816895
1707165617654069200,18.9170693359375,-1.3818525075912476,-1.0454950332641602,-1.007315993309021
1707165617673029000,18.936029052734376,-1.301829218864441,-0.8374956250190735,-0.89705491065979
1707165617691989200,18.9549892578125,-1.1112394332885742,-0.6420188546180725,-0.6246092319488525
1707165617710949400,18.973949462890626,-0.820773184299469,-0.582459568977356,-0.11423171311616898
1707165617729909500,18.992909423828124,-0.4597521126270294,-0.5714640021324158,0.2981020212173462
1707165617748869600,19.01186962890625,0.020082179456949234,-0.45937031507492065,0.49052441120147705
1707165617767829500,19.03082958984375,0.6813433170318604,-0.2822195291519165,0.5845975875854492
1707165617786789600,19.04978955078125,1.2427279949188232,0.11881320178508759,0.7840449213981628
1707165617805749800,19.068749755859375,1.6715551614761353,0.7987056970596313,1.2024873495101929
1707165617824710000,19.0877099609375,2.015471935272217,1.813352108001709,1.7531819343566895
1707165617843670000,19.106669921875,2.432997941970825,2.8316636085510254,2.1872012615203857
1707165617862630100,19.125630126953126,3.09151029586792,4.033234596252441,2.5192062854766846
1707165617881590300,19.14459033203125,4.379213333129883,4.68747091293335,2.8967208862304688
1707165617900550100,19.163550048828125,4.013000011444092,2.835634231567383,2.2873830795288086
1707165617919510300,19.18251025390625,2.8691554069519043,0.3133736252784729,2.7534730434417725
1707165617938470400,19.201470458984375,2.331899881362915,-1.2272273302078247,3.4125959873199463
1707165617957430500,19.220430419921875,1.9049054384231567,-1.0540472269058228,2.9126033782958984
1707165617976390700,19.239390625,0.7882446646690369,-0.6621774435043335,2.1661264896392822
1707165617995350800,19.258350830078125,-0.16165009140968323,-0.0308486707508564,1.6227623224258423
1707165618014310700,19.277310546875,-0.6766090989112854,0.7510582208633423,1.3209950923919678
1707165618033270800,19.296270751953124,-1.0009783506393433,1.4651591777801514,1.2944225072860718
1707165618052231000,19.31523095703125,-0.9065997004508972,1.905592679977417,0.9721912741661072
1707165618071191000,19.33419091796875,-0.5538252592086792,1.6731586456298828,0.09468404203653336
1707165618090151200,19.353151123046874,-0.3064250349998474,0.89705491065979,-0.7293725609779358
1707165618109111000,19.372111083984375,-0.13813179731369019,-0.18692462146282196,-1.3408482074737549
1707165618128071200,19.3910712890625,-0.17111849784851074,-0.8952223062515259,-1.6035200357437134
1707165618147031300,19.41003125,-0.5892554521560669,-1.0806198120117188,-1.7314962148666382
1707165618165991400,19.428991455078126,-1.1698824167251587,-0.8943060636520386,-1.9535455703735352
1707165618184951300,19.447951416015623,-1.661323070526123,-0.6637045741081238,-2.2000296115875244
1707165618203911400,19.466911376953124,-1.923689603805542,-0.5531380772590637,-2.4132213592529297
1707165618222871600,19.48587158203125,-1.9129993915557861,-0.3042106628417969,-2.7311763763427734
1707165618241831700,19.504831787109374,-1.682092547416687,0.04764745384454727,-3.213148832321167
1707165618260791800,19.523791748046875,-2.940474033355713,-0.7189878225326538,-3.2394158840179443
1707165618279752000,19.542751953125,-2.7046802043914795,-1.1814124584197998,-2.813948631286621
1707165618298711800,19.5617119140625,-2.049527645111084,-1.284037709236145,-2.2421791553497314
1707165618317672000,19.580671875,-1.616424560546875,-1.2901464700698853,-1.7220277786254883
1707165618336632000,19.599632080078123,-1.4582105875015259,-1.1878265142440796,-1.268460750579834
1707165618355592200,19.61859228515625,-1.6313908100128174,-1.112079381942749,-0.8723149299621582
1707165618374552300,19.63755224609375,-1.7343214750289917,-1.0482439994812012,-0.6288852691650391
1707165618393512200,19.65651220703125,-1.6912554502487183,-1.10230553150177,-0.5763509273529053
1707165618412472300,19.675472412109375,-1.4905864000320435,-1.268460750579834,-0.5668824911117554
1707165618431432400,19.694432373046876,-1.313130259513855,-1.4450006484985352,-0.3042106628417969
1707165618450392600,19.713392578125,-1.1280381679534912,-1.3023637533187866,0.11209368705749512
1707165618469352400,19.7323525390625,-0.7993929386138916,-0.8998038172721863,0.4789179861545563
1707165618488312600,19.7513125,-0.17661628127098083,-0.33322674036026,0.7257073521614075
1707165618507272700,19.770272705078124,0.6898953914642334,0.4046979248523712,1.0567960739135742
1707165618526232800,19.78923291015625,1.612301230430603,1.138346552848816,1.4966187477111816
1707165618545193000,19.80819287109375,2.4980552196502686,1.7302744388580322,1.8881829977035522
1707165618564153000,19.827153076171875,3.3285257816314697,2.5381431579589844,2.210719585418701
1707165618583113000,19.846113037109376,4.426555156707764,4.071719169616699,2.489884853363037
1707165618602073000,19.865072998046877,5.548102855682373,4.718014240264893,2.7152938842773438
1707165618621033200,19.884033203125,4.664486885070801,2.7229297161102295,1.85092031955719
1707165618639993300,19.902993408203123,2.6125922203063965,1.5638138055801392,2.9914047718048096
1707165618658953200,19.921953125,1.7695989608764648,1.3894119262695312,3.004232883453369
1707165618677913300,19.940913330078125,0.8175661563873291,0.1545487940311432,1.840230107307434
1707165618696873500,19.95987353515625,0.3236819803714752,-0.9178243279457092,1.1475094556808472
1707165618715833600,19.97883349609375,-0.10819942504167557,-1.1163554191589355,1.063515543937683
1707165618734793500,19.99779345703125,-0.9105703234672546,-0.5879573225975037,1.0250310897827148
1707165618753753600,20.016753662109377,-1.3097704648971558,0.7147117853164673,0.9358448386192322
1707165618772713700,20.035713623046874,-0.7972549200057983,1.8286237716674805,0.8265000581741333
1707165618791673900,20.054673828125,-0.11919499188661575,2.1187844276428223,0.4043924808502197
1707165618810634000,20.073634033203124,0.4113410711288452,1.4743221998214722,-0.22815799713134766
1707165618829593900,20.09259375,0.9333250522613525,0.7052434086799622,-0.7247910499572754
1707165618848554000,20.111553955078126,1.260137677192688,-0.2993237376213074,-1.0302234888076782
1707165618867514000,20.13051416015625,1.002963662147522,-1.0409135818481445,-1.1695005893707275
1707165618886474000,20.149473876953124,0.19906556606292725,-1.2922844886779785,-1.2455532550811768
1707165618905434000,20.16843408203125,-0.7706822752952576,-1.0201442241668701,-1.40559983253479
1707165618924394200,20.187394287109374,-1.3904045820236206,-0.6765327453613281,-1.6884303092956543
1707165618943354400,20.206354248046875,-1.7557017803192139,-0.7513636946678162,-1.9129230976104736
1707165618962314500,20.225314453125,-2.0614395141601562,-0.3842339515686035,-2.0995421409606934
1707165618981274400,20.2442744140625,-2.767904758453369,-0.9474512934684753,-2.867399215698242
1707165619000234500,20.263234375,-2.7920339107513428,-1.1508692502975464,-2.360687017440796
1707165619019194600,20.282194580078126,-1.6197843551635742,-1.1679733991622925,-2.039983034133911
1707165619038154800,20.30115478515625,-1.107574224472046,-1.4920371770858765,-2.050978422164917
1707165619057114600,20.320114501953125,-1.1561379432678223,-1.6044363975524902,-1.7085888385772705
1707165619076074800,20.33907470703125,-1.2987748384475708,-1.3674207925796509,-1.2730422019958496
1707165619095035000,20.358034912109375,-1.5721368789672852,-1.026863694190979,-0.8298597931861877
1707165619113995000,20.3769951171875,-1.6686534881591797,-0.842382550239563,-0.5442805290222168
1707165619132955000,20.395954833984376,-1.4059816598892212,-0.8347467184066772,-0.4251618981361389
1707165619151915000,20.4149150390625,-1.0458768606185913,-1.0766491889953613,-0.13469567894935608
1707165619170875100,20.433875244140626,-0.7868701815605164,-1.3075560331344604,0.3280344009399414
1707165619189835300,20.452835205078124,-0.6372083425521851,-1.1780527830123901,0.7211259007453918
1707165619208795100,20.471795166015625,-0.18028147518634796,-0.5693259835243225,1.099861979484558
1707165619227755300,20.49075537109375,0.5603920817375183,0.36651885509490967,1.499062180519104
1707165619246715400,20.50971533203125,1.1190279722213745,1.2220350503921509,1.8130466938018799
1707165619265675300,20.52867529296875,1.5979459285736084,1.8432844877243042,2.036317825317383
1707165619284635400,20.547635498046876,2.174907684326172,2.308458089828491,2.171318769454956
1707165619303595500,20.566595458984374,3.0322563648223877,2.9407031536102295,2.2818853855133057
1707165619322555600,20.5855556640625,4.4983320236206055,3.6120433807373047,2.66886830329895
1707165619341515800,20.604515869140624,4.246655464172363,2.285856008529663,1.8405355215072632
1707165619360475600,20.6234755859375,2.5420374870300293,0.11698060482740402,2.364352226257324
1707165619379435800,20.642435791015625,1.546327829360962,-0.5525271892547607,3.1972663402557373
1707165619398396000,20.66139599609375,1.05733060836792,-0.12247838824987411,2.46697735786438
1707165619417355800,20.680355712890623,-0.05322159454226494,-0.2461785078048706,1.497534990310669
1707165619436316000,20.69931591796875,-0.7236456871032715,0.2577849328517914,1.1438442468643188
1707165619455276000,20.718276123046873,-1.1170426607131958,1.3045017719268799,1.1319323778152466
1707165619474236200,20.737236083984374,-1.1659117937088013,2.1722352504730225,0.9749401807785034
1707165619493196000,20.756196044921875,-0.42768171429634094,2.6413793563842773,0.5174024701118469
1707165619512156200,20.77515625,0.1550832986831665,2.0326526165008545,0.017104214057326317
1707165619531116300,20.7941162109375,0.5597811937332153,0.9483675956726074,-0.5888736248016357
1707165619550076400,20.813076416015626,0.9534835815429688,0.31673339009284973,-0.841160774230957
1707165619569036300,20.832036376953123,0.9803616404533386,-0.07544180005788803,-0.9221003651618958
1707165619587996400,20.850996337890624,0.4528798758983612,-0.005192350596189499,-1.018311619758606
1707165619606956500,20.86995654296875,-0.42768171429634094,0.15027274191379547,-0.9935715794563293
1707165619625916400,20.88891650390625,-1.2511274814605713,0.14813470840454102,-1.0989457368850708
1707165619644876500,20.90787646484375,-1.7663918733596802,-0.1640172004699707,-1.303279995918274
1707165619663836700,20.926836669921876,-1.775554895401001,-1.1313215494155884,-1.5916081666946411
1707165619682796800,20.945796875,-1.5357904434204102,-1.9104795455932617,-2.1001532077789307
1707165619701757000,20.9647568359375,-2.2770748138427734,-2.076329469680786,-2.6813910007476807
1707165619720716800,20.983716796875,-2.7614905834198,-1.3900227546691895,-2.56807541847229
1707165619739677000,21.002677001953124,-1.836946725845337,-0.6145299673080444,-2.2009458541870117
1707165619758636800,21.02163671875,-1.4068979024887085,-0.6643154621124268,-1.9935572147369385
1707165619777597000,21.040596923828126,-1.265482783317566,-0.9969313144683838,-1.8674136400222778
1707165619796557000,21.05955712890625,-1.3962078094482422,-1.1899645328521729,-1.5858049392700195
1707165619815517200,21.07851708984375,-1.6042072772979736,-1.5033382177352905,-1.2330305576324463
1707165619834477300,21.097477294921877,-1.6100105047225952,-1.5845832824707031,-1.0735948085784912
1707165619853437200,21.116437255859374,-1.3296235799789429,-1.4495820999145508,-0.9370665550231934
1707165619872397300,21.135397216796875,-1.1481966972351074,-1.2644901275634766,-0.5412262082099915
1707165619891357400,21.154357421875,-1.0028108358383179,-0.9404263496398926,0.035124726593494415
1707165619910317600,21.173317626953125,-0.7025708556175232,-0.5946768522262573,0.5287034511566162
1707165619929277400,21.19227734375,-0.21204642951488495,-0.3836230933666229,0.9022472500801086
1707165619948237600,21.211237548828127,0.5115228891372681,-0.1542433500289917,1.1704169511795044
1707165619967197700,21.23019775390625,1.1941642761230469,0.30512696504592896,1.3897173404693604
1707165619986157800,21.24915771484375,1.739361047744751,0.8347467184066772,1.6157373189926147
1707165620005117700,21.26811767578125,2.4030656814575195,1.4208714962005615,1.8713842630386353
1707165620024077800,21.287077880859375,3.197495222091675,2.1563527584075928,2.162155866622925
1707165620043038000,21.306037841796876,4.341339588165283,3.417177677154541,2.587928533554077
1707165620061998000,21.324998046875,5.479686260223389,4.006661891937256,2.9880449771881104
1707165620080958000,21.3439580078125,3.9280896186828613,2.0689990520477295,2.4608688354492188
1707165620099918000,21.36291796875,2.717050075531006,0.7883210182189941,3.565617799758911
1707165620118878200,21.381878173828124,2.359083414077759,0.40958482027053833,4.145022869110107
1707165620137838300,21.40083837890625,1.1547634601593018,0.8087849617004395,3.222006320953369
1707165620156798500,21.419798583984374,-0.3830885887145996,0.3646862804889679,2.2110249996185303
1707165620175758300,21.43875830078125,-1.1756856441497803,0.2834412455558777,1.9132285118103027
1707165620194718500,21.457718505859376,-1.4349976778030396,0.5503891706466675,1.8463387489318848
1707165620213678600,21.4766787109375,-1.4753148555755615,1.34237539768219,1.6960660219192505
1707165620232638500,21.495638427734374,-0.9011018872261047,2.1676535606384277,1.0320560932159424
1707165620251598600,21.5145986328125,-0.36659523844718933,2.2201881408691406,0.2156352698802948
1707165620270558700,21.533558837890624,0.08819360285997391,1.2919789552688599,-0.629496157169342
1707165620289518800,21.552518798828125,0.7402917742729187,0.23396120965480804,-1.2858703136444092
1707165620308479000,21.57147900390625,1.0026581287384033,-0.3656025826931,-1.711337685585022
1707165620327439000,21.590439208984375,0.6978366374969482,-0.2110537886619568,-1.9914191961288452
1707165620346399200,21.609399169921875,-0.16592614352703094,0.11881320178508759,-2.012188673019409
1707165620365359000,21.628359130859376,-1.2132538557052612,0.30604326725006104,-2.0641121864318848
1707165620384319200,21.6473193359375,-1.9496513605117798,0.2202167510986328,-2.2953243255615234
1707165620403279400,21.666279296875,-2.298149585723877,-0.21380266547203064,-2.470337152481079
1707165620422239500,21.685239501953124,-1.9713369607925415,-0.5400044918060303,-2.8985533714294434
1707165620441199600,21.70419970703125,-2.320751667022705,-1.6774346828460693,-3.3515095710754395
1707165620460159700,21.72315966796875,-3.2972190380096436,-2.5192062854766846,-3.096168041229248
1707165620479119600,21.74211962890625,-2.2440881729125977,-2.2415683269500732,-2.4834706783294678
1707165620498079700,21.761079833984375,-1.5189915895462036,-1.784030556678772,-1.8915427923202515
1707165620517039900,21.780039794921876,-1.0040326118469238,-1.3750566244125366,-1.5149446725845337
1707165620536000000,21.799,-1.1029927730560303,-1.1695005893707275,-1.1447606086730957
1707165620554960100,21.817960205078126,-1.1854594945907593,-1.0445787906646729,-0.7855721116065979
1707165620573920300,21.836920166015624,-1.208366870880127,-1.0051779747009277,-0.49999281764030457
1707165620592880000,21.855880126953124,-1.088026523590088,-0.9193515181541443,-0.35277441143989563
1707165620611840300,21.87484033203125,-0.8687260746955872,-0.880256175994873,-0.1954767256975174
1707165620630800400,21.89380029296875,-0.6607266068458557,-0.9712749719619751,0.07971785217523575
1707165620649760500,21.912760498046875,-0.47502371668815613,-1.036637544631958,0.4263836145401001
1707165620668720600,21.931720703125,-0.20288346707820892,-0.8775072693824768,0.7040216326713562
1707165620687680800,21.9506806640625,0.3875173330307007,-0.4511236250400543,0.9266818761825562
1707165620706641000,21.969640869140626,1.104978084564209,0.2370155304670334,1.13712477684021
1707165620725600800,21.988600830078123,1.8627557754516602,0.9914335608482361,1.4474440813064575
1707165620744561000,22.007560791015624,2.6040401458740234,1.7779219150543213,1.8622212409973145
1707165620763521000,22.02652099609375,3.415268659591675,2.7091853618621826,2.3182318210601807
1707165620782481200,22.045481201171874,4.761614799499512,4.036289215087891,2.950476884841919
1707165620801441300,22.064441162109375,4.926548004150391,3.4248132705688477,2.724457025527954
1707165620820401400,22.0834013671875,3.4565019607543945,1.3949097394943237,2.170707941055298
1707165620839361500,22.102361572265625,2.527376651763916,-0.3796524703502655,3.314246892929077
1707165620858321700,22.12132177734375,2.0622031688690186,-0.7079922556877136,3.3851072788238525
1707165620877281800,22.14028173828125,0.7900772094726562,-0.038789913058280945,2.3597705364227295
1707165620896242000,22.159241943359376,-0.3891972303390503,0.21716243028640747,1.6218459606170654
1707165620915202000,22.1782021484375,-0.8528435826301575,0.5342012643814087,1.3176352977752686
1707165620934162000,22.197161865234374,-1.1811834573745728,0.711962878704071,1.258686900138855
1707165620953122000,22.2161220703125,-1.4340814352035522,1.1261292695999146,1.1527018547058105
1707165620972082200,22.235082275390624,-1.2431862354278564,1.690262794494629,0.8445205688476562
1707165620991042300,22.254042236328125,-0.7880918979644775,1.8112140893936157,0.28557929396629333
1707165621010002400,22.27300244140625,-0.3525453209877014,1.063210129737854,-0.45875945687294006
1707165621028962600,22.291962646484375,0.19295690953731537,0.22449280321598053,-0.9098830819129944
1707165621047922700,22.310922607421876,0.45990481972694397,-0.6814196705818176,-1.1026109457015991
1707165621066882800,22.3298828125,0.05459604039788246,-0.9984585046768188,-1.2385283708572388
1707165621085843000,22.348843017578126,-0.8626174330711365,-0.8765909671783447,-1.4388920068740845
1707165621104803000,22.367802978515623,-1.7966296672821045,-0.5100721120834351,-1.7788382768630981
1707165621123763000,22.386762939453124,-2.1158065795898438,0.08949168771505356,-1.9547673463821411
1707165621142723000,22.40572314453125,-1.8717660903930664,0.2254091054201126,-2.363741159439087
1707165621161683200,22.42468310546875,-2.8451790809631348,-1.027169108390808,-2.8881685733795166
1707165621180643300,22.443643310546875,-3.3115742206573486,-1.8393138647079468,-2.944979190826416
1707165621199603500,22.462603515625,-2.236146926879883,-2.0573925971984863,-2.525315046310425
1707165621218563600,22.4815634765625,-2.013486623764038,-1.9483531713485718,-2.2531747817993164
1707165621237523700,22.500523681640626,-2.0822088718414307,-1.7540981769561768,-1.9327762126922607
1707165621256483800,22.51948388671875,-2.1713953018188477,-1.5482367277145386,-1.4086542129516602
1707165621275444000,22.53844384765625,-2.0657155513763428,-1.416900873184204,-0.9673043489456177
1707165621294404000,22.557404052734373,-1.8097633123397827,-1.3527600765228271,-0.6585122346878052
1707165621313364200,22.5763642578125,-1.410868525505066,-1.5961896181106567,-0.481361448764801
1707165621332324000,22.595323974609375,-1.0248019695281982,-1.8521419763565063,-0.3539961278438568
1707165621351284500,22.614284423828124,-0.7795398235321045,-1.887266755104065,-0.07269290834665298
1707165621370244600,22.63324462890625,-0.5898662805557251,-1.498756766319275,0.3246746361255646
1707165621389204700,22.652204833984374,-0.29817837476730347,-0.6759218573570251,0.7186824083328247
1707165621408164600,22.67116455078125,0.21433718502521515,0.3347539007663727,1.073289394378662
1707165621427124700,22.690124755859376,0.8783472180366516,1.3851358890533447,1.3927717208862305
1707165621446084900,22.7090849609375,1.5362485647201538,2.2009458541870117,1.6166536808013916
1707165621465045000,22.728044921875,2.199953079223633,2.709796190261841,1.7314962148666382
1707165621484005000,22.747005126953123,3.0292019844055176,3.386634349822998,1.7910555601119995
1707165621502965200,22.76596533203125,4.243906497955322,4.5252861976623535,2.003330945968628
1707165621521925400,22.78492529296875,4.910665512084961,4.196030139923096,2.034790515899658
1707165621540885500,22.803885498046874,4.125399112701416,2.4153592586517334,2.109621524810791
1707165621559845600,22.822845703125,3.0157630443573,1.2522728443145752,3.1144940853118896
1707165621578805800,22.8418056640625,1.5234204530715942,0.971580445766449,3.2418594360351562
1707165621597766000,22.860765869140625,-0.10056361556053162,0.10079269111156464,2.25531268119812
1707165621616726000,22.87972607421875,-0.6567559838294983,-0.6142245531082153,1.4868448972702026
1707165621635686100,22.89868603515625,-0.6033053398132324,-0.5158752799034119,1.424842119216919
1707165621654646300,22.917646240234376,-1.0067814588546753,0.31520622968673706,1.4957023859024048
1707165621673606400,22.9366064453125,-1.1585813760757446,1.5482367277145386,1.1270455121994019
1707165621692566500,22.95556640625,-0.4084394574165344,2.2611160278320312,0.4972439408302307
1707165621711526400,22.9745263671875,0.24671301245689392,1.8185445070266724,-0.3176496922969818
1707165621730486500,22.993486572265624,0.8358920812606812,0.9007201194763184,-0.9077450633049011
1707165621749446700,23.01244677734375,1.039310097694397,-0.18417572975158691,-1.2760965824127197
1707165621768406800,23.03140673828125,0.7176897525787354,-0.8487966060638428,-1.4999784231185913
1707165621787367000,23.050366943359375,0.02496909722685814,-1.0033453702926636,-1.546404242515564
1707165621806327000,23.0693271484375,-0.8247438073158264,-0.8744529485702515,-1.6478077173233032
1707165621825287200,23.088287109375,-1.5101341009140015,-0.7312051653862,-1.8716896772384644
1707165621844247300,23.107247314453126,-1.7706679105758667,-0.8875865340232849,-2.0112721920013428
1707165621863207400,23.12620751953125,-1.5052471160888672,-0.7953459620475769,-2.1835360527038574
1707165621882167600,23.14516748046875,-1.6008474826812744,-1.239139199256897,-2.8371615409851074
1707165621901127700,23.164127685546877,-2.764850378036499,-1.6380338668823242,-2.931540012359619
1707165621920087800,23.183087890625,-1.9065853357315063,-0.9330959320068359,-2.578460216522217
1707165621939048000,23.2020478515625,-1.246240496635437,-0.4276053309440613,-1.941939115524292
1707165621958008000,23.221008056640624,-1.144531488418579,-0.08765909820795059,-1.4972295761108398
1707165621976968200,23.23996826171875,-1.5043308734893799,-0.25473061203956604,-1.018617033958435
1707165621995928000,23.258927978515626,-1.775554895401001,-1.045189619064331,-0.7687733173370361
1707165622014888200,23.27788818359375,-1.5959606170654297,-1.6450588703155518,-0.6731730103492737
1707165622033848600,23.2968486328125,-1.198898434638977,-1.9190317392349243,-0.5668824911117554
1707165622052808700,23.31580859375,-0.9472221732139587,-1.8185445070266724,-0.33567020297050476
1707165622071768600,23.3347685546875,-0.8326850533485413,-1.4963133335113525,0.12583814561367035
1707165622090728700,23.353728759765627,-0.5550470352172852,-1.1212422847747803,0.6542361974716187
1707165622109688800,23.372688720703124,-0.019929463043808937,-0.6640099883079529,0.9853248596191406
1707165622128649000,23.39164892578125,0.6914225816726685,-0.09407317638397217,1.1291835308074951
1707165622147609000,23.410609130859374,1.3151155710220337,0.6872228980064392,1.173776626586914
1707165622166569200,23.4295693359375,1.7613521814346313,1.4575233459472656,1.1853830814361572
1707165622185529300,23.448529296875,2.195066213607788,2.154825448989868,1.2932007312774658
1707165622204489500,23.467489501953125,2.8673229217529297,3.0497424602508545,1.6423099040985107
1707165622223449600,23.48644970703125,4.44335412979126,4.3826494216918945,2.3405284881591797
1707165622242409700,23.50540966796875,4.809262275695801,3.426035165786743,2.0497567653656006
1707165622261369900,23.524369873046876,2.9904122352600098,1.5879429578781128,1.8209879398345947
1707165622280329700,23.543329833984377,2.184070587158203,1.1267400979995728,2.8768677711486816
1707165622299289900,23.562289794921874,1.9974514245986938,1.6383392810821533,2.8292202949523926
1707165622318250000,23.58125,0.7308233380317688,1.5867213010787964,2.067471742630005
1707165622337210000,23.600210205078124,-0.1579848974943161,0.7880155444145203,1.5775582790374756
1707165622356170200,23.619170166015625,-0.3336085379123688,0.16707152128219604,1.2079850435256958
1707165622375130400,23.63813037109375,-0.26885685324668884,-0.22266021370887756,0.9792162179946899
1707165622394090500,23.657090576171875,-0.2047160565853119,0.0873536616563797,0.8399390578269958
1707165622413050600,23.676050537109376,-0.01626427471637726,1.0418298244476318,0.5195404887199402
1707165622432010800,23.6950107421875,0.07872519642114639,1.6545273065567017,-0.1029307171702385
1707165622450971000,23.713970947265626,0.2372446060180664,1.588248372077942,-0.6520981788635254
