time,seconds_elapsed,z,y,x
1711551193588188200,0.117188232421875,3.0484559535980225,5.642275810241699,7.7491559982299805
1711551193607147800,0.136147705078125,3.153740167617798,5.639883041381836,7.716853141784668
1711551193626107100,0.155107177734375,3.056830883026123,5.6793646812438965,7.70967435836792
1711551193645066500,0.17406640625,3.0209386348724365,5.653043270111084,7.612765312194824
1711551193664025900,0.19302587890625,2.9802606105804443,5.578866004943848,7.3986077308654785
1711551193682985200,0.211985107421875,2.888136863708496,5.542973518371582,7.1748785972595215
1711551193701944600,0.230944580078125,2.833101987838745,5.542973518371582,7.050451755523682
1711551193720904000,0.249904052734375,2.8139593601226807,5.576473236083984,7.054041385650635
1711551193739863300,0.26886328125,2.809173822402954,5.581258773803711,7.074379920959473
1711551193758822700,0.28782275390625,2.823530673980713,5.657829284667969,7.160521984100342
1711551193777782000,0.306781982421875,2.8498518466949463,5.737988471984863,7.2335028648376465
1711551193796741400,0.325741455078125,2.8115665912628174,5.739185333251953,7.301698207855225
1711551193815700700,0.34470068359375,2.8103702068328857,5.770291805267334,7.378268718719482
1711551193834660000,0.36366015625,2.8797619342803955,5.686542987823486,7.440482139587402
1711551193853619500,0.382619384765625,2.8977081775665283,5.547759532928467,7.4225358963012695
1711551193872578800,0.401578857421875,2.8893332481384277,5.492724418640137,7.540980339050293
1711551193891538200,0.4205380859375,2.9180471897125244,5.581258773803711,7.643871784210205
1711551193910497500,0.43949755859375,2.9790642261505127,5.650650501251221,7.625925540924072
1711551193929457200,0.45845703125,2.8893332481384277,5.578866004943848,7.646264553070068
1711551193948416500,0.47741650390625,2.82951283454895,5.566901683807373,7.637889862060547
1711551193967376000,0.4963759765625,2.8965117931365967,5.6099724769592285,7.441678524017334
1711551193986335200,0.515335205078125,2.8342983722686768,5.625525951385498,7.227520942687988
1711551194005294600,0.534294677734375,2.720639228820801,5.661418437957764,7.159325122833252
1711551194024254000,0.55325390625,2.7146573066711426,5.803791522979736,7.162914752960205
1711551194043213300,0.57221337890625,2.723032236099243,5.96171760559082,7.113861560821533
1711551194062172700,0.591172607421875,2.7864420413970947,6.177071571350098,6.929614543914795
1711551194081132000,0.610132080078125,3.095116138458252,6.368497371673584,6.660421848297119
1711551194100091400,0.62909130859375,3.6909289360046387,6.678368091583252,6.390032768249512
1711551194119051000,0.648051025390625,3.483949661254883,6.784848690032959,6.056233882904053
1711551194138010400,0.66701025390625,2.317448616027832,6.577869415283203,5.6685967445373535
1711551194156969700,0.6859697265625,1.9860427379608154,6.27996301651001,4.868197441101074
1711551194175929000,0.70492919921875,2.5423741340637207,6.526423931121826,4.388436794281006
1711551194194888400,0.723888427734375,2.620140790939331,7.341179847717285,5.02133846282959
1711551194213847800,0.742847900390625,2.469393014907837,8.014759063720703,5.931807518005371
1711551194232807200,0.76180712890625,2.8522446155548096,8.056633949279785,6.21774959564209
1711551194251766500,0.7807666015625,3.4229328632354736,7.893921852111816,6.21774959564209
1711551194270726000,0.799725830078125,3.7531423568725586,7.860422611236572,6.355337142944336
1711551194289685200,0.818685302734375,4.028316974639893,7.927421569824219,6.480959892272949
1711551194308644600,0.83764453125,4.137190341949463,7.836493968963623,6.1950178146362305
1711551194327604000,0.85660400390625,3.8919260501861572,7.774280548095703,5.826523303985596
1711551194346563300,0.875563232421875,3.5569307804107666,8.032705307006836,5.566901683807373
1711551194365522700,0.894522705078125,3.4133615493774414,8.433503150939941,5.248656272888184
1711551194384482000,0.91348193359375,3.280559778213501,8.632107734680176,4.816751956939697
1711551194403441700,0.932441650390625,3.0137600898742676,8.575876235961914,4.325026988983154
1711551194422401000,0.951401123046875,2.8187451362609863,8.4562349319458,4.118047714233398
1711551194441360400,0.9703603515625,2.8007988929748535,8.397610664367676,3.9529430866241455
1711551194460319700,0.98931982421875,2.9036903381347656,8.38684368133545,3.8763725757598877
1711551194479279000,1.008279052734375,3.1274192333221436,8.266005516052246,3.7974095344543457
1711551194498238500,1.027238525390625,3.403790235519409,8.213363647460938,3.865604877471924
1711551194517197800,1.04619775390625,3.6885361671447754,8.23848819732666,4.0833516120910645
1711551194536157200,1.0651572265625,3.9218363761901855,8.153543472290039,4.323830604553223
1711551194555116800,1.08411669921875,3.9768712520599365,7.841279983520508,4.399204254150391
1711551194574076200,1.103076171875,4.078566074371338,7.674978733062744,4.297509670257568
1711551194593035500,1.122035400390625,4.094119548797607,7.746763229370117,4.167100429534912
1711551194611995000,1.140994873046875,4.074976921081543,7.774280548095703,4.102494239807129
1711551194630954200,1.159954345703125,3.900300979614258,7.622336387634277,3.9840497970581055
1711551194649913600,1.17891357421875,3.775874137878418,7.629515171051025,3.8727834224700928
1711551194668873000,1.197873046875,3.793820381164551,7.901100158691406,3.841676712036133
1711551194687832600,1.21683251953125,3.757927894592285,8.048258781433105,3.775874137878418
1711551194706792000,1.2357919921875,3.6526436805725098,7.913064479827881,3.620340585708618
1711551194725751300,1.254751220703125,3.631108283996582,8.054241180419922,3.59043025970459
1711551194744710700,1.273710693359375,3.5330026149749756,8.319844245910645,3.7016966342926025
1711551194763670000,1.292669921875,3.4241292476654053,8.490931510925293,3.6921253204345703
1711551194782629400,1.31162939453125,3.211168050765991,8.577073097229004,3.600001573562622
1711551194801589000,1.330589111328125,2.906083106994629,8.684749603271484,3.4480574131011963
1711551194820548400,1.34954833984375,2.7804598808288574,8.909674644470215,3.355933666229248
1711551194839507700,1.3685078125,2.7553353309631348,9.239884376525879,3.2518460750579834
1711551194858467000,1.387467041015625,2.7637102603912354,9.53659439086914,3.1657042503356934
1711551194877426400,1.406426513671875,2.7517459392547607,9.629914283752441,3.0101709365844727
1711551194896385800,1.4253857421875,2.6392834186553955,9.469595909118652,2.5698914527893066
1711551194915345400,1.444345458984375,2.530410051345825,9.43609619140625,2.093719720840454
1711551194934304800,1.4633046875,2.297109842300415,9.491130828857422,1.6582261323928833
1711551194953264000,1.48226416015625,1.9525432586669922,9.604789733886719,1.3208380937576294
1711551194972223500,1.501223388671875,1.6510475873947144,9.729216575622559,1.0875378847122192
1711551194991182800,1.520182861328125,1.399801254272461,9.797411918640137,0.9379864931106567
1711551195010142500,1.539142578125,1.2885349988937378,9.81655502319336,0.8171489238739014
1711551195029101800,1.558101806640625,1.2813565731048584,9.737591743469238,0.6592226624488831
1711551195048061200,1.577061279296875,1.3830515146255493,9.619147300720215,0.4378865361213684
1711551195067020800,1.596020751953125,1.423729419708252,9.610772132873535,0.26081767678260803
1711551195085980200,1.614980224609375,1.4632110595703125,9.622735977172852,0.30508488416671753
1711551195104939500,1.633939453125,1.521835207939148,9.359525680541992,0.20937198400497437
1711551195123899100,1.652899169921875,1.5409778356552124,9.230313301086426,0.09810572862625122
1711551195142858500,1.6718583984375,1.6031911373138428,9.416953086853027,0.24167509377002716
1711551195161817900,1.69081787109375,1.5756736993789673,9.638289451599121,0.5335994362831116
1711551195180777200,1.709777099609375,1.5026925802230835,9.723235130310059,0.7968099117279053
1711551195199736800,1.72873681640625,1.4811571836471558,9.7005033493042,0.9810572862625122
1711551195218696200,1.7476962890625,1.495514154434204,9.614361763000488,0.9702895879745483
1711551195237655600,1.766655517578125,1.4452649354934692,9.573683738708496,0.9332008361816406
1711551195256615200,1.785615234375,1.2957134246826172,9.640682220458984,0.9320043921470642
1711551195275574500,1.804574462890625,1.054038405418396,9.850054740905762,0.989432156085968
1711551195294534000,1.823533935546875,0.8159525394439697,10.152746200561523,1.0755738019943237
1711551195313493500,1.842493408203125,0.6352944374084473,10.299904823303223,1.0660024881362915
1711551195332452900,1.861452880859375,0.5718846321105957,10.14437198638916,0.9068797826766968
1711551195351412200,1.880412109375,0.6065805554389954,9.796216011047363,0.6771687865257263
1711551195370371800,1.899371826171875,0.6831508874893188,9.378668785095215,0.3696911036968231
1711551195389331200,1.918331298828125,0.7154539823532104,9.18006420135498,0.05024927482008934
1711551195408290600,1.93729052734375,0.6867401003837585,9.047262191772461,-0.26201409101486206
1711551195427250200,1.956250244140625,0.5611169338226318,9.080761909484863,-0.5108676552772522
1711551195446209500,1.97520947265625,0.4211367964744568,9.316454887390137,-0.656829833984375
1711551195465169000,1.9941689453125,0.28115665912628174,9.702896118164062,-0.7034898400306702
1711551195484128500,2.01312841796875,0.10289137065410614,9.9409818649292,-0.6424728631973267
1711551195503087900,2.032087890625,-0.11844471842050552,10.022337913513184,-0.49651068449020386
1711551195522047200,2.051047119140625,-0.2787638306617737,10.118050575256348,-0.25722843408584595
1711551195541006800,2.0700068359375,-0.3397808074951172,10.313065528869629,-0.035892341285943985
1711551195559966200,2.08896630859375,-0.2632105052471161,10.529616355895996,0.29431718587875366
1711551195578925600,2.107925537109375,0.03349951654672623,10.559526443481445,0.5802595019340515
1711551195597885200,2.12688525390625,0.39122650027275085,10.484152793884277,0.7345965504646301
1711551195616844500,2.145844482421875,0.6771687865257263,10.535597801208496,0.9678967595100403
1711551195635804200,2.16480419921875,0.9571290612220764,10.549955368041992,1.0815558433532715
1711551195654763500,2.183763427734375,1.1856436729431152,10.439885139465332,1.0959128141403198
1711551195673723100,2.20272314453125,1.2681959867477417,10.39920711517334,1.0336993932724
1711551195692682500,2.2216826171875,1.171286702156067,10.564311981201172,1.0803594589233398
1711551195711642000,2.24064208984375,0.9750752449035645,10.831111907958984,1.2083754539489746
1711551195730601500,2.2596015625,0.711864709854126,10.911271095275879,1.290927767753601
1711551195749561000,2.27856103515625,0.4618147611618042,10.87298583984375,1.2538390159606934
1711551195768520400,2.2975205078125,0.13998012244701385,10.65523910522461,1.1377872228622437
1711551195787480000,2.31647998046875,0.04785645380616188,10.490134239196777,1.1030912399291992
1711551195806439400,2.335439453125,0.07657032459974289,10.15155029296875,1.0959128141403198
1711551195825398800,2.354398681640625,-0.013160524889826775,9.906285285949707,1.0133603811264038
1711551195844358400,2.3733583984375,-0.29312077164649963,9.821340560913086,0.914058268070221
1711551195863317800,2.39231787109375,-0.44027936458587646,9.77707290649414,0.8709874153137207
1711551195882277400,2.41127734375,-0.2991028428077698,9.658628463745117,0.8171489238739014
1711551195901236700,2.43023681640625,0.27397820353507996,9.509077072143555,0.5682953596115112
1711551195920196400,2.4491962890625,1.0085747241973877,9.122636795043945,0.2392822653055191
1711551195939155700,2.46815576171875,1.797009825706482,8.71346378326416,-0.14715859293937683
1711551195958115300,2.487115234375,2.6524438858032227,8.425128936767578,-0.592223584651947
1711551195977075000,2.506074951171875,3.218346357345581,8.25404167175293,-1.301695466041565
1711551195996034300,2.525034423828125,3.541377544403076,8.195417404174805,-2.152343988418579
1711551196014994000,2.543993896484375,3.4301111698150635,8.273183822631836,-2.5974090099334717
1711551196033953300,2.562953369140625,3.524627685546875,8.61057186126709,-2.562713146209717
1711551196052912600,2.58191259765625,3.7507495880126953,8.835497856140137,-2.740978240966797
1711551196071872300,2.600872314453125,3.913461446762085,8.731410026550293,-3.1178479194641113
1711551196090832000,2.619831787109375,3.9529430866241455,8.694320678710938,-3.2063822746276855
1711551196109791200,2.638791259765625,3.875176191329956,8.768498420715332,-2.6057839393615723
1711551196128750800,2.657750732421875,4.219742774963379,8.556734085083008,-1.934597134590149
1711551196147710500,2.67671044921875,4.734199523925781,8.132007598876953,-1.4991034269332886
1711551196166669800,2.695669921875,5.207978248596191,7.554141044616699,-1.4584254026412964
1711551196185629400,2.71462939453125,5.459224700927734,7.001399040222168,-1.8269200325012207
1711551196204588800,2.7335888671875,5.481956481933594,6.653243541717529,-2.417947292327881
1711551196223548400,2.75254833984375,5.300102233886719,6.588637351989746,-3.2578279972076416
1711551196242507800,2.7715078125,4.746163845062256,6.464210510253906,-4.058227062225342
1711551196261467400,2.79046728515625,4.219742774963379,6.1435723304748535,-4.657629489898682
1711551196280427000,2.809427001953125,4.0558342933654785,5.6685967445373535,-5.096712112426758
1711551196299386400,2.828386474609375,4.225724697113037,5.490331649780273,-5.508277893066406
1711551196318346000,2.847345947265625,4.5583271980285645,5.600401401519775,-5.717649936676025
1711551196337305300,2.866305419921875,5.042873859405518,5.501099109649658,-5.856433391571045
1711551196356265000,2.885264892578125,5.461617469787598,5.014159679412842,-5.937789440155029
1711551196375224600,2.904224609375,5.138586521148682,4.887340068817139,-6.1088762283325195
1711551196394184000,2.923183837890625,4.752145767211914,4.415954113006592,-6.697510719299316
1711551196413143600,2.9421435546875,4.770092010498047,3.500699520111084,-7.073183536529541
1711551196432103200,2.961103271484375,4.5822553634643555,3.219542980194092,-7.258627414703369
1711551196451062800,2.980062744140625,4.6887359619140625,3.720839262008667,-6.955935478210449
1711551196470022100,2.999022216796875,5.179264545440674,4.581058979034424,-6.34217643737793
1711551196488981800,3.017981689453125,6.011966705322266,5.082355499267578,-5.669793128967285
1711551196507941000,3.036941162109375,6.73938512802124,4.969892501831055,-5.251049518585205
1711551196526900700,3.055900634765625,7.178467750549316,4.36809778213501,-5.243870735168457
1711551196545860400,3.0748603515625,7.037291526794434,4.012763500213623,-5.467599868774414
1711551196564820000,3.093820068359375,6.748956203460693,3.8943188190460205,-5.821737289428711
1711551196583779300,3.112779296875,6.4115681648254395,3.8189449310302734,-6.296712875366211
1711551196602739000,3.131739013671875,6.032305717468262,3.678964853286743,-6.668796539306641
1711551196621698600,3.150698486328125,5.706881999969482,3.431307554244995,-6.881757736206055
1711551196640658000,3.169657958984375,5.6099724769592285,3.0831520557403564,-7.098308563232422
1711551196659617500,3.188617431640625,5.776273727416992,2.8558337688446045,-7.202396392822266
1711551196678577200,3.2075771484375,6.138786315917969,2.641676187515259,-7.05763053894043
1711551196697536500,3.22653662109375,6.4079790115356445,2.5160529613494873,-6.882954120635986
1711551196716496100,3.24549609375,6.569494724273682,2.6141586303710938,-6.830312252044678
1711551196735455700,3.264455810546875,6.9068827629089355,2.4131617546081543,-7.0097737312316895
1711551196754415400,3.283415283203125,7.161718368530273,1.856830358505249,-7.441678524017334
1711551196773374700,3.302374755859375,7.0301127433776855,1.4141582250595093,-7.907082557678223
1711551196792334300,3.321334228515625,6.516852378845215,1.5326029062271118,-8.189435958862305
1711551196811294000,3.3402939453125,6.16271448135376,1.755135416984558,-8.452646255493164
1711551196830253600,3.359253662109375,6.177071571350098,1.4333007335662842,-8.709874153137207
1711551196849213200,3.378213134765625,6.157928943634033,1.0995019674301147,-8.62014389038086
1711551196868172500,3.397172607421875,5.9916276931762695,1.062413215637207,-8.22293472290039
1711551196887132200,3.416132080078125,5.985645771026611,0.8303094506263733,-8.165507316589355
1711551196906091800,3.435091796875,6.128018856048584,0.3086741268634796,-8.346165657043457
1711551196925051400,3.454051513671875,6.226124286651611,-0.16151553392410278,-8.855836868286133
1711551196944011000,3.473010986328125,6.0538411140441895,-0.16510476171970367,-9.316454887390137
1711551196962970400,3.491970458984375,5.966503143310547,0.15553347766399384,-9.419346809387207
1711551196981930000,3.510929931640625,6.065805435180664,0.22372891008853912,-9.531808853149414
1711551197000889600,3.5298896484375,6.45822811126709,0.1052841991186142,-9.570094108581543
1711551197019849200,3.54884912109375,6.861418724060059,0.059820566326379776,-9.272188186645508
1711551197038808600,3.56780859375,6.725028038024902,0.31465616822242737,-8.669196128845215
1711551197057768200,3.586768310546875,6.8865437507629395,0.7070791125297546,-8.13679313659668
1711551197076727800,3.605727783203125,6.943971157073975,1.1461620330810547,-7.816154956817627
1711551197095687400,3.6246875,6.667600154876709,1.4476577043533325,-7.537391185760498
1711551197114647000,3.64364697265625,6.696314334869385,1.2646067142486572,-7.2681989669799805
1711551197133606400,3.6626064453125,7.003791809082031,0.9379864931106567,-7.3160552978515625
1711551197152566000,3.68156591796875,7.225128173828125,0.7441678643226624,-7.707281589508057
1711551197171525600,3.700525634765625,7.221538543701172,0.7728816866874695,-8.486145973205566
1711551197190485200,3.7194853515625,6.857829570770264,0.9176474809646606,-9.067601203918457
1711551197209444900,3.73844482421875,6.9583282470703125,0.7106683254241943,-9.18724250793457
1711551197228404200,3.757404296875,7.302894592285156,-0.20817556977272034,-9.6466646194458
1711551197247363800,3.77636376953125,7.384250640869141,-0.4989035129547119,-9.611968994140625
1711551197266323500,3.795323486328125,7.671389579772949,0.064606212079525,-9.008976936340332
1711551197285283000,3.814282958984375,8.09970474243164,0.5874379873275757,-8.476573944091797
1711551197304242700,3.83324267578125,8.213363647460938,0.6448656916618347,-8.277970314025879
1711551197323202300,3.852202392578125,8.322237014770508,0.4989035129547119,-8.21695327758789
1711551197342162000,3.871161865234375,7.923832416534424,0.7034898400306702,-8.1224365234375
1711551197361121300,3.890121337890625,7.350750923156738,1.3028919696807861,-8.00518798828125
1711551197380081000,3.909080810546875,6.94038200378418,1.7563318014144897,-7.892725467681885
1711551197399040500,3.92804052734375,6.329015731811523,2.0195422172546387,-7.371089935302734
1711551197418000100,3.947000244140625,6.33499813079834,2.3030917644500732,-6.640082836151123
1711551197436959700,3.965959716796875,6.7621169090271,2.778067111968994,-5.85284423828125
1711551197455919000,3.984919189453125,7.106683254241943,2.8558337688446045,-5.31685209274292
1711551197474878700,4.003878662109375,6.839883327484131,3.1585259437561035,-4.755734920501709
1711551197493838300,4.02283837890625,6.636493682861328,4.144368648529053,-4.036691665649414
1711551197512798000,4.0417978515625,6.447460651397705,4.920839786529541,-3.4504501819610596
1711551197531757600,4.060757568359375,6.354140758514404,5.134997367858887,-2.9383862018585205
1711551197550717200,4.07971728515625,6.34217643737793,5.170889854431152,-2.4598217010498047
1711551197569676800,4.0986767578125,6.500102519989014,5.102694511413574,-2.021935224533081
1711551197588636400,4.117636474609375,6.563512325286865,5.072783946990967,-1.6402798891067505
1711551197607595800,4.136595703125,6.4905314445495605,5.146961688995361,-1.3435698747634888
1711551197626555400,4.155555419921875,6.715456962585449,5.2630133628845215,-1.222732424736023
1711551197645515000,4.174514892578125,6.539584159851074,5.539384365081787,-1.1868400573730469
1711551197664474600,4.193474609375,6.2297139167785645,6.134000778198242,-1.1078768968582153
1711551197683434200,4.212434326171875,6.329015731811523,6.607779502868652,-1.0372886657714844
1711551197702393900,4.231393798828125,6.479763507843018,6.367300987243652,-1.337587833404541
1711551197721353500,4.250353515625,6.186643123626709,5.996413707733154,-1.7467604875564575
1711551197740313000,4.26931298828125,5.857629776000977,6.269195556640625,-1.6223337650299072
1711551197759272700,4.288272705078125,5.825326919555664,6.850651264190674,-1.3818551301956177
1711551197778232300,4.307232421875,5.923432350158691,7.044469833374023,-1.3866406679153442
1711551197797192000,4.32619189453125,5.791827201843262,6.720242500305176,-1.573280930519104
1711551197816151300,4.3451513671875,5.422136306762695,6.605386734008789,-1.8077775239944458
1711551197835111000,4.36411083984375,5.1218366622924805,6.977470874786377,-1.820937991142273
1711551197854070500,4.383070556640625,4.955535888671875,7.349554538726807,-1.8029918670654297
1711551197873030100,4.402030029296875,4.840680122375488,7.439285755157471,-1.94297194480896
1711551197891989800,4.42098974609375,4.711467742919922,7.561319351196289,-2.3270199298858643
1711551197910949400,4.439949462890625,4.457828521728516,7.724031448364258,-2.8977081775665283
1711551197929909000,4.458908935546875,3.7507495880126953,8.102097511291504,-3.486342668533325
1711551197948868600,4.47786865234375,3.1549365520477295,8.782855987548828,-3.565305709838867
1711551197967828200,4.496828125,2.809173822402954,9.239884376525879,-3.339184045791626
1711551197986787800,4.515787841796875,2.733799934387207,9.452845573425293,-3.032902717590332
1711551198005747500,4.53474755859375,2.9934210777282715,9.579665184020996,-2.63449764251709
1711551198024706800,4.553706787109375,3.1728827953338623,9.315258979797363,-2.2779672145843506
1711551198043666400,4.57266650390625,3.2745778560638428,8.971888542175293,-1.8317056894302368
1711551198062626300,4.591626220703125,3.260220766067505,8.884550094604492,-1.2789636850357056
1711551198081585700,4.610585693359375,3.208775281906128,8.86062240600586,-0.5862415432929993
1711551198100545300,4.629545166015625,2.8941190242767334,8.774480819702148,-0.25722843408584595
1711551198119505000,4.6485048828125,1.8317056894302368,9.274580955505371,0.10767702013254166
1711551198138464500,4.667464599609375,1.1198409795761108,10.122836112976074,1.0097711086273193
1711551198157424000,4.686424072265625,1.109073281288147,10.913663864135742,1.7419748306274414
1711551198176383700,4.7053837890625,1.5625132322311401,11.48076343536377,2.0039889812469482
1711551198195343400,4.72434326171875,1.8903298377990723,11.328819274902344,1.8089739084243774
1711551198214303000,4.743302978515625,2.204986095428467,10.566704750061035,1.2658032178878784
1711551198233262600,4.7622626953125,2.5363919734954834,10.195816993713379,0.8697910308837891
1711551198252222200,4.78122216796875,2.9144580364227295,9.92423152923584,0.5970092415809631
1711551198271181800,4.800181884765625,3.1860432624816895,9.596415519714355,0.4223332107067108
1711551198290141400,4.819141357421875,3.3164522647857666,9.248259544372559,0.009571290574967861
1711551198309101000,4.83810107421875,3.469592809677124,9.132207870483398,-0.5252245664596558
1711551198328060700,4.857060791015625,3.4947173595428467,9.109476089477539,-1.0301101207733154
1711551198347020300,4.876020263671875,3.373879909515381,9.035298347473145,-1.4715858697891235
1711551198365980000,4.89497998046875,3.2554352283477783,9.261420249938965,-1.9286150932312012
1711551198384939500,4.913939453125,3.014956474304199,9.870393753051758,-2.090130567550659
1711551198403899100,4.932899169921875,2.2779672145843506,10.279565811157227,-2.197807550430298
1711551198422858800,4.951858642578125,1.892722725868225,10.009177207946777,-2.258824586868286
1711551198441818400,4.970818359375,1.6606189012527466,9.430113792419434,-2.609373092651367
1711551198460778000,4.989778076171875,1.275374412536621,9.199206352233887,-2.912065267562866
1711551198479737300,5.0087373046875,0.729810893535614,9.260223388671875,-2.926422119140625
1711551198498697200,5.027697265625,0.6556333899497986,9.190832138061523,-2.92283296585083
1711551198517656800,5.04665673828125,1.0600204467773438,9.230313301086426,-2.313859462738037
1711551198536616200,5.0656162109375,1.9465612173080444,9.378668785095215,-1.550549030303955
1711551198555575800,5.084575927734375,2.772084951400757,8.891729354858398,-1.085145115852356
1711551198574535700,5.10353564453125,3.2506494522094727,8.550751686096191,-0.8913264274597168
1711551198593495000,5.1224951171875,3.6430723667144775,9.535398483276367,-1.4679967164993286
1711551198612454700,5.14145458984375,2.9551360607147217,10.817951202392578,-2.128415822982788
1711551198631414300,5.160414306640625,2.043470621109009,10.75813102722168,-1.810170292854309
1711551198650374000,5.179373779296875,2.7864420413970947,10.303494453430176,-0.48813581466674805
1711551198669333500,5.19833349609375,4.686343193054199,8.622536659240723,1.444068431854248
1711551198688293000,5.217293212890625,7.293323516845703,8.050651550292969,3.3822548389434814
1711551198707253000,5.2362529296875,8.539983749389648,8.461020469665527,3.6430723667144775
1711551198726212400,5.25521240234375,6.2297139167785645,8.325826644897461,1.5290136337280273
1711551198745172000,5.274171875,4.128815650939941,8.309076309204102,-0.7190431952476501
1711551198764131600,5.293131591796875,2.970689296722412,8.234899520874023,-2.5088746547698975
1711551198783091200,5.31209130859375,0.23688943684101105,8.85344409942627,-4.500899314880371
1711551198802050800,5.33105078125,-1.6893328428268433,9.958928108215332,-5.48793888092041
1711551198821010400,5.350010498046875,-1.4835500717163086,9.221938133239746,-6.299105644226074
1711551198839970000,5.368969970703125,0.7190431952476501,9.000602722167969,-5.42572546005249
1711551198858929700,5.3879296875,2.2671995162963867,9.068798065185547,-4.206582069396973
1711551198877889300,5.40688916015625,3.218346357345581,9.038887977600098,-3.060420274734497
1711551198896849000,5.425848876953125,3.62153697013855,8.927620887756348,-2.3330020904541016
1711551198915808500,5.44480859375,3.4983067512512207,8.58185863494873,-2.2265214920043945
1711551198934768000,5.46376806640625,3.2506494522094727,8.615358352661133,-2.3437697887420654
1711551198953727700,5.482727783203125,2.963510751724243,9.025727272033691,-2.386840581893921
1711551198972687400,5.501687255859375,2.9288148880004883,9.175278663635254,-2.427518606185913
1711551198991647000,5.52064697265625,3.2303106784820557,8.835497856140137,-2.53399920463562
1711551199010606600,5.539606689453125,3.5401811599731445,8.427521705627441,-2.6045875549316406
1711551199029566200,5.558566162109375,3.720839262008667,8.206185340881348,-2.7732813358306885
1711551199048525800,5.57752587890625,3.631108283996582,8.009973526000977,-3.207578659057617
1711551199067485400,5.5964853515625,3.2267212867736816,7.8795647621154785,-3.5545380115509033
1711551199086445000,5.615445068359375,3.253042459487915,7.981259822845459,-4.046263217926025
1711551199105404700,5.63440478515625,3.3236305713653564,8.309076309204102,-4.353740692138672
1711551199124364500,5.653364501953125,3.321237802505493,9.008976936340332,-4.139583110809326
1711551199143324000,5.672323974609375,3.242274761199951,9.479166984558105,-3.1800613403320312
1711551199162283500,5.691283447265625,3.1345977783203125,9.176474571228027,-1.8855443000793457
1711551199181243400,5.710243408203125,3.735196113586426,8.708678245544434,-0.885344386100769
1711551199200202800,5.72920263671875,4.97348165512085,8.307880401611328,-0.8913264274597168
1711551199219162400,5.748162353515625,5.26899528503418,7.886743545532227,-1.2394821643829346
1711551199238122200,5.767122314453125,5.312066078186035,7.517052173614502,-1.3268201351165771
1711551199257081600,5.78608154296875,5.458028316497803,7.70249605178833,-0.9092726111412048
1711551199276041200,5.805041259765625,4.907679080963135,8.14397144317627,-0.6329016089439392
1711551199295001000,5.8240009765625,3.8763725757598877,8.579465866088867,-0.4366901218891144
1711551199313960400,5.84296044921875,3.0185458660125732,8.841479301452637,-0.3924229145050049
1711551199332920300,5.86192041015625,2.7314071655273438,8.86062240600586,-0.7657032608985901
1711551199351880000,5.8808798828125,2.561516523361206,8.9312105178833,-1.3914263248443604
1711551199370839600,5.899839599609375,2.094916343688965,9.05444049835205,-1.317248821258545
1711551199389799200,5.918799072265625,1.856830358505249,9.208778381347656,-0.4127618968486786
1711551199408758800,5.9377587890625,2.111665964126587,9.432506561279297,0.5120640397071838
1711551199427718400,5.956718505859375,2.4610180854797363,9.620343208312988,1.3028919696807861
1711551199446678000,5.975677978515625,2.8833513259887695,9.446864128112793,1.9369899034500122
1711551199465637600,5.9946376953125,3.2757742404937744,9.098708152770996,2.4921247959136963
1711551199484597200,6.01359716796875,3.620340585708618,8.9850492477417,3.0101709365844727
1711551199503556900,6.032556884765625,3.78544545173645,9.276973724365234,3.6610186100006104
1711551199522516500,6.0515166015625,3.968496322631836,9.345169067382812,4.2484564781188965
1711551199541476000,6.07047607421875,3.9433717727661133,9.127422332763672,4.35254430770874
1711551199560435700,6.089435791015625,3.768695592880249,8.927620887756348,4.433900356292725
1711551199579395300,6.108395263671875,3.656233072280884,8.943174362182617,4.803591251373291
1711551199598355000,6.12735498046875,3.6705899238586426,8.670392990112305,5.088337421417236
1711551199617314600,6.146314453125,3.6155550479888916,8.324629783630371,5.133800983428955
1711551199636274400,6.1652744140625,3.6155550479888916,8.176275253295898,5.13021183013916
1711551199655233800,6.18423388671875,3.6406795978546143,8.037490844726562,4.957928657531738
1711551199674193700,6.203193603515625,3.4444682598114014,7.921439170837402,4.724628448486328
1711551199693153300,6.2221533203125,2.946761131286621,7.9728851318359375,4.584648132324219
1711551199712113000,6.24111279296875,2.3533411026000977,8.236095428466797,4.7030930519104
1711551199731072500,6.260072509765625,1.9848463535308838,8.358129501342773,5.06082010269165
1711551199750032100,6.2790322265625,2.2815563678741455,8.080561637878418,5.478367328643799
1711551199768991700,6.29799169921875,2.6021945476531982,7.599604606628418,5.627918720245361
1711551199787951400,6.316951416015625,2.8905298709869385,7.375875949859619,5.91505765914917
1711551199806911000,6.335910888671875,3.0652058124542236,7.365108013153076,6.346961975097656
1711551199825870800,6.354870849609375,3.2446675300598145,7.28255558013916,6.555137634277344
1711551199844830500,6.37383056640625,3.3571300506591797,7.184450149536133,6.750152587890625
1711551199863790000,6.3927900390625,3.3571300506591797,7.317251682281494,6.774080753326416
1711551199882749700,6.411749755859375,3.276970624923706,7.6666035652160645,6.829115867614746
1711551199901709300,6.430709228515625,2.999403238296509,7.557730197906494,6.51326322555542
1711551199920669000,6.4496689453125,2.5974090099334717,7.223931789398193,6.315855503082275
1711551199939628800,6.46862890625,2.3736801147460938,6.869793891906738,6.214160442352295
1711551199958588200,6.487588134765625,2.038684844970703,6.653243541717529,6.0538411140441895
1711551199977548000,6.506548095703125,1.6630117893218994,6.7896342277526855,5.953342914581299
1711551199996507600,6.525507568359375,1.5014961957931519,7.0755767822265625,5.825326919555664
1711551200015467300,6.54446728515625,1.5122638940811157,7.117451190948486,5.801398277282715
1711551200034427000,6.563427001953125,1.5960127115249634,6.8757758140563965,5.722435474395752
1711551200053386500,6.582386474609375,1.7790635824203491,6.695117950439453,5.732006549835205
1711551200072346400,6.601346435546875,2.1068804264068604,6.713063716888428,5.56450891494751
1711551200091306000,6.620305908203125,2.181057929992676,7.0061845779418945,5.639883041381836
1711551200110265600,6.639265625,2.1032910346984863,7.143772125244141,6.119643688201904
1711551200129225200,6.65822509765625,1.8604196310043335,6.74656343460083,6.778866767883301
1711551200148184800,6.677184814453125,1.934597134590149,5.988038539886475,7.435696601867676
1711551200167144400,6.69614453125,2.4394826889038086,5.972485542297363,7.976474285125732
1711551200186104300,6.715104248046875,3.5497524738311768,6.570691108703613,8.204988479614258
1711551200205064000,6.73406396484375,3.8560338020324707,7.575676441192627,7.304090976715088
1711551200224023600,6.7530234375,2.991028308868408,8.507680892944336,5.755934715270996
1711551200242983200,6.771983154296875,1.4416756629943848,8.09252643585205,4.49252462387085
1711551200261943000,6.790943115234375,0.7190431952476501,7.134200572967529,4.8574299812316895
1711551200280902700,6.809902587890625,0.9296116232872009,6.190232276916504,6.317051887512207
1711551200299862300,6.8288623046875,1.568495273590088,6.007181167602539,7.488338470458984
1711551200318822000,6.84782177734375,2.0865414142608643,6.91765022277832,7.785048484802246
1711551200337781500,6.866781494140625,2.4358935356140137,7.743174076080322,7.51585578918457
1711551200356741400,6.885741455078125,2.5663022994995117,7.53858757019043,7.36032247543335
1711551200375701000,6.904700927734375,2.3018953800201416,6.935596466064453,7.2681989669799805
1711551200394660600,6.92366064453125,1.9956140518188477,6.4079790115356445,7.073183536529541
1711551200413620500,6.942620361328125,1.8161523342132568,6.118447303771973,6.873383045196533
1711551200432580000,6.961580078125,1.688136339187622,6.306283950805664,6.675975322723389
1711551200451539700,6.980539794921875,1.2418749332427979,6.867401123046875,6.4510498046875
1711551200470499300,6.999499267578125,1.01814603805542,7.105486869812012,6.391229152679443
1711551200489459200,7.018459228515625,0.9296116232872009,6.829115867614746,6.471388816833496
1711551200508418800,7.037418701171875,1.100698471069336,6.589833736419678,6.338587284088135
1711551200527378400,7.05637841796875,1.5254244804382324,6.678368091583252,6.38165807723999
1711551200546338300,7.07533837890625,1.9106688499450684,6.932007312774658,6.708278179168701
1711551200565298000,7.0942978515625,2.20737886428833,7.03489875793457,7.058826923370361
1711551200584257500,7.113257568359375,2.4717857837677,7.100701332092285,7.194021224975586
1711551200603217200,7.132217041015625,2.5459632873535156,7.086344242095947,7.317251682281494
1711551200622177000,7.151177001953125,2.416750907897949,6.988238334655762,7.29093074798584
1711551200641136600,7.17013671875,2.093719720840454,6.9104719161987305,7.1509504318237305
1711551200660096300,7.18909619140625,1.719243049621582,6.949953556060791,6.6592254638671875
1711551200679056000,7.208055908203125,1.4871392250061035,7.355536937713623,6.2428741455078125
1711551200698015700,7.227015625,1.3986048698425293,8.061419486999512,6.278766632080078
1711551200716975400,7.245975341796875,1.679761528968811,8.033902168273926,6.550352096557617
1711551200735935200,7.264935302734375,2.252842426300049,7.154539585113525,6.467799663543701
1711551200754894800,7.283894775390625,2.3988046646118164,6.56829833984375,6.332605361938477
1711551200773854500,7.3028544921875,2.2612173557281494,6.5874409675598145,6.424728870391846
1711551200792814300,7.321814453125,1.994417667388916,6.935596466064453,6.297909259796143
1711551200811774000,7.34077392578125,1.6857435703277588,7.1234331130981445,5.928217887878418
1711551200830733600,7.359733642578125,1.4943177700042725,7.35314416885376,5.54177713394165
1711551200849693400,7.378693359375,1.5086746215820312,7.768298625946045,5.453242778778076
1711551200868653000,7.397653076171875,1.6235301494598389,7.864011764526367,5.458028316497803
1711551200887612700,7.41661279296875,1.856830358505249,7.631907939910889,5.3802618980407715
1711551200906572500,7.435572509765625,2.118844509124756,7.635497093200684,5.490331649780273
1711551200925532200,7.4545322265625,2.245664119720459,7.81974458694458,5.7858452796936035
1711551200944492000,7.473491943359375,2.342573404312134,7.88913631439209,5.973681926727295
1711551200963451600,7.49245166015625,2.4945175647735596,7.722835063934326,5.827719688415527
1711551200982411300,7.511411376953125,2.4646072387695312,7.7216386795043945,5.4520463943481445
1711551201001371000,7.530370849609375,2.390429735183716,7.987242221832275,5.3802618980407715
1711551201020330800,7.549330810546875,2.053041934967041,8.213363647460938,5.459224700927734
1711551201039290400,7.568290283203125,1.8376877307891846,8.25523853302002,5.653043270111084
1711551201058250200,7.587250244140625,1.8939191102981567,8.26839828491211,5.7547383308410645
1711551201077209900,7.6062099609375,2.2683959007263184,8.033902168273926,5.7164530754089355
1711551201096169700,7.625169677734375,2.847458839416504,7.812565803527832,5.230710506439209
1711551201115129300,7.64412939453125,3.2650065422058105,7.791030406951904,4.301098823547363
1711551201134089200,7.663089111328125,3.3236305713653564,7.957331657409668,3.7698919773101807
1711551201153048800,7.682048828125,3.166900873184204,8.081758499145508,3.7435710430145264
1711551201172008400,7.701008544921875,2.7314071655273438,8.328219413757324,3.8596229553222656
1711551201190968300,7.71996826171875,2.2372891902923584,8.72901725769043,4.180261135101318
1711551201209928000,7.738927978515625,2.2719850540161133,9.089137077331543,4.338187217712402
1711551201228887600,7.757887451171875,2.423929452896118,8.848658561706543,3.8368911743164062
1711551201247847400,7.776847412109375,2.287538528442383,8.543573379516602,3.0628130435943604
1711551201266807000,7.79580712890625,2.2923240661621094,8.642875671386719,2.610569477081299
1711551201285767000,7.814766845703125,2.60339093208313,9.025727272033691,2.444268226623535
1711551201304726500,7.8337265625,2.6596224308013916,9.05444049835205,2.444268226623535
1711551201323686400,7.852686279296875,2.2923240661621094,8.559126853942871,2.630908489227295
1711551201342646000,7.87164599609375,2.352144718170166,8.449056625366211,2.785245656967163
1711551201361606000,7.89060595703125,2.5363919734954834,8.878568649291992,2.4634108543395996
1711551201380565500,7.9095654296875,2.1032910346984863,8.888139724731445,2.1882362365722656
1711551201399525400,7.928525390625,2.328216314315796,8.794819831848145,1.373480200767517
1711551201418485000,7.947485107421875,2.03629207611084,9.125029563903809,0.5814558863639832
1711551201437444900,7.96644482421875,1.074377417564392,9.637093544006348,0.9978070259094238
1711551201456404500,7.985404541015625,1.1856436729431152,10.549955368041992,1.6785650253295898
1711551201475364000,8.004364013671875,2.3198416233062744,11.308480262756348,1.679761528968811
1711551201494324000,8.023323974609376,3.0592236518859863,10.724631309509277,0.7824530005455017
1711551201513283800,8.042283935546875,3.0340991020202637,9.972088813781738,0.04426721855998039
1711551201532243500,8.061243408203126,3.3296127319335938,10.961520195007324,-0.711864709854126
1711551201551203300,8.080203369140625,3.067598581314087,11.609975814819336,-1.2634103298187256
1711551201570163000,8.099162841796876,2.090130567550659,10.85025405883789,-1.7359927892684937
1711551201589122800,8.118122802734375,1.397408366203308,10.50209903717041,-1.9896320104599
1711551201608082400,8.13708251953125,0.9320043921470642,11.149356842041016,-1.8915263414382935
1711551201627042300,8.156042236328124,1.1330015659332275,10.49252700805664,-2.0243279933929443
1711551201646002000,8.175001953125,1.7778671979904175,9.261420249938965,-2.4993033409118652
1711551201664961800,8.1939619140625,2.3258235454559326,8.624929428100586,-2.724228620529175
1711551201683921400,8.21292138671875,2.3461625576019287,8.33300495147705,-2.328216314315796
1711551201702881300,8.23188134765625,2.155933141708374,7.88913631439209,-1.6666009426116943
1711551201721841000,8.2508408203125,2.4047868251800537,7.519444942474365,-0.26201409101486206
1711551201740800800,8.26980078125,2.251646041870117,7.715656757354736,0.6771687865257263
1711551201759760400,8.288760498046875,2.7696921825408936,7.618747234344482,1.7096717357635498
1711551201778720300,8.30772021484375,4.019941806793213,7.259823799133301,1.781456470489502
1711551201797679900,8.326679931640625,4.092923164367676,7.17368221282959,1.357926845550537
1711551201816639700,8.3456396484375,2.678765058517456,7.852047443389893,0.9559326171875
1711551201835599600,8.364599609375,1.368694543838501,8.757730484008789,1.2945170402526855
1711551201854559200,8.383559326171875,1.1653046607971191,9.586843490600586,1.521835207939148
1711551201873519000,8.40251904296875,1.3232308626174927,10.431509971618652,1.6546368598937988
1711551201892478700,8.421478759765625,2.431107759475708,12.576675415039062,1.6977076530456543
1711551201911438600,8.4404384765625,6.357729911804199,16.74258041381836,0.7752745151519775
1711551201930398200,8.459398193359375,4.537988185882568,10.883753776550293,-2.913261651992798
1711551201949358000,8.478358154296876,1.6701902151107788,5.358726501464844,-5.499902725219727
1711551201968317700,8.497317626953125,-1.710868239402771,6.290730953216553,-1.1772687435150146
1711551201987277600,8.516277587890626,0.2273181527853012,9.206384658813477,3.4791641235351562
1711551202006237400,8.535237548828125,3.379862070083618,10.161121368408203,2.0470597743988037
1711551202025197000,8.554197021484375,4.561916351318359,8.851051330566406,0.040677983313798904
1711551202044157000,8.573156982421875,4.518845558166504,8.34138011932373,0.5659025311470032
1711551202063116500,8.592116455078125,4.340580463409424,9.1657075881958,2.1475582122802734
1711551202082076400,8.611076416015624,4.082155227661133,9.812965393066406,1.9381862878799438
1711551202101036000,8.6300361328125,3.88594388961792,9.704092025756836,0.885344386100769
1711551202119996000,8.648995849609374,3.559323787689209,9.528220176696777,0.5730810165405273
1711551202138955800,8.667955810546875,3.733999729156494,9.639486312866211,0.6652047038078308
1711551202157915400,8.686915283203126,3.1968109607696533,9.680164337158203,0.18903298676013947
1711551202176875300,8.705875244140625,2.5016961097717285,9.364311218261719,0.4127618968486786
1711551202195835000,8.7248349609375,2.9826533794403076,9.400203704833984,0.31345975399017334
1711551202214794800,8.743794677734375,3.183650493621826,9.321240425109863,0.17228323221206665
1711551202233754400,8.76275439453125,2.8211379051208496,9.142974853515625,0.2225325107574463
1711551202252714200,8.78171435546875,2.664407968521118,9.160921096801758,0.625723123550415
1711551202271674000,8.800674072265625,2.770888566970825,9.245866775512695,0.3326023519039154
1711551202290633700,8.8196337890625,2.682354211807251,9.208778381347656,0.14835500717163086
1711551202309593600,8.838593505859375,2.4921247959136963,9.233902931213379,0.10049854964017868
1711551202328553200,8.85755322265625,2.111665964126587,9.497113227844238,0.259621262550354
1711551202347513000,8.87651318359375,2.201396942138672,9.140582084655762,0.4055834412574768
1711551202366472700,8.89547265625,2.630908489227295,8.508877754211426,-0.09451649338006973
1711551202385432600,8.9144326171875,2.4837498664855957,8.390432357788086,-0.5383850932121277
1711551202404392400,8.933392333984376,2.0027925968170166,9.589237213134766,-0.4486542344093323
1711551202423352000,8.95235205078125,1.4679967164993286,10.766505241394043,0.3397808074951172
1711551202442312000,8.97131201171875,1.5397813320159912,10.594222068786621,1.0241280794143677
1711551202461271600,8.990271484375,2.1367905139923096,10.031908988952637,1.0348957777023315
1711551202480231400,9.0092314453125,2.5124638080596924,10.182656288146973,1.176072359085083
1711551202499191300,9.02819140625,3.0855448246002197,10.305887222290039,1.5182459354400635
1711551202518151000,9.04715087890625,3.1441688537597656,10.202995300292969,1.561316728591919
1711551202537110800,9.06611083984375,2.913261651992798,9.92423152923584,0.7429714202880859
1711551202556070400,9.0850703125,2.170290231704712,10.01994514465332,0.09092725813388824
1711551202575030300,9.1040302734375,1.794616937637329,9.469595909118652,0.4103690981864929
1711551202593990000,9.122989990234375,2.203789710998535,8.951549530029297,0.27397820353507996
1711551202612949800,9.14194970703125,2.194218397140503,9.029315948486328,-0.2883351147174835
1711551202631909600,9.16090966796875,1.7120646238327026,9.343972206115723,-0.0323031060397625
1711551202650869200,9.179869140625,2.0482561588287354,9.789037704467773,0.3314059376716614
1711551202669829000,9.1988291015625,2.379662036895752,9.42772102355957,0.13160525262355804
1711551202688788700,9.217788818359375,2.2719850540161133,8.770891189575195,0.019142581149935722
1711551202707748600,9.23674853515625,1.841277003288269,8.45743179321289,0.5730810165405273
1711551202726708200,9.255708251953125,1.8029918670654297,8.858229637145996,1.444068431854248
1711551202745668000,9.274668212890624,2.0410776138305664,9.470791816711426,2.20737886428833
1711551202764628000,9.2936279296875,2.2432711124420166,9.516255378723145,2.5938198566436768
1711551202783587600,9.312587646484374,2.221735715866089,9.120243072509766,3.0029923915863037
1711551202802547500,9.33154736328125,2.148754835128784,8.86062240600586,3.5330026149749756
1711551202821507000,9.350507080078126,2.060220241546631,8.901300430297852,4.106083869934082
1711551202840467000,9.369467041015625,1.7982062101364136,8.499305725097656,4.140779495239258
1711551202859426600,9.388426513671876,1.506281852722168,7.576872825622559,4.167100429534912
1711551202878386400,9.407386474609375,1.25144624710083,7.1820573806762695,4.8191447257995605
1711551202897346000,9.426345947265625,1.7228323221206665,7.3399834632873535,4.900500774383545
1711551202916306000,9.445305908203125,2.23848557472229,7.8819580078125,4.738985061645508
1711551202935265800,9.464265869140625,1.9968105554580688,8.653642654418945,4.615755081176758
1711551202954225400,9.483225341796874,1.4057832956314087,8.575876235961914,4.058227062225342
1711551202973185300,9.502185302734375,0.8805587291717529,8.062616348266602,4.210171222686768
1711551202992145000,9.521144775390624,0.7860422134399414,7.672585964202881,5.087141036987305
1711551203011104500,9.5401044921875,1.534995675086975,7.350750923156738,5.730810165405273
1711551203030064400,9.559064453125,2.7014968395233154,7.6630144119262695,5.923432350158691
1711551203049024300,9.578024169921875,3.1334011554718018,8.999405860900879,6.043073654174805
1711551203067984100,9.596984130859376,2.2911276817321777,9.601201057434082,6.460621356964111
1711551203086943700,9.61594384765625,1.7455641031265259,8.415556907653809,5.966503143310547
1711551203105903600,9.634903564453126,0.8135597109794617,7.318448066711426,5.076373100280762
1711551203124863200,9.65386328125,0.039481572806835175,7.188039302825928,4.748556613922119
1711551203143822800,9.67282275390625,-0.16271193325519562,7.46201753616333,4.993820667266846
1711551203162782700,9.69178271484375,0.09212367236614227,7.5050883293151855,4.931607246398926
1711551203181742300,9.710742431640625,0.12801600992679596,7.420143127441406,4.77248477935791
1711551203200702200,9.7297021484375,-0.22372891008853912,7.81974458694458,5.0117669105529785
1711551203219662000,9.748662109375,-0.2727817893028259,8.434700012207031,5.44008207321167
1711551203238621700,9.76762158203125,-0.38644084334373474,8.858229637145996,5.680561065673828
1711551203257581600,9.78658154296875,-0.30508488416671753,8.532805442810059,5.740381717681885
1711551203276541200,9.805541259765626,0.3170489966869354,8.356932640075684,5.272584915161133
1711551203295501000,9.8245009765625,1.2251251935958862,8.758927345275879,5.1290154457092285
1711551203314460700,9.843460693359376,1.2957134246826172,9.293723106384277,5.278566837310791
1711551203333420500,9.862420654296875,0.6113662123680115,9.414560317993164,5.1182475090026855
1711551203352380200,9.881380126953125,-0.4893322288990021,9.203991889953613,4.567898273468018
1711551203371340000,9.900340087890624,-1.765903115272522,9.19442081451416,4.128815650939941
1711551203390299600,9.919299560546875,-2.5220351219177246,9.346364974975586,3.6741790771484375
1711551203409259500,9.938259521484374,-2.1750757694244385,9.33559799194336,3.7220356464385986
1711551203428219100,9.95721923828125,-1.34476637840271,8.987442016601562,3.6837503910064697
1711551203447179000,9.976178955078124,-0.8626125454902649,8.4562349319458,3.838087558746338
1711551203466138600,9.995138671875,-0.28953152894973755,8.496912956237793,4.116851329803467
1711551203485098500,10.014098388671876,0.6424728631973267,8.568697929382324,3.8632121086120605
1711551203504058400,10.033058349609375,0.9463613629341125,8.236095428466797,3.6538400650024414
1711551203523018000,10.05201806640625,0.4618147611618042,8.388039588928223,4.455435752868652
1711551203541977900,10.070977783203125,-0.03349951654672623,8.873783111572266,5.672185897827148
1711551203560937500,10.0899375,-0.48574298620224,9.433703422546387,6.62931489944458
1711551203579897300,10.1088974609375,-0.6652047038078308,9.42054271697998,6.994220733642578
1711551203598857000,10.12785693359375,-0.4989035129547119,8.676374435424805,6.6352972984313965
1711551203617816800,10.14681689453125,-0.4701896607875824,8.024331092834473,6.369693756103516
1711551203636776400,10.1657763671875,-0.7932206988334656,7.92861795425415,6.370890140533447
1711551203655736300,10.184736328125,-0.8889335989952087,8.825926780700684,5.857629776000977
1711551203674696000,10.203696044921875,-0.9056833982467651,9.766305923461914,4.8813581466674805
1711551203693655600,10.222655517578126,-1.322034478187561,9.148957252502441,4.638486862182617
1711551203712615400,10.241615478515625,-0.5132604837417603,7.082755088806152,5.638686656951904
1711551203731575000,10.260574951171876,-0.43908295035362244,5.748756408691406,6.484549522399902
1711551203750535000,10.279534912109375,0.1950150430202484,7.223931789398193,3.9792640209198
1711551203769494500,10.29849462890625,-0.02392822690308094,8.703892707824707,2.981456995010376
1711551203788454400,10.317454345703124,0.24646073579788208,8.665607452392578,3.456432342529297
1711551203807414000,10.3364140625,0.08015955984592438,8.132007598876953,3.1692936420440674
1711551203826374000,10.355373779296874,-0.004785645287483931,8.127222061157227,3.5377883911132812
1711551203845333500,10.37433349609375,0.4127618968486786,8.537590980529785,4.636094093322754
1711551203864293400,10.39329345703125,0.5228317379951477,8.833105087280273,6.110072612762451
1711551203883253000,10.4122529296875,0.4582255482673645,8.733802795410156,7.018148899078369
1711551203902212900,10.431212890625,0.4893322288990021,8.282755851745605,6.959524631500244
1711551203921172500,10.45017236328125,0.3290131092071533,8.008777618408203,6.330212116241455
1711551203940132400,10.46913232421875,-0.08374879509210587,8.024331092834473,5.618347644805908
1711551203959092000,10.488092041015625,-0.24885354936122894,8.182256698608398,4.9052863121032715
1711551203978051800,10.5070517578125,-0.41156548261642456,8.420342445373535,4.350151538848877
1711551203997011500,10.526011474609374,-0.38644084334373474,8.616554260253906,4.001996040344238
1711551204015971000,10.54497119140625,-0.30628129839897156,8.623732566833496,3.926621913909912
1711551204034931000,10.563930908203124,-0.7058826684951782,8.647661209106445,4.366901397705078
1711551204053890600,10.582890625,-0.36610186100006104,8.545966148376465,5.038087844848633
1711551204072850400,10.601850341796874,0.8039883971214294,8.38684368133545,5.430510997772217
1711551204091810000,10.62081005859375,1.4105689525604248,8.2695951461792,5.737988471984863
1711551204110770000,10.63977001953125,1.1389836072921753,8.176275253295898,5.953342914581299
1711551204129729500,10.6587294921875,0.7848458290100098,8.307880401611328,5.866004943847656
1711551204148689400,10.677689453125,0.5395814776420593,8.411968231201172,5.7858452796936035
1711551204167649000,10.69664892578125,0.6221339106559753,8.37009334564209,5.624329566955566
1711551204186609000,10.71560888671875,0.6508477330207825,8.193024635314941,5.4041900634765625
1711551204205568500,10.734568603515624,0.6352944374084473,8.025527000427246,5.095515727996826
1711551204224528400,10.7535283203125,0.6532405614852905,7.99083137512207,4.828716278076172
1711551204243488000,10.772488037109374,0.4259224236011505,8.104490280151367,4.951946258544922
1711551204262447900,10.79144775390625,0.380458801984787,8.23848819732666,5.312066078186035
1711551204281407500,10.810407470703124,0.5970092415809631,8.210970878601074,5.660222053527832
1711551204300367400,10.829367431640625,0.9320043921470642,7.995616912841797,5.769095420837402
1711551204319327000,10.848326904296876,1.0755738019943237,7.724031448364258,5.648257732391357
1711551204338286600,10.86728662109375,1.1461620330810547,7.794619560241699,5.699703693389893
1711551204357246500,10.88624658203125,1.0085747241973877,7.977670669555664,5.913861274719238
1711551204376206000,10.9052060546875,0.9547362327575684,7.732406139373779,5.891129493713379
1711551204395166000,10.924166015625,0.9439685344696045,7.692924976348877,5.763113498687744
1711551204414125600,10.94312548828125,0.7322037220001221,7.792226791381836,5.68175745010376
1711551204433085400,10.96208544921875,0.7836494445800781,7.8795647621154785,5.675775527954102
1711551204452045000,10.981045166015624,0.849452018737793,8.00638484954834,5.522634506225586
1711551204471005000,11.0000048828125,1.0205388069152832,8.13081169128418,5.519045352935791
1711551204489964500,11.018964599609374,1.1593226194381714,8.044670104980469,5.483152866363525
1711551204508924400,11.03792431640625,1.3280165195465088,7.891529083251953,5.3934221267700195
1711551204527884000,11.056884033203126,1.4333007335662842,7.802994728088379,5.335994720458984
1711551204546844000,11.075843994140625,1.3938192129135132,7.769495010375977,5.350351333618164
1711551204565803500,11.094803466796876,1.3495519161224365,7.83410120010376,5.385047435760498
1711551204584763400,11.113763427734375,1.2897313833236694,7.947760581970215,5.401797294616699
1711551204603723000,11.132722900390625,1.1808580160140991,8.163114547729492,5.589633464813232
1711551204622683000,11.151682861328124,1.1880364418029785,8.147561073303223,5.776273727416992
1711551204641642500,11.170642578125,1.1617153882980347,7.8628153800964355,5.757131099700928
1711551204660602000,11.18960205078125,1.1928220987319946,7.706085205078125,5.589633464813232
1711551204679562000,11.20856201171875,1.2370892763137817,7.7730841636657715,5.525027275085449
1711551204698521600,11.227521484375,1.2837493419647217,7.983652591705322,5.548955917358398
1711551204717481500,11.2464814453125,1.215553879737854,8.055437088012695,5.4281182289123535
1711551204736441000,11.265441162109376,1.2059825658798218,7.995616912841797,5.2941203117370605
1711551204755401000,11.28440087890625,1.207179069519043,7.9250288009643555,5.253442287445068
1711551204774360600,11.303360595703126,1.179661512374878,7.905886173248291,5.335994720458984
1711551204793320400,11.322320556640625,1.2442678213119507,7.976474285125732,5.449653625488281
1711551204812280000,11.341280029296875,1.3746765851974487,7.999206066131592,5.546562671661377
1711551204831240000,11.360239990234374,1.5050854682922363,7.875975608825684,5.501099109649658
1711551204850199600,11.379199462890625,1.679761528968811,7.8628153800964355,5.548955917358398
1711551204869159400,11.398159423828124,1.5098711252212524,7.9860453605651855,5.737988471984863
1711551204888119000,11.417119140625,1.3148560523986816,8.097311973571777,5.879165172576904
1711551204907079000,11.436078857421874,1.2335001230239868,8.061419486999512,5.623133182525635
1711551204926038500,11.45503857421875,1.2502498626708984,8.049455642700195,5.282155990600586
1711551204944998400,11.473998291015626,1.4117653369903564,8.181060791015625,5.07517671585083
1711551204963958000,11.4929580078125,1.4644074440002441,8.233702659606934,4.865804672241211
1711551204982918000,11.51191796875,1.4404792785644531,8.283951759338379,4.878965377807617
1711551205001877500,11.53087744140625,1.466800332069397,8.242077827453613,5.041677474975586
1711551205020837000,11.549837158203125,1.5637096166610718,8.111668586730957,5.150550842285156
1711551205039797000,11.568796875,1.6271194219589233,8.126026153564453,5.328815937042236
1711551205058756600,11.587756591796875,1.5948163270950317,8.177471160888672,5.594419479370117
1711551205077716500,11.606716552734374,1.5936198234558105,8.190631866455078,5.7786664962768555
1711551205096676000,11.625676025390625,1.5481562614440918,8.076972961425781,5.6925249099731445
1711551205115636000,11.644635986328124,1.482353687286377,8.091329574584961,5.600401401519775
1711551205134595800,11.663595947265625,1.4297115802764893,8.084151268005371,5.554937839508057
1711551205153555500,11.682555419921876,1.3627125024795532,7.828119277954102,5.295316696166992
1711551205172515300,11.701515380859375,1.124626636505127,7.775477409362793,4.967499732971191
1711551205191475000,11.720474853515626,0.794417142868042,7.9657063484191895,4.919643402099609
1711551205210434800,11.739434814453125,0.5682953596115112,8.25404167175293,5.004588603973389
1711551205229394400,11.75839453125,0.7776673436164856,8.365307807922363,5.109872817993164
1711551205248354300,11.777354248046874,1.1832507848739624,8.323433876037598,4.942375183105469
1711551205267314000,11.79631396484375,1.435693621635437,8.276773452758789,4.823930263519287
1711551205286273800,11.815273681640624,1.526620864868164,8.46461009979248,4.948357105255127
1711551205305233400,11.8342333984375,1.389033555984497,8.645268440246582,5.151747226715088
1711551205324193300,11.853193359375,1.4859428405761719,8.475378036499023,5.260620594024658
1711551205343153200,11.872153076171875,1.4931213855743408,8.10807991027832,5.029713153839111
1711551205362112800,11.89111279296875,1.3866406679153442,7.919046401977539,4.721039295196533
1711551205381072600,11.91007275390625,1.4069796800613403,8.093722343444824,4.491328239440918
1711551205400032300,11.9290322265625,1.5625132322311401,8.458627700805664,4.328616142272949
1711551205418992000,11.9479921875,1.6821542978286743,8.599804878234863,4.264009952545166
1711551205437951700,11.96695166015625,1.8221344947814941,8.666803359985352,4.350151538848877
1711551205456911600,11.98591162109375,2.0039889812469482,8.545966148376465,4.334598064422607
1711551205475871500,12.00487158203125,2.2121646404266357,8.391629219055176,4.267599105834961
1711551205494831000,12.0238310546875,2.256431818008423,8.417949676513672,4.411168575286865
1711551205513791000,12.042791015625,2.3222343921661377,8.612964630126953,4.77248477935791
1711551205532750600,12.06175048828125,2.376072883605957,8.592626571655273,4.991427898406982
1711551205551710500,12.08071044921875,2.3988046646118164,8.523234367370605,4.955535888671875
1711551205570670000,12.099670166015626,2.335394859313965,8.511270523071289,4.766502857208252
1711551205589630000,12.1186298828125,2.245664119720459,8.486145973205566,4.650450706481934
1711551205608589800,12.13758984375,2.1308085918426514,8.47178840637207,4.5547380447387695
1711551205627549400,12.156549560546875,1.97407865524292,8.496912956237793,4.49252462387085
1711551205646509300,12.17550927734375,1.892722725868225,8.542376518249512,4.502095699310303
1711551205665469000,12.194468994140625,1.8975083827972412,8.417949676513672,4.4243292808532715
1711551205684428800,12.2134287109375,1.908276081085205,8.225327491760254,4.237689018249512
1711551205703388700,12.232388671875,1.9369899034500122,8.164310455322266,4.217350006103516
1711551205722348300,12.251348388671875,1.8903298377990723,8.134400367736816,4.198207378387451
1711551205741308200,12.27030810546875,1.8113667964935303,8.110472679138184,4.2209391593933105
1711551205760267800,12.289267822265625,1.8795621395111084,8.13679313659668,4.340580463409424
1711551205779227600,12.3082275390625,1.9010975360870361,8.24566650390625,4.427918434143066
1711551205798187500,12.3271875,1.7395820617675781,8.49452018737793,4.646861553192139
1711551205817147100,12.346147216796876,1.714457392692566,8.707481384277344,4.8777689933776855
1711551205836107000,12.36510693359375,1.8460626602172852,8.651249885559082,4.872983455657959
1711551205855067000,12.38406689453125,1.8867406845092773,8.63330364227295,4.731806755065918
1711551205874026500,12.403026611328125,1.9381862878799438,8.870193481445312,4.856233596801758
1711551205892986400,12.421986328125,1.9932212829589844,8.914461135864258,5.0356950759887695
1711551205911946000,12.440946044921875,2.359323024749756,8.46580696105957,5.082355499267578
1711551205930905900,12.45990576171875,2.7086751461029053,8.097311973571777,5.205585479736328
1711551205949865700,12.47886572265625,2.392822742462158,8.776873588562012,5.595615863800049
1711551205968825300,12.497825439453125,2.187039852142334,9.689735412597656,5.539384365081787
1711551205987785200,12.51678515625,1.6929219961166382,9.689735412597656,4.53200626373291
1711551206006745000,12.5357451171875,1.4943177700042725,9.704092025756836,3.6287155151367188
1711551206025705000,12.554705078125,1.5780665874481201,9.440881729125977,3.4396824836730957
1711551206044664600,12.57366455078125,1.8771693706512451,9.141778945922852,3.074777126312256
1711551206063624400,12.59262451171875,2.5639095306396484,9.19442081451416,2.5603201389312744
1711551206082584300,12.611584228515625,2.9766714572906494,9.473184585571289,2.3473589420318604
1711551206101544000,12.6305439453125,3.016152858734131,9.440881729125977,2.8689942359924316
1711551206120503800,12.64950390625,3.0041887760162354,9.274580955505371,3.5784661769866943
1711551206139463400,12.66846337890625,3.078366279602051,9.7938232421875,4.420739650726318
1711551206158423300,12.68742333984375,3.812962770462036,10.103693962097168,4.978267669677734
1711551206177383200,12.706383056640625,3.9278182983398438,10.238887786865234,4.791627407073975
1711551206196342800,12.7253427734375,3.414557933807373,9.77109146118164,4.64805793762207
1711551206215302700,12.744302734375,3.0352954864501953,8.678768157958984,4.067798614501953
1711551206234262500,12.763262451171874,2.2337000370025635,8.1224365234375,2.950350284576416
1711551206253222100,12.78222216796875,1.0516455173492432,7.671389579772949,1.9848463535308838
1711551206272182000,12.80118212890625,0.6855437159538269,8.687142372131348,1.5194423198699951
1711551206291142000,12.820141845703125,-0.8386843204498291,8.890532493591309,-0.3720839321613312
1711551206310101800,12.839101806640626,-2.3222343921661377,8.277970314025879,-3.2506494522094727
1711551206329061600,12.8580615234375,-1.4177473783493042,7.744370460510254,-4.535595417022705
1711551206348021200,12.877021240234376,0.20338992774486542,7.395018577575684,-4.024727821350098
1711551206366981000,12.895981201171875,1.0959128141403198,6.790830612182617,-3.211168050765991
1711551206385941000,12.91494091796875,1.3304094076156616,6.897311210632324,-2.6285157203674316
1711551206404900600,12.933900634765624,1.1808580160140991,6.679564476013184,-2.5423741340637207
1711551206423860500,12.952860595703125,1.7383856773376465,6.601797580718994,-2.950350284576416
1711551206442820400,12.9718203125,1.9537396430969238,7.946564197540283,-3.9744784832000732
1711551206461780000,12.990780029296875,0.4103690981864929,9.385847091674805,-5.027320384979248
1711551206480739800,13.00973974609375,0.39840495586395264,10.898110389709473,-5.5932230949401855
1711551206499699700,13.02869970703125,1.246660590171814,12.206984519958496,-5.539384365081787
1711551206518659300,13.047659423828126,1.1270195245742798,12.380464553833008,-6.125626087188721
1711551206537619200,13.066619140625,0.13998012244701385,10.85025405883789,-6.0610198974609375
1711551206556579000,13.0855791015625,-0.5455635786056519,7.852047443389893,-6.0370917320251465
1711551206575539000,13.1045390625,0.1818545162677765,6.363711833953857,-5.434100151062012
1711551206594498800,13.123498779296876,1.144965648651123,7.412964344024658,-4.171886444091797
1711551206613458400,13.14245849609375,1.3591232299804688,9.214759826660156,-3.3990044593811035
1711551206632418300,13.161418212890625,0.3026920557022095,8.668000221252441,-4.170690059661865
1711551206651378200,13.180378173828124,-0.17946170270442963,6.168696880340576,-6.3254265785217285
1711551206670337800,13.199337890625,-0.849452018737793,6.22492790222168,-8.213363647460938
1711551206689297700,13.218297607421874,-3.4229328632354736,7.645068168640137,-9.649057388305664
1711551206708257500,13.237257568359375,-5.150550842285156,8.612964630126953,-10.359725952148438
1711551206727217400,13.256217529296874,-4.036691665649414,9.20159912109375,-9.55214786529541
1711551206746177000,13.275177001953125,-2.416750907897949,9.592825889587402,-6.174678802490234
1711551206765137000,13.294136962890626,0.39840495586395264,9.738788604736328,-2.073380708694458
1711551206784096800,13.3130966796875,2.149951219558716,9.221938133239746,0.5407779216766357
1711551206803056400,13.332056396484376,1.887937068939209,8.522037506103516,0.26919254660606384
1711551206822016500,13.3510166015625,0.1543370634317398,8.605786323547363,-1.5720844268798828
1711551206840976100,13.36997607421875,-1.2203395366668701,9.126225471496582,-3.647858142852783
1711551206859936000,13.38893603515625,-2.1930220127105713,9.728020668029785,-4.810770034790039
1711551206878895900,13.407895751953125,-2.3988046646118164,9.832108497619629,-4.602594375610352
1711551206897855500,13.42685546875,-1.5984054803848267,9.730413436889648,-3.6023945808410645
1711551206916815400,13.4458154296875,-0.8973084688186646,9.42891788482666,-2.5052852630615234
1711551206935775200,13.464775146484374,-0.12681959569454193,9.328418731689453,-1.7012969255447388
1711551206954735000,13.483735107421875,0.3278166949748993,9.127422332763672,-1.703689694404602
1711551206973694700,13.50269482421875,-0.34695929288864136,9.139386177062988,-2.3617160320281982
1711551206992654600,13.521654541015625,0.13160525262355804,9.269794464111328,-2.6727828979492188
1711551207011614500,13.540614501953126,1.537388563156128,9.010173797607422,-3.1752755641937256
1711551207030574300,13.55957421875,3.1513473987579346,8.559126853942871,-3.882354736328125
1711551207049534200,13.5785341796875,3.187239646911621,8.507680892944336,-4.587040901184082
1711551207068493800,13.597493896484375,2.6261229515075684,8.328219413757324,-5.014159679412842
1711551207087453700,13.61645361328125,1.923829436302185,7.769495010375977,-4.910071849822998
1711551207106413600,13.63541357421875,1.7730815410614014,8.032705307006836,-4.563112735748291
1711551207125373400,13.65437353515625,2.194218397140503,8.519644737243652,-4.342973232269287
1711551207144333000,13.6733330078125,3.087937593460083,8.453842163085938,-3.762713670730591
1711551207163293000,13.69229296875,3.841676712036133,9.014959335327148,-3.5030922889709473
1711551207182252800,13.711252685546874,2.56510591506958,10.341779708862305,-3.6119658946990967
1711551207201212700,13.730212646484375,1.511067509651184,9.822537422180176,-5.388636589050293
1711551207220172500,13.749172607421874,2.4538395404815674,9.150154113769531,-5.394618511199951
1711551207239132200,13.768132080078125,2.317448616027832,9.147761344909668,-4.096512317657471
1711551207258092000,13.787092041015624,2.857030153274536,8.72901725769043,-3.5066816806793213
1711551207277052000,13.806052001953125,3.4791641235351562,8.053044319152832,-3.139383316040039
1711551207296011800,13.82501171875,3.675375461578369,7.454838752746582,-2.7876384258270264
1711551207314971400,13.843971435546875,3.2410783767700195,7.1988067626953125,-2.778067111968994
1711551207333931300,13.86293115234375,2.80558443069458,7.561319351196289,-3.2279176712036133
1711551207352891100,13.88189111328125,2.1786649227142334,7.8795647621154785,-3.834498405456543
1711551207371851000,13.90085107421875,1.9453648328781128,7.922635555267334,-4.785645484924316
1711551207390810600,13.919810546875,1.4344971179962158,8.271987915039062,-5.553741455078125
1711551207409770500,13.9387705078125,0.6305087804794312,8.1224365234375,-6.275177478790283
1711551207428730400,13.95773046875,0.7178468108177185,7.92861795425415,-5.755934715270996
1711551207447690200,13.976690185546875,1.521835207939148,7.46919584274292,-4.735395908355713
1711551207466649900,13.99564990234375,2.5902304649353027,7.077969551086426,-3.7459638118743896
1711551207485609700,14.014609619140625,3.4755749702453613,6.856633186340332,-3.19441819190979
1711551207504569600,14.033569580078124,3.8392839431762695,6.893722057342529,-2.946761131286621
1711551207523529500,14.052529541015625,3.924229145050049,7.326822757720947,-3.1896326541900635
1711551207542489300,14.0714892578125,3.3954153060913086,7.904689788818359,-4.089334011077881
1711551207561449000,14.090448974609375,2.664407968521118,8.017151832580566,-5.346762180328369
1711551207580408800,14.109408935546876,1.7132610082626343,7.806583881378174,-6.38165807723999
1711551207599368700,14.12836865234375,0.6544370055198669,7.786244869232178,-6.570691108703613
1711551207618328600,14.14732861328125,0.13998012244701385,7.823333740234375,-6.161518096923828
1711551207637288200,14.1662880859375,0.4713860750198364,7.539783954620361,-5.748756408691406
1711551207656248000,14.185248046875,0.9990034699440002,7.1509504318237305,-5.115854740142822
1711551207675208000,14.2042080078125,1.3591232299804688,7.031309127807617,-4.237689018249512
1711551207694167600,14.22316748046875,1.368694543838501,7.311269760131836,-3.332005500793457
1711551207713127400,14.24212744140625,1.695314884185791,7.530212879180908,-2.988635540008545
1711551207732087300,14.26108740234375,1.832902193069458,7.690532207489014,-2.7601208686828613
1711551207751047200,14.280047119140624,1.801795482635498,8.300702095031738,-1.7156537771224976
1711551207770007000,14.299007080078125,2.1930220127105713,9.594022750854492,-0.08255238085985184
1711551207788966700,14.317966552734376,3.188436269760132,10.49372386932373,0.5958128571510315
1711551207807926500,14.336926513671875,3.2099716663360596,10.269994735717773,0.519242525100708
1711551207826886400,14.355886474609376,2.9898319244384766,10.322636604309082,1.1497513055801392
1711551207845846000,14.374845947265625,3.1334011554718018,10.597811698913574,2.0685951709747314
1711551207864806000,14.393805908203126,3.431307554244995,10.583454132080078,2.5567309856414795
1711551207883765800,14.412765869140625,3.4205398559570312,10.679167747497559,2.2205393314361572
1711551207902725600,14.4317255859375,3.0927233695983887,10.316655158996582,0.8243274092674255
1711551207921685200,14.450685302734374,2.5232315063476562,9.725627899169922,-0.30628129839897156
1711551207940645000,14.46964501953125,2.0482561588287354,9.174081802368164,-0.9571290612220764
1711551207959605000,14.48860498046875,1.8795621395111084,9.291330337524414,-1.423729419708252
1711551207978564900,14.50756494140625,2.0506489276885986,9.09990406036377,-1.7790635824203491
1711551207997524500,14.5265244140625,1.9214365482330322,8.425128936767578,-1.719243049621582
1711551208016484400,14.545484375,1.4895321130752563,7.911868095397949,-1.3555340766906738
1711551208035444200,14.5644443359375,1.466800332069397,8.079365730285645,-0.8482556343078613
1711551208054403800,14.58340380859375,2.0303099155426025,7.820940971374512,-0.3936193287372589
1711551208073363700,14.60236376953125,2.5471596717834473,7.483552932739258,0.014356935396790504
1711551208092323600,14.621323486328125,2.2444677352905273,7.404589653015137,0.4366901218891144
1711551208111283200,14.640283203125,1.7060825824737549,7.59362268447876,0.5706881880760193
1711551208130243000,14.6592431640625,1.5002998113632202,7.999206066131592,1.191625714302063
1711551208149203000,14.678202880859375,1.9178473949432373,8.58185863494873,2.1511476039886475
1711551208168162800,14.697162841796874,2.7601208686828613,9.060422897338867,3.029313564300537
1711551208187122400,14.716122314453125,3.726821184158325,8.839086532592773,3.5054850578308105
1711551208206082300,14.735082275390624,4.844269275665283,8.58066177368164,4.265206336975098
1711551208225042200,14.754042236328125,4.868197441101074,7.992027759552002,4.195814609527588
1711551208244002000,14.773001953125,2.5710878372192383,7.652246952056885,3.735196113586426
1711551208262961700,14.791961669921875,0.6867401003837585,8.311469078063965,3.431307554244995
1711551208281921500,14.810921630859376,0.2679961323738098,9.516255378723145,3.157329559326172
1711551208300881400,14.82988134765625,0.36610186100006104,9.708877563476562,2.7326035499572754
1711551208319841000,14.848841064453126,0.5216353535652161,8.58784008026123,3.2889347076416016
1711551208338801000,14.86780078125,0.9499505758285522,7.4811601638793945,5.114658355712891
1711551208357760800,14.8867607421875,2.1403799057006836,7.004988193511963,6.7657060623168945
1711551208376720400,14.905720458984375,3.3092737197875977,6.711867332458496,7.8388872146606445
1711551208395680300,14.92468017578125,3.5748770236968994,6.669992923736572,8.22293472290039
1711551208414640000,14.94364013671875,2.970689296722412,7.487142086029053,7.927421569824219
1711551208433599700,14.962599853515625,1.6977076530456543,8.72901725769043,7.304090976715088
1711551208452559600,14.9815595703125,0.7202396392822266,9.364311218261719,6.821937561035156
1711551208471519500,15.00051953125,0.9774680733680725,8.779266357421875,5.986842155456543
1711551208490479000,15.01947900390625,0.8554341197013855,7.581658363342285,5.824130535125732
1711551208509439000,15.03843896484375,0.7932206988334656,6.946363925933838,6.214160442352295
1711551208528398800,15.05739892578125,1.1150553226470947,7.3878397941589355,6.999006271362305
1711551208547358700,15.076358642578125,1.7934205532073975,7.652246952056885,7.326822757720947
1711551208566318300,15.095318359375,2.0410776138305664,7.369893550872803,7.465606689453125
1711551208585278200,15.1142783203125,1.9537396430969238,6.735795974731445,7.613961696624756
1711551208604237800,15.13323779296875,1.9669002294540405,6.275177478790283,7.864011764526367
1711551208623197700,15.15219775390625,2.3461625576019287,6.51326322555542,7.793423175811768
1711551208642157600,15.171157470703125,2.1655044555664062,8.61176872253418,8.317451477050781
1711551208661117200,15.1901171875,1.0037890672683716,11.72124195098877,10.435099601745605
1711551208680077000,15.2090771484375,0.20458634197711945,11.547761917114258,13.214363098144531
1711551208699037000,15.228036865234374,1.7694923877716064,7.767102241516113,12.862618446350098
1711551208717996500,15.24699658203125,3.5306098461151123,4.552345275878906,10.919646263122559
1711551208736956400,15.265956298828126,4.151547431945801,2.475374937057495,8.764909744262695
1711551208755916300,15.284916259765625,1.805384635925293,2.6967110633850098,7.345965385437012
1711551208774876000,15.3038759765625,-0.35533416271209717,4.175475597381592,7.202396392822266
1711551208793835800,15.322835693359375,-1.160519003868103,5.5345988273620605,6.2428741455078125
1711551208812795400,15.34179541015625,-1.6809579133987427,6.110072612762451,5.277370452880859
1711551208831755300,15.36075537109375,-1.8592232465744019,6.447460651397705,5.149354457855225
1711551208850715100,15.379715087890625,-1.34476637840271,6.613761901855469,6.308676719665527
1711551208869674800,15.3986748046875,-0.0526420995593071,6.480959892272949,7.685746192932129
1711551208888634600,15.417634521484375,1.6091731786727905,6.363711833953857,8.766105651855469
1711551208907594500,15.436594482421874,2.3473589420318604,5.946164131164551,9.602396965026855
1711551208926554000,15.45555419921875,2.0925233364105225,5.748756408691406,10.473384857177734
1711551208945514000,15.474513916015624,1.8735800981521606,5.801398277282715,10.546365737915039
1711551208964473600,15.4934736328125,1.4883357286453247,6.117250919342041,9.518648147583008
1711551208983433500,15.51243359375,0.5395814776420593,5.9916276931762695,8.031509399414062
1711551209002393300,15.531393310546875,-0.3170489966869354,5.641079425811768,6.845865726470947
1711551209021353000,15.55035302734375,-1.100698471069336,5.770291805267334,6.509674072265625
1711551209040312800,15.569312744140625,-1.0995019674301147,6.096911907196045,7.134200572967529
1711551209059272400,15.5882724609375,-0.5180460810661316,6.083751678466797,7.739584922790527
1711551209078232300,15.607232421875,-0.014356935396790504,5.649454116821289,8.21695327758789
1711551209097192200,15.626192138671875,-0.04307080805301666,4.599005222320557,8.755337715148926
1711551209116151800,15.64515185546875,-0.5874379873275757,3.759124279022217,9.352347373962402
1711551209135111700,15.664111572265625,-0.7022934556007385,2.6727828979492188,9.090332984924316
1711551209154071300,15.6830712890625,-1.8460626602172852,2.871387243270874,9.233902931213379
1711551209173031200,15.70203125,-2.4705893993377686,3.9672999382019043,10.322636604309082
1711551209191991000,15.720990966796874,-1.7228323221206665,4.614558696746826,10.600204467773438
1711551209210950700,15.73995068359375,-1.2957134246826172,5.045266628265381,10.50090217590332
1711551209229910500,15.75891064453125,-0.6400800347328186,5.362315654754639,10.37767219543457
1711551209248870100,15.7778701171875,-0.28115665912628174,4.999803066253662,9.966106414794922
1711551209267830000,15.796830078125,-0.7094719409942627,4.168296813964844,9.419346809387207
1711551209286790000,15.815789794921875,-1.3806586265563965,3.5054850578308105,8.937192916870117
1711551209305749500,15.83474951171875,-2.124826431274414,2.957528829574585,8.409575462341309
1711551209324709400,15.85370947265625,-2.8965117931365967,2.524427890777588,8.317451477050781
1711551209343669000,15.8726689453125,-3.434896945953369,2.183450698852539,8.703892707824707
1711551209362628900,15.89162890625,-3.672982692718506,1.8352949619293213,9.18006420135498
1711551209381588500,15.91058837890625,-3.5377883911132812,1.466800332069397,9.452845573425293
1711551209400548400,15.92954833984375,-3.064009428024292,0.8530412912368774,9.21117115020752
1711551209419508200,15.94850830078125,-2.8630123138427734,0.008374879136681557,9.113064765930176
1711551209438467300,15.96746728515625,-3.236292600631714,-0.8183453679084778,9.588040351867676
1711551209457427700,15.986427734375,-3.7435710430145264,-1.1736794710159302,10.431509971618652
1711551209476387300,16.00538720703125,-4.00319242477417,-1.2897313833236694,10.88136100769043
1711551209495347200,16.02434716796875,-3.902693748474121,-1.3495519161224365,10.73420238494873
1711551209514306800,16.043306884765624,-3.8356947898864746,-1.290927767753601,10.450653076171875
1711551209533266700,16.0622666015625,-3.4480574131011963,-1.557727575302124,10.243673324584961
1711551209552226600,16.0812265625,-2.530410051345825,-1.7623138427734375,10.289137840270996
1711551209571186200,16.100186279296874,-2.561516523361206,-1.8843477964401245,9.705288887023926
1711551209590146000,16.11914599609375,-3.188436269760132,-2.1296122074127197,8.988637924194336
1711551209609105700,16.138105712890624,-3.432504177093506,-2.623729944229126,8.647661209106445
1711551209628065500,16.1570654296875,-3.019742250442505,-3.0376882553100586,8.553144454956055
1711551209647025200,16.176025146484374,-3.5090744495391846,-3.263810157775879,8.499305725097656
1711551209665985000,16.194985107421875,-3.4241292476654053,-3.882354736328125,8.374878883361816
1711551209684945000,16.21394482421875,-2.964707374572754,-4.944767951965332,7.927421569824219
1711551209703904500,16.232904541015625,-2.4813570976257324,-5.948556900024414,7.458428382873535
1711551209722864400,16.251864501953126,-2.100898265838623,-6.473781585693359,7.184450149536133
1711551209741824000,16.270823974609375,-1.919043779373169,-7.000202655792236,6.632904529571533
1711551209760784000,16.289783935546875,-1.7455641031265259,-7.685746192932129,5.791827201843262
1711551209779743500,16.308743408203124,-2.6057839393615723,-8.403593063354492,5.155336380004883
1711551209798703400,16.327703369140625,-3.562912940979004,-8.817551612854004,4.730610370635986
1711551209817663200,16.346663330078126,-4.238885402679443,-9.174081802368164,4.025924205780029
1711551209836622800,16.365622802734375,-4.444668292999268,-9.096315383911133,3.314059257507324
1711551209855582700,16.384582763671876,-4.777270317077637,-8.556734085083008,3.1381869316101074
1711551209874542300,16.403542236328125,-4.82751989364624,-8.204988479614258,3.053241729736328
1711551209893502200,16.422502197265626,-4.610969066619873,-7.6043901443481445,3.487539052963257
1711551209912461800,16.4414619140625,-4.092923164367676,-7.1748785972595215,3.765106439590454
1711551209931421700,16.460421630859376,-3.383451223373413,-6.410371780395508,3.933800458908081
1711551209950381600,16.479381591796876,-2.5591237545013428,-6.0502519607543945,4.427918434143066
1711551209969341200,16.498341064453125,-2.045863389968872,-7.447660446166992,4.789234638214111
1711551209988301000,16.517301025390626,-1.6402798891067505,-9.4121675491333,4.552345275878906
1711551210007260700,16.5362607421875,-1.3483555316925049,-10.102497100830078,4.207778453826904
1711551210026220500,16.555220458984376,-0.8757730722427368,-9.33320426940918,3.838087558746338
1711551210045180400,16.574180419921873,-0.5407779216766357,-8.86062240600586,3.3332018852233887
1711551210064140000,16.59314013671875,-0.8781659007072449,-9.097511291503906,2.6464617252349854
1711551210083100000,16.612099853515623,-1.5589239597320557,-9.383454322814941,2.307877540588379
1711551210102059500,16.6310595703125,-2.410768747329712,-10.205389022827148,2.6907291412353516
1711551210121019400,16.650019287109377,-3.9361932277679443,-10.328619003295898,3.548556089401245
1711551210139979000,16.66897900390625,-3.260220766067505,-10.073782920837402,4.435096740722656
1711551210158939000,16.68793896484375,-0.8171489238739014,-10.092926025390625,4.4410786628723145
1711551210177898800,16.706898681640624,0.9499505758285522,-9.80817985534668,4.674378871917725
1711551210196858400,16.7258583984375,1.9369899034500122,-9.829715728759766,4.135993957519531
1711551210215818200,16.744818359375,1.7096717357635498,-9.69930648803711,2.273181438446045
1711551210234777900,16.76377783203125,-0.27397820353507996,-8.212167739868164,1.144965648651123
1711551210253737700,16.78273779296875,-1.0001999139785767,-6.372086524963379,0.5814558863639832
1711551210272697600,16.801697509765624,-0.7896314859390259,-5.353940486907959,-0.38285163044929504
1711551210291657200,16.8206572265625,-0.6364908218383789,-5.06082010269165,-1.140179991722107
1711551210310617000,16.8396171875,-1.6893328428268433,-4.796412944793701,-0.6903293132781982
1711551210329577000,16.858576904296875,-1.6869399547576904,-5.1768717765808105,0.550349235534668
1711551210348536600,16.87753662109375,-1.454836130142212,-6.62931489944458,1.511067509651184
1711551210367496400,16.896496337890625,-2.1930220127105713,-8.906085968017578,2.733799934387207
1711551210386456300,16.915456298828126,-2.9252257347106934,-11.551351547241211,4.466203689575195
1711551210405416000,16.934416015625,-1.6917256116867065,-12.92483139038086,5.888736724853516
1711551210424375800,16.953375732421875,0.015553346835076809,-12.330215454101562,6.380461692810059
1711551210443335700,16.972335693359376,-0.18544375896453857,-12.463016510009766,6.296712875366211
1711551210462295300,16.99129541015625,-2.1164517402648926,-12.563515663146973,7.326822757720947
1711551210481255200,17.010255126953126,-3.9601213932037354,-11.265409469604492,8.243273735046387
1711551210500214800,17.02921484375,-4.782055854797363,-9.10827922821045,7.395018577575684
1711551210519174700,17.048174560546876,-4.509274482727051,-8.318648338317871,5.419743061065674
1711551210538134500,17.067134521484373,-3.4851462841033936,-8.854640007019043,3.620340585708618
1711551210557094100,17.08609423828125,-3.029313564300537,-9.787840843200684,2.8151557445526123
1711551210576054000,17.105053955078127,-3.0687949657440186,-10.638489723205566,2.472982168197632
1711551210595014000,17.124013916015624,-3.5090744495391846,-10.730612754821777,2.4059832096099854
1711551210613973500,17.142973388671876,-3.8285162448883057,-9.876375198364258,2.3234307765960693
1711551210632933400,17.161933349609374,-3.8297126293182373,-8.654839515686035,2.172683000564575
1711551210651893200,17.180893310546875,-3.6646077632904053,-7.682157039642334,2.066202402114868
1711551210670852900,17.199852783203124,-3.294916868209839,-7.253841876983643,2.1882362365722656
1711551210689812700,17.218812744140624,-2.7912275791168213,-7.970492362976074,2.4502503871917725
1711551210708772600,17.237772705078125,-2.4335005283355713,-9.58325481414795,2.306680917739868
1711551210727732200,17.256732177734374,-1.903490424156189,-10.863414764404297,2.069791555404663
1711551210746692000,17.275692138671875,-1.8340985774993896,-11.131410598754883,1.9621145725250244
1711551210765652000,17.29465185546875,-2.2576282024383545,-10.827522277832031,1.6522440910339355
1711551210784611800,17.31361181640625,-2.53399920463562,-10.068997383117676,1.456032633781433
1711551210803571500,17.332571533203126,-2.827120065689087,-9.34157943725586,1.4715858697891235
1711551210822531300,17.35153125,-2.8211379051208496,-8.770891189575195,1.730010747909546
1711551210841491200,17.3704912109375,-2.740978240966797,-8.425128936767578,2.17627215385437
1711551210860450800,17.389450927734377,-2.390429735183716,-8.614161491394043,2.8223342895507812
1711551210879410700,17.40841064453125,-2.042274236679077,-9.096315383911133,3.348755359649658
1711551210898370600,17.42737060546875,-1.4033905267715454,-9.332008361816406,3.696911096572876
1711551210917330200,17.446330078125,-0.9451649188995361,-9.282955169677734,3.902693748474121
1711551210936290000,17.4652900390625,-0.7130611538887024,-9.103493690490723,3.968496322631836
1711551210955250000,17.48425,-0.8470591902732849,-9.061619758605957,3.7746777534484863
1711551210974209500,17.50320947265625,-1.2299108505249023,-9.221938133239746,3.2578279972076416
1711551210993169400,17.52216943359375,-1.506281852722168,-9.193224906921387,2.688336133956909
1711551211012129300,17.54112939453125,-1.908276081085205,-9.17288589477539,2.2683959007263184
1711551211031089000,17.5600888671875,-2.3533411026000977,-9.580862045288086,1.7395820617675781
1711551211050048800,17.579048828125,-2.715853691101074,-10.030712127685547,1.1174482107162476
1711551211069008600,17.598008544921875,-2.82951283454895,-10.106086730957031,0.3074777126312256
1711551211087968500,17.616968505859376,-2.3856441974639893,-9.838089942932129,-0.23808585107326508
1711551211106928000,17.63592822265625,-1.801795482635498,-9.57607650756836,-0.21655045449733734
1711551211125888000,17.654887939453126,-1.7742780447006226,-9.726823806762695,-0.14476576447486877
1711551211144848000,17.673847900390626,-1.4799607992172241,-9.899106979370117,-0.2273181527853012
1711551211163807700,17.692807861328124,-1.2143574953079224,-10.01994514465332,-0.22851456701755524
1711551211182767400,17.711767333984376,-1.4524433612823486,-10.022337913513184,-0.19980068504810333
1711551211201727200,17.730727294921873,-1.7611174583435059,-9.868000984191895,-0.21296121180057526
1711551211220687000,17.74968701171875,-1.755135416984558,-9.588040351867676,-0.43190449476242065
1711551211239646700,17.768646728515623,-1.8424733877182007,-9.410971641540527,-0.48574298620224
1711551211258606600,17.787606689453124,-2.203789710998535,-9.613164901733398,-0.7357929348945618
1711551211277566500,17.80656640625,-2.293520450592041,-9.67777156829834,-0.9332008361816406
1711551211296526300,17.8255263671875,-2.1786649227142334,-9.638289451599121,-0.8410771489143372
1711551211315486200,17.844486328125,-2.2719850540161133,-9.680164337158203,-0.7106683254241943
1711551211334445800,17.86344580078125,-2.4574289321899414,-9.580862045288086,-0.9104689955711365
1711551211353405700,17.88240576171875,-2.2959132194519043,-9.385847091674805,-1.0492527484893799
1711551211372365600,17.901365478515626,-1.848455548286438,-9.56889820098877,-1.00259268283844
1711551211391325200,17.9203251953125,-1.6558332443237305,-9.938589096069336,-0.7489534616470337
1711551211410285000,17.93928515625,-2.094916343688965,-10.202995300292969,-0.1986042857170105
1711551211429245000,17.958244873046876,-2.2719850540161133,-10.17428207397461,0.11605189740657806
1711551211448204800,17.977204833984374,-1.5780665874481201,-10.060623168945312,0.20099709928035736
1711551211467164400,17.996164306640626,-1.0923235416412354,-10.051051139831543,0.04187439754605293
1711551211486124300,18.015124267578123,-0.8913264274597168,-9.890732765197754,0.05144568532705307
1711551211505084200,18.034084228515624,-1.0289137363433838,-9.52941608428955,0.2632105052471161
1711551211524044000,18.0530439453125,-1.038485050201416,-9.245866775512695,0.47617170214653015
1711551211543004000,18.07200390625,-0.8973084688186646,-9.20279598236084,0.623330295085907
1711551211561963500,18.090963623046875,-0.7369893789291382,-9.53659439086914,0.6173482537269592
1711551211580923400,18.10992333984375,-0.5611169338226318,-9.90149974822998,0.4701896607875824
1711551211599883300,18.12888330078125,-0.39122650027275085,-9.958928108215332,0.5204389095306396
1711551211618843100,18.147843017578126,-0.6149554252624512,-9.876375198364258,0.6819544434547424
1711551211637802800,18.166802734375,-0.8817551732063293,-9.538987159729004,0.9068797826766968
1711551211656763000,18.185762939453124,-0.8506484627723694,-9.287740707397461,1.0336993932724
1711551211675722500,18.204722412109376,-0.7657032608985901,-9.43609619140625,0.916451096534729
1711551211694682400,18.223682373046874,-0.760917603969574,-9.707681655883789,0.8470591902732849
1711551211713642200,18.242642333984374,-0.8243274092674255,-9.882357597351074,0.7704889178276062
1711551211732602000,18.26160205078125,-1.0875378847122192,-9.834501266479492,0.7058826684951782
1711551211751561700,18.280561767578124,-1.3986048698425293,-9.820143699645996,0.6927221417427063
1711551211770521600,18.299521484375,-1.4380863904953003,-9.961320877075195,0.605384111404419
1711551211789481500,18.3184814453125,-1.8113667964935303,-10.195816993713379,0.6436693072319031
1711551211808441300,18.33744140625,-2.032702922821045,-10.206584930419922,0.8147560954093933
1711551211827401200,18.356401123046876,-2.128415822982788,-10.022337913513184,0.865005373954773
1711551211846361000,18.375361083984377,-2.1607189178466797,-9.848857879638672,0.43190449476242065
1711551211865320700,18.39432080078125,-1.9980069398880005,-9.720842361450195,0.19621145725250244
1711551211884280600,18.413280517578126,-2.043470621109009,-9.896714210510254,0.13519448041915894
1711551211903240400,18.432240478515624,-1.7838492393493652,-10.01156997680664,0.4019941985607147
1711551211922200300,18.451200439453125,-1.451246976852417,-10.15035343170166,1.0085747241973877
1711551211941160000,18.470159912109374,-0.7980063557624817,-10.815558433532715,1.2287144660949707
1711551211960120000,18.4891201171875,-1.29810631275177,-11.173285484313965,1.4081761837005615
1711551211979079700,18.50807958984375,-1.176072359085083,-10.26760196685791,1.561316728591919
1711551211998039600,18.52703955078125,-0.519242525100708,-9.31884765625,1.470389485359192
1711551212016999400,18.54599951171875,-0.37806597352027893,-9.008976936340332,1.3770694732666016
1711551212035959300,18.564959228515626,-0.6209374666213989,-9.433703422546387,1.054038405418396
1711551212054919200,18.583919189453123,-1.0145567655563354,-9.783055305480957,0.8099704384803772
1711551212073878800,18.602878662109376,-1.3351950645446777,-9.686145782470703,0.6544370055198669
1711551212092838700,18.621838623046877,-1.4488540887832642,-9.279366493225098,0.5144568681716919
1711551212111798500,18.640798583984374,-1.384247899055481,-9.122636795043945,0.6113662123680115
1711551212130758400,18.65975830078125,-1.275374412536621,-9.562915802001953,0.776470959186554
1711551212149718300,18.67871826171875,-1.1485549211502075,-10.132407188415527,0.6364908218383789
1711551212168678100,18.69767822265625,-1.399801254272461,-10.39083194732666,0.5982056856155396
1711551212187637800,18.7166376953125,-1.5696916580200195,-10.469795227050781,0.9643075466156006
1711551212206597600,18.73559765625,-1.3770694732666016,-10.13599681854248,1.2741780281066895
1711551212225557500,18.7545576171875,-1.1102696657180786,-9.578469276428223,1.423729419708252
1711551212244517400,18.773517333984376,-1.022931694984436,-9.471988677978516,1.5948163270950317
1711551212263477200,18.792477294921873,-1.1210373640060425,-9.91107177734375,1.726421594619751
1711551212282437000,18.81143701171875,-1.2323036193847656,-10.046265602111816,1.6845471858978271
1711551212301396700,18.830396728515623,-1.2801600694656372,-9.836894035339355,1.4632110595703125
1711551212320356600,18.849356689453124,-1.2418749332427979,-9.56650447845459,1.31365966796875
1711551212339316500,18.86831640625,-1.5134602785110474,-9.594022750854492,1.26699960231781
1711551212358276400,18.8872763671875,-1.6510475873947144,-9.731609344482422,1.459621787071228
1711551212377236200,18.906236328125,-2.4323041439056396,-10.036694526672363,1.5433706045150757
1711551212396196000,18.925196044921876,-2.977867841720581,-10.006784439086914,1.32921302318573
1711551212415155700,18.94415576171875,-1.34476637840271,-9.817750930786133,0.8961120843887329
1711551212434115600,18.963115478515626,-0.10887342691421509,-9.682557106018066,0.8626125454902649
1711551212453075500,18.982075439453126,-0.25722843408584595,-9.121439933776855,1.0325030088424683
1711551212472035300,19.001035400390624,-0.12442677468061447,-8.325826644897461,0.5623133182525635
1711551212490995200,19.0199951171875,0.09690931439399719,-7.490731239318848,0.2871387302875519
1711551212509955000,19.038955078125,0.30987054109573364,-7.153343200683594,0.48813581466674805
1711551212528914700,19.057914794921874,0.47617170214653015,-7.160521984100342,0.6293123364448547
1711551212547874600,19.07687451171875,0.14835500717163086,-7.085147857666016,0.6209374666213989
1711551212566834400,19.09583447265625,-0.4450650215148926,-7.385447025299072,0.7920243144035339
1711551212585794300,19.114794189453125,-1.4273186922073364,-9.357132911682129,1.2095718383789062
1711551212604754200,19.133754150390626,-2.187039852142334,-11.7990083694458,1.34476637840271
1711551212623713800,19.1527138671875,-2.2671995162963867,-11.990434646606445,1.2263215780258179
1711551212642673700,19.171673583984376,-1.6307085752487183,-10.130014419555664,1.6259230375289917
1711551212661633500,19.190633544921877,-1.1318050622940063,-8.86780071258545,1.5948163270950317
1711551212680593400,19.209593505859374,-1.222732424736023,-8.85344409942627,1.2789636850357056
1711551212699553300,19.22855322265625,-2.352144718170166,-10.039087295532227,1.3148560523986816
1711551212718513200,19.24751318359375,-3.2925238609313965,-11.139785766601562,1.451246976852417
1711551212737472800,19.26647265625,-3.3379876613616943,-11.20199966430664,1.490728497505188
1711551212756432600,19.2854326171875,-3.511467218399048,-10.378868103027344,1.5170495510101318
1711551212775392500,19.304392578125,-2.640479803085327,-9.028120040893555,1.9692929983139038
1711551212794352400,19.323352294921875,-3.0544381141662598,-8.202595710754395,2.943171739578247
1711551212813312300,19.342312255859376,-3.5676984786987305,-8.498109817504883,3.513859987258911
1711551212832272000,19.36127197265625,-3.314059257507324,-9.503094673156738,3.4337005615234375
1711551212851231700,19.380231689453126,-2.386840581893921,-10.332208633422852,3.462414264678955
1711551212870191600,19.399191650390627,-2.007578134536743,-10.480563163757324,3.930211305618286
1711551212889151500,19.4181513671875,-2.6321048736572266,-10.262816429138184,3.658625841140747
1711551212908111400,19.437111328125,-3.3092737197875977,-9.626325607299805,2.702693223953247
1711551212927071000,19.456071044921874,-4.113262176513672,-9.153742790222168,2.0793628692626953
1711551212946030800,19.47503076171875,-4.443471431732178,-8.799605369567871,2.1571295261383057
1711551212964990700,19.49399072265625,-4.095315933227539,-9.110671997070312,2.076970100402832
1711551212983950600,19.51295068359375,-3.844069480895996,-9.944570541381836,1.6211373805999756
1711551213002910500,19.531910400390625,-3.5066816806793213,-10.534401893615723,1.690529227256775
1711551213021870000,19.5508701171875,-3.779463291168213,-10.389636039733887,2.1894326210021973
1711551213040830000,19.569829833984375,-3.8153557777404785,-9.56650447845459,2.3162522315979004
1711551213059789800,19.588789794921876,-2.3772692680358887,-8.47178840637207,2.8450660705566406
1711551213078749700,19.607749755859373,-1.9884356260299683,-8.093722343444824,3.397808074951172
1711551213097709300,19.626709228515626,-2.287538528442383,-8.654839515686035,3.2578279972076416
1711551213116669200,19.645669189453123,-2.444268226623535,-9.247062683105469,2.8426733016967773
1711551213135629000,19.664629150390624,-2.2743778228759766,-9.284152030944824,2.3605196475982666
1711551213154589000,19.6835888671875,-2.4406790733337402,-9.10827922821045,2.0279171466827393
1711551213173548800,19.702548828125,-3.242274761199951,-8.909674644470215,1.3746765851974487
1711551213192508400,19.72150830078125,-3.600001573562622,-8.766105651855469,0.7728816866874695
1711551213211468300,19.74046826171875,-3.4169507026672363,-9.214759826660156,0.2225325107574463
1711551213230428200,19.75942822265625,-3.5306098461151123,-9.620343208312988,0.16151553392410278
1711551213249388000,19.778387939453125,-3.5234313011169434,-9.091529846191406,1.191625714302063
1711551213268347600,19.79734765625,-2.82951283454895,-8.532805442810059,2.4023938179016113
1711551213287307500,19.8163076171875,-1.97407865524292,-8.73499870300293,2.8666014671325684
1711551213306267400,19.835267333984376,-2.181057929992676,-8.916853904724121,3.2482566833496094
1711551213325227300,19.854227294921873,-2.568695068359375,-9.06999397277832,4.076173305511475
1711551213344187100,19.873187255859374,-2.286342144012451,-9.91107177734375,4.139583110809326
1711551213363146800,19.892146728515623,-2.3820550441741943,-10.303494453430176,3.410968780517578
1711551213382106600,19.911106689453124,-2.8283164501190186,-9.681360244750977,2.8103702068328857
1711551213401066500,19.93006640625,-3.211168050765991,-9.535398483276367,2.475374937057495
1711551213420026400,19.9490263671875,-2.8450660705566406,-10.194621086120605,2.100898265838623
1711551213438986000,19.967986083984375,-2.940778970718384,-10.467402458190918,1.698904037475586
1711551213457945900,19.98694580078125,-3.091526746749878,-10.031908988952637,1.9824535846710205
1711551213476905700,20.00590576171875,-2.555534601211548,-9.525827407836914,2.4909284114837646
1711551213495865300,20.024865234375,-2.1104695796966553,-9.113064765930176,2.6668007373809814
1711551213514825200,20.0438251953125,-2.0315065383911133,-8.964710235595703,2.888136863708496
1711551213533785000,20.06278515625,-1.679761528968811,-9.371489524841309,3.0185458660125732
1711551213552745000,20.081744873046876,-1.3363914489746094,-10.162318229675293,2.478964328765869
1711551213571704800,20.100704833984373,-1.9142581224441528,-9.742377281188965,2.434697151184082
1711551213590664400,20.11966455078125,-2.066202402114868,-9.614361763000488,2.1678972244262695
1711551213609624300,20.138624267578123,-2.861815929412842,-9.670592308044434,1.5708880424499512
1711551213628584200,20.157584228515624,-3.544966697692871,-9.534201622009277,1.1377872228622437
1711551213647543800,20.176543701171877,-3.3056845664978027,-9.641879081726074,1.0480563640594482
1711551213666503700,20.195503662109374,-3.104687452316284,-9.848857879638672,1.581655740737915
1711551213685463600,20.214463623046875,-1.8065811395645142,-10.028319358825684,2.289931297302246
1711551213704423200,20.233423095703124,-1.3986048698425293,-9.943374633789062,2.772084951400757
1711551213723383000,20.252383056640625,-0.7441678643226624,-9.674181938171387,3.0939197540283203
1711551213742343000,20.271343017578126,-0.3074777126312256,-9.425328254699707,3.1752755641937256
1711551213761302800,20.290302734375,-0.30508488416671753,-9.336793899536133,2.581855535507202
1711551213780262700,20.3092626953125,0.11605189740657806,-9.452845573425293,1.8735800981521606
1711551213799222300,20.32822216796875,-0.037088751792907715,-9.468399047851562,0.9942178130149841
1711551213818182100,20.34718212890625,-1.0887342691421509,-9.221938133239746,0.37447673082351685
1711551213837142000,20.36614208984375,-1.1150553226470947,-9.089137077331543,0.16749759018421173
1711551213856101600,20.3851015625,-0.8757730722427368,-9.275776863098145,0.3433700501918793
1711551213875061500,20.4040615234375,-0.7202396392822266,-9.409774780273438,0.07537391036748886
1711551213894021400,20.423021484375,0.08733802288770676,-9.365508079528809,0.4486542344093323
1711551213912981000,20.44198095703125,0.2763710021972656,-9.337990760803223,0.9020941257476807
1711551213931940900,20.46094091796875,0.3409772217273712,-9.205188751220703,0.8697910308837891
1711551213950900700,20.479900634765624,0.08614161610603333,-9.491130828857422,0.8243274092674255
1711551213969860400,20.4988603515625,-0.9978070259094238,-9.908679008483887,0.18065811693668365
1711551213988820200,20.5178203125,-0.8446664214134216,-9.577272415161133,0.46061834692955017
1711551214007780000,20.536780029296875,0.3696911036968231,-9.30449104309082,1.3100703954696655
1711551214026740000,20.555739990234375,0.592223584651947,-9.656235694885254,1.25144624710083
1711551214045699600,20.574699462890624,-0.14356936514377594,-9.906285285949707,1.430907964706421
1711551214064659500,20.593659423828125,-0.06580262631177902,-10.258030891418457,1.3268201351165771
1711551214083619300,20.612619384765626,-0.641276478767395,-10.437492370605469,0.849452018737793
1711551214102579000,20.631578857421875,-0.9690931439399719,-10.243673324584961,0.534795880317688
1711551214121538800,20.650538818359376,-0.7932206988334656,-9.997213363647461,1.0253244638442993
1711551214140498700,20.669498779296877,-0.6520441770553589,-9.91107177734375,1.415354609489441
1711551214159458300,20.688458251953126,-0.24406790733337402,-9.66221809387207,1.8963119983673096
1711551214178418200,20.707418212890627,0.363709032535553,-9.822537422180176,1.963310956954956
1711551214197378000,20.7263779296875,0.4043870270252228,-9.729216575622559,1.6055840253829956
1711551214216337700,20.745337646484376,0.16390834748744965,-9.432506561279297,1.2897313833236694
1711551214235297500,20.764297607421874,-0.014356935396790504,-9.370293617248535,0.7250252366065979
1711551214254257400,20.78325732421875,-1.0707881450653076,-9.69212818145752,0.2189432680606842
1711551214273217000,20.802217041015624,-1.4416756629943848,-9.984052658081055,0.06939185410737991
1711551214292177000,20.821177001953124,-1.2179467678070068,-9.976874351501465,0.5886343717575073
1711551214311136500,20.840136474609373,-0.4749752879142761,-9.88833999633789,0.8973084688186646
1711551214330096400,20.859096435546874,-0.1339980661869049,-9.907482147216797,1.3603196144104004
1711551214349056300,20.87805615234375,-0.32542386651039124,-10.091729164123535,1.805384635925293
1711551214368016000,20.897015869140624,-0.5132604837417603,-10.096514701843262,1.8664016723632812
1711551214386975700,20.915975830078125,-0.623330295085907,-9.936196327209473,1.5708880424499512
1711551214405935600,20.934935546875,-0.45104706287384033,-9.77707290649414,1.2705888748168945
1711551214424895500,20.9538955078125,-0.33858439326286316,-9.640682220458984,1.1593226194381714
1711551214443855000,20.972855224609376,-0.17228323221206665,-9.631111145019531,1.34476637840271
1711551214462815000,20.99181494140625,-0.2715853750705719,-9.78544807434082,1.306481122970581
1711551214481774800,21.01077490234375,-0.30508488416671753,-9.859625816345215,1.1066805124282837
1711551214500734500,21.029734375,-0.20458634197711945,-9.750752449035645,0.9966106414794922
1711551214519694300,21.0486943359375,-0.16510476171970367,-9.605986595153809,1.057627558708191
1711551214538654200,21.067654296875,-0.09930214285850525,-9.88833999633789,1.054038405418396
1711551214557613800,21.08661376953125,-0.47258245944976807,-10.089336395263672,1.01814603805542
1711551214576573700,21.10557373046875,-0.7908278703689575,-9.976874351501465,1.1784651279449463
1711551214595533300,21.124533203125,-0.5814558863639832,-9.879964828491211,1.3926228284835815
1711551214614493200,21.1434931640625,-0.37926238775253296,-9.908679008483887,1.6199408769607544
1711551214633453000,21.162453125,-0.24526432156562805,-9.949356079101562,1.836491346359253
1711551214652412700,21.18141259765625,-0.05024927482008934,-9.937392234802246,1.9609181880950928
1711551214671372500,21.20037255859375,-0.28594231605529785,-9.804591178894043,1.9405791759490967
1711551214690332400,21.21933251953125,-0.30628129839897156,-9.69093132019043,1.664208173751831
1711551214709292000,21.2382919921875,-0.10169496387243271,-9.68494987487793,1.439282774925232
1711551214728252000,21.257251953125,-0.0933200865983963,-9.626325607299805,1.2251251935958862
1711551214747211800,21.276211669921874,-0.15672987699508667,-9.500701904296875,1.2394821643829346
1711551214766171400,21.29517138671875,-0.17347964644432068,-9.621540069580078,1.3411771059036255
1711551214785131300,21.31413134765625,-0.14835500717163086,-9.80817985534668,1.3268201351165771
1711551214804091100,21.333091064453125,-0.18783657252788544,-9.827322959899902,1.3615161180496216
1711551214823051000,21.352051025390626,-0.20338992774486542,-9.877572059631348,1.3722838163375854
1711551214842010600,21.3710107421875,-0.4366901218891144,-9.964909553527832,1.4536397457122803
1711551214860970500,21.389970458984376,-0.5862415432929993,-9.987641334533691,1.4572290182113647
1711551214879930400,21.408930419921877,-0.42352959513664246,-9.90269660949707,1.597209095954895
1711551214898890000,21.427889892578126,-0.27756741642951965,-9.80100154876709,1.755135416984558
1711551214917849900,21.446849853515626,-0.10767702013254166,-9.765109062194824,1.852044701576233
1711551214936809700,21.465809814453124,0.1459621787071228,-9.844072341918945,1.817348837852478
1711551214955769300,21.484769287109376,-0.19621145725250244,-9.779465675354004,1.8233308792114258
1711551214974729200,21.503729248046874,-0.2967100143432617,-9.56052303314209,1.781456470489502
1711551214993689000,21.522689208984374,-0.18424734473228455,-9.33320426940918,1.8616160154342651
1711551215012648700,21.541648681640623,-0.01196411345154047,-9.287740707397461,2.001596212387085
1711551215031608600,21.560608642578124,0.2787638306617737,-9.546165466308594,1.923829436302185
1711551215050568400,21.579568359375,0.24406790733337402,-9.879964828491211,1.7718851566314697
1711551215069528000,21.598528076171874,0.02751746028661728,-9.970891952514648,1.5302101373672485
1711551215088488000,21.617488037109375,-0.5359922647476196,-9.915857315063477,1.3938192129135132
1711551215107447800,21.63644775390625,-0.7549355626106262,-9.872786521911621,1.3722838163375854
1711551215126407700,21.65540771484375,-0.6496513485908508,-9.735198974609375,1.4321043491363525
1711551215145367300,21.6743671875,-0.26919254660606384,-9.767501831054688,1.5038890838623047
1711551215164327200,21.6933271484375,0.010767702013254166,-9.851250648498535,1.657029628753662
1711551215183287000,21.712287109375,0.09810572862625122,-9.842875480651855,1.8999011516571045
1711551215202246700,21.73124658203125,-0.259621262550354,-9.873982429504395,1.9968105554580688
1711551215221206500,21.75020654296875,-0.44745782017707825,-9.702896118164062,1.8340985774993896
1711551215240166400,21.76916650390625,-0.5814558863639832,-9.464810371398926,1.664208173751831
1711551215259126000,21.7881259765625,-0.3002992272377014,-9.462417602539062,1.820937991142273
1711551215278086000,21.8070859375,-0.016749758273363113,-9.460023880004883,2.0506489276885986
1711551215297045800,21.826045654296873,-0.09571290761232376,-9.657432556152344,2.310270309448242
1711551215316005600,21.845005615234374,-0.13519448041915894,-9.840482711791992,2.376072883605957
1711551215334965200,21.86396533203125,-0.3086741268634796,-9.851250648498535,2.1750757694244385
1711551215353925000,21.882925048828124,-0.5551348328590393,-9.872786521911621,1.8532410860061646
1711551215372885000,21.901885009765625,-0.8410771489143372,-9.970891952514648,1.6235301494598389
1711551215391844900,21.920844970703126,-0.8087740540504456,-10.028319358825684,1.4895321130752563
1711551215410804500,21.939804443359375,-0.7334001660346985,-9.931410789489746,1.3471591472625732
1711551215429764400,21.958764404296875,-0.698704183101654,-9.81535816192627,1.3459627628326416
1711551215448724200,21.97772412109375,-0.3852444589138031,-9.781859397888184,1.534995675086975
1711551215467684000,21.99668408203125,-0.7322037220001221,-9.641879081726074,1.8460626602172852
1711551215486643700,22.015643798828126,-0.5946164131164551,-9.68494987487793,1.719243049621582
1711551215505603600,22.034603515625,-0.36251261830329895,-9.650253295898438,1.8005990982055664
1711551215524563500,22.0535634765625,-0.13160525262355804,-9.558130264282227,2.035095691680908
1711551215543523300,22.0725234375,0.07896314561367035,-9.56770133972168,2.366501569747925
1711551215562483200,22.091483154296874,0.1339980661869049,-9.672985076904297,2.493321180343628
1711551215581442800,22.11044287109375,-0.21655045449733734,-9.81535816192627,2.056631088256836
1711551215600402700,22.129402587890624,-0.6352944374084473,-9.91705322265625,1.6450655460357666
1711551215619362600,22.148362548828125,-0.9655039310455322,-9.866804122924805,1.3256237506866455
1711551215638322400,22.167322509765626,-1.022931694984436,-9.712467193603516,1.3651052713394165
1711551215657282000,22.186281982421875,-0.589830756187439,-9.644271850585938,1.688136339187622
1711551215676242000,22.205241943359376,-0.23688943684101105,-9.76989459991455,1.9178473949432373
1711551215695201800,22.224201904296876,-0.24287149310112,-9.76989459991455,2.090130567550659
1711551215714161400,22.243161376953125,-0.20099709928035736,-9.708877563476562,2.203789710998535
1711551215733121300,22.262121337890626,-0.38644084334373474,-9.649057388305664,2.1655044555664062
1711551215752081200,22.2810810546875,-0.5335994362831116,-9.604789733886719,2.0985054969787598
1711551215771041000,22.300041015625,-0.8733802437782288,-9.695717811584473,1.911865234375
1711551215790001000,22.3190009765625,-1.022931694984436,-9.908679008483887,1.7012969255447388
1711551215808960800,22.337960693359374,-0.9200403094291687,-9.862018585205078,1.679761528968811
1711551215827920400,22.35692041015625,-0.7920243144035339,-9.66939640045166,1.817348837852478
1711551215846880300,22.37588037109375,-0.6029912829399109,-9.446864128112793,2.1272194385528564
1711551215865840000,22.394840087890625,-0.24526432156562805,-9.467203140258789,2.324627161026001
1711551215884800000,22.413800048828126,-0.064606212079525,-9.617950439453125,2.2600209712982178
1711551215903759600,22.432759521484375,-0.3086741268634796,-9.66102123260498,2.1296122074127197
1711551215922719700,22.4517197265625,-0.6747759580612183,-9.622735977172852,2.0961127281188965
1711551215941679400,22.470679443359376,-0.8183453679084778,-9.719645500183105,1.8831514120101929
1711551215960639200,22.48963916015625,-0.8255237936973572,-9.81655502319336,1.604387640953064
1711551215979599000,22.50859912109375,-0.8817551732063293,-9.836894035339355,1.8005990982055664
1711551215998559000,22.52755908203125,-0.7561319470405579,-9.860821723937988,2.1822543144226074
1711551216017518600,22.5465185546875,-0.7154539823532104,-9.724431037902832,2.6153552532196045
1711551216036478700,22.565478759765625,-0.33858439326286316,-9.641879081726074,2.778067111968994
1711551216055438300,22.584438232421874,-0.7082754969596863,-9.745966911315918,2.7876384258270264
1711551216074398200,22.603398193359375,-0.6269195079803467,-9.722038269042969,2.744567632675171
1711551216093358000,22.622358154296876,-0.6113662123680115,-9.708877563476562,2.541177749633789
1711551216112318000,22.64131787109375,-0.8171489238739014,-9.708877563476562,2.3748764991760254
1711551216131277600,22.660277587890626,-0.9499505758285522,-9.783055305480957,2.0446670055389404
1711551216150237400,22.679237548828127,-1.1820544004440308,-9.768698692321777,1.8508483171463013
1711551216169197300,22.698197265625,-1.5242279767990112,-9.797411918640137,1.7012969255447388
1711551216188157200,22.7171572265625,-1.726421594619751,-9.787840843200684,1.6689938306808472
1711551216207117000,22.736116943359374,-0.8817551732063293,-9.57607650756836,1.5852450132369995
1711551216226077000,22.755076904296875,-0.34695929288864136,-9.399007797241211,2.045863389968872
1711551216245036800,22.774036865234375,-0.1746760457754135,-9.45763111114502,2.5160529613494873
1711551216263996400,22.792996337890624,-0.058624155819416046,-9.565308570861816,2.6596224308013916
1711551216282956300,22.811956298828125,-0.5168496966362,-9.659825325012207,2.4837498664855957
1711551216301916200,22.830916259765626,-0.6209374666213989,-9.517452239990234,2.17627215385437
1711551216320876000,22.8498759765625,-0.5407779216766357,-9.383454322814941,2.0709879398345947
1711551216339836000,22.8688359375,-0.5407779216766357,-9.475577354431152,1.9908283948898315
1711551216358795800,22.887795654296873,-0.5383850932121277,-9.718449592590332,2.0829520225524902
1711551216377755600,22.906755615234374,-0.6807580590248108,-9.969695091247559,2.166700839996338
1711551216396715500,22.925715576171875,-0.7956135272979736,-10.017552375793457,2.0446670055389404
1711551216415675100,22.944675048828124,-0.8973084688186646,-9.790233612060547,1.9405791759490967
1711551216434635300,22.96363525390625,-1.1102696657180786,-9.56650447845459,1.9094724655151367
1711551216453595000,22.982594970703126,-1.0085747241973877,-9.749555587768555,1.7682958841323853
1711551216472554800,23.0015546875,-1.0193424224853516,-9.822537422180176,1.6917256116867065
1711551216491514600,23.0205146484375,-0.9116654396057129,-9.66102123260498,1.8699909448623657
1711551216510474500,23.039474609375,-0.7776673436164856,-9.439684867858887,1.9752750396728516
1711551216529434400,23.058434326171874,-0.8135597109794617,-9.395418167114258,1.9357935190200806
1711551216548394200,23.077394287109374,-0.9415757060050964,-9.488738059997559,1.9453648328781128
1711551216567354000,23.09635400390625,-0.6245267391204834,-9.571290969848633,2.1056840419769287
1711551216586314000,23.11531396484375,-0.4055834412574768,-9.549755096435547,2.056631088256836
1711551216605273600,23.134273681640625,-0.5324030518531799,-9.540184020996094,2.341377019882202
1711551216624233500,23.1532333984375,-0.6173482537269592,-9.542576789855957,2.3054845333099365
1711551216643193300,23.172193359375,-0.916451096534729,-9.591629981994629,2.1296122074127197
1711551216662153200,23.1911533203125,-1.2215359210968018,-9.66102123260498,2.0195422172546387
1711551216681113000,23.210113037109377,-1.1270195245742798,-9.649057388305664,2.124826431274414
1711551216700073000,23.229072998046874,-0.8542376756668091,-9.633503913879395,2.2504496574401855
1711551216719032800,23.24803271484375,-0.698704183101654,-9.713663101196289,2.4263222217559814
1711551216737992700,23.26699267578125,-0.7848458290100098,-9.77826976776123,2.390429735183716
1711551216756952600,23.28595263671875,-0.9415757060050964,-9.773484230041504,2.3545374870300293
1711551216775912400,23.304912353515626,-0.9188438653945923,-9.743574142456055,2.313859462738037
1711551216794872300,23.323872314453126,-1.1365907192230225,-9.885947227478027,2.117648124694824
1711551216813832000,23.34283203125,-1.3794622421264648,-9.806983947753906,1.9848463535308838
1711551216832791800,23.361791748046876,-1.4057832956314087,-9.638289451599121,1.9836499691009521
1711551216851752000,23.380751953125,-1.2095718383789062,-9.592825889587402,1.923829436302185
1711551216870711600,23.399711669921874,-1.0360921621322632,-9.580862045288086,2.043470621109009
1711551216889671400,23.41867138671875,-0.8482556343078613,-9.605986595153809,2.310270309448242
1711551216908631300,23.43763134765625,-0.6819544434547424,-9.640682220458984,2.379662036895752
1711551216927591200,23.456591064453125,-0.729810893535614,-9.463613510131836,2.3820550441741943
1711551216946551000,23.475551025390626,-0.8542376756668091,-9.4121675491333,2.337787628173828
1711551216965511000,23.494510986328127,-1.054038405418396,-9.531808853149414,2.469393014907837
1711551216984470800,23.513470703125,-0.9583254456520081,-9.570094108581543,2.644068956375122
1711551217003430700,23.5324306640625,-0.8781659007072449,-9.522237777709961,2.7553353309631348
1711551217022390500,23.551390625,-0.9308080077171326,-9.656235694885254,2.60339093208313
1711551217041350400,23.570350341796875,-0.9655039310455322,-9.756733894348145,2.441875457763672
1711551217060310300,23.589310302734376,-0.973878800868988,-9.821340560913086,2.324627161026001
1711551217079270100,23.608270263671876,-0.9990034699440002,-9.76391315460205,2.1882362365722656
1711551217098230000,23.62722998046875,-1.0480563640594482,-9.56052303314209,2.1439690589904785
1711551217117189600,23.646189697265626,-1.0169496536254883,-9.505488395690918,2.1774685382843018
1711551217136149800,23.665149658203124,-1.0157532691955566,-9.561718940734863,2.2851455211639404
1711551217155109400,23.684109375,-1.0121639966964722,-9.509077072143555,2.434697151184082
1711551217174069200,23.7030693359375,-0.9260223507881165,-9.438488960266113,2.5459632873535156
1711551217193029000,23.722029052734374,-0.9152546525001526,-9.446864128112793,2.606980323791504
1711551217211989000,23.740989013671875,-0.8997012972831726,-9.516255378723145,2.6213371753692627
1711551217230948900,23.759948974609376,-0.9116654396057129,-9.55214786529541,2.583052158355713
1711551217249908700,23.77890869140625,-1.0121639966964722,-9.665806770324707,2.5328028202056885
1711551217268868600,23.79786865234375,-1.1389836072921753,-9.772287368774414,2.4681966304779053
1711551217287828500,23.816828369140627,-1.1485549211502075,-9.724431037902832,2.2468605041503906
1711551217306788400,23.835788330078124,-1.246660590171814,-9.66939640045166,2.128415822982788
1711551217325748200,23.854748291015625,-1.25144624710083,-9.663414001464844,2.2432711124420166
1711551217344708000,23.8737080078125,-1.3411771059036255,-9.58205795288086,2.2743778228759766
1711551217363668000,23.89266796875,-1.1282159090042114,-9.488738059997559,2.080559253692627
1711551217382627800,23.9116279296875,-0.7154539823532104,-9.382257461547852,2.0446670055389404
1711551217401587500,23.93058740234375,-0.8781659007072449,-9.510273933410645,2.3605196475982666
1711551217420547300,23.94954736328125,-0.8315058946609497,-9.519845008850098,2.4299113750457764
1711551217439507200,23.968507080078126,-0.6197410821914673,-9.455238342285156,2.4777679443359375
1711551217458467000,23.987467041015623,-0.7776673436164856,-9.561718940734863,2.5471596717834473
1711551217477427000,24.006427001953124,-1.2143574953079224,-9.738788604736328,2.3126630783081055
1711551217496386800,24.02538671875,-1.475175142288208,-9.753145217895508,2.115255117416382
1711551217515346700,24.0443466796875,-1.6199408769607544,-9.796216011047363,2.056631088256836
1711551217534306600,24.063306640625,-1.6546368598937988,-9.90149974822998,1.7623138427734375
1711551217553266400,24.082266357421876,-1.4428720474243164,-10.051051139831543,1.6450655460357666
1711551217572226300,24.101226318359377,-1.3698909282684326,-9.890732765197754,1.9381862878799438
1711551217591186200,24.120186279296874,-1.1665010452270508,-9.590433120727539,2.4023938179016113
1711551217610146000,24.13914599609375,-0.6747759580612183,-9.336793899536133,2.671586513519287
1711551217629105700,24.158105712890624,-0.39601215720176697,-9.20997428894043,2.8139593601226807
1711551217648065800,24.177065673828125,-0.45224347710609436,-9.244669914245605,2.719442844390869
1711551217667025400,24.196025390625,-0.8279166221618652,-9.182456970214844,2.441875457763672
1711551217685985300,24.2149853515625,-0.8697910308837891,-9.174081802368164,2.021935224533081
1711551217704945200,24.233945068359375,-1.0253244638442993,-9.408578872680664,1.664208173751831
1711551217723905000,24.252905029296876,-1.29810631275177,-9.469595909118652,1.726421594619751
1711551217742865000,24.271864990234373,-1.4344971179962158,-9.483952522277832,1.9657038450241089
1711551217761824800,24.29082470703125,-1.4739787578582764,-9.534201622009277,1.9896320104599
1711551217780784600,24.30978466796875,-1.3866406679153442,-9.516255378723145,2.115255117416382
1711551217799744500,24.32874462890625,-1.3196417093276978,-9.390632629394531,2.33180570602417
1711551217818704400,24.347704345703125,-1.129412293434143,-9.227920532226562,2.366501569747925
