time,seconds_elapsed,z,y,x
1700356790222960600,0.108960693359375,10.0283203125,-0.380462646484375,-0.1507415771484375
1700356790232905200,0.1189052734375,10.0283203125,-0.380462646484375,-0.1507415771484375
1700356790242823400,0.128823486328125,10.049850463867188,-0.380462646484375,-0.16510009765625
1700356790252711200,0.138711181640625,10.054641723632812,-0.3852386474609375,-0.1722869873046875
1700356790262599000,0.148598876953125,10.045074462890625,-0.3828582763671875,-0.1674957275390625
1700356790272486700,0.158486572265625,10.037887573242188,-0.38763427734375,-0.181854248046875
1700356790282343700,0.16834375,10.040283203125,-0.3828582763671875,-0.1722869873046875
1700356790292201000,0.178200927734375,10.057037353515625,-0.3828582763671875,-0.169891357421875
1700356790302058000,0.18805810546875,10.054641723632812,-0.3732757568359375,-0.17706298828125
1700356790311915300,0.197915283203125,10.05224609375,-0.370880126953125,-0.1674957275390625
1700356790321772500,0.2077724609375,10.05224609375,-0.37567138671875,-0.157928466796875
1700356790331629600,0.217629638671875,10.049850463867188,-0.392425537109375,-0.16510009765625
1700356790341486800,0.22748681640625,10.047470092773438,-0.38763427734375,-0.16510009765625
1700356790351343900,0.23734375,10.040283203125,-0.39959716796875,-0.1627044677734375
1700356790361201200,0.247201171875,10.037887573242188,-0.3852386474609375,-0.157928466796875
1700356790371058400,0.257058349609375,10.047470092773438,-0.3852386474609375,-0.1603240966796875
1700356790380885000,0.266885009765625,10.047470092773438,-0.3852386474609375,-0.1603240966796875
1700356790390711600,0.276711669921875,10.040283203125,-0.3732757568359375,-0.1674957275390625
1700356790400538400,0.286538330078125,10.05224609375,-0.3780670166015625,-0.169891357421875
1700356790410395400,0.2963955078125,10.05224609375,-0.37567138671875,-0.169891357421875
1700356790420252700,0.306252685546875,10.047470092773438,-0.3900299072265625,-0.1555328369140625
1700356790430110000,0.31610986328125,10.047470092773438,-0.38763427734375,-0.1603240966796875
1700356790439967000,0.325967041015625,10.033111572265625,-0.3780670166015625,-0.16510009765625
1700356790449824300,0.33582421875,10.05224609375,-0.3828582763671875,-0.1627044677734375
1700356790459681300,0.345681396484375,10.054641723632812,-0.38763427734375,-0.1627044677734375
1700356790469538600,0.35553857421875,10.049850463867188,-0.3828582763671875,-0.1674957275390625
1700356790479395800,0.365395751953125,10.042678833007812,-0.3732757568359375,-0.16510009765625
1700356790489252900,0.3752529296875,10.047470092773438,-0.3852386474609375,-0.1746826171875
1700356790499110100,0.385110107421875,10.054641723632812,-0.3828582763671875,-0.1627044677734375
1700356790508967200,0.39496728515625,10.045074462890625,-0.368499755859375,-0.1555328369140625
1700356790518824400,0.404824462890625,10.059432983398438,-0.3852386474609375,-0.1507415771484375
1700356790528681700,0.414681640625,10.05224609375,-0.3900299072265625,-0.157928466796875
1700356790538538800,0.424538818359375,10.05224609375,-0.3732757568359375,-0.16510009765625
1700356790548396000,0.43439599609375,10.047470092773438,-0.392425537109375,-0.16510009765625
1700356790558253000,0.444253173828125,10.057037353515625,-0.392425537109375,-0.1722869873046875
1700356790568110300,0.4541103515625,10.045074462890625,-0.3828582763671875,-0.16510009765625
1700356790577967600,0.463967529296875,10.049850463867188,-0.3828582763671875,-0.169891357421875
1700356790587824600,0.47382470703125,10.047470092773438,-0.3828582763671875,-0.169891357421875
1700356790597682000,0.483681884765625,10.049850463867188,-0.38763427734375,-0.1722869873046875
1700356790607539000,0.4935390625,10.047470092773438,-0.3852386474609375,-0.1794586181640625
1700356790617396200,0.503396240234375,10.059432983398438,-0.3828582763671875,-0.1746826171875
1700356790627253500,0.51325341796875,10.035491943359375,-0.3852386474609375,-0.1674957275390625
1700356790637110500,0.523110595703125,10.05224609375,-0.380462646484375,-0.169891357421875
1700356790646967800,0.5329677734375,10.059432983398438,-0.3900299072265625,-0.1674957275390625
1700356790656824800,0.542824951171875,10.047470092773438,-0.3900299072265625,-0.1507415771484375
1700356790666682000,0.55268212890625,10.054641723632812,-0.3780670166015625,-0.157928466796875
1700356790676539400,0.562539306640625,10.069000244140625,-0.3852386474609375,-0.1603240966796875
1700356790686396400,0.572396484375,10.054641723632812,-0.3900299072265625,-0.1603240966796875
1700356790696253700,0.582253662109375,10.054641723632812,-0.3852386474609375,-0.1603240966796875
1700356790706110700,0.59211083984375,10.059432983398438,-0.3852386474609375,-0.1603240966796875
1700356790715968000,0.601968017578125,10.059432983398438,-0.380462646484375,-0.1603240966796875
1700356790725825300,0.6118251953125,10.05224609375,-0.3852386474609375,-0.17706298828125
1700356790735682300,0.621682373046875,10.061813354492188,-0.392425537109375,-0.1722869873046875
1700356790745539600,0.63153955078125,10.059432983398438,-0.380462646484375,-0.1746826171875
1700356790755396600,0.641396728515625,10.040283203125,-0.392425537109375,-0.1627044677734375
1700356790765254000,0.65125390625,10.054641723632812,-0.392425537109375,-0.1674957275390625
1700356790775111200,0.661111083984375,10.045074462890625,-0.3828582763671875,-0.1603240966796875
1700356790784968200,0.67096826171875,10.059432983398438,-0.380462646484375,-0.15313720703125
1700356790794825500,0.680825439453125,10.061813354492188,-0.392425537109375,-0.1507415771484375
1700356790804682500,0.6906826171875,10.049850463867188,-0.3828582763671875,-0.1627044677734375
1700356790814539800,0.700539794921875,10.057037353515625,-0.380462646484375,-0.1627044677734375
1700356790824397000,0.71039697265625,10.049850463867188,-0.3780670166015625,-0.169891357421875
1700356790834254000,0.720254150390625,10.057037353515625,-0.380462646484375,-0.16510009765625
1700356790844111400,0.730111328125,10.064208984375,-0.3900299072265625,-0.169891357421875
1700356790853968400,0.739968505859375,10.054641723632812,-0.380462646484375,-0.1674957275390625
1700356790863825700,0.74982568359375,10.061813354492188,-0.37567138671875,-0.169891357421875
1700356790873683000,0.759682861328125,10.057037353515625,-0.37567138671875,-0.17706298828125
1700356790883540000,0.7695400390625,10.059432983398438,-0.38763427734375,-0.169891357421875
1700356790893397200,0.779397216796875,10.057037353515625,-0.3732757568359375,-0.1555328369140625
1700356790903254300,0.789254150390625,10.059432983398438,-0.368499755859375,-0.16510009765625
1700356790913111600,0.799111572265625,10.059432983398438,-0.37567138671875,-0.16510009765625
1700356790922968800,0.80896875,10.061813354492188,-0.3780670166015625,-0.1603240966796875
1700356790932825900,0.818825927734375,10.064208984375,-0.3732757568359375,-0.1603240966796875
1700356790942683100,0.82868310546875,10.057037353515625,-0.380462646484375,-0.157928466796875
1700356790952540200,0.8385400390625,10.05224609375,-0.380462646484375,-0.1674957275390625
1700356790962397400,0.8483974609375,10.057037353515625,-0.3828582763671875,-0.1627044677734375
1700356790972254700,0.858254638671875,10.057037353515625,-0.37567138671875,-0.169891357421875
1700356790982111700,0.86811181640625,10.057037353515625,-0.392425537109375,-0.1722869873046875
1700356790991969000,0.877968994140625,10.061813354492188,-0.38763427734375,-0.169891357421875
1700356791001826000,0.887825927734375,10.057037353515625,-0.3780670166015625,-0.169891357421875
1700356791011683300,0.897683349609375,10.057037353515625,-0.3852386474609375,-0.169891357421875
1700356791021540600,0.90754052734375,10.057037353515625,-0.380462646484375,-0.1627044677734375
1700356791031397600,0.917397705078125,10.071395874023438,-0.38763427734375,-0.169891357421875
1700356791041255000,0.9272548828125,10.054641723632812,-0.38763427734375,-0.1627044677734375
1700356791051112000,0.93711181640625,10.05224609375,-0.370880126953125,-0.1674957275390625
1700356791060969200,0.94696923828125,10.05224609375,-0.3852386474609375,-0.1627044677734375
1700356791070826500,0.956826416015625,10.057037353515625,-0.3828582763671875,-0.1603240966796875
1700356791080683500,0.96668359375,10.064208984375,-0.38763427734375,-0.169891357421875
1700356791090540800,0.976540771484375,10.057037353515625,-0.368499755859375,-0.1555328369140625
1700356791100397800,0.986397705078125,10.059432983398438,-0.3780670166015625,-0.1627044677734375
1700356791110255000,0.996255126953125,10.069000244140625,-0.38763427734375,-0.16510009765625
1700356791120112400,1.0061123046875,10.054641723632812,-0.380462646484375,-0.1627044677734375
1700356791129969400,1.015969482421875,10.059432983398438,-0.3780670166015625,-0.1627044677734375
1700356791139826700,1.02582666015625,10.057037353515625,-0.3780670166015625,-0.1627044677734375
1700356791149683700,1.03568359375,10.061813354492188,-0.37567138671875,-0.1674957275390625
1700356791159541000,1.045541015625,10.057037353515625,-0.3780670166015625,-0.1627044677734375
1700356791169398300,1.055398193359375,10.061813354492188,-0.3948211669921875,-0.1674957275390625
1700356791179255300,1.06525537109375,10.066604614257812,-0.38763427734375,-0.1674957275390625
1700356791189082000,1.07508203125,10.054641723632812,-0.380462646484375,-0.1746826171875
1700356791198939100,1.084939208984375,10.064208984375,-0.392425537109375,-0.1722869873046875
1700356791208796400,1.09479638671875,10.059432983398438,-0.3900299072265625,-0.157928466796875
1700356791218653400,1.1046533203125,10.064208984375,-0.392425537109375,-0.1722869873046875
1700356791228510700,1.1145107421875,10.057037353515625,-0.3852386474609375,-0.1674957275390625
1700356791238368000,1.124367919921875,10.061813354492188,-0.380462646484375,-0.1603240966796875
1700356791248225000,1.13422509765625,10.057037353515625,-0.3852386474609375,-0.157928466796875
1700356791258082300,1.144082275390625,10.05224609375,-0.3900299072265625,-0.16510009765625
1700356791267939300,1.153939208984375,10.059432983398438,-0.38763427734375,-0.157928466796875
1700356791277796600,1.163796630859375,10.061813354492188,-0.3852386474609375,-0.1722869873046875
1700356791287654000,1.17365380859375,10.061813354492188,-0.3828582763671875,-0.16510009765625
1700356791297511000,1.183510986328125,10.061813354492188,-0.38763427734375,-0.1746826171875
1700356791307368200,1.1933681640625,10.064208984375,-0.3828582763671875,-0.1674957275390625
1700356791317225200,1.20322509765625,10.066604614257812,-0.380462646484375,-0.1746826171875
1700356791327082500,1.21308251953125,10.054641723632812,-0.3780670166015625,-0.16510009765625
1700356791336939800,1.222939697265625,10.064208984375,-0.37567138671875,-0.169891357421875
1700356791346796800,1.232796875,10.057037353515625,-0.3852386474609375,-0.1674957275390625
1700356791356654000,1.242654052734375,10.064208984375,-0.3900299072265625,-0.1746826171875
1700356791366511000,1.252510986328125,10.054641723632812,-0.380462646484375,-0.1627044677734375
1700356791376368400,1.262368408203125,10.066604614257812,-0.3852386474609375,-0.1603240966796875
1700356791386225700,1.2722255859375,10.059432983398438,-0.3852386474609375,-0.1603240966796875
1700356791396082700,1.282082763671875,10.05224609375,-0.3852386474609375,-0.16510009765625
1700356791405940000,1.29193994140625,10.066604614257812,-0.392425537109375,-0.1627044677734375
1700356791415797000,1.301796875,10.059432983398438,-0.3828582763671875,-0.1555328369140625
1700356791425654300,1.311654296875,10.049850463867188,-0.3852386474609375,-0.1603240966796875
1700356791435511600,1.321511474609375,10.047470092773438,-0.37567138671875,-0.169891357421875
1700356791445368600,1.33136865234375,10.061813354492188,-0.370880126953125,-0.1603240966796875
1700356791455225900,1.341225830078125,10.059432983398438,-0.38763427734375,-0.16510009765625
1700356791465083000,1.351082763671875,10.064208984375,-0.380462646484375,-0.1627044677734375
1700356791474940200,1.360940185546875,10.059432983398438,-0.3852386474609375,-0.1674957275390625
1700356791484797400,1.37079736328125,10.05224609375,-0.3780670166015625,-0.169891357421875
1700356791494654500,1.380654541015625,10.064208984375,-0.38763427734375,-0.16510009765625
1700356791504511700,1.39051171875,10.066604614257812,-0.380462646484375,-0.16510009765625
1700356791514368800,1.40036865234375,10.066604614257812,-0.380462646484375,-0.1555328369140625
1700356791524226000,1.41022607421875,10.059432983398438,-0.3828582763671875,-0.1483612060546875
1700356791534083300,1.420083251953125,10.054641723632812,-0.3852386474609375,-0.157928466796875
1700356791543940400,1.4299404296875,10.069000244140625,-0.3828582763671875,-0.1722869873046875
1700356791553797600,1.439797607421875,10.059432983398438,-0.3732757568359375,-0.16510009765625
1700356791563654700,1.449654541015625,10.061813354492188,-0.380462646484375,-0.1603240966796875
1700356791573512000,1.459511962890625,10.061813354492188,-0.37567138671875,-0.15313720703125
1700356791583369200,1.469369140625,10.071395874023438,-0.380462646484375,-0.1627044677734375
1700356791593226200,1.479226318359375,10.061813354492188,-0.392425537109375,-0.16510009765625
1700356791603083500,1.48908349609375,10.064208984375,-0.3828582763671875,-0.1603240966796875
1700356791612940500,1.4989404296875,10.061813354492188,-0.3852386474609375,-0.17706298828125
1700356791622797800,1.5087978515625,10.057037353515625,-0.3852386474609375,-0.1794586181640625
1700356791632655000,1.518655029296875,10.054641723632812,-0.3828582763671875,-0.157928466796875
1700356791642512100,1.52851220703125,10.057037353515625,-0.38763427734375,-0.1674957275390625
1700356791652369400,1.538369384765625,10.057037353515625,-0.3852386474609375,-0.1603240966796875
1700356791662226400,1.548226318359375,10.054641723632812,-0.3828582763671875,-0.16510009765625
1700356791672083700,1.558083740234375,10.071395874023438,-0.380462646484375,-0.1674957275390625
1700356791681941000,1.56794091796875,10.059432983398438,-0.3900299072265625,-0.169891357421875
1700356791691798000,1.577798095703125,10.066604614257812,-0.37567138671875,-0.1603240966796875
1700356791701655300,1.5876552734375,10.066604614257812,-0.3828582763671875,-0.169891357421875
1700356791711512300,1.59751220703125,10.057037353515625,-0.37567138671875,-0.16510009765625
1700356791721369600,1.60736962890625,10.066604614257812,-0.37567138671875,-0.1746826171875
1700356791731227000,1.617226806640625,10.071395874023438,-0.3828582763671875,-0.17706298828125
1700356791741084000,1.627083984375,10.05224609375,-0.3852386474609375,-0.1603240966796875
1700356791750941200,1.636941162109375,10.064208984375,-0.37567138671875,-0.16510009765625
1700356791760798200,1.646798095703125,10.061813354492188,-0.3780670166015625,-0.157928466796875
1700356791770655500,1.656655517578125,10.069000244140625,-0.3852386474609375,-0.16510009765625
1700356791780512800,1.6665126953125,10.054641723632812,-0.3780670166015625,-0.1746826171875
1700356791790369800,1.676369873046875,10.064208984375,-0.38763427734375,-0.16510009765625
1700356791800227000,1.68622705078125,10.054641723632812,-0.3828582763671875,-0.1603240966796875
1700356791810053600,1.6960537109375,10.066604614257812,-0.3828582763671875,-0.1555328369140625
1700356791819911000,1.705910888671875,10.069000244140625,-0.38763427734375,-0.1627044677734375
1700356791829768000,1.715767822265625,10.066604614257812,-0.37567138671875,-0.1627044677734375
1700356791839625200,1.725625244140625,10.066604614257812,-0.3780670166015625,-0.1674957275390625
1700356791849482500,1.735482421875,10.059432983398438,-0.370880126953125,-0.1627044677734375
1700356791859339500,1.745339599609375,10.061813354492188,-0.3852386474609375,-0.1627044677734375
1700356791869196800,1.75519677734375,10.054641723632812,-0.3852386474609375,-0.1674957275390625
1700356791879053800,1.7650537109375,10.064208984375,-0.38763427734375,-0.1722869873046875
1700356791888911000,1.7749111328125,10.069000244140625,-0.392425537109375,-0.1722869873046875
1700356791898768400,1.784768310546875,10.073776245117188,-0.3852386474609375,-0.169891357421875
1700356791908625400,1.79462548828125,10.057037353515625,-0.3852386474609375,-0.1603240966796875
1700356791918482700,1.804482666015625,10.069000244140625,-0.3780670166015625,-0.17706298828125
1700356791928339700,1.814339599609375,10.061813354492188,-0.38763427734375,-0.1674957275390625
1700356791938197000,1.824197021484375,10.069000244140625,-0.3780670166015625,-0.16510009765625
1700356791948054300,1.83405419921875,10.057037353515625,-0.3613128662109375,-0.157928466796875
1700356791957911300,1.843911376953125,10.061813354492188,-0.3780670166015625,-0.16510009765625
1700356791967768600,1.8537685546875,10.059432983398438,-0.3828582763671875,-0.169891357421875
1700356791977625600,1.86362548828125,10.069000244140625,-0.368499755859375,-0.1746826171875
1700356791987483000,1.87348291015625,10.057037353515625,-0.380462646484375,-0.169891357421875
1700356791997340200,1.883340087890625,10.069000244140625,-0.3852386474609375,-0.1627044677734375
1700356792007197200,1.893197265625,10.059432983398438,-0.38763427734375,-0.1674957275390625
1700356792017054500,1.903054443359375,10.066604614257812,-0.380462646484375,-0.169891357421875
1700356792026911500,1.912911376953125,10.05224609375,-0.3948211669921875,-0.16510009765625
1700356792036768800,1.922768798828125,10.069000244140625,-0.392425537109375,-0.1722869873046875
1700356792046626000,1.9326259765625,10.057037353515625,-0.38763427734375,-0.1674957275390625
1700356792056483000,1.942483154296875,10.069000244140625,-0.3948211669921875,-0.1746826171875
1700356792066340400,1.95234033203125,10.066604614257812,-0.3972015380859375,-0.1603240966796875
1700356792076197400,1.962197265625,10.064208984375,-0.3852386474609375,-0.1603240966796875
1700356792086054700,1.9720546875,10.061813354492188,-0.3828582763671875,-0.1603240966796875
1700356792095912000,1.981911865234375,10.059432983398438,-0.380462646484375,-0.1674957275390625
1700356792105769000,1.99176904296875,10.061813354492188,-0.380462646484375,-0.1674957275390625
1700356792115626200,2.001626220703125,10.064208984375,-0.380462646484375,-0.1674957275390625
1700356792125483300,2.011483154296875,10.071395874023438,-0.3732757568359375,-0.16510009765625
1700356792135340500,2.021340576171875,10.064208984375,-0.380462646484375,-0.1674957275390625
1700356792145197800,2.03119775390625,10.076171875,-0.3852386474609375,-0.1722869873046875
1700356792155054800,2.041054931640625,10.066604614257812,-0.380462646484375,-0.1627044677734375
1700356792164912000,2.050912109375,10.066604614257812,-0.380462646484375,-0.16510009765625
1700356792174769200,2.06076904296875,10.057037353515625,-0.392425537109375,-0.1603240966796875
1700356792184626400,2.07062646484375,10.064208984375,-0.37567138671875,-0.1674957275390625
1700356792194483700,2.080483642578125,10.05224609375,-0.3828582763671875,-0.16510009765625
1700356792204340700,2.0903408203125,10.064208984375,-0.3852386474609375,-0.17706298828125
1700356792214198000,2.100197998046875,10.066604614257812,-0.3828582763671875,-0.1722869873046875
1700356792224055000,2.110054931640625,10.066604614257812,-0.38763427734375,-0.169891357421875
1700356792233912300,2.119912353515625,10.059432983398438,-0.3972015380859375,-0.169891357421875
1700356792243769600,2.12976953125,10.066604614257812,-0.38763427734375,-0.1722869873046875
1700356792253626600,2.139626708984375,10.061813354492188,-0.3948211669921875,-0.169891357421875
1700356792263484000,2.14948388671875,10.071395874023438,-0.3948211669921875,-0.1674957275390625
1700356792273341000,2.1593408203125,10.061813354492188,-0.38763427734375,-0.16510009765625
1700356792283198200,2.1691982421875,10.064208984375,-0.392425537109375,-0.1603240966796875
1700356792293055500,2.179055419921875,10.064208984375,-0.380462646484375,-0.1627044677734375
1700356792302912500,2.18891259765625,10.061813354492188,-0.380462646484375,-0.17706298828125
1700356792312769800,2.198769775390625,10.071395874023438,-0.37567138671875,-0.1674957275390625
1700356792322626800,2.208626708984375,10.061813354492188,-0.38763427734375,-0.16510009765625
1700356792332484000,2.218484130859375,10.066604614257812,-0.3732757568359375,-0.1627044677734375
1700356792342341400,2.22834130859375,10.061813354492188,-0.37567138671875,-0.1627044677734375
1700356792352198400,2.238198486328125,10.066604614257812,-0.380462646484375,-0.1674957275390625
1700356792362055700,2.2480556640625,10.064208984375,-0.3900299072265625,-0.16510009765625
1700356792371912700,2.25791259765625,10.059432983398438,-0.37567138671875,-0.1603240966796875
1700356792381770000,2.26777001953125,10.05224609375,-0.3852386474609375,-0.1627044677734375
1700356792391627300,2.277627197265625,10.064208984375,-0.3780670166015625,-0.16510009765625
1700356792401484300,2.287484375,10.054641723632812,-0.38763427734375,-0.16510009765625
1700356792411311000,2.29731103515625,10.078567504882812,-0.3852386474609375,-0.169891357421875
1700356792421168000,2.307168212890625,10.059432983398438,-0.3828582763671875,-0.1627044677734375
1700356792431025400,2.317025390625,10.064208984375,-0.38763427734375,-0.1603240966796875
1700356792440882400,2.32688232421875,10.061813354492188,-0.38763427734375,-0.1746826171875
1700356792450739700,2.33673974609375,10.069000244140625,-0.3828582763671875,-0.1746826171875
1700356792460597000,2.346596923828125,10.047470092773438,-0.3828582763671875,-0.1794586181640625
1700356792470454000,2.3564541015625,10.064208984375,-0.3852386474609375,-0.1674957275390625
1700356792480311300,2.366311279296875,10.057037353515625,-0.3828582763671875,-0.1627044677734375
1700356792490168300,2.376168212890625,10.071395874023438,-0.3852386474609375,-0.157928466796875
1700356792500025600,2.386025634765625,10.042678833007812,-0.3780670166015625,-0.1555328369140625
1700356792509883000,2.3958828125,10.059432983398438,-0.3852386474609375,-0.169891357421875
1700356792519740000,2.405739990234375,10.064208984375,-0.3828582763671875,-0.1674957275390625
1700356792529597200,2.41559716796875,10.064208984375,-0.380462646484375,-0.1674957275390625
1700356792539454200,2.4254541015625,10.064208984375,-0.3828582763671875,-0.157928466796875
1700356792549311500,2.4353115234375,10.069000244140625,-0.37567138671875,-0.16510009765625
1700356792559168800,2.445168701171875,10.064208984375,-0.37567138671875,-0.16510009765625
1700356792569025800,2.45502587890625,10.059432983398438,-0.3732757568359375,-0.16510009765625
1700356792578883000,2.464883056640625,10.069000244140625,-0.3852386474609375,-0.1746826171875
1700356792588740000,2.474739990234375,10.071395874023438,-0.3780670166015625,-0.16510009765625
1700356792598597400,2.484597412109375,10.061813354492188,-0.3828582763671875,-0.1674957275390625
1700356792608454700,2.49445458984375,10.059432983398438,-0.3900299072265625,-0.1722869873046875
1700356792618311700,2.504311767578125,10.064208984375,-0.3852386474609375,-0.1746826171875
1700356792628169000,2.5141689453125,10.069000244140625,-0.3780670166015625,-0.1603240966796875
1700356792638026000,2.52402587890625,10.073776245117188,-0.38763427734375,-0.169891357421875
1700356792647883300,2.53388330078125,10.078567504882812,-0.3900299072265625,-0.1674957275390625
1700356792657740500,2.543740478515625,10.069000244140625,-0.3948211669921875,-0.1674957275390625
1700356792667597600,2.55359765625,10.066604614257812,-0.38763427734375,-0.16510009765625
1700356792677454800,2.563454833984375,10.069000244140625,-0.38763427734375,-0.157928466796875
1700356792687312000,2.573311767578125,10.064208984375,-0.392425537109375,-0.1603240966796875
1700356792697169200,2.583169189453125,10.066604614257812,-0.380462646484375,-0.1674957275390625
1700356792707026400,2.5930263671875,10.064208984375,-0.3900299072265625,-0.16510009765625
1700356792716883500,2.602883544921875,10.073776245117188,-0.3828582763671875,-0.1722869873046875
1700356792726740700,2.61274072265625,10.057037353515625,-0.37567138671875,-0.1603240966796875
1700356792736597800,2.62259765625,10.066604614257812,-0.380462646484375,-0.16510009765625
1700356792746455000,2.632455078125,10.064208984375,-0.3732757568359375,-0.1674957275390625
1700356792756312300,2.642312255859375,10.069000244140625,-0.37567138671875,-0.16510009765625
1700356792766169300,2.65216943359375,10.064208984375,-0.3828582763671875,-0.1555328369140625
1700356792776026600,2.662026611328125,10.061813354492188,-0.37567138671875,-0.1674957275390625
1700356792785883600,2.671883544921875,10.076171875,-0.3852386474609375,-0.17706298828125
1700356792795741000,2.681740966796875,10.061813354492188,-0.3828582763671875,-0.1603240966796875
1700356792805598200,2.69159814453125,10.064208984375,-0.380462646484375,-0.1627044677734375
1700356792815455200,2.701455322265625,10.059432983398438,-0.3900299072265625,-0.157928466796875
1700356792825312500,2.7113125,10.066604614257812,-0.37567138671875,-0.1603240966796875
1700356792835169500,2.72116943359375,10.061813354492188,-0.3828582763671875,-0.16510009765625
1700356792845026800,2.73102685546875,10.064208984375,-0.3852386474609375,-0.1674957275390625
1700356792854884000,2.740884033203125,10.064208984375,-0.3828582763671875,-0.1674957275390625
1700356792864741000,2.7507412109375,10.066604614257812,-0.3828582763671875,-0.16510009765625
1700356792874598400,2.760598388671875,10.05224609375,-0.38763427734375,-0.1627044677734375
1700356792884455400,2.770455322265625,10.069000244140625,-0.3900299072265625,-0.1674957275390625
1700356792894312700,2.780312744140625,10.047470092773438,-0.3828582763671875,-0.1627044677734375
1700356792904170000,2.790169921875,10.064208984375,-0.3852386474609375,-0.1674957275390625
1700356792914027000,2.800027099609375,10.066604614257812,-0.3852386474609375,-0.1746826171875
1700356792923884300,2.80988427734375,10.071395874023438,-0.38763427734375,-0.157928466796875
1700356792933741300,2.8197412109375,10.059432983398438,-0.37567138671875,-0.169891357421875
1700356792943598600,2.8295986328125,10.069000244140625,-0.380462646484375,-0.1603240966796875
1700356792953455900,2.839455810546875,10.064208984375,-0.3780670166015625,-0.1627044677734375
1700356792963313000,2.84931298828125,10.071395874023438,-0.3780670166015625,-0.1627044677734375
1700356792973170200,2.859170166015625,10.064208984375,-0.3780670166015625,-0.16510009765625
1700356792983027200,2.869027099609375,10.064208984375,-0.37567138671875,-0.1674957275390625
1700356792992884500,2.878884521484375,10.057037353515625,-0.37567138671875,-0.169891357421875
1700356793002741800,2.88874169921875,10.071395874023438,-0.380462646484375,-0.1603240966796875
1700356793012598800,2.898598876953125,10.054641723632812,-0.38763427734375,-0.1555328369140625
1700356793022456000,2.9084560546875,10.061813354492188,-0.3852386474609375,-0.16510009765625
1700356793032313000,2.91831298828125,10.066604614257812,-0.3900299072265625,-0.1603240966796875
1700356793042170400,2.92817041015625,10.061813354492188,-0.380462646484375,-0.1746826171875
1700356793052027600,2.938027587890625,10.069000244140625,-0.37567138671875,-0.1722869873046875
1700356793061884700,2.947884765625,10.064208984375,-0.3900299072265625,-0.16510009765625
1700356793071742000,2.957741943359375,10.071395874023438,-0.3828582763671875,-0.169891357421875
1700356793081599000,2.967598876953125,10.057037353515625,-0.3780670166015625,-0.1627044677734375
1700356793091456300,2.977456298828125,10.061813354492188,-0.3852386474609375,-0.169891357421875
1700356793101313500,2.9873134765625,10.047470092773438,-0.38763427734375,-0.1794586181640625
1700356793111170600,2.997170654296875,10.064208984375,-0.3828582763671875,-0.1722869873046875
1700356793121027800,3.00702783203125,10.083358764648438,-0.3780670166015625,-0.157928466796875
1700356793130884900,3.016884765625,10.076171875,-0.37567138671875,-0.1627044677734375
1700356793140742100,3.0267421875,10.054641723632812,-0.370880126953125,-0.157928466796875
1700356793150599400,3.036599365234375,10.069000244140625,-0.370880126953125,-0.169891357421875
1700356793160456400,3.04645654296875,10.073776245117188,-0.3852386474609375,-0.17706298828125
1700356793170313700,3.056313720703125,10.064208984375,-0.370880126953125,-0.17706298828125
1700356793180170800,3.066170654296875,10.069000244140625,-0.3828582763671875,-0.16510009765625
1700356793190028000,3.076028076171875,10.066604614257812,-0.3780670166015625,-0.1627044677734375
1700356793199885300,3.08588525390625,10.071395874023438,-0.3852386474609375,-0.1627044677734375
1700356793209742300,3.095742431640625,10.076171875,-0.3852386474609375,-0.1603240966796875
1700356793219599600,3.105599609375,10.061813354492188,-0.3852386474609375,-0.16510009765625
1700356793229426200,3.11542626953125,10.054641723632812,-0.3828582763671875,-0.16510009765625
1700356793239283500,3.125283447265625,10.078567504882812,-0.3780670166015625,-0.1722869873046875
1700356793249140500,3.135140380859375,10.076171875,-0.380462646484375,-0.16510009765625
1700356793258997800,3.144997802734375,10.057037353515625,-0.370880126953125,-0.1794586181640625
1700356793268855000,3.15485498046875,10.05224609375,-0.3852386474609375,-0.1555328369140625
1700356793278712000,3.164712158203125,10.05224609375,-0.3852386474609375,-0.157928466796875
1700356793288569300,3.1745693359375,10.064208984375,-0.3852386474609375,-0.1627044677734375
1700356793298426400,3.18442626953125,10.071395874023438,-0.3828582763671875,-0.169891357421875
1700356793308283600,3.19428369140625,10.033111572265625,-0.380462646484375,-0.157928466796875
1700356793318141000,3.204140869140625,10.073776245117188,-0.37567138671875,-0.1722869873046875
1700356793327998000,3.213998046875,10.061813354492188,-0.3780670166015625,-0.17706298828125
1700356793337855200,3.223855224609375,10.071395874023438,-0.3780670166015625,-0.1722869873046875
1700356793347712300,3.233712158203125,10.059432983398438,-0.3780670166015625,-0.15313720703125
1700356793357569500,3.243569580078125,10.054641723632812,-0.370880126953125,-0.1674957275390625
1700356793367426800,3.2534267578125,10.066604614257812,-0.3780670166015625,-0.1722869873046875
1700356793377283800,3.263283935546875,10.069000244140625,-0.3828582763671875,-0.16510009765625
1700356793387141000,3.27314111328125,10.061813354492188,-0.37567138671875,-0.16510009765625
1700356793396998100,3.282998046875,10.069000244140625,-0.38763427734375,-0.1627044677734375
1700356793406855400,3.29285546875,10.069000244140625,-0.3732757568359375,-0.169891357421875
1700356793416712700,3.302712646484375,10.078567504882812,-0.380462646484375,-0.157928466796875
1700356793426569700,3.31256982421875,10.071395874023438,-0.3852386474609375,-0.1674957275390625
1700356793436427000,3.322427001953125,10.057037353515625,-0.380462646484375,-0.1555328369140625
1700356793446284000,3.332283935546875,10.064208984375,-0.380462646484375,-0.1603240966796875
1700356793456141300,3.342141357421875,10.064208984375,-0.3852386474609375,-0.1627044677734375
1700356793465998600,3.35199853515625,10.064208984375,-0.3828582763671875,-0.1555328369140625
1700356793475855600,3.361855712890625,10.061813354492188,-0.392425537109375,-0.157928466796875
1700356793485713000,3.371712890625,10.066604614257812,-0.38763427734375,-0.1627044677734375
1700356793495570000,3.38156982421875,10.066604614257812,-0.38763427734375,-0.169891357421875
1700356793505427200,3.39142724609375,10.059432983398438,-0.3852386474609375,-0.16510009765625
1700356793515284500,3.401284423828125,10.061813354492188,-0.3900299072265625,-0.169891357421875
1700356793525141500,3.4111416015625,10.069000244140625,-0.3852386474609375,-0.1603240966796875
1700356793534998800,3.420998779296875,10.069000244140625,-0.380462646484375,-0.1507415771484375
1700356793544855800,3.430855712890625,10.061813354492188,-0.37567138671875,-0.1603240966796875
1700356793554713000,3.440713134765625,10.066604614257812,-0.3732757568359375,-0.1674957275390625
1700356793564570400,3.4505703125,10.061813354492188,-0.37567138671875,-0.1674957275390625
1700356793574427400,3.460427490234375,10.073776245117188,-0.380462646484375,-0.16510009765625
1700356793584284700,3.47028466796875,10.061813354492188,-0.37567138671875,-0.1603240966796875
1700356793594141700,3.4801416015625,10.064208984375,-0.3900299072265625,-0.157928466796875
1700356793603999000,3.4899990234375,10.076171875,-0.3828582763671875,-0.169891357421875
1700356793613856300,3.499856201171875,10.064208984375,-0.3900299072265625,-0.169891357421875
1700356793623713300,3.50971337890625,10.069000244140625,-0.380462646484375,-0.16510009765625
1700356793633570600,3.519570556640625,10.061813354492188,-0.3852386474609375,-0.1674957275390625
1700356793643427800,3.529427734375,10.057037353515625,-0.37567138671875,-0.1603240966796875
1700356793653284900,3.539284912109375,10.076171875,-0.380462646484375,-0.1603240966796875
1700356793663142100,3.54914208984375,10.069000244140625,-0.380462646484375,-0.169891357421875
1700356793672999200,3.558999267578125,10.061813354492188,-0.38763427734375,-0.1674957275390625
1700356793682856400,3.5688564453125,10.064208984375,-0.3900299072265625,-0.1674957275390625
1700356793692713700,3.578713623046875,10.059432983398438,-0.3732757568359375,-0.1555328369140625
1700356793702570800,3.58857080078125,10.064208984375,-0.3828582763671875,-0.157928466796875
1700356793712428000,3.598427978515625,10.064208984375,-0.380462646484375,-0.16510009765625
1700356793722285000,3.60828515625,10.064208984375,-0.3828582763671875,-0.157928466796875
1700356793732142300,3.618142333984375,10.061813354492188,-0.3828582763671875,-0.169891357421875
1700356793741999600,3.62799951171875,10.066604614257812,-0.38763427734375,-0.157928466796875
1700356793751856600,3.637856689453125,10.064208984375,-0.3852386474609375,-0.16510009765625
1700356793761714000,3.6477138671875,10.061813354492188,-0.37567138671875,-0.16510009765625
1700356793771571000,3.657571044921875,10.078567504882812,-0.3852386474609375,-0.1555328369140625
1700356793781428200,3.66742822265625,10.059432983398438,-0.380462646484375,-0.169891357421875
1700356793791285500,3.677285400390625,10.064208984375,-0.3828582763671875,-0.1627044677734375
1700356793801142500,3.687142578125,10.069000244140625,-0.3900299072265625,-0.1555328369140625
1700356793810999800,3.696999755859375,10.064208984375,-0.37567138671875,-0.1627044677734375
1700356793820856800,3.70685693359375,10.078567504882812,-0.37567138671875,-0.16510009765625
1700356793830683600,3.71668359375,10.059432983398438,-0.3852386474609375,-0.1627044677734375
1700356793840540700,3.726540771484375,10.054641723632812,-0.37567138671875,-0.1555328369140625
1700356793850398000,3.73639794921875,10.069000244140625,-0.3780670166015625,-0.1674957275390625
1700356793860255200,3.746255126953125,10.073776245117188,-0.3828582763671875,-0.1674957275390625
1700356793870112300,3.7561123046875,10.066604614257812,-0.38763427734375,-0.1674957275390625
1700356793879969500,3.765969482421875,10.061813354492188,-0.3780670166015625,-0.16510009765625
1700356793889826600,3.77582666015625,10.064208984375,-0.3780670166015625,-0.16510009765625
1700356793899683800,3.785683837890625,10.069000244140625,-0.3900299072265625,-0.1722869873046875
1700356793909541000,3.795541015625,10.061813354492188,-0.3732757568359375,-0.1603240966796875
1700356793919398100,3.805398193359375,10.071395874023438,-0.38763427734375,-0.1627044677734375
1700356793929255400,3.81525537109375,10.066604614257812,-0.368499755859375,-0.1722869873046875
1700356793939112400,3.825112548828125,10.069000244140625,-0.380462646484375,-0.16510009765625
1700356793948969700,3.8349697265625,10.064208984375,-0.37567138671875,-0.169891357421875
1700356793958827000,3.844826904296875,10.071395874023438,-0.370880126953125,-0.1674957275390625
1700356793968684000,3.85468408203125,10.061813354492188,-0.37567138671875,-0.157928466796875
1700356793978541300,3.864541259765625,10.064208984375,-0.3780670166015625,-0.1627044677734375
1700356793988398300,3.8743984375,10.064208984375,-0.3972015380859375,-0.16510009765625
1700356793998255600,3.884255615234375,10.064208984375,-0.3732757568359375,-0.16510009765625
1700356794008113000,3.89411279296875,10.069000244140625,-0.3852386474609375,-0.1603240966796875
1700356794017970000,3.903969970703125,10.071395874023438,-0.3732757568359375,-0.1674957275390625
1700356794027827200,3.9138271484375,10.061813354492188,-0.380462646484375,-0.16510009765625
1700356794037684200,3.923684326171875,10.066604614257812,-0.3900299072265625,-0.1674957275390625
1700356794047541500,3.93354150390625,10.064208984375,-0.392425537109375,-0.1603240966796875
1700356794057398800,3.943398681640625,10.078567504882812,-0.3852386474609375,-0.157928466796875
1700356794067255800,3.953255859375,10.059432983398438,-0.380462646484375,-0.1674957275390625
1700356794077113000,3.963113037109375,10.066604614257812,-0.3948211669921875,-0.157928466796875
1700356794086970000,3.97297021484375,10.057037353515625,-0.3972015380859375,-0.1603240966796875
1700356794096827400,3.982827392578125,10.066604614257812,-0.3948211669921875,-0.1674957275390625
1700356794106684700,3.9926845703125,10.059432983398438,-0.38763427734375,-0.1794586181640625
1700356794116541700,4.002541748046875,10.071395874023438,-0.3852386474609375,-0.16510009765625
1700356794126399000,4.01239892578125,10.061813354492188,-0.3828582763671875,-0.1674957275390625
1700356794136256000,4.022256103515625,10.073776245117188,-0.38763427734375,-0.16510009765625
1700356794146113300,4.03211328125,10.054641723632812,-0.3948211669921875,-0.169891357421875
1700356794155970600,4.041970458984375,10.054641723632812,-0.3852386474609375,-0.1722869873046875
1700356794165827600,4.05182763671875,10.066604614257812,-0.392425537109375,-0.16510009765625
1700356794175684900,4.061684814453125,10.078567504882812,-0.380462646484375,-0.1627044677734375
1700356794185542000,4.0715419921875,10.069000244140625,-0.380462646484375,-0.1674957275390625
1700356794195399200,4.081399169921875,10.066604614257812,-0.370880126953125,-0.16510009765625
1700356794205256400,4.09125634765625,10.064208984375,-0.37567138671875,-0.169891357421875
1700356794215113500,4.101113525390625,10.066604614257812,-0.380462646484375,-0.1746826171875
1700356794224970800,4.110970703125,10.069000244140625,-0.3828582763671875,-0.1627044677734375
1700356794234827800,4.120827880859375,10.061813354492188,-0.3828582763671875,-0.16510009765625
1700356794244685000,4.13068505859375,10.08575439453125,-0.3828582763671875,-0.17706298828125
1700356794254542300,4.140542236328125,10.061813354492188,-0.3900299072265625,-0.16510009765625
1700356794264399400,4.1503994140625,10.064208984375,-0.380462646484375,-0.1674957275390625
1700356794274256600,4.160256591796875,10.054641723632812,-0.3900299072265625,-0.16510009765625
1700356794284113700,4.17011376953125,10.064208984375,-0.38763427734375,-0.1603240966796875
1700356794293971000,4.179970947265625,10.061813354492188,-0.3948211669921875,-0.1627044677734375
1700356794303828200,4.189828125,10.061813354492188,-0.3852386474609375,-0.1627044677734375
1700356794313685200,4.199685302734375,10.069000244140625,-0.3900299072265625,-0.1722869873046875
1700356794323542500,4.20954248046875,10.054641723632812,-0.3900299072265625,-0.16510009765625
1700356794333399600,4.219399658203125,10.061813354492188,-0.3852386474609375,-0.1674957275390625
1700356794343256800,4.2292568359375,10.066604614257812,-0.3852386474609375,-0.1674957275390625
1700356794353114000,4.239114013671875,10.066604614257812,-0.3828582763671875,-0.17706298828125
1700356794362971100,4.24897119140625,10.061813354492188,-0.3828582763671875,-0.1627044677734375
1700356794372828400,4.258828369140625,10.080963134765625,-0.3900299072265625,-0.16510009765625
1700356794382685400,4.268685546875,10.071395874023438,-0.3900299072265625,-0.1603240966796875
1700356794392542700,4.278542724609375,10.066604614257812,-0.3780670166015625,-0.1674957275390625
1700356794402400000,4.28839990234375,10.069000244140625,-0.380462646484375,-0.15313720703125
1700356794412257000,4.298257080078125,10.071395874023438,-0.3852386474609375,-0.16510009765625
1700356794422114300,4.3081142578125,10.069000244140625,-0.3900299072265625,-0.157928466796875
1700356794431971300,4.317971435546875,10.069000244140625,-0.3828582763671875,-0.16510009765625
1700356794441828600,4.32782861328125,10.064208984375,-0.3900299072265625,-0.16510009765625
1700356794451686000,4.337685791015625,10.064208984375,-0.368499755859375,-0.1674957275390625
1700356794461543000,4.34754296875,10.061813354492188,-0.3732757568359375,-0.1603240966796875
1700356794471400200,4.357400146484375,10.078567504882812,-0.3900299072265625,-0.1674957275390625
1700356794481257200,4.36725732421875,10.071395874023438,-0.38763427734375,-0.1674957275390625
1700356794491114500,4.377114501953125,10.069000244140625,-0.380462646484375,-0.1674957275390625
1700356794500971800,4.3869716796875,10.061813354492188,-0.38763427734375,-0.1674957275390625
1700356794510828800,4.396828857421875,10.071395874023438,-0.3828582763671875,-0.169891357421875
1700356794520686000,4.40668603515625,10.061813354492188,-0.3900299072265625,-0.169891357421875
1700356794530543000,4.416543212890625,10.069000244140625,-0.3852386474609375,-0.1674957275390625
1700356794540400400,4.426400390625,10.066604614257812,-0.37567138671875,-0.169891357421875
1700356794550257700,4.436257568359375,10.064208984375,-0.37567138671875,-0.169891357421875
1700356794560114700,4.44611474609375,10.073776245117188,-0.3780670166015625,-0.1627044677734375
1700356794569972000,4.455971923828125,10.064208984375,-0.380462646484375,-0.1746826171875
1700356794579829000,4.4658291015625,10.064208984375,-0.380462646484375,-0.169891357421875
1700356794589686300,4.475686279296875,10.061813354492188,-0.37567138671875,-0.1603240966796875
1700356794599543600,4.48554345703125,10.069000244140625,-0.3732757568359375,-0.1674957275390625
1700356794609400600,4.495400634765625,10.071395874023438,-0.380462646484375,-0.1674957275390625
1700356794619257900,4.5052578125,10.069000244140625,-0.38763427734375,-0.1627044677734375
1700356794629115000,4.515114990234375,10.071395874023438,-0.3900299072265625,-0.1555328369140625
1700356794638941700,4.524941650390625,10.064208984375,-0.380462646484375,-0.16510009765625
1700356794648798700,4.534798828125,10.071395874023438,-0.3828582763671875,-0.1746826171875
1700356794658656000,4.544656005859375,10.069000244140625,-0.3852386474609375,-0.169891357421875
1700356794668513300,4.55451318359375,10.069000244140625,-0.37567138671875,-0.1627044677734375
1700356794678370300,4.564370361328125,10.080963134765625,-0.3828582763671875,-0.1674957275390625
1700356794688227600,4.5742275390625,10.073776245117188,-0.3852386474609375,-0.169891357421875
1700356794698084600,4.584084716796875,10.078567504882812,-0.38763427734375,-0.1627044677734375
1700356794707942000,4.59394189453125,10.064208984375,-0.3828582763671875,-0.16510009765625
1700356794717799200,4.603799072265625,10.073776245117188,-0.3828582763671875,-0.16510009765625
1700356794727656200,4.61365625,10.076171875,-0.392425537109375,-0.1603240966796875
1700356794737513500,4.623513427734375,10.073776245117188,-0.38763427734375,-0.1722869873046875
1700356794747370500,4.63337060546875,10.061813354492188,-0.380462646484375,-0.1722869873046875
1700356794757227800,4.643227783203125,10.061813354492188,-0.368499755859375,-0.157928466796875
1700356794767085000,4.6530849609375,10.064208984375,-0.3780670166015625,-0.16510009765625
1700356794776942000,4.662942138671875,10.069000244140625,-0.37567138671875,-0.169891357421875
1700356794786799400,4.67279931640625,10.059432983398438,-0.3828582763671875,-0.16510009765625
1700356794796656400,4.682656494140625,10.064208984375,-0.3780670166015625,-0.1674957275390625
1700356794806513700,4.692513671875,10.066604614257812,-0.37567138671875,-0.16510009765625
1700356794816371000,4.702370849609375,10.061813354492188,-0.380462646484375,-0.1603240966796875
1700356794826228000,4.71222802734375,10.066604614257812,-0.3828582763671875,-0.16510009765625
1700356794836085200,4.722085205078125,10.071395874023438,-0.3828582763671875,-0.1603240966796875
1700356794845942300,4.7319423828125,10.066604614257812,-0.3780670166015625,-0.16510009765625
1700356794855799600,4.741799560546875,10.064208984375,-0.3780670166015625,-0.17706298828125
1700356794865656800,4.75165673828125,10.078567504882812,-0.3828582763671875,-0.169891357421875
1700356794875513900,4.761513916015625,10.054641723632812,-0.3852386474609375,-0.16510009765625
1700356794885371100,4.77137109375,10.078567504882812,-0.3852386474609375,-0.1722869873046875
1700356794895228200,4.781228271484375,10.071395874023438,-0.3828582763671875,-0.1507415771484375
1700356794905085400,4.79108544921875,10.071395874023438,-0.3852386474609375,-0.1627044677734375
1700356794914942700,4.800942626953125,10.064208984375,-0.3828582763671875,-0.16510009765625
1700356794924799700,4.8107998046875,10.05224609375,-0.380462646484375,-0.16510009765625
1700356794934657000,4.820656982421875,10.076171875,-0.3828582763671875,-0.1627044677734375
1700356794944514000,4.83051416015625,10.069000244140625,-0.3828582763671875,-0.1627044677734375
1700356794954371300,4.840371337890625,10.059432983398438,-0.370880126953125,-0.15313720703125
1700356794964228600,4.850228515625,10.066604614257812,-0.3828582763671875,-0.1674957275390625
1700356794974085600,4.860085693359375,10.054641723632812,-0.3828582763671875,-0.1674957275390625
1700356794983943000,4.86994287109375,10.064208984375,-0.380462646484375,-0.1674957275390625
1700356794993800000,4.879800048828125,10.066604614257812,-0.3852386474609375,-0.16510009765625
1700356795003657200,4.8896572265625,10.066604614257812,-0.380462646484375,-0.1722869873046875
1700356795013514500,4.899514404296875,10.059432983398438,-0.370880126953125,-0.1627044677734375
1700356795023371500,4.90937158203125,10.069000244140625,-0.3780670166015625,-0.1674957275390625
1700356795033228800,4.919228759765625,10.066604614257812,-0.380462646484375,-0.1555328369140625
1700356795043085800,4.9290859375,10.069000244140625,-0.3732757568359375,-0.1722869873046875
1700356795052943000,4.938943115234375,10.073776245117188,-0.3732757568359375,-0.16510009765625
1700356795062800400,4.94880029296875,10.061813354492188,-0.3852386474609375,-0.1603240966796875
1700356795072657400,4.958657470703125,10.066604614257812,-0.3852386474609375,-0.169891357421875
1700356795082514700,4.9685146484375,10.071395874023438,-0.38763427734375,-0.1627044677734375
1700356795092371700,4.978371826171875,10.069000244140625,-0.38763427734375,-0.15313720703125
1700356795102229000,4.98822900390625,10.071395874023438,-0.38763427734375,-0.16510009765625
1700356795112086300,4.998086181640625,10.073776245117188,-0.3780670166015625,-0.1674957275390625
1700356795121943300,5.007943359375,10.057037353515625,-0.3732757568359375,-0.1674957275390625
1700356795131800600,5.017800537109375,10.059432983398438,-0.380462646484375,-0.16510009765625
1700356795141657600,5.02765771484375,10.064208984375,-0.3780670166015625,-0.169891357421875
1700356795151515000,5.037514892578125,10.071395874023438,-0.380462646484375,-0.16510009765625
1700356795161372200,5.0473720703125,10.061813354492188,-0.3852386474609375,-0.16510009765625
1700356795171229200,5.057229248046875,10.069000244140625,-0.370880126953125,-0.157928466796875
1700356795181086500,5.06708642578125,10.073776245117188,-0.3852386474609375,-0.1674957275390625
1700356795190943500,5.076943603515625,10.064208984375,-0.3828582763671875,-0.169891357421875
1700356795200800800,5.08680078125,10.073776245117188,-0.3852386474609375,-0.157928466796875
1700356795210658000,5.096657958984375,10.061813354492188,-0.3852386474609375,-0.1722869873046875
1700356795220515000,5.10651513671875,10.064208984375,-0.3852386474609375,-0.1746826171875
1700356795230372400,5.116372314453125,10.076171875,-0.370880126953125,-0.1794586181640625
1700356795240229400,5.1262294921875,10.066604614257812,-0.380462646484375,-0.1674957275390625
1700356795250086700,5.136086669921875,10.061813354492188,-0.3780670166015625,-0.157928466796875
1700356795259913200,5.145913330078125,10.071395874023438,-0.3900299072265625,-0.1603240966796875
1700356795269770500,5.1557705078125,10.064208984375,-0.3828582763671875,-0.16510009765625
1700356795279627800,5.165627685546875,10.047470092773438,-0.3852386474609375,-0.17706298828125
1700356795289484800,5.17548486328125,10.064208984375,-0.3828582763671875,-0.157928466796875
1700356795299342000,5.185342041015625,10.064208984375,-0.38763427734375,-0.16510009765625
1700356795309199000,5.19519921875,10.069000244140625,-0.3900299072265625,-0.1555328369140625
1700356795319056400,5.205056396484375,10.061813354492188,-0.3780670166015625,-0.1722869873046875
1700356795328913700,5.21491357421875,10.071395874023438,-0.3780670166015625,-0.1603240966796875
1700356795338770700,5.224770751953125,10.066604614257812,-0.37567138671875,-0.16510009765625
1700356795348628000,5.2346279296875,10.069000244140625,-0.3780670166015625,-0.16510009765625
1700356795358485000,5.244485107421875,10.069000244140625,-0.3828582763671875,-0.169891357421875
1700356795368342300,5.25434228515625,10.066604614257812,-0.370880126953125,-0.16510009765625
1700356795378199600,5.264199462890625,10.069000244140625,-0.3828582763671875,-0.169891357421875
1700356795388056600,5.274056640625,10.064208984375,-0.368499755859375,-0.16510009765625
1700356795397913900,5.283913818359375,10.073776245117188,-0.3732757568359375,-0.1722869873046875
1700356795407771000,5.29377099609375,10.069000244140625,-0.3828582763671875,-0.16510009765625
1700356795417628200,5.303628173828125,10.066604614257812,-0.380462646484375,-0.1674957275390625
1700356795427485400,5.3134853515625,10.073776245117188,-0.3732757568359375,-0.169891357421875
1700356795437342500,5.323342529296875,10.076171875,-0.380462646484375,-0.169891357421875
1700356795447199700,5.33319970703125,10.069000244140625,-0.3732757568359375,-0.169891357421875
1700356795457056800,5.343056884765625,10.066604614257812,-0.37567138671875,-0.15313720703125
1700356795466914000,5.3529140625,10.073776245117188,-0.380462646484375,-0.1603240966796875
1700356795476771300,5.362771240234375,10.069000244140625,-0.37567138671875,-0.1674957275390625
1700356795486628400,5.37262841796875,10.076171875,-0.3780670166015625,-0.1722869873046875
1700356795496485600,5.382485595703125,10.073776245117188,-0.3852386474609375,-0.16510009765625
1700356795506342700,5.3923427734375,10.069000244140625,-0.38763427734375,-0.1842498779296875
1700356795516200000,5.402199951171875,10.073776245117188,-0.3780670166015625,-0.1674957275390625
1700356795526057200,5.41205712890625,10.066604614257812,-0.37567138671875,-0.1603240966796875
1700356795535914200,5.421914306640625,10.069000244140625,-0.38763427734375,-0.16510009765625
1700356795545771500,5.431771484375,10.061813354492188,-0.380462646484375,-0.1722869873046875
1700356795555628500,5.441628662109375,10.078567504882812,-0.3828582763671875,-0.1627044677734375
1700356795565485800,5.45148583984375,10.069000244140625,-0.3828582763671875,-0.16510009765625
1700356795575343000,5.461343017578125,10.064208984375,-0.380462646484375,-0.1674957275390625
1700356795585200000,5.4712001953125,10.066604614257812,-0.3780670166015625,-0.1603240966796875
1700356795595057400,5.481057373046875,10.071395874023438,-0.38763427734375,-0.1603240966796875
1700356795604914400,5.49091455078125,10.064208984375,-0.3828582763671875,-0.1722869873046875
1700356795614771700,5.500771728515625,10.059432983398438,-0.3828582763671875,-0.1674957275390625
1700356795624629000,5.51062890625,10.076171875,-0.3852386474609375,-0.1507415771484375
1700356795634486000,5.520486083984375,10.066604614257812,-0.3732757568359375,-0.1674957275390625
1700356795644343300,5.53034326171875,10.069000244140625,-0.3852386474609375,-0.169891357421875
1700356795654200300,5.540200439453125,10.071395874023438,-0.3661041259765625,-0.15313720703125
1700356795664057600,5.5500576171875,10.066604614257812,-0.380462646484375,-0.1603240966796875
1700356795673915000,5.559914794921875,10.076171875,-0.3900299072265625,-0.1722869873046875
1700356795683772000,5.56977197265625,10.078567504882812,-0.3900299072265625,-0.1674957275390625
1700356795693629200,5.579629150390625,10.076171875,-0.3900299072265625,-0.1746826171875
1700356795703486200,5.589486328125,10.071395874023438,-0.38763427734375,-0.1746826171875
1700356795713343500,5.599343505859375,10.069000244140625,-0.380462646484375,-0.169891357421875
1700356795723200800,5.60920068359375,10.057037353515625,-0.392425537109375,-0.1627044677734375
1700356795733057800,5.619057861328125,10.069000244140625,-0.38763427734375,-0.16510009765625
1700356795742915000,5.6289150390625,10.064208984375,-0.37567138671875,-0.1555328369140625
1700356795752772000,5.638772216796875,10.076171875,-0.37567138671875,-0.157928466796875
1700356795762629400,5.64862939453125,10.061813354492188,-0.38763427734375,-0.16510009765625
1700356795772486700,5.658486572265625,10.071395874023438,-0.380462646484375,-0.1627044677734375
1700356795782343700,5.66834375,10.061813354492188,-0.38763427734375,-0.16510009765625
1700356795792201000,5.678200927734375,10.059432983398438,-0.37567138671875,-0.169891357421875
1700356795802058000,5.68805810546875,10.064208984375,-0.380462646484375,-0.157928466796875
1700356795811915300,5.697915283203125,10.078567504882812,-0.3900299072265625,-0.17706298828125
1700356795821772500,5.7077724609375,10.064208984375,-0.380462646484375,-0.157928466796875
1700356795831629600,5.717629638671875,10.064208984375,-0.3828582763671875,-0.1674957275390625
1700356795841456400,5.727456298828125,10.069000244140625,-0.38763427734375,-0.1674957275390625
1700356795851313400,5.7373134765625,10.064208984375,-0.37567138671875,-0.1627044677734375
1700356795861201200,5.747201171875,10.071395874023438,-0.3828582763671875,-0.169891357421875
1700356795871058400,5.757058349609375,10.064208984375,-0.3828582763671875,-0.1674957275390625
1700356795880915500,5.76691552734375,10.076171875,-0.3828582763671875,-0.1674957275390625
1700356795890772700,5.776772705078125,10.061813354492188,-0.392425537109375,-0.16510009765625
1700356795900629800,5.786629638671875,10.061813354492188,-0.3828582763671875,-0.1627044677734375
1700356795910487000,5.796487060546875,10.059432983398438,-0.3852386474609375,-0.1603240966796875
1700356795920344300,5.80634423828125,10.057037353515625,-0.3828582763671875,-0.1603240966796875
1700356795930201300,5.816201416015625,10.059432983398438,-0.3828582763671875,-0.15313720703125
1700356795940058600,5.82605859375,10.069000244140625,-0.3828582763671875,-0.1627044677734375
1700356795949915600,5.83591552734375,10.073776245117188,-0.392425537109375,-0.16510009765625
1700356795959773000,5.84577294921875,10.061813354492188,-0.392425537109375,-0.1603240966796875
1700356795969630200,5.855630126953125,10.078567504882812,-0.3828582763671875,-0.1627044677734375
1700356795979487200,5.8654873046875,10.071395874023438,-0.37567138671875,-0.1722869873046875
1700356795989344500,5.875344482421875,10.073776245117188,-0.392425537109375,-0.169891357421875
1700356795999201500,5.885201416015625,10.066604614257812,-0.37567138671875,-0.1722869873046875
1700356796009058800,5.895058837890625,10.066604614257812,-0.380462646484375,-0.1746826171875
1700356796018916000,5.904916015625,10.066604614257812,-0.38763427734375,-0.1722869873046875
1700356796028773000,5.914773193359375,10.066604614257812,-0.3852386474609375,-0.169891357421875
1700356796038630400,5.92463037109375,10.071395874023438,-0.38763427734375,-0.1722869873046875
1700356796048487400,5.9344873046875,10.064208984375,-0.3828582763671875,-0.1674957275390625
1700356796058344700,5.9443447265625,10.059432983398438,-0.3828582763671875,-0.1746826171875
1700356796068202000,5.954201904296875,10.066604614257812,-0.3852386474609375,-0.16510009765625
1700356796078059000,5.96405908203125,10.059432983398438,-0.3852386474609375,-0.1722869873046875
1700356796087916300,5.973916259765625,10.064208984375,-0.3828582763671875,-0.16510009765625
1700356796097773300,5.983773193359375,10.059432983398438,-0.3900299072265625,-0.1674957275390625
1700356796107630600,5.993630615234375,10.071395874023438,-0.38763427734375,-0.157928466796875
1700356796117487900,6.00348779296875,10.059432983398438,-0.3732757568359375,-0.16510009765625
1700356796127345000,6.013344970703125,10.061813354492188,-0.3828582763671875,-0.1674957275390625
1700356796137202200,6.0232021484375,10.069000244140625,-0.3828582763671875,-0.1722869873046875
1700356796147059200,6.03305908203125,10.054641723632812,-0.3780670166015625,-0.1627044677734375
1700356796156916500,6.04291650390625,10.069000244140625,-0.3852386474609375,-0.16510009765625
1700356796166773800,6.052773681640625,10.071395874023438,-0.38763427734375,-0.16510009765625
1700356796176630800,6.062630859375,10.064208984375,-0.3900299072265625,-0.1627044677734375
1700356796186488000,6.072488037109375,10.071395874023438,-0.38763427734375,-0.16510009765625
1700356796196345000,6.082344970703125,10.059432983398438,-0.3900299072265625,-0.1674957275390625
1700356796206202400,6.092202392578125,10.066604614257812,-0.3780670166015625,-0.1722869873046875
1700356796216059600,6.1020595703125,10.066604614257812,-0.3852386474609375,-0.1746826171875
1700356796225916700,6.111916748046875,10.057037353515625,-0.380462646484375,-0.1674957275390625
1700356796235774000,6.12177392578125,10.066604614257812,-0.38763427734375,-0.1674957275390625
1700356796245631000,6.131630859375,10.073776245117188,-0.3732757568359375,-0.16510009765625
1700356796255488300,6.14148828125,10.061813354492188,-0.380462646484375,-0.1674957275390625
1700356796265343700,6.15134375,10.057037353515625,-0.3852386474609375,-0.1603240966796875
1700356796275201000,6.161200927734375,10.057037353515625,-0.380462646484375,-0.1674957275390625
1700356796285058300,6.171058349609375,10.071395874023438,-0.3828582763671875,-0.1603240966796875
1700356796294915300,6.180915283203125,10.076171875,-0.38763427734375,-0.17706298828125
1700356796304772600,6.190772705078125,10.066604614257812,-0.3948211669921875,-0.16510009765625
1700356796314629600,6.200629638671875,10.059432983398438,-0.380462646484375,-0.1674957275390625
1700356796324487000,6.21048681640625,10.061813354492188,-0.3900299072265625,-0.1746826171875
1700356796334344200,6.22034423828125,10.069000244140625,-0.368499755859375,-0.1627044677734375
1700356796344201200,6.230201171875,10.057037353515625,-0.3828582763671875,-0.1627044677734375
1700356796354058500,6.24005859375,10.066604614257812,-0.392425537109375,-0.1627044677734375
1700356796363915500,6.24991552734375,10.064208984375,-0.3780670166015625,-0.157928466796875
1700356796373772800,6.259772705078125,10.069000244140625,-0.380462646484375,-0.1603240966796875
1700356796383630000,6.269630126953125,10.061813354492188,-0.392425537109375,-0.15313720703125
1700356796393487000,6.279487060546875,10.069000244140625,-0.3732757568359375,-0.1627044677734375
1700356796403344400,6.289344482421875,10.073776245117188,-0.38763427734375,-0.1674957275390625
1700356796413201400,6.299201416015625,10.059432983398438,-0.3732757568359375,-0.1603240966796875
1700356796423058700,6.30905859375,10.073776245117188,-0.380462646484375,-0.1674957275390625
1700356796432916000,6.318916015625,10.064208984375,-0.3780670166015625,-0.16510009765625
1700356796442773000,6.32877294921875,10.080963134765625,-0.3900299072265625,-0.15313720703125
1700356796452630300,6.33863037109375,10.073776245117188,-0.380462646484375,-0.16510009765625
1700356796462487300,6.3484873046875,10.076171875,-0.3828582763671875,-0.16510009765625
1700356796472344600,6.358344482421875,10.05224609375,-0.3828582763671875,-0.169891357421875
1700356796482201900,6.368201904296875,10.073776245117188,-0.38763427734375,-0.169891357421875
1700356796492059000,6.378058837890625,10.064208984375,-0.3852386474609375,-0.1746826171875
1700356796501916200,6.387916259765625,10.071395874023438,-0.37567138671875,-0.16510009765625
1700356796511773200,6.397773193359375,10.064208984375,-0.37567138671875,-0.1746826171875
1700356796521630500,6.40763037109375,10.071395874023438,-0.37567138671875,-0.1746826171875
1700356796531487700,6.41748779296875,10.071395874023438,-0.3732757568359375,-0.15313720703125
1700356796541344800,6.4273447265625,10.069000244140625,-0.370880126953125,-0.1603240966796875
1700356796551202000,6.4372021484375,10.076171875,-0.3732757568359375,-0.1722869873046875
1700356796561059000,6.44705908203125,10.066604614257812,-0.3780670166015625,-0.169891357421875
1700356796570916400,6.456916259765625,10.066604614257812,-0.38763427734375,-0.1627044677734375
1700356796580773600,6.466773681640625,10.069000244140625,-0.3900299072265625,-0.1674957275390625
1700356796590630700,6.476630615234375,10.069000244140625,-0.38763427734375,-0.1722869873046875
1700356796600488000,6.486488037109375,10.071395874023438,-0.3780670166015625,-0.1627044677734375
1700356796610345000,6.496344970703125,10.059432983398438,-0.3780670166015625,-0.1555328369140625
1700356796620202200,6.5062021484375,10.066604614257812,-0.3828582763671875,-0.169891357421875
1700356796630059500,6.5160595703125,10.083358764648438,-0.380462646484375,-0.1627044677734375
1700356796639916500,6.52591650390625,10.073776245117188,-0.370880126953125,-0.157928466796875
1700356796649773800,6.53577392578125,10.073776245117188,-0.3780670166015625,-0.1627044677734375
1700356796659630800,6.545630859375,10.061813354492188,-0.3852386474609375,-0.1722869873046875
1700356796669488000,6.555488037109375,10.066604614257812,-0.3852386474609375,-0.1674957275390625
1700356796679345400,6.565345458984375,10.078567504882812,-0.3732757568359375,-0.1722869873046875
1700356796689202400,6.575202392578125,10.073776245117188,-0.3780670166015625,-0.16510009765625
1700356796699059700,6.585059814453125,10.066604614257812,-0.37567138671875,-0.1722869873046875
1700356796708916700,6.594916748046875,10.071395874023438,-0.380462646484375,-0.1627044677734375
1700356796718774000,6.60477392578125,10.071395874023438,-0.3852386474609375,-0.1627044677734375
1700356796728631300,6.61463134765625,10.061813354492188,-0.37567138671875,-0.1674957275390625
1700356796738488300,6.62448828125,10.061813354492188,-0.368499755859375,-0.1627044677734375
1700356796748345600,6.634345703125,10.071395874023438,-0.3828582763671875,-0.169891357421875
1700356796758202600,6.64420263671875,10.069000244140625,-0.380462646484375,-0.17706298828125
1700356796768060000,6.654059814453125,10.073776245117188,-0.3852386474609375,-0.157928466796875
1700356796777917200,6.663917236328125,10.078567504882812,-0.392425537109375,-0.1722869873046875
1700356796787774200,6.673774169921875,10.076171875,-0.3780670166015625,-0.1674957275390625
1700356796797631500,6.683631591796875,10.057037353515625,-0.3852386474609375,-0.16510009765625
1700356796807488500,6.693488525390625,10.061813354492188,-0.3828582763671875,-0.1722869873046875
1700356796817345800,6.703345703125,10.069000244140625,-0.380462646484375,-0.1674957275390625
1700356796827203000,6.713203125,10.076171875,-0.3661041259765625,-0.169891357421875
1700356796837060000,6.72306005859375,10.066604614257812,-0.3732757568359375,-0.1627044677734375
1700356796846917400,6.73291748046875,10.071395874023438,-0.38763427734375,-0.1555328369140625
1700356796856774400,6.7427744140625,10.076171875,-0.3852386474609375,-0.1603240966796875
1700356796866631700,6.752631591796875,10.071395874023438,-0.3732757568359375,-0.16510009765625
1700356796876489000,6.762489013671875,10.064208984375,-0.38763427734375,-0.157928466796875
1700356796886346000,6.772345947265625,10.061813354492188,-0.3780670166015625,-0.157928466796875
1700356796896203300,6.782203369140625,10.078567504882812,-0.3780670166015625,-0.1627044677734375
1700356796906060300,6.792060302734375,10.071395874023438,-0.380462646484375,-0.157928466796875
1700356796915917600,6.80191748046875,10.078567504882812,-0.37567138671875,-0.16510009765625
1700356796925774800,6.81177490234375,10.071395874023438,-0.3732757568359375,-0.1722869873046875
1700356796935632000,6.8216318359375,10.076171875,-0.3828582763671875,-0.1627044677734375
1700356796945489200,6.8314892578125,10.071395874023438,-0.37567138671875,-0.1674957275390625
1700356796955346200,6.84134619140625,10.061813354492188,-0.38763427734375,-0.169891357421875
1700356796965203500,6.851203369140625,10.054641723632812,-0.3900299072265625,-0.1674957275390625
1700356796975060700,6.861060791015625,10.073776245117188,-0.3852386474609375,-0.1555328369140625
1700356796984917800,6.870917724609375,10.066604614257812,-0.3852386474609375,-0.16510009765625
1700356796994775000,6.880775146484375,10.064208984375,-0.3780670166015625,-0.16510009765625
1700356797004632000,6.890632080078125,10.064208984375,-0.370880126953125,-0.1483612060546875
1700356797014489300,6.9004892578125,10.080963134765625,-0.3900299072265625,-0.17706298828125
1700356797024346600,6.9103466796875,10.069000244140625,-0.3780670166015625,-0.1555328369140625
1700356797034203600,6.92020361328125,10.080963134765625,-0.3780670166015625,-0.169891357421875
1700356797044061000,6.93006103515625,10.071395874023438,-0.3852386474609375,-0.1603240966796875
1700356797053918000,6.93991796875,10.080963134765625,-0.3852386474609375,-0.169891357421875
1700356797063775200,6.949775146484375,10.069000244140625,-0.3852386474609375,-0.169891357421875
1700356797073632500,6.959632568359375,10.066604614257812,-0.3780670166015625,-0.1746826171875
1700356797083489500,6.969489501953125,10.073776245117188,-0.380462646484375,-0.1555328369140625
1700356797093346800,6.979346923828125,10.069000244140625,-0.3828582763671875,-0.16510009765625
1700356797103203800,6.989203857421875,10.064208984375,-0.380462646484375,-0.1722869873046875
1700356797113061000,6.99906103515625,10.073776245117188,-0.368499755859375,-0.169891357421875
1700356797122918400,7.00891845703125,10.064208984375,-0.392425537109375,-0.157928466796875
1700356797132775400,7.018775390625,10.071395874023438,-0.3780670166015625,-0.181854248046875
1700356797142632700,7.0286328125,10.071395874023438,-0.38763427734375,-0.16510009765625
1700356797152489700,7.03848974609375,10.061813354492188,-0.3828582763671875,-0.1794586181640625
1700356797162347000,7.048346923828125,10.080963134765625,-0.3828582763671875,-0.1627044677734375
1700356797172204300,7.058204345703125,10.064208984375,-0.380462646484375,-0.1555328369140625
1700356797182061300,7.068061279296875,10.073776245117188,-0.3828582763671875,-0.16510009765625
1700356797191918600,7.077918701171875,10.059432983398438,-0.3852386474609375,-0.16510009765625
1700356797201775600,7.087775634765625,10.071395874023438,-0.3900299072265625,-0.1674957275390625
1700356797211633000,7.0976328125,10.066604614257812,-0.37567138671875,-0.1627044677734375
1700356797221490200,7.107490234375,10.076171875,-0.37567138671875,-0.1603240966796875
1700356797231347200,7.11734716796875,10.071395874023438,-0.380462646484375,-0.1603240966796875
1700356797241204500,7.12720458984375,10.071395874023438,-0.3732757568359375,-0.169891357421875
1700356797251061500,7.1370615234375,10.069000244140625,-0.380462646484375,-0.157928466796875
1700356797260888300,7.146888427734375,10.080963134765625,-0.3852386474609375,-0.1746826171875
1700356797270715000,7.15671484375,10.061813354492188,-0.380462646484375,-0.1674957275390625
1700356797280541700,7.166541748046875,10.08575439453125,-0.38763427734375,-0.1603240966796875
1700356797290398700,7.176398681640625,10.066604614257812,-0.380462646484375,-0.15313720703125
1700356797300256000,7.186256103515625,10.078567504882812,-0.37567138671875,-0.1674957275390625
1700356797310113000,7.196113037109375,10.061813354492188,-0.380462646484375,-0.1603240966796875
1700356797319970300,7.20597021484375,10.066604614257812,-0.3852386474609375,-0.1674957275390625
1700356797329827600,7.21582763671875,10.059432983398438,-0.3828582763671875,-0.1722869873046875
1700356797339684600,7.2256845703125,10.064208984375,-0.3732757568359375,-0.1603240966796875
1700356797349542000,7.2355419921875,10.066604614257812,-0.37567138671875,-0.1603240966796875
1700356797359399000,7.24539892578125,10.073776245117188,-0.392425537109375,-0.1674957275390625
1700356797369256200,7.255256103515625,10.059432983398438,-0.380462646484375,-0.1722869873046875
1700356797379113500,7.265113525390625,10.061813354492188,-0.3900299072265625,-0.1746826171875
1700356797388970500,7.274970458984375,10.073776245117188,-0.380462646484375,-0.1722869873046875
1700356797398827800,7.284827880859375,10.073776245117188,-0.3828582763671875,-0.1627044677734375
1700356797408684800,7.294684814453125,10.069000244140625,-0.380462646484375,-0.16510009765625
1700356797418542000,7.3045419921875,10.078567504882812,-0.3900299072265625,-0.157928466796875
1700356797428399400,7.3143994140625,10.073776245117188,-0.3780670166015625,-0.1674957275390625
1700356797438256400,7.32425634765625,10.064208984375,-0.380462646484375,-0.169891357421875
1700356797448113700,7.33411376953125,10.080963134765625,-0.380462646484375,-0.16510009765625
1700356797457970700,7.343970703125,10.064208984375,-0.3900299072265625,-0.1603240966796875
1700356797467828000,7.353827880859375,10.069000244140625,-0.3828582763671875,-0.16510009765625
1700356797477685200,7.363685302734375,10.073776245117188,-0.38763427734375,-0.1603240966796875
1700356797487542300,7.373542236328125,10.073776245117188,-0.380462646484375,-0.1674957275390625
1700356797497399600,7.383399658203125,10.066604614257812,-0.392425537109375,-0.1627044677734375
1700356797507256600,7.393256591796875,10.073776245117188,-0.3780670166015625,-0.169891357421875
1700356797517113900,7.40311376953125,10.073776245117188,-0.370880126953125,-0.169891357421875
1700356797526971100,7.41297119140625,10.076171875,-0.3852386474609375,-0.1674957275390625
1700356797536828200,7.422828125,10.064208984375,-0.3828582763671875,-0.1627044677734375
1700356797546685400,7.432685546875,10.071395874023438,-0.37567138671875,-0.1627044677734375
1700356797556542500,7.44254248046875,10.064208984375,-0.3828582763671875,-0.157928466796875
1700356797566399700,7.452399658203125,10.071395874023438,-0.380462646484375,-0.1627044677734375
1700356797576257000,7.462257080078125,10.054641723632812,-0.3900299072265625,-0.16510009765625
1700356797586114000,7.472114013671875,10.069000244140625,-0.380462646484375,-0.1722869873046875
1700356797595971300,7.481971435546875,10.073776245117188,-0.3828582763671875,-0.1603240966796875
1700356797605828400,7.491828369140625,10.066604614257812,-0.3732757568359375,-0.169891357421875
1700356797615685600,7.501685546875,10.080963134765625,-0.38763427734375,-0.169891357421875
1700356797625543000,7.51154296875,10.069000244140625,-0.38763427734375,-0.16510009765625
1700356797635400000,7.52139990234375,10.064208984375,-0.3852386474609375,-0.16510009765625
1700356797645257200,7.53125732421875,10.071395874023438,-0.3852386474609375,-0.17706298828125
1700356797655114200,7.5411142578125,10.066604614257812,-0.3852386474609375,-0.157928466796875
1700356797664971500,7.550971435546875,10.066604614257812,-0.3780670166015625,-0.1722869873046875
1700356797674828800,7.560828857421875,10.069000244140625,-0.37567138671875,-0.1674957275390625
1700356797684685800,7.570685791015625,10.066604614257812,-0.38763427734375,-0.16510009765625
1700356797694543000,7.580543212890625,10.080963134765625,-0.380462646484375,-0.157928466796875
1700356797704400100,7.590400146484375,10.069000244140625,-0.3852386474609375,-0.1627044677734375
1700356797714257400,7.60025732421875,10.069000244140625,-0.380462646484375,-0.1674957275390625
1700356797724114700,7.61011474609375,10.059432983398438,-0.3900299072265625,-0.1603240966796875
1700356797733971700,7.6199716796875,10.071395874023438,-0.380462646484375,-0.157928466796875
1700356797743829000,7.6298291015625,10.080963134765625,-0.380462646484375,-0.1603240966796875
1700356797753686000,7.63968603515625,10.069000244140625,-0.380462646484375,-0.1627044677734375
1700356797763543300,7.649543212890625,10.069000244140625,-0.380462646484375,-0.1627044677734375
1700356797773400600,7.659400634765625,10.071395874023438,-0.3852386474609375,-0.169891357421875
1700356797783257600,7.669257568359375,10.059432983398438,-0.392425537109375,-0.1555328369140625
1700356797793115000,7.679114990234375,10.059432983398438,-0.3780670166015625,-0.1603240966796875
1700356797802972000,7.688971923828125,10.073776245117188,-0.3852386474609375,-0.1627044677734375
1700356797812829200,7.6988291015625,10.073776245117188,-0.38763427734375,-0.1722869873046875
1700356797822686500,7.7086865234375,10.069000244140625,-0.3852386474609375,-0.1674957275390625
1700356797832543500,7.71854345703125,10.069000244140625,-0.3780670166015625,-0.169891357421875
1700356797842400800,7.72840087890625,10.069000244140625,-0.3852386474609375,-0.1603240966796875
1700356797852257800,7.7382578125,10.057037353515625,-0.392425537109375,-0.157928466796875
1700356797862115000,7.748114990234375,10.073776245117188,-0.3780670166015625,-0.1627044677734375
1700356797871972400,7.757972412109375,10.05224609375,-0.3732757568359375,-0.169891357421875
1700356797881829400,7.767829345703125,10.078567504882812,-0.37567138671875,-0.1746826171875
1700356797891686700,7.777686767578125,10.066604614257812,-0.3780670166015625,-0.1627044677734375
1700356797901543700,7.787543701171875,10.073776245117188,-0.37567138671875,-0.169891357421875
1700356797911401000,7.79740087890625,10.066604614257812,-0.3780670166015625,-0.1627044677734375
1700356797921258200,7.80725830078125,10.064208984375,-0.3852386474609375,-0.16510009765625
1700356797931115300,7.817115234375,10.066604614257812,-0.3780670166015625,-0.1627044677734375
1700356797940972500,7.82697265625,10.073776245117188,-0.3852386474609375,-0.1674957275390625
1700356797950829600,7.83682958984375,10.071395874023438,-0.3828582763671875,-0.16510009765625
1700356797960686800,7.846686767578125,10.073776245117188,-0.37567138671875,-0.1722869873046875
1700356797970544000,7.856544189453125,10.061813354492188,-0.3852386474609375,-0.1627044677734375
1700356797980401200,7.866401123046875,10.066604614257812,-0.3828582763671875,-0.169891357421875
1700356797990258400,7.876258544921875,10.064208984375,-0.3732757568359375,-0.1722869873046875
1700356798000115500,7.886115478515625,10.073776245117188,-0.3828582763671875,-0.16510009765625
1700356798009972700,7.89597265625,10.080963134765625,-0.3828582763671875,-0.16510009765625
1700356798019830000,7.905830078125,10.064208984375,-0.38763427734375,-0.16510009765625
1700356798029687000,7.91568701171875,10.066604614257812,-0.3852386474609375,-0.1674957275390625
1700356798039544300,7.92554443359375,10.069000244140625,-0.380462646484375,-0.1627044677734375
1700356798049401300,7.9354013671875,10.073776245117188,-0.3852386474609375,-0.1603240966796875
1700356798059258600,7.945258544921875,10.064208984375,-0.3852386474609375,-0.15313720703125
1700356798069116000,7.955115966796875,10.071395874023438,-0.3732757568359375,-0.1555328369140625
1700356798078973000,7.964972900390625,10.071395874023438,-0.380462646484375,-0.169891357421875
1700356798088799700,7.9747998046875,10.083358764648438,-0.3732757568359375,-0.157928466796875
1700356798098656800,7.98465673828125,10.066604614257812,-0.3780670166015625,-0.1627044677734375
1700356798108514000,7.99451416015625,10.073776245117188,-0.37567138671875,-0.16510009765625
1700356798118371000,8.00437109375,10.066604614257812,-0.3852386474609375,-0.1627044677734375
1700356798128228400,8.014228271484376,10.071395874023438,-0.370880126953125,-0.1627044677734375
1700356798138085600,8.024085693359375,10.073776245117188,-0.3900299072265625,-0.16510009765625
1700356798147942700,8.033942626953126,10.076171875,-0.380462646484375,-0.16510009765625
1700356798157800000,8.043800048828125,10.069000244140625,-0.380462646484375,-0.1627044677734375
1700356798167657000,8.053656982421876,10.071395874023438,-0.3900299072265625,-0.1674957275390625
1700356798177514200,8.06351416015625,10.076171875,-0.3828582763671875,-0.169891357421875
1700356798187371500,8.07337158203125,10.069000244140625,-0.380462646484375,-0.1603240966796875
1700356798197228500,8.083228515625,10.078567504882812,-0.38763427734375,-0.1627044677734375
1700356798207085800,8.0930859375,10.057037353515625,-0.3900299072265625,-0.157928466796875
1700356798216942800,8.10294287109375,10.071395874023438,-0.3852386474609375,-0.1674957275390625
1700356798226800000,8.112800048828126,10.069000244140625,-0.3900299072265625,-0.1674957275390625
1700356798236657400,8.122657470703125,10.069000244140625,-0.37567138671875,-0.1507415771484375
1700356798246514400,8.132514404296876,10.066604614257812,-0.3780670166015625,-0.1627044677734375
1700356798256371700,8.142371826171875,10.061813354492188,-0.38763427734375,-0.17706298828125
1700356798266228700,8.152228759765626,10.059432983398438,-0.3828582763671875,-0.169891357421875
1700356798276086000,8.1620859375,10.076171875,-0.380462646484375,-0.16510009765625
1700356798285943300,8.171943359375,10.073776245117188,-0.3780670166015625,-0.1555328369140625
1700356798295800300,8.18180029296875,10.08575439453125,-0.3780670166015625,-0.1627044677734375
1700356798305657600,8.19165771484375,10.059432983398438,-0.3732757568359375,-0.1603240966796875
1700356798315514600,8.2015146484375,10.073776245117188,-0.380462646484375,-0.1603240966796875
1700356798325372000,8.211371826171876,10.061813354492188,-0.3828582763671875,-0.16510009765625
1700356798335229200,8.221229248046875,10.064208984375,-0.3828582763671875,-0.16510009765625
1700356798345086200,8.231086181640626,10.059432983398438,-0.3828582763671875,-0.1674957275390625
1700356798354943500,8.240943603515625,10.064208984375,-0.3828582763671875,-0.169891357421875
1700356798364800500,8.250800537109376,10.057037353515625,-0.3732757568359375,-0.1603240966796875
1700356798374657800,8.26065771484375,10.061813354492188,-0.3828582763671875,-0.1674957275390625
1700356798384515000,8.27051513671875,10.061813354492188,-0.3900299072265625,-0.169891357421875
1700356798394372000,8.2803720703125,10.073776245117188,-0.37567138671875,-0.16510009765625
1700356798404229400,8.2902294921875,10.066604614257812,-0.3852386474609375,-0.1603240966796875
1700356798414086400,8.30008642578125,10.059432983398438,-0.380462646484375,-0.1722869873046875
1700356798423943700,8.309943603515626,10.059432983398438,-0.3852386474609375,-0.169891357421875
1700356798433801000,8.319801025390625,10.071395874023438,-0.380462646484375,-0.16510009765625
1700356798443658000,8.329657958984376,10.073776245117188,-0.3828582763671875,-0.157928466796875
1700356798453515300,8.339515380859375,10.054641723632812,-0.38763427734375,-0.1627044677734375
1700356798463372300,8.349372314453126,10.066604614257812,-0.380462646484375,-0.1674957275390625
1700356798473229600,8.3592294921875,10.071395874023438,-0.37567138671875,-0.1746826171875
1700356798483086800,8.3690869140625,10.064208984375,-0.3828582763671875,-0.1674957275390625
1700356798492944000,8.37894384765625,10.069000244140625,-0.380462646484375,-0.1555328369140625
1700356798502801200,8.38880126953125,10.076171875,-0.3780670166015625,-0.169891357421875
1700356798512658200,8.398658203125,10.069000244140625,-0.37567138671875,-0.1627044677734375
1700356798522515500,8.408515380859376,10.061813354492188,-0.3852386474609375,-0.169891357421875
1700356798532372700,8.418372802734375,10.064208984375,-0.3828582763671875,-0.1722869873046875
1700356798542229800,8.428229736328126,10.073776245117188,-0.38763427734375,-0.169891357421875
1700356798552087000,8.438087158203125,10.073776245117188,-0.370880126953125,-0.157928466796875
1700356798561944000,8.447944091796876,10.078567504882812,-0.38763427734375,-0.1746826171875
1700356798571801300,8.45780126953125,10.064208984375,-0.380462646484375,-0.1555328369140625
1700356798581658600,8.46765869140625,10.073776245117188,-0.3780670166015625,-0.169891357421875
1700356798591515600,8.477515625,10.066604614257812,-0.3780670166015625,-0.16510009765625
1700356798601373000,8.487373046875,10.071395874023438,-0.3972015380859375,-0.16510009765625
1700356798611230000,8.49722998046875,10.066604614257812,-0.3900299072265625,-0.1674957275390625
1700356798621087200,8.507087158203126,10.071395874023438,-0.3828582763671875,-0.1603240966796875
1700356798630944500,8.516944580078125,10.059432983398438,-0.38763427734375,-0.16510009765625
1700356798640801500,8.526801513671876,10.061813354492188,-0.380462646484375,-0.169891357421875
1700356798650658800,8.536658935546875,10.069000244140625,-0.3828582763671875,-0.16510009765625
1700356798660515800,8.546515869140626,10.066604614257812,-0.3780670166015625,-0.1722869873046875
1700356798670373000,8.556373046875,10.061813354492188,-0.37567138671875,-0.1674957275390625
1700356798680199700,8.56619970703125,10.071395874023438,-0.380462646484375,-0.1722869873046875
1700356798690057000,8.576056884765626,10.061813354492188,-0.3828582763671875,-0.1603240966796875
1700356798699914200,8.585914306640625,10.066604614257812,-0.37567138671875,-0.16510009765625
1700356798709771300,8.595771240234376,10.066604614257812,-0.380462646484375,-0.1722869873046875
1700356798719628500,8.605628662109375,10.073776245117188,-0.3661041259765625,-0.1627044677734375
1700356798729485600,8.615485595703126,10.066604614257812,-0.3900299072265625,-0.1627044677734375
1700356798739342800,8.6253427734375,10.066604614257812,-0.370880126953125,-0.1603240966796875
1700356798749200100,8.6352001953125,10.073776245117188,-0.3852386474609375,-0.1722869873046875
1700356798759057200,8.64505712890625,10.064208984375,-0.3852386474609375,-0.1627044677734375
1700356798768914400,8.65491455078125,10.078567504882812,-0.380462646484375,-0.1746826171875
1700356798778771500,8.664771484375,10.064208984375,-0.380462646484375,-0.169891357421875
1700356798788628700,8.674628662109376,10.076171875,-0.3828582763671875,-0.1722869873046875
1700356798798486000,8.684486083984375,10.069000244140625,-0.3948211669921875,-0.1722869873046875
1700356798808343000,8.694343017578126,10.064208984375,-0.380462646484375,-0.1627044677734375
1700356798818200300,8.704200439453125,10.071395874023438,-0.3828582763671875,-0.16510009765625
1700356798828057300,8.714057373046876,10.066604614257812,-0.380462646484375,-0.1627044677734375
1700356798837914600,8.72391455078125,10.061813354492188,-0.3852386474609375,-0.16510009765625
1700356798847772000,8.73377197265625,10.073776245117188,-0.3852386474609375,-0.1722869873046875
1700356798857629000,8.74362890625,10.069000244140625,-0.3780670166015625,-0.1722869873046875
1700356798867486200,8.753486328125,10.078567504882812,-0.38763427734375,-0.1674957275390625
1700356798877343200,8.76334326171875,10.071395874023438,-0.38763427734375,-0.16510009765625
1700356798887200500,8.773200439453126,10.069000244140625,-0.3780670166015625,-0.1603240966796875
1700356798897057800,8.783057861328125,10.069000244140625,-0.380462646484375,-0.1674957275390625
1700356798906914800,8.792914794921876,10.078567504882812,-0.3780670166015625,-0.157928466796875
1700356798916772000,8.802772216796875,10.083358764648438,-0.3852386474609375,-0.1603240966796875
1700356798926629000,8.812629150390626,10.069000244140625,-0.380462646484375,-0.15313720703125
1700356798936486400,8.822486328125,10.066604614257812,-0.37567138671875,-0.15313720703125
1700356798946343700,8.83234375,10.069000244140625,-0.3852386474609375,-0.1722869873046875
1700356798956200700,8.84220068359375,10.071395874023438,-0.3828582763671875,-0.16510009765625
1700356798966058000,8.85205810546875,10.064208984375,-0.3852386474609375,-0.1603240966796875
1700356798975915000,8.8619150390625,10.073776245117188,-0.3780670166015625,-0.1603240966796875
1700356798985772300,8.871772216796876,10.071395874023438,-0.3828582763671875,-0.169891357421875
1700356798995629600,8.881629638671875,10.078567504882812,-0.380462646484375,-0.16510009765625
1700356799005486600,8.891486572265626,10.066604614257812,-0.3852386474609375,-0.16510009765625
1700356799015343900,8.90134375,10.076171875,-0.3852386474609375,-0.15313720703125
1700356799025201000,8.911200927734376,10.071395874023438,-0.3852386474609375,-0.1603240966796875
1700356799035058200,8.92105810546875,10.076171875,-0.380462646484375,-0.17706298828125
1700356799044915500,8.93091552734375,10.069000244140625,-0.3900299072265625,-0.1722869873046875
1700356799054772500,8.9407724609375,10.076171875,-0.37567138671875,-0.169891357421875
1700356799064629800,8.950629638671876,10.080963134765625,-0.3732757568359375,-0.169891357421875
1700356799074486800,8.96048681640625,10.061813354492188,-0.3780670166015625,-0.1674957275390625
1700356799084344000,8.970343994140626,10.073776245117188,-0.380462646484375,-0.169891357421875
1700356799094201300,8.980201416015625,10.069000244140625,-0.3828582763671875,-0.1674957275390625
1700356799104058400,8.990058349609376,10.069000244140625,-0.3852386474609375,-0.1722869873046875
1700356799113915600,8.99991552734375,10.059432983398438,-0.380462646484375,-0.1627044677734375
1700356799123772700,9.009772705078126,10.069000244140625,-0.3661041259765625,-0.1627044677734375
1700356799133630000,9.0196298828125,10.061813354492188,-0.370880126953125,-0.15313720703125
1700356799143487200,9.0294873046875,10.059432983398438,-0.3780670166015625,-0.1603240966796875
1700356799153344300,9.03934423828125,10.057037353515625,-0.370880126953125,-0.157928466796875
1700356799163201500,9.049201416015626,10.069000244140625,-0.3828582763671875,-0.1603240966796875
1700356799173058600,9.05905859375,10.071395874023438,-0.380462646484375,-0.1555328369140625
1700356799182915800,9.068915771484376,10.064208984375,-0.37567138671875,-0.169891357421875
1700356799192773000,9.078773193359375,10.069000244140625,-0.3852386474609375,-0.157928466796875
1700356799202630100,9.088630126953126,10.071395874023438,-0.380462646484375,-0.16510009765625
1700356799212487400,9.0984873046875,10.066604614257812,-0.37567138671875,-0.1674957275390625
1700356799222344400,9.108344482421876,10.076171875,-0.3828582763671875,-0.157928466796875
1700356799232201700,9.11820166015625,10.064208984375,-0.3732757568359375,-0.1627044677734375
1700356799242059000,9.12805908203125,10.071395874023438,-0.380462646484375,-0.1674957275390625
1700356799251916000,9.137916015625,10.083358764648438,-0.380462646484375,-0.1674957275390625
1700356799261773300,9.147773193359376,10.078567504882812,-0.3780670166015625,-0.1627044677734375
1700356799271630300,9.15763037109375,10.076171875,-0.392425537109375,-0.16510009765625
1700356799281487600,9.167487548828126,10.069000244140625,-0.3780670166015625,-0.1627044677734375
1700356799291345000,9.177344970703125,10.064208984375,-0.38763427734375,-0.15313720703125
1700356799301202000,9.187201904296876,10.066604614257812,-0.3780670166015625,-0.157928466796875
1700356799311059200,9.19705908203125,10.064208984375,-0.37567138671875,-0.157928466796875
1700356799320916200,9.206916259765626,10.073776245117188,-0.37567138671875,-0.1555328369140625
1700356799330773500,9.2167734375,10.073776245117188,-0.380462646484375,-0.1674957275390625
1700356799340630800,9.226630859375,10.066604614257812,-0.3900299072265625,-0.16510009765625
1700356799350487800,9.23648779296875,10.071395874023438,-0.3780670166015625,-0.1627044677734375
1700356799360345000,9.246344970703126,10.054641723632812,-0.3852386474609375,-0.169891357421875
1700356799370202000,9.2562021484375,10.061813354492188,-0.37567138671875,-0.169891357421875
1700356799380059400,9.266059326171876,10.064208984375,-0.392425537109375,-0.169891357421875
1700356799389916700,9.275916748046875,10.078567504882812,-0.380462646484375,-0.16510009765625
1700356799399773700,9.285773681640626,10.059432983398438,-0.368499755859375,-0.1674957275390625
1700356799409631000,9.295630859375,10.071395874023438,-0.3852386474609375,-0.16510009765625
1700356799419488000,9.305488037109376,10.071395874023438,-0.38763427734375,-0.1674957275390625
1700356799429345300,9.31534521484375,10.076171875,-0.380462646484375,-0.16510009765625
1700356799439202600,9.32520263671875,10.066604614257812,-0.3780670166015625,-0.16510009765625
1700356799449059600,9.3350595703125,10.061813354492188,-0.37567138671875,-0.16510009765625
1700356799458916900,9.344916748046876,10.066604614257812,-0.380462646484375,-0.1603240966796875
1700356799468774000,9.35477392578125,10.061813354492188,-0.370880126953125,-0.157928466796875
1700356799478631200,9.364631103515626,10.080963134765625,-0.38763427734375,-0.1722869873046875
1700356799488488400,9.374488525390625,10.059432983398438,-0.380462646484375,-0.1746826171875
1700356799498345500,9.384345458984376,10.071395874023438,-0.38763427734375,-0.16510009765625
1700356799508172300,9.39417236328125,10.071395874023438,-0.3852386474609375,-0.1627044677734375
1700356799518029300,9.404029296875,10.071395874023438,-0.3828582763671875,-0.1722869873046875
1700356799527886600,9.413886474609376,10.071395874023438,-0.3828582763671875,-0.1746826171875
1700356799537743600,9.42374365234375,10.078567504882812,-0.37567138671875,-0.1722869873046875
1700356799547601000,9.433600830078126,10.071395874023438,-0.3828582763671875,-0.1674957275390625
1700356799557458200,9.443458251953125,10.073776245117188,-0.3828582763671875,-0.1627044677734375
1700356799567315200,9.453315185546876,10.073776245117188,-0.370880126953125,-0.1674957275390625
1700356799577172500,9.46317236328125,10.071395874023438,-0.380462646484375,-0.16510009765625
1700356799587029500,9.473029541015626,10.071395874023438,-0.3732757568359375,-0.157928466796875
1700356799596886800,9.48288671875,10.076171875,-0.37567138671875,-0.1603240966796875
1700356799606744000,9.492744140625,10.069000244140625,-0.3852386474609375,-0.1603240966796875
1700356799616601000,9.50260107421875,10.083358764648438,-0.3900299072265625,-0.169891357421875
1700356799626458400,9.512458251953126,10.064208984375,-0.37567138671875,-0.16510009765625
1700356799636315400,9.5223154296875,10.078567504882812,-0.3732757568359375,-0.1627044677734375
1700356799646172700,9.532172607421876,10.076171875,-0.3828582763671875,-0.16510009765625
1700356799656030000,9.542030029296875,10.078567504882812,-0.37567138671875,-0.16510009765625
1700356799665887000,9.551886962890626,10.073776245117188,-0.380462646484375,-0.1674957275390625
1700356799675744300,9.561744140625,10.069000244140625,-0.370880126953125,-0.169891357421875
1700356799685601300,9.571601318359376,10.071395874023438,-0.3732757568359375,-0.1674957275390625
1700356799695458600,9.58145849609375,10.066604614257812,-0.3732757568359375,-0.1674957275390625
1700356799705315800,9.59131591796875,10.064208984375,-0.3780670166015625,-0.16510009765625
1700356799715172900,9.6011728515625,10.066604614257812,-0.3828582763671875,-0.1674957275390625
1700356799725030100,9.611030029296876,10.076171875,-0.3900299072265625,-0.1603240966796875
1700356799734887200,9.62088720703125,10.069000244140625,-0.3828582763671875,-0.1674957275390625
1700356799744744400,9.630744384765626,10.069000244140625,-0.3900299072265625,-0.1627044677734375
1700356799754601700,9.640601806640625,10.061813354492188,-0.3828582763671875,-0.1674957275390625
1700356799764458800,9.650458740234376,10.071395874023438,-0.3732757568359375,-0.157928466796875
1700356799774316000,9.66031591796875,10.076171875,-0.380462646484375,-0.1746826171875
1700356799784173000,9.670173095703126,10.061813354492188,-0.370880126953125,-0.17706298828125
1700356799794030300,9.6800302734375,10.076171875,-0.3828582763671875,-0.169891357421875
1700356799803887600,9.6898876953125,10.059432983398438,-0.380462646484375,-0.1627044677734375
1700356799813744600,9.69974462890625,10.073776245117188,-0.3852386474609375,-0.1603240966796875
1700356799823602000,9.709601806640626,10.078567504882812,-0.3828582763671875,-0.1555328369140625
1700356799833459000,9.719458984375,10.071395874023438,-0.37567138671875,-0.157928466796875
1700356799843316200,9.729316162109376,10.069000244140625,-0.3852386474609375,-0.1674957275390625
1700356799853173500,9.739173583984375,10.076171875,-0.3828582763671875,-0.1674957275390625
1700356799863030500,9.749030517578126,10.071395874023438,-0.3852386474609375,-0.17706298828125
1700356799872887800,9.7588876953125,10.071395874023438,-0.38763427734375,-0.1674957275390625
1700356799882744800,9.768744873046876,10.076171875,-0.3732757568359375,-0.1674957275390625
1700356799892602000,9.77860205078125,10.061813354492188,-0.3780670166015625,-0.1674957275390625
1700356799902459400,9.78845947265625,10.080963134765625,-0.37567138671875,-0.1674957275390625
1700356799912316400,9.79831640625,10.059432983398438,-0.37567138671875,-0.16510009765625
1700356799922173700,9.808173583984376,10.061813354492188,-0.3828582763671875,-0.1722869873046875
1700356799932030700,9.81803076171875,10.078567504882812,-0.3948211669921875,-0.15313720703125
1700356799941888000,9.827887939453126,10.080963134765625,-0.38763427734375,-0.1603240966796875
1700356799951745300,9.837745361328125,10.069000244140625,-0.3780670166015625,-0.16510009765625
1700356799961602300,9.847602294921876,10.078567504882812,-0.3732757568359375,-0.181854248046875
1700356799971459600,9.85745947265625,10.066604614257812,-0.380462646484375,-0.1674957275390625
1700356799981316600,9.867316650390626,10.080963134765625,-0.370880126953125,-0.1746826171875
1700356799991174000,9.877173828125,10.071395874023438,-0.37567138671875,-0.1674957275390625
1700356800001031200,9.88703125,10.066604614257812,-0.3828582763671875,-0.1627044677734375
1700356800010888200,9.89688818359375,10.076171875,-0.3828582763671875,-0.1627044677734375
1700356800020745500,9.906745361328126,10.071395874023438,-0.3900299072265625,-0.1674957275390625
1700356800030602500,9.9166025390625,10.069000244140625,-0.3780670166015625,-0.17706298828125
1700356800040459800,9.926459716796876,10.064208984375,-0.38763427734375,-0.1722869873046875
1700356800050317000,9.936317138671875,10.080963134765625,-0.3828582763671875,-0.16510009765625
1700356800060174000,9.946174072265626,10.069000244140625,-0.380462646484375,-0.157928466796875
1700356800070031400,9.95603125,10.071395874023438,-0.37567138671875,-0.16510009765625
1700356800079888400,9.965888427734376,10.071395874023438,-0.3732757568359375,-0.1555328369140625
1700356800089745700,9.97574560546875,10.069000244140625,-0.3828582763671875,-0.1555328369140625
1700356800099572200,9.985572265625,10.073776245117188,-0.3780670166015625,-0.1722869873046875
1700356800109429500,9.995429443359376,10.078567504882812,-0.3852386474609375,-0.157928466796875
1700356800119286800,10.005286865234375,10.061813354492188,-0.3828582763671875,-0.157928466796875
1700356800129143800,10.015143798828126,10.083358764648438,-0.3828582763671875,-0.169891357421875
1700356800139001000,10.0250009765625,10.071395874023438,-0.3780670166015625,-0.1722869873046875
1700356800148858000,10.034858154296876,10.083358764648438,-0.380462646484375,-0.1722869873046875
1700356800158715400,10.04471533203125,10.066604614257812,-0.3780670166015625,-0.169891357421875
1700356800168572700,10.05457275390625,10.061813354492188,-0.3780670166015625,-0.1722869873046875
1700356800178429700,10.0644296875,10.078567504882812,-0.37567138671875,-0.1627044677734375
1700356800188287000,10.074286865234376,10.078567504882812,-0.37567138671875,-0.169891357421875
1700356800198144000,10.08414404296875,10.059432983398438,-0.38763427734375,-0.1722869873046875
1700356800208001300,10.094001220703126,10.066604614257812,-0.3828582763671875,-0.16510009765625
1700356800217858600,10.103858642578125,10.071395874023438,-0.392425537109375,-0.15313720703125
1700356800227715600,10.113715576171876,10.061813354492188,-0.3828582763671875,-0.1627044677734375
1700356800237572900,10.12357275390625,10.076171875,-0.380462646484375,-0.1603240966796875
1700356800247430100,10.13343017578125,10.083358764648438,-0.380462646484375,-0.1674957275390625
1700356800257287200,10.143287109375,10.069000244140625,-0.3780670166015625,-0.1794586181640625
1700356800267144400,10.15314453125,10.069000244140625,-0.3828582763671875,-0.17706298828125
1700356800277001500,10.16300146484375,10.069000244140625,-0.37567138671875,-0.16510009765625
1700356800286858800,10.172858642578126,10.071395874023438,-0.3828582763671875,-0.1674957275390625
1700356800296716000,10.182716064453125,10.061813354492188,-0.3828582763671875,-0.1555328369140625
1700356800306573000,10.192572998046876,10.066604614257812,-0.3900299072265625,-0.157928466796875
1700356800316430300,10.202430419921875,10.078567504882812,-0.380462646484375,-0.1722869873046875
1700356800326287400,10.212287353515626,10.066604614257812,-0.3900299072265625,-0.16510009765625
1700356800336144600,10.22214453125,10.066604614257812,-0.37567138671875,-0.1627044677734375
1700356800346002000,10.232001953125,10.073776245117188,-0.3852386474609375,-0.169891357421875
1700356800355859000,10.24185888671875,10.076171875,-0.3852386474609375,-0.1627044677734375
1700356800365716200,10.25171630859375,10.076171875,-0.3780670166015625,-0.1674957275390625
1700356800375573200,10.2615732421875,10.064208984375,-0.38763427734375,-0.15313720703125
1700356800385430500,10.271430419921876,10.059432983398438,-0.3852386474609375,-0.1627044677734375
1700356800395287800,10.281287841796875,10.057037353515625,-0.370880126953125,-0.169891357421875
1700356800405144800,10.291144775390626,10.066604614257812,-0.3900299072265625,-0.1627044677734375
1700356800415002000,10.301002197265625,10.069000244140625,-0.380462646484375,-0.16510009765625
1700356800424859100,10.310859130859376,10.073776245117188,-0.3780670166015625,-0.16510009765625
1700356800434716400,10.32071630859375,10.073776245117188,-0.3900299072265625,-0.1603240966796875
1700356800444573700,10.33057373046875,10.071395874023438,-0.38763427734375,-0.1746826171875
1700356800454430700,10.3404306640625,10.071395874023438,-0.3828582763671875,-0.157928466796875
1700356800464288000,10.3502880859375,10.073776245117188,-0.3900299072265625,-0.1674957275390625
1700356800474145000,10.36014501953125,10.069000244140625,-0.37567138671875,-0.1555328369140625
1700356800484002300,10.370002197265626,10.064208984375,-0.3828582763671875,-0.157928466796875
1700356800493859600,10.379859619140625,10.061813354492188,-0.3900299072265625,-0.1674957275390625
1700356800503716600,10.389716552734376,10.066604614257812,-0.3900299072265625,-0.1627044677734375
1700356800513574000,10.399573974609375,10.064208984375,-0.3828582763671875,-0.1603240966796875
1700356800523431000,10.409430908203126,10.066604614257812,-0.3900299072265625,-0.17706298828125
1700356800533288200,10.4192880859375,10.076171875,-0.3828582763671875,-0.16510009765625
1700356800543145500,10.4291455078125,10.071395874023438,-0.3780670166015625,-0.169891357421875
1700356800553002500,10.43900244140625,10.076171875,-0.38763427734375,-0.1603240966796875
1700356800562859800,10.44885986328125,10.078567504882812,-0.3948211669921875,-0.1794586181640625
1700356800572716800,10.458716796875,10.076171875,-0.37567138671875,-0.1746826171875
1700356800582574000,10.468573974609376,10.069000244140625,-0.37567138671875,-0.157928466796875
1700356800592431400,10.478431396484375,10.069000244140625,-0.3828582763671875,-0.1722869873046875
1700356800602288400,10.488288330078126,10.076171875,-0.37567138671875,-0.169891357421875
1700356800612145700,10.498145751953125,10.069000244140625,-0.3900299072265625,-0.1555328369140625
1700356800622002700,10.508002685546876,10.05224609375,-0.392425537109375,-0.1555328369140625
1700356800631860000,10.51785986328125,10.073776245117188,-0.380462646484375,-0.1627044677734375
1700356800641717200,10.52771728515625,10.066604614257812,-0.380462646484375,-0.1674957275390625
1700356800651574300,10.53757421875,10.069000244140625,-0.380462646484375,-0.1603240966796875
1700356800661431600,10.547431640625,10.059432983398438,-0.3948211669921875,-0.1627044677734375
1700356800671288600,10.55728857421875,10.071395874023438,-0.38763427734375,-0.1794586181640625
1700356800681145900,10.567145751953126,10.069000244140625,-0.370880126953125,-0.16510009765625
1700356800691003100,10.577003173828125,10.071395874023438,-0.3900299072265625,-0.1555328369140625
1700356800700860200,10.586860107421876,10.069000244140625,-0.3828582763671875,-0.1674957275390625
1700356800710687000,10.59668701171875,10.076171875,-0.3828582763671875,-0.169891357421875
1700356800720544000,10.6065439453125,10.078567504882812,-0.3780670166015625,-0.1674957275390625
1700356800730401300,10.6164013671875,10.073776245117188,-0.3828582763671875,-0.1674957275390625
1700356800740258300,10.62625830078125,10.064208984375,-0.380462646484375,-0.1674957275390625
1700356800750115600,10.636115478515626,10.076171875,-0.380462646484375,-0.1674957275390625
1700356800759972900,10.645972900390625,10.078567504882812,-0.3732757568359375,-0.17706298828125
1700356800769830000,10.655829833984376,10.069000244140625,-0.380462646484375,-0.157928466796875
1700356800779687200,10.665687255859375,10.059432983398438,-0.37567138671875,-0.169891357421875
1700356800789544200,10.675544189453126,10.073776245117188,-0.3900299072265625,-0.1674957275390625
1700356800799401500,10.6854013671875,10.059432983398438,-0.3852386474609375,-0.17706298828125
1700356800809258800,10.6952587890625,10.061813354492188,-0.380462646484375,-0.1722869873046875
1700356800819115800,10.70511572265625,10.076171875,-0.380462646484375,-0.16510009765625
1700356800828973000,10.71497314453125,10.066604614257812,-0.37567138671875,-0.1674957275390625
1700356800838830000,10.724830078125,10.066604614257812,-0.3780670166015625,-0.169891357421875
1700356800848687400,10.734687255859376,10.073776245117188,-0.380462646484375,-0.1627044677734375
1700356800858544600,10.744544677734375,10.073776245117188,-0.392425537109375,-0.16510009765625
1700356800868401700,10.754401611328126,10.061813354492188,-0.3780670166015625,-0.16510009765625
1700356800878259000,10.764259033203125,10.073776245117188,-0.3852386474609375,-0.1603240966796875
1700356800888116000,10.774115966796876,10.064208984375,-0.3852386474609375,-0.1603240966796875
1700356800897973200,10.78397314453125,10.061813354492188,-0.3852386474609375,-0.1603240966796875
1700356800907830500,10.79383056640625,10.057037353515625,-0.380462646484375,-0.16510009765625
1700356800917687600,10.8036875,10.064208984375,-0.380462646484375,-0.1722869873046875
1700356800927544800,10.813544921875,10.069000244140625,-0.3828582763671875,-0.17706298828125
1700356800937401900,10.82340185546875,10.071395874023438,-0.3828582763671875,-0.1674957275390625
1700356800947259100,10.833259033203126,10.073776245117188,-0.380462646484375,-0.157928466796875
1700356800957116400,10.843116455078125,10.057037353515625,-0.3780670166015625,-0.1722869873046875
1700356800966973400,10.852973388671876,10.073776245117188,-0.3852386474609375,-0.1627044677734375
1700356800976830700,10.862830810546875,10.071395874023438,-0.3852386474609375,-0.16510009765625
1700356800986687700,10.872687744140626,10.073776245117188,-0.3780670166015625,-0.16510009765625
1700356800996545000,10.882544921875,10.080963134765625,-0.3661041259765625,-0.1746826171875
1700356801006402300,10.89240234375,10.071395874023438,-0.380462646484375,-0.16510009765625
1700356801016259300,10.90225927734375,10.076171875,-0.3900299072265625,-0.16510009765625
1700356801026116600,10.91211669921875,10.073776245117188,-0.3900299072265625,-0.1627044677734375
1700356801035973600,10.9219736328125,10.061813354492188,-0.3828582763671875,-0.1674957275390625
1700356801045831000,10.931830810546876,10.071395874023438,-0.392425537109375,-0.1627044677734375
1700356801055688200,10.941688232421875,10.069000244140625,-0.370880126953125,-0.1722869873046875
1700356801065545200,10.951545166015626,10.078567504882812,-0.3900299072265625,-0.1603240966796875
1700356801075402500,10.961402587890625,10.066604614257812,-0.38763427734375,-0.169891357421875
1700356801085259500,10.971259521484376,10.059432983398438,-0.370880126953125,-0.16510009765625
1700356801095116800,10.98111669921875,10.073776245117188,-0.380462646484375,-0.1746826171875
1700356801104974000,10.99097412109375,10.076171875,-0.38763427734375,-0.169891357421875
1700356801114831000,11.0008310546875,10.078567504882812,-0.380462646484375,-0.17706298828125
1700356801124688400,11.0106884765625,10.073776245117188,-0.3828582763671875,-0.1627044677734375
1700356801134545400,11.02054541015625,10.064208984375,-0.392425537109375,-0.17706298828125
1700356801144402700,11.030402587890626,10.064208984375,-0.3852386474609375,-0.1627044677734375
1700356801154260000,11.040260009765625,10.057037353515625,-0.380462646484375,-0.1555328369140625
1700356801164117000,11.050116943359376,10.071395874023438,-0.370880126953125,-0.1746826171875
1700356801173974300,11.059974365234375,10.076171875,-0.3852386474609375,-0.1555328369140625
1700356801183831300,11.069831298828126,10.069000244140625,-0.380462646484375,-0.1674957275390625
1700356801193688600,11.0796884765625,10.061813354492188,-0.3780670166015625,-0.1746826171875
1700356801203545900,11.0895458984375,10.071395874023438,-0.37567138671875,-0.1674957275390625
1700356801213403000,11.09940283203125,10.064208984375,-0.3828582763671875,-0.1674957275390625
1700356801223260200,11.10926025390625,10.064208984375,-0.3780670166015625,-0.1603240966796875
1700356801233117200,11.1191171875,10.083358764648438,-0.3780670166015625,-0.1674957275390625
1700356801242974500,11.128974365234376,10.061813354492188,-0.37567138671875,-0.1746826171875
1700356801252831700,11.138831787109375,10.066604614257812,-0.3828582763671875,-0.16510009765625
1700356801262688800,11.148688720703126,10.073776245117188,-0.3780670166015625,-0.169891357421875
1700356801272546000,11.158546142578125,10.066604614257812,-0.3828582763671875,-0.16510009765625
1700356801282403000,11.168403076171876,10.059432983398438,-0.3852386474609375,-0.17706298828125
1700356801292260400,11.17826025390625,10.069000244140625,-0.3828582763671875,-0.169891357421875
1700356801302117600,11.18811767578125,10.078567504882812,-0.37567138671875,-0.1746826171875
1700356801311974700,11.197974609375,10.080963134765625,-0.3828582763671875,-0.1674957275390625
1700356801321832000,11.20783203125,10.057037353515625,-0.37567138671875,-0.1603240966796875
1700356801331689000,11.21768896484375,10.066604614257812,-0.380462646484375,-0.17706298828125
1700356801341546200,11.227546142578126,10.073776245117188,-0.38763427734375,-0.1603240966796875
1700356801351403500,11.237403564453125,10.083358764648438,-0.392425537109375,-0.181854248046875
1700356801361260500,11.247260498046876,10.076171875,-0.392425537109375,-0.169891357421875
1700356801371117800,11.257117919921875,10.069000244140625,-0.38763427734375,-0.1746826171875
1700356801380974800,11.266974853515626,10.071395874023438,-0.38763427734375,-0.1674957275390625
1700356801390832000,11.27683203125,10.080963134765625,-0.392425537109375,-0.1627044677734375
1700356801400689400,11.286689453125,10.076171875,-0.3852386474609375,-0.16510009765625
1700356801410546400,11.29654638671875,10.083358764648438,-0.3852386474609375,-0.16510009765625
1700356801420403700,11.30640380859375,10.076171875,-0.3828582763671875,-0.1674957275390625
1700356801430260700,11.3162607421875,10.071395874023438,-0.380462646484375,-0.16510009765625
1700356801440118000,11.326117919921876,10.083358764648438,-0.3732757568359375,-0.169891357421875
1700356801449975300,11.335975341796875,10.066604614257812,-0.3780670166015625,-0.1746826171875
1700356801459832300,11.345832275390626,10.064208984375,-0.3900299072265625,-0.1674957275390625
1700356801469689600,11.355689697265625,10.076171875,-0.3828582763671875,-0.1674957275390625
1700356801479516200,11.36551611328125,10.078567504882812,-0.380462646484375,-0.16510009765625
1700356801489373400,11.37537353515625,10.078567504882812,-0.37567138671875,-0.1722869873046875
1700356801499230500,11.38523046875,10.073776245117188,-0.3852386474609375,-0.1674957275390625
1700356801509087700,11.395087646484376,10.073776245117188,-0.3852386474609375,-0.1722869873046875
1700356801518945000,11.404945068359375,10.078567504882812,-0.3780670166015625,-0.16510009765625
1700356801528802000,11.414802001953126,10.073776245117188,-0.3852386474609375,-0.15313720703125
1700356801538659300,11.424659423828125,10.073776245117188,-0.3828582763671875,-0.16510009765625
1700356801548516400,11.434516357421876,10.061813354492188,-0.38763427734375,-0.1746826171875
1700356801558373600,11.44437353515625,10.061813354492188,-0.38763427734375,-0.1674957275390625
1700356801568231000,11.45423095703125,10.076171875,-0.3900299072265625,-0.1746826171875
1700356801578088000,11.464087890625,10.078567504882812,-0.37567138671875,-0.1555328369140625
1700356801587945200,11.4739453125,10.071395874023438,-0.380462646484375,-0.1674957275390625
1700356801597802200,11.48380224609375,10.090530395507812,-0.38763427734375,-0.1627044677734375
1700356801607659500,11.493659423828126,10.066604614257812,-0.380462646484375,-0.1627044677734375
1700356801617516800,11.503516845703125,10.069000244140625,-0.37567138671875,-0.1674957275390625
1700356801627373800,11.513373779296876,10.064208984375,-0.3852386474609375,-0.1603240966796875
1700356801637231000,11.523231201171875,10.073776245117188,-0.3780670166015625,-0.16510009765625
1700356801647088000,11.533088134765626,10.061813354492188,-0.3900299072265625,-0.1722869873046875
1700356801656945400,11.5429453125,10.076171875,-0.380462646484375,-0.1603240966796875
1700356801666802700,11.552802734375,10.069000244140625,-0.3828582763671875,-0.1627044677734375
1700356801676659700,11.56265966796875,10.069000244140625,-0.37567138671875,-0.169891357421875
1700356801686517000,11.57251708984375,10.069000244140625,-0.3828582763671875,-0.17706298828125
1700356801696374000,11.5823740234375,10.069000244140625,-0.380462646484375,-0.1674957275390625
1700356801706231300,11.592231201171876,10.073776245117188,-0.380462646484375,-0.16510009765625
1700356801716088600,11.602088623046875,10.069000244140625,-0.3828582763671875,-0.16510009765625
1700356801725945600,11.611945556640626,10.061813354492188,-0.3852386474609375,-0.157928466796875
1700356801735803000,11.621802978515625,10.061813354492188,-0.3780670166015625,-0.169891357421875
1700356801745660000,11.631659912109376,10.073776245117188,-0.38763427734375,-0.181854248046875
1700356801755517200,11.64151708984375,10.064208984375,-0.37567138671875,-0.16510009765625
1700356801765374500,11.65137451171875,10.071395874023438,-0.370880126953125,-0.1603240966796875
1700356801775231500,11.6612314453125,10.073776245117188,-0.3780670166015625,-0.16510009765625
1700356801785088800,11.6710888671875,10.071395874023438,-0.3780670166015625,-0.17706298828125
1700356801794945800,11.68094580078125,10.071395874023438,-0.380462646484375,-0.16510009765625
1700356801804803000,11.690802978515626,10.080963134765625,-0.37567138671875,-0.1674957275390625
1700356801814660400,11.700660400390625,10.073776245117188,-0.380462646484375,-0.169891357421875
1700356801824517400,11.710517333984376,10.071395874023438,-0.38763427734375,-0.1674957275390625
1700356801834374700,11.720374755859375,10.069000244140625,-0.38763427734375,-0.1627044677734375
1700356801844231700,11.730231689453126,10.064208984375,-0.3852386474609375,-0.1603240966796875
1700356801854089000,11.7400888671875,10.064208984375,-0.37567138671875,-0.157928466796875
1700356801863946200,11.7499462890625,10.073776245117188,-0.3828582763671875,-0.1603240966796875
1700356801873803300,11.75980322265625,10.064208984375,-0.3780670166015625,-0.1627044677734375
1700356801883660500,11.76966064453125,10.078567504882812,-0.38763427734375,-0.1746826171875
1700356801893517600,11.779517578125,10.080963134765625,-0.37567138671875,-0.1674957275390625
1700356801903374800,11.789374755859376,10.069000244140625,-0.370880126953125,-0.157928466796875
1700356801913232100,11.799232177734375,10.076171875,-0.3828582763671875,-0.1722869873046875
1700356801923089200,11.809089111328126,10.069000244140625,-0.3828582763671875,-0.1746826171875
1700356801932946400,11.818946533203125,10.064208984375,-0.380462646484375,-0.16510009765625
1700356801942803500,11.828803466796876,10.069000244140625,-0.38763427734375,-0.1674957275390625
1700356801952660700,11.83866064453125,10.069000244140625,-0.3732757568359375,-0.1722869873046875
1700356801962518000,11.84851806640625,10.064208984375,-0.3828582763671875,-0.1746826171875
1700356801972375000,11.858375,10.061813354492188,-0.3780670166015625,-0.1603240966796875
1700356801982232300,11.868232421875,10.076171875,-0.3900299072265625,-0.1746826171875
1700356801992089300,11.87808935546875,10.073776245117188,-0.3828582763671875,-0.16510009765625
1700356802001946600,11.887946533203126,10.078567504882812,-0.392425537109375,-0.16510009765625
1700356802011804000,11.897803955078125,10.076171875,-0.3852386474609375,-0.169891357421875
1700356802021661000,11.907660888671876,10.073776245117188,-0.3852386474609375,-0.16510009765625
1700356802031518200,11.917518310546875,10.073776245117188,-0.380462646484375,-0.1627044677734375
1700356802041375200,11.927375244140626,10.076171875,-0.3732757568359375,-0.1627044677734375
1700356802051232500,11.937232421875,10.076171875,-0.3828582763671875,-0.157928466796875
1700356802061089800,11.94708984375,10.073776245117188,-0.380462646484375,-0.1674957275390625
1700356802070946800,11.95694677734375,10.078567504882812,-0.380462646484375,-0.1627044677734375
1700356802080804000,11.96680419921875,10.069000244140625,-0.3852386474609375,-0.1603240966796875
1700356802090661000,11.9766611328125,10.078567504882812,-0.3780670166015625,-0.1746826171875
1700356802100518400,11.986518310546876,10.066604614257812,-0.380462646484375,-0.1674957275390625
1700356802110345000,11.996344970703126,10.066604614257812,-0.3852386474609375,-0.16510009765625
1700356802120202200,12.0062021484375,10.064208984375,-0.3900299072265625,-0.1746826171875
1700356802130059500,12.0160595703125,10.078567504882812,-0.38763427734375,-0.169891357421875
1700356802139916500,12.02591650390625,10.071395874023438,-0.3828582763671875,-0.169891357421875
1700356802149773800,12.03577392578125,10.069000244140625,-0.3828582763671875,-0.1603240966796875
1700356802159630800,12.045630859375,10.069000244140625,-0.3852386474609375,-0.1722869873046875
1700356802169488100,12.055488037109376,10.071395874023438,-0.3828582763671875,-0.16510009765625
1700356802179345400,12.065345458984375,10.083358764648438,-0.38763427734375,-0.1722869873046875
1700356802189202400,12.075202392578126,10.071395874023438,-0.3852386474609375,-0.169891357421875
1700356802199059700,12.085059814453125,10.064208984375,-0.3732757568359375,-0.1627044677734375
1700356802208916700,12.094916748046876,10.064208984375,-0.3828582763671875,-0.1627044677734375
1700356802218774000,12.10477392578125,10.071395874023438,-0.370880126953125,-0.16510009765625
1700356802228631300,12.11463134765625,10.071395874023438,-0.3852386474609375,-0.1674957275390625
1700356802238488300,12.12448828125,10.076171875,-0.380462646484375,-0.1722869873046875
1700356802248345600,12.134345703125,10.071395874023438,-0.3852386474609375,-0.169891357421875
1700356802258202600,12.14420263671875,10.069000244140625,-0.380462646484375,-0.1722869873046875
1700356802268060000,12.154059814453126,10.071395874023438,-0.380462646484375,-0.16510009765625
1700356802277917200,12.163917236328125,10.083358764648438,-0.36370849609375,-0.1627044677734375
1700356802287774200,12.173774169921876,10.066604614257812,-0.392425537109375,-0.1746826171875
1700356802297631500,12.183631591796875,10.080963134765625,-0.380462646484375,-0.1603240966796875
1700356802307488500,12.193488525390626,10.071395874023438,-0.3732757568359375,-0.1603240966796875
1700356802317345800,12.203345703125,10.078567504882812,-0.38763427734375,-0.1627044677734375
1700356802327203000,12.213203125,10.059432983398438,-0.37567138671875,-0.1627044677734375
1700356802337060000,12.22306005859375,10.069000244140625,-0.368499755859375,-0.1627044677734375
1700356802346917400,12.23291748046875,10.076171875,-0.380462646484375,-0.169891357421875
1700356802356774400,12.2427744140625,10.066604614257812,-0.3828582763671875,-0.1722869873046875
1700356802366631700,12.252631591796876,10.073776245117188,-0.3780670166015625,-0.1603240966796875
1700356802376489000,12.262489013671875,10.061813354492188,-0.3852386474609375,-0.1746826171875
1700356802386346000,12.272345947265626,10.073776245117188,-0.3852386474609375,-0.169891357421875
1700356802396203300,12.282203369140625,10.071395874023438,-0.3828582763671875,-0.16510009765625
1700356802406060300,12.292060302734376,10.066604614257812,-0.3828582763671875,-0.1627044677734375
1700356802415917600,12.30191748046875,10.078567504882812,-0.38763427734375,-0.1555328369140625
1700356802425774800,12.31177490234375,10.069000244140625,-0.3852386474609375,-0.17706298828125
1700356802435631900,12.3216318359375,10.054641723632812,-0.380462646484375,-0.17706298828125
1700356802445489200,12.3314892578125,10.073776245117188,-0.3828582763671875,-0.157928466796875
1700356802455346200,12.34134619140625,10.076171875,-0.3780670166015625,-0.169891357421875
1700356802465203500,12.351203369140626,10.078567504882812,-0.380462646484375,-0.1627044677734375
1700356802475060700,12.361060791015625,10.059432983398438,-0.3852386474609375,-0.15313720703125
1700356802484917800,12.370917724609376,10.061813354492188,-0.37567138671875,-0.16510009765625
1700356802494775000,12.380775146484375,10.073776245117188,-0.37567138671875,-0.1603240966796875
1700356802504632000,12.390632080078126,10.078567504882812,-0.380462646484375,-0.1603240966796875
1700356802514489300,12.4004892578125,10.066604614257812,-0.380462646484375,-0.16510009765625
1700356802524346600,12.4103466796875,10.080963134765625,-0.3780670166015625,-0.1746826171875
1700356802534203600,12.42020361328125,10.069000244140625,-0.3852386474609375,-0.1674957275390625
1700356802544061000,12.43006103515625,10.069000244140625,-0.38763427734375,-0.1627044677734375
1700356802553918000,12.43991796875,10.057037353515625,-0.3900299072265625,-0.157928466796875
1700356802563775200,12.449775146484376,10.073776245117188,-0.392425537109375,-0.1722869873046875
1700356802573632500,12.459632568359375,10.061813354492188,-0.3780670166015625,-0.1722869873046875
1700356802583489500,12.469489501953126,10.073776245117188,-0.380462646484375,-0.1674957275390625
1700356802593346800,12.479346923828125,10.071395874023438,-0.3852386474609375,-0.157928466796875
1700356802603203800,12.489203857421876,10.061813354492188,-0.380462646484375,-0.17706298828125
1700356802613061000,12.49906103515625,10.076171875,-0.3780670166015625,-0.1746826171875
1700356802622918400,12.50891845703125,10.064208984375,-0.380462646484375,-0.169891357421875
1700356802632775400,12.518775390625,10.071395874023438,-0.38763427734375,-0.1722869873046875
1700356802642632700,12.5286328125,10.078567504882812,-0.3828582763671875,-0.1627044677734375
1700356802652489700,12.53848974609375,10.080963134765625,-0.380462646484375,-0.1722869873046875
1700356802662347000,12.548346923828126,10.083358764648438,-0.3732757568359375,-0.1627044677734375
1700356802672204300,12.558204345703125,10.078567504882812,-0.3900299072265625,-0.1674957275390625
1700356802682061300,12.568061279296876,10.073776245117188,-0.3780670166015625,-0.1722869873046875
1700356802691918600,12.577918701171875,10.069000244140625,-0.3852386474609375,-0.169891357421875
1700356802701775600,12.587775634765626,10.069000244140625,-0.3828582763671875,-0.1603240966796875
1700356802711602400,12.5976025390625,10.076171875,-0.38763427734375,-0.1674957275390625
1700356802721459500,12.60745947265625,10.064208984375,-0.3900299072265625,-0.1722869873046875
1700356802731316700,12.617316650390626,10.069000244140625,-0.37567138671875,-0.1627044677734375
1700356802741174000,12.627174072265625,10.073776245117188,-0.380462646484375,-0.1627044677734375
1700356802751031000,12.637031005859376,10.080963134765625,-0.380462646484375,-0.1746826171875
1700356802760888300,12.646888427734375,10.071395874023438,-0.3732757568359375,-0.1746826171875
1700356802770745300,12.656745361328126,10.069000244140625,-0.37567138671875,-0.16510009765625
1700356802780602600,12.6666025390625,10.073776245117188,-0.3780670166015625,-0.17706298828125
1700356802790460000,12.6764599609375,10.080963134765625,-0.380462646484375,-0.169891357421875
1700356802800317000,12.68631689453125,10.061813354492188,-0.38763427734375,-0.1746826171875
