seconds_elapsed,accelerometer_z,accelerometer_y,accelerometer_x,gravity_z,gravity_y,gravity_x,gyroscope_z,gyroscope_y,gyroscope_x,orientation_qz,orientation_qy,orientation_qx,orientation_qw,orientation_roll,orientation_pitch,orientation_yaw,barometer_relativeAltitude,barometer_pressure,totalAcceleration_z,totalAcceleration_y,totalAcceleration_x,gyroscopeUncalibrated_z,gyroscopeUncalibrated_y,gyroscopeUncalibrated_x,accelerometerUncalibrated_z,accelerometerUncalibrated_y,accelerometerUncalibrated_x
0,0,-0.058415413,0,5.551402569,7.382524967,3.40166378,-0.09078978,-0.306272328,0.10109812,0.877050579,0.401911616,0.24427624,0.097869664,-0.560299993,-0.85231781,3.104087591,0,0,0,0,0,0,0,0,0,0,0
0.1,-0.535873413,-0.141319275,-0.70026207,5.215435505,7.553501129,3.461211205,-0.088346317,-0.732961357,0.170125842,0.873619854,0.427336156,0.231467381,0.051976707,-0.584642768,-0.879221678,2.979242086,0,0,4.479363918,7.122236729,2.733799934,-0.085826501,-1.112995625,0.154548794,4.218546391,6.928418159,2.531606436
0.2,-0.265692949,-0.152961731,-0.170726299,4.203442097,7.870978355,4.068065166,-0.126830801,-2.667875528,0.241597027,0.842217803,0.452663183,0.28421849,0.07060495,-0.769033015,-0.931668758,2.907469749,0,880.8930054,3.296113253,7.348358154,3.820141315,-0.124310985,-2.671006203,0.226019964,3.397808075,7.138986588,3.719642878
0.3,0.238815308,0.427530289,1.019109726,2.462905407,8.169112206,5.00767374,-0.41760245,-3.372202635,0.38484481,0.779642403,0.462828994,0.423014134,0.147148654,-1.104712009,-0.977787495,2.846246958,0.169189453,880.8851929,2.164308071,7.932207108,5.655436516,-0.415082604,-3.375333309,0.369267762,2.218146563,7.926225185,5.735595703
0.4,0.633870363,0.732806683,1.014657497,0.701554358,8.456552505,4.915783405,-0.828103542,-2.148029566,0.211664647,0.701291084,0.466286063,0.496797711,0.209666625,-1.429038763,-1.039849997,2.800829887,0.475708008,880.84198,1.299302697,8.743373871,5.720042706,-0.825583756,-2.15116024,0.196087599,1.202393413,8.967103004,5.694917679
0.5,0.0471946,0.866408348,0.650897503,0.181614444,8.810741425,4.302119732,-0.992731631,-1.501123786,-0.482583165,0.662779748,0.469980597,0.518826306,0.26454258,-1.528606415,-1.11621654,2.822466373,0.723999023,880.8168335,0.224925324,9.66580677,4.861019135,-0.990211785,-1.50425446,-0.498160213,0.05383851,9.64068222,4.493721008
0.6,-0.811274052,0.790552139,0.158095121,0.045785736,9.284169197,3.35181427,-1.072144032,-2.191706419,-0.80939585,0.616559803,0.457809478,0.543123543,0.369515568,-1.557137251,-1.22194159,3.003297567,0.644775391,880.8236694,-0.839880764,9.842875481,3.28414917,-1.069624186,-2.194837093,-0.824972868,-0.685543716,9.899106979,3.312862873
0.7,-0.669249654,0.425782204,1.02577281,0.075526014,9.529069901,2.315489531,-0.963410139,-1.887190342,-0.753501713,0.538787544,0.411255628,0.571854889,0.462124169,-1.538189888,-1.332301736,-3.024424791,0.404296875,880.8634644,-0.64725852,9.845269203,3.341576815,-0.960890293,-1.890321016,-0.769078732,-0.608973384,9.883553505,3.296113253
0.8,-0.518105626,-0.100627899,0.641014218,0.383631855,9.636258125,1.779257059,-0.51870054,-1.121776819,-0.695164144,0.495258808,0.376890033,0.581716537,0.523716033,-1.358433962,-1.38411057,-2.694387436,-0.108276367,880.90448,-0.05383851,9.675378799,2.427518606,-0.516180754,-1.124907494,-0.710741162,-0.120837547,9.619147301,2.362912416
0.9,-0.265519381,-0.010479927,0.102806687,0.762585461,9.653471947,1.540418625,-0.259999335,-1.015180945,-0.550083756,0.466885418,0.343931139,0.585517168,0.566479504,-1.111116171,-1.393818378,-2.337707758,-0.441162109,880.9567261,0.70348984,9.550951958,1.689332843,-0.257479519,-1.01831162,-0.565660775,0.601794899,9.623932838,1.708475351
1,-0.117851973,-0.120433807,0.428707242,1.187306643,9.62525177,1.509611607,-0.132023156,-0.60590148,-0.525038302,0.446354777,0.31063351,0.588787854,0.602835536,-0.904342651,-1.373677611,-2.027724028,-0.805786133,880.9794312,0.979860902,9.479166985,1.92741859,-0.12950334,-0.609032214,-0.54061532,0.991824985,9.553344727,1.953739643
1.1,-0.695738673,-0.403346062,-0.245309114,1.448096156,9.586512566,1.484376669,-0.082237668,-0.241215229,-0.259617537,0.436925381,0.290484488,0.585294664,0.618812203,-0.797769368,-1.358512521,-1.885130167,-0.827026367,880.9918823,0.758524776,9.169296265,1.231107235,-0.079717852,-0.244345918,-0.275194585,0.717846811,9.189635277,1.365105271
1.2,-0.122366905,-0.267486572,0.314774275,1.427887917,9.594037056,1.444292307,-0.086513728,-0.115987949,0.104152448,0.423963666,0.281813502,0.589898467,0.626596749,-0.79110992,-1.362185359,-1.845325351,-0.935302734,880.9933472,1.317248821,9.300901413,1.744367719,-0.083993904,-0.119118631,0.088575393,1.288534999,9.294919968,1.788634896
1.3,0.111098409,0.013347626,0.095986366,1.277229667,9.62714386,1.39583683,-0.057803079,0.003741547,0.178372517,0.419462889,0.286713481,0.595164478,0.6238361,-0.829740107,-1.376648545,-1.879033923,-0.774169922,880.9796753,1.299302697,9.584450722,1.483550072,-0.055283263,6.11E-04,0.162795469,1.339980721,9.588040352,1.467996716
1.4,0.064703822,0.092698097,0.005940199,1.136147261,9.645805359,1.35572207,-0.032146759,-8.40E-04,0.096211202,0.417720109,0.291493326,0.597581983,0.619223118,-0.873287499,-1.389431357,-1.928713202,-0.671142578,880.9647827,1.227517962,9.712467194,1.360319614,-0.029626941,-0.003970621,0.080634154,1.233500123,9.728020668,1.396211982
1.5,-0.175139189,0.013865471,4.37E-04,1.086157918,9.651988983,1.353807688,-7.64E-05,-0.104686953,0.006719512,0.412477702,0.288414985,0.601197243,0.62067765,-0.894250095,-1.392960548,-1.936897516,-0.573364258,880.9577026,0.910468996,9.645467758,1.353141189,0.002443459,-0.107817635,-0.008857539,0.893719256,9.610772133,1.322034478
1.6,-0.039909244,0.117540359,0.231133103,1.058578253,9.652468681,1.373431444,-0.031230463,-0.083917551,-0.027488915,0.406699508,0.282607347,0.605245173,0.623223007,-0.914085329,-1.393238425,-1.938256145,-0.583862305,880.9555054,1.037288666,9.751948357,1.647458434,-0.028710645,-0.087048233,-0.043065965,1.028913736,9.757930756,1.625923038
1.7,0.003610611,-0.183590889,0.158701062,1.115895152,9.646647453,1.377240181,-0.033979353,-0.004505128,-0.076052666,0.406759769,0.28076449,0.604113221,0.625715673,-0.888971508,-1.389242768,-1.908120751,-0.504638672,880.9508667,1.025324464,9.425328255,1.42372942,-0.031459536,-0.00763581,-0.091629714,1.077966571,9.427721024,1.47756803
1.8,-0.185193419,0.002034187,-0.014858365,1.111467123,9.649791718,1.347786427,-0.021151192,-0.081779525,-0.001832594,0.401332021,0.277067482,0.605445743,0.628968716,-0.881197691,-1.391699433,-1.886370182,-0.494018555,880.9459839,0.921236694,9.611968994,1.326820135,-0.018631376,-0.084910206,-0.017409647,0.949950576,9.628718376,1.409372568
1.9,-0.008238316,-0.048863411,0.058812261,1.086843252,9.652774811,1.346512675,-0.004352412,-0.052458014,0.007330378,0.397410005,0.274217635,0.607775509,0.630459249,-0.891707957,-1.393414617,-1.88568902,-0.512573242,880.949646,1.073180914,9.586843491,1.39860487,-0.001832594,-0.055588696,-0.008246674,1.068395257,9.578469276,1.397408366
2,-0.080654562,-0.117588997,-0.008539319,1.072389841,9.652663231,1.358840466,8.40E-04,-0.06223185,-0.00122173,0.394325495,0.270957917,0.609840274,0.631810188,-0.902678847,-1.39335084,-1.886207938,-0.478149414,880.9442749,0.961914718,9.449256897,1.34237349,0.003359756,-0.065362528,-0.016798781,0.997807026,9.458827972,1.356730461
2.1,0.044164896,-0.154751778,0.05559957,1.06406939,9.653626442,1.361443162,-0.025732679,-0.068035066,-0.010384701,0.390423924,0.267312169,0.611865699,0.63420707,-0.906357169,-1.393679619,-1.876657128,-0.488769531,880.9494019,1.097109199,9.333204269,1.404586911,-0.023212861,-0.071165748,-0.025961753,1.093519926,9.390632629,1.414158225
2.2,-0.024413586,0.280109406,0.35422492,1.038558125,9.656844139,1.351061583,-0.086819157,-0.221056685,0.009468404,0.384118289,0.262948662,0.614740849,0.636714101,-0.914207399,-1.395782709,-1.869008541,-0.406860352,880.9364624,1.013360381,9.841679573,1.692921996,-0.084299341,-0.224187374,-0.006108648,1.063609719,9.871589661,1.825723648
2.3,-0.465050459,-0.263690948,0.731516361,1.022536755,9.654851913,1.381535888,-0.133855745,-0.342313349,-0.113620847,0.37688753,0.254320174,0.619020522,0.640383244,-0.933632612,-1.394619584,-1.862840056,-0.132080078,880.9083862,0.552742004,9.346364975,2.115255117,-0.131335929,-0.345444024,-0.129197896,0.547956407,9.322437286,2.049452543
2.4,-0.339992285,-0.342344284,0.743752837,1.027952552,9.651437759,1.409539938,-0.161344662,-0.272369325,-0.126143575,0.367125005,0.24258332,0.624015808,0.646838605,-0.944053829,-1.392043352,-1.83577013,-0.348754883,880.9303589,0.680758059,9.190832138,2.140379906,-0.158824846,-0.275500029,-0.141720623,0.659222662,9.151350021,2.126022816
2.5,-0.452688098,-0.513916969,0.667500138,1.067067385,9.66251564,1.291339517,-0.366900653,-0.301385403,-0.166766092,0.354277462,0.237040758,0.624209404,0.654899061,-0.880207539,-1.399134994,-1.746371031,-0.443847656,880.9437866,0.589830756,8.994620323,1.978864312,-0.364380836,-0.304516107,-0.18234314,0.593420029,9.054440498,2.008774519
2.6,-0.689749539,-0.587138176,1.294054508,1.085203528,9.683174133,1.108536363,-0.459446669,-0.132175863,-0.180510536,0.338887036,0.234328195,0.624531269,0.663690865,-0.796033919,-1.411940932,-1.632581353,-0.488769531,880.9454956,0.373280346,8.961120605,2.407179594,-0.456926852,-0.135306552,-0.196087599,0.331405938,8.878568649,2.353341103
2.7,-1.157118082,0.077849388,1.67651701,1.049654365,9.716423988,0.812230825,-0.641178966,-0.112322763,-0.164628059,0.325413138,0.241189957,0.622893929,0.669046879,-0.658564448,-1.435041308,-1.485033154,-0.591796875,880.9620972,-0.131605253,9.778269768,2.505285263,-0.63865912,-0.115453444,-0.180205107,-0.105284199,9.644271851,2.611765862
2.8,-0.251267314,3.2270298,1.176331997,1.120930552,9.728229523,0.593833745,-0.339411736,0.20685409,-0.181121409,0.323986977,0.255937636,0.616817772,0.672336876,-0.44253391,-1.444063425,-1.289756656,-1.291992188,881.0314331,0.815952539,12.80638695,0.91166544,-0.336891919,0.203723401,-0.196698457,1.093519926,12.40798187,1.075573802
2.9,0.581785917,2.327830315,-1.812347889,1.084291935,9.740356445,0.356456995,0.111101031,0.21204643,0.209526613,0.324410737,0.268106908,0.610303342,0.670851111,-0.309412926,-1.454455137,-1.176666737,-1.696289063,881.0953979,1.660618901,12.01914787,-1.373480201,0.113620847,0.208915755,0.193949565,1.410568953,11.92941761,-1.233500123
3,0.521162391,-0.002950668,-0.770206273,0.65222156,9.758455276,0.663743436,0.6935606,0.637513757,0.543669641,0.334962159,0.271476686,0.626934111,0.648887038,-0.79415381,-1.471615314,-1.681592345,-0.964355469,880.9962769,1.25503552,9.745966911,-0.014356935,0.696080387,0.634383082,0.528092623,1.219143152,9.655039787,-0.065802626
3.1,0.435039669,-0.861728668,-1.703985453,0.324536294,9.685527802,1.50187099,1.221042395,0.823522091,0.464868098,0.382490456,0.274841219,0.63841486,0.608479917,-1.357979894,-1.413465142,-2.329060555,0.771606445,880.8668823,0.309870541,8.419146538,-0.114855483,1.223562121,0.820391417,0.44929105,0.547956407,8.583054543,-0.108873427
3.2,-0.415857553,-2.011543751,-1.674435258,0.006751982,9.434779167,2.944562674,1.477910995,-0.021303909,0.30024004,0.429006159,0.251317441,0.666217089,0.567464352,-1.568272233,-1.265782118,-2.571617603,1.384643555,880.7445679,-0.580259502,7.064808846,1.235892892,1.480430841,-0.024434591,0.284662992,-0.483350188,7.156932354,1.505085468
3.3,-0.535311937,-1.152540207,-0.833176136,-0.278411329,8.871564865,4.169916153,1.385975838,0.273438334,0.296574861,0.463855207,0.204212978,0.687380612,0.520233929,-1.637464046,-1.130552888,-2.648077488,1.416259766,880.7582397,-0.808774054,7.561319351,3.262613773,1.388495684,0.27030766,0.280997813,-0.898504913,7.802994728,3.466003656
3.4,-0.661926389,2.549668312,-0.747521877,-0.394001454,8.466005325,4.932345867,0.587575555,-0.077503473,-0.044287696,0.486404806,0.179799736,0.699027479,0.492687196,-1.651371479,-1.041756749,-2.670338631,0.893188477,880.7973022,-0.681954443,11.89472103,4.856233597,0.590095401,-0.080634154,-0.059864748,-0.954736233,11.41615677,4.431507587
3.5,1.207528472,5.102198601,-0.515060425,-0.059058625,8.553160667,4.918715477,-0.545884013,-0.418366015,-0.680197954,0.484560758,0.16680868,0.692394674,0.517795742,-1.583107591,-1.045143008,-2.562177181,0.166503906,880.9078979,0.811166883,13.73121262,4.210171223,-0.543364227,-0.421496689,-0.695774972,0.95952189,13.32921886,4.155136585
3.6,3.540637732,-0.723650932,-2.264790058,0.342042327,8.950019836,3.993813038,-0.854981601,0.388280928,-0.356745034,0.450855643,0.177028239,0.671730399,0.560507357,-1.485361934,-1.149716496,-2.427875042,-0.866577148,880.9860229,3.882354736,8.324629784,1.725225091,-0.852461815,0.385150254,-0.372322083,3.547359467,8.334200859,1.886740685
3.7,-0.492866933,-1.484895706,-2.403268337,0.661416292,9.25342083,3.179171324,-0.937142909,-0.879568934,-0.432492256,0.424470931,0.194637448,0.655429304,0.594598413,-1.365675688,-1.233298779,-2.285978317,-0.951171875,881.0006714,0.299102843,7.714460373,1.481157184,-0.934623122,-0.882699609,-0.448069304,0.200997099,7.442874908,1.112662554
3.8,-0.519881546,-3.467356682,0.826125622,0.761318862,9.506863594,2.282615423,-0.993647933,-0.814206421,-0.50915581,0.35608986,0.181692496,0.654348075,0.641885102,-1.248869658,-1.322898149,-2.035406828,-0.750366211,880.9733276,0.257228434,5.942574978,3.206382275,-0.991128087,-0.817337096,-0.524732828,0.251246363,5.730810165,3.169293642
3.9,-0.509086132,-0.522217751,1.194834113,1.038610101,9.640400887,1.580854297,-0.676914513,-0.141033411,-0.125838146,0.322731376,0.19211483,0.641911626,0.671977341,-0.95497936,-1.377542496,-1.696991086,-0.631469727,880.9813843,0.508474827,8.933603287,2.634497643,-0.674394727,-0.144164085,-0.141415194,0.55154562,9.187242508,2.665604353
4,0.339305758,2.561038017,1.340632915,1.05297339,9.696628571,1.018340468,-0.493349671,-0.365526199,-0.027488915,0.292772144,0.197269469,0.638447583,0.684084177,-0.76867944,-1.420862198,-1.478460431,-1.582641602,881.0626831,1.379462242,12.10528946,2.438286304,-0.490829855,-0.368656904,-0.043065965,1.483550072,12.32782269,1.966900229
4.1,1.417196274,4.042807579,0.260655105,0.806165636,9.743853569,0.798355937,0.109573871,1.248073101,0.508239508,0.293804735,0.221446708,0.639770806,0.674375117,-0.756019294,-1.457568288,-1.503118396,-2.153442383,881.178894,2.222932339,13.75274849,1.018146038,0.112093687,1.244942427,0.49266243,2.457428932,12.49412346,0.047856454
4.2,-0.029926956,0.062784195,-1.491222143,0.452831924,9.713581085,1.269513845,1.008461356,0.779539824,0.625830948,0.33563289,0.239600271,0.648097336,0.640654802,-1.228167415,-1.432916522,-2.066369057,-0.710693359,880.9691772,0.394815743,9.43489933,0.288335115,1.010981202,0.776409149,0.61025393,0.336191595,9.541379929,0.147158593
4.3,0.001201466,-3.248236656,-1.992194653,0.015909977,9.562854767,2.399334192,1.233870506,0.218460515,0.38637197,0.38819015,0.239096612,0.669130087,0.596306205,-1.563474894,-1.323585033,-2.477545977,1.223388672,880.8168335,-0.009571291,5.484349728,0.222532511,1.236390352,0.215329841,0.370794922,-0.004785645,5.815755367,0.333798766
4.4,-0.611471057,-1.537826061,-1.633142948,-0.259201854,9.010133743,3.862729073,1.721951485,-0.006948587,0.232434049,0.430167228,0.183717355,0.692433059,0.549309134,-1.637799144,-1.164973617,-2.556071997,1.503540039,880.7316284,-0.813559711,7.317251682,2.163111687,1.724471331,-0.010079269,0.216857001,-0.972682416,7.678567886,2.488535643
4.5,-0.019327044,3.376304626,-0.10545969,-0.35104984,8.414978027,5.02347374,0.883234084,0.786259353,0.080634154,0.468459994,0.144633576,0.704722583,0.51249063,-1.640564799,-1.031536341,-2.570790052,1.170532227,880.81073,-0.318245411,11.65184975,4.767699242,0.88575393,0.783128619,0.065057099,-0.345762879,11.42094231,4.637290478
4.6,1.273249984,5.579131126,-1.837779522,-0.083324321,8.387523651,5.234329224,-0.651869059,-1.056719661,-0.036346454,0.48742643,0.144415185,0.699262142,0.51630652,-1.586713672,-1.007683754,-2.541631937,-0.161132813,880.9100952,0.995414197,13.75274849,3.029313564,-0.649349272,-1.059850335,-0.051923506,2.817548752,13.90110302,2.930011272
4.7,2.03155899,0.250323296,-1.765986919,-0.200686947,8.79309082,4.337242126,-0.824438393,0.360486567,-0.151799902,0.445812017,0.16451107,0.695103109,0.539462209,-1.617034197,-1.112134337,-2.535289288,-0.560058594,880.9567261,1.831705689,9.098708153,2.603390932,-0.821918547,0.357355893,-0.16737695,1.214357495,8.909674644,2.184647083
4.8,-0.090297475,-2.602838993,-0.674360275,0.068296015,9.223936081,3.329374075,-1.225471139,-0.605290651,-0.610864758,0.403651297,0.180289447,0.681185424,0.583564699,-1.550285935,-1.224333286,-2.415375233,-0.549560547,880.9518433,-0.058624156,6.544369698,2.690729141,-1.222951293,-0.608421326,-0.626441836,-0.040677983,6.29790926,2.703889608
4.9,-0.458423644,-3.095646858,0.64198637,0.544105649,9.537628174,2.215395451,-1.049236655,-0.278783411,-0.611781061,0.357280225,0.193831742,0.659308434,0.632528663,-1.329961419,-1.336024523,-2.136430264,-0.486083984,880.9467163,0.082552381,6.818347931,2.866601467,-1.046716809,-0.281914085,-0.627358139,0.047856454,6.526423931,2.82831645
5,-0.538287282,1.043649673,1.644144416,0.907982349,9.676382065,1.436248541,-0.770071387,-0.0457385,-0.31826055,0.328128099,0.211407542,0.642414927,0.664335668,-0.964361072,-1.399172664,-1.743581533,-1.017211914,881.0018921,0.307477713,10.54875851,2.930011272,-0.767551601,-0.048869181,-0.333837599,0.330209523,10.63490009,3.072384357
5.1,-0.20392096,4.845981598,0.851757288,1.070244074,9.687385559,1.085427046,-0.078267053,0.099036455,0.022296565,0.31746617,0.215180367,0.631930888,0.673799336,-0.792734385,-1.414678812,-1.566845655,-1.783447266,881.1698608,0.854237676,14.51246929,1.929811478,-0.075747229,0.095905773,0.006719512,1.444068432,15.14776421,1.587637782
5.2,0.226143003,0.639420509,-1.973218203,0.819533885,9.698081017,1.202491164,0.939433694,0.816802561,0.362853676,0.341585577,0.23510246,0.633708358,0.65199995,-0.972574592,-1.421856999,-1.81955719,-2.084716797,881.116394,1.044467092,10.52841949,0.349352092,0.94195348,0.813671887,0.347276628,0.888933599,10.2652092,-0.250049978
5.3,-0.29531163,-1.125144005,-0.333093286,0.557939053,9.569167137,2.071265936,0.902170897,0.807639599,0.499076515,0.381201029,0.228249282,0.647653699,0.618977189,-1.30767107,-1.350274682,-2.20459342,0.055541992,880.9718628,0.125623181,6.792026997,1.481157184,0.904690742,0.804508924,0.483499467,0.184247345,7.587640762,1.636690736
5.4,-1.058331251,-4.070569992,-1.916632533,0.34704718,9.296081543,3.398934364,1.699349403,0.562682807,0.37140578,0.443702012,0.220085695,0.662190676,0.575090587,-1.459440589,-1.215288162,-2.432358265,1.218139648,880.7623901,-1.04685986,4.990231514,1.252642632,1.701869249,0.559552133,0.355828732,-0.868594646,5.309673309,1.338784218
5.5,-0.578092337,0.880636215,-0.670127392,-0.079054289,8.527255058,4.842525959,1.591531873,0.403857976,0.458759457,0.480801553,0.165304899,0.690438211,0.514586449,-1.587119818,-1.054266095,-2.571457148,1.323852539,880.7619019,-0.65563339,9.244669914,4.402793884,1.5940516,0.400727302,0.443182409,-0.074177504,9.468399048,4.371686935
5.6,0.226547211,4.967801094,-1.384082794,-0.051335771,8.147462845,5.457780838,0.255875975,-0.175852701,-0.004886918,0.516433299,0.161372393,0.691005588,0.480735242,-1.580116987,-0.980561614,-2.625868559,0.496826172,880.8395386,0.184247345,14.82592869,4.108476639,0.258395791,-0.178983375,-0.02046397,0.476171702,13.50509071,3.918246984
5.7,3.669819355,1.789381027,-2.211476803,-0.207517669,8.499353409,4.999620914,-0.767627954,-0.14317143,-0.119118631,0.479719013,0.163998485,0.697011054,0.509465039,-1.61453855,-1.034955978,-2.598631144,-0.237792969,880.9406128,3.422932863,9.824930191,2.374876499,-0.765108109,-0.146302119,-0.134695679,3.483949661,9.836894035,2.295913219
5.8,0.331650645,-1.285353184,-1.083644629,-0.148570016,8.982144356,3.932976246,-1.204396248,-1.120249629,-0.596509457,0.430452198,0.174915567,0.690136433,0.554030061,-1.605012774,-1.157803416,-2.51456666,-0.404174805,880.9362183,0.179461703,7.730013371,2.824727058,-1.201876402,-1.123380303,-0.612086535,0.197407871,7.408178806,3.24466753
5.9,-0.506918073,-3.571264267,0.316380501,0.206813619,9.435982704,2.66267395,-1.381241679,-0.359417558,-0.691804349,0.37110278,0.187337965,0.674062252,0.610595822,-1.49328053,-1.294977427,-2.313396215,-0.35925293,880.9376831,-0.189032987,6.131608009,2.932404041,-1.378721833,-0.362548232,-0.707381427,-0.269192547,5.871986866,2.81395936
6,-0.655422151,-1.144647598,0.95488894,0.603944302,9.652825356,1.62130034,-1.062064767,-0.273896486,-0.343000561,0.332414985,0.207255661,0.652880192,0.648299992,-1.214214325,-1.393443704,-2.000536203,-0.53894043,880.9506226,-0.033499517,9.066405296,2.545963287,-1.059544921,-0.27702719,-0.358577639,-0.066999033,8.693124771,2.538784742
6.1,-0.690466523,2.525101662,1.675055027,0.950288117,9.724766731,0.88475275,-0.545884013,-0.660879314,-0.492357016,0.297968268,0.215466127,0.639562368,0.680848062,-0.701737046,-1.44147253,-1.432090998,-1.344848633,881.0890503,0.196211457,12.10050392,2.492124796,-0.543364227,-0.664009988,-0.507934093,0.320638239,12.5623188,2.506481647
6.2,1.694188714,3.476703644,1.177554846,1.17087841,9.722637177,0.523797572,-0.229150653,0.665002644,0.142942354,0.278528422,0.213836432,0.628152668,0.694348693,-0.441806346,-1.439805984,-1.155231237,-2.911743164,881.2052612,2.872583628,13.16889954,1.695314884,-0.226630837,0.66187197,0.127365306,2.89292264,12.17228889,1.061216831
6.3,-0.195101023,0.068021774,-0.991082728,0.986687124,9.717746735,0.873056531,0.918053389,0.651563644,0.320398569,0.319352448,0.233367652,0.628675163,0.669567823,-0.72437346,-1.43604207,-1.529375911,-1.643432617,881.1495972,0.660419047,9.775876999,1.088734269,0.920573235,0.64843297,0.304821521,0.685543716,9.704092026,0.535992265
6.4,-0.653224885,-3.737876892,-0.730560422,0.629634321,9.652920723,1.787840605,0.997771263,1.130176187,0.513431847,0.379514903,0.243299663,0.640872836,0.629978955,-1.19820106,-1.378139257,-2.09490037,0.039672852,880.8886108,-0.108873427,5.126622677,0.558724105,1.000291109,1.127045512,0.497854799,-0.0526421,5.467599869,0.680758059
6.5,-1.231907845,-2.562374115,-2.191320419,0.3385759,9.283153534,3.1430583,1.763184786,0.359264851,0.412333727,0.438844532,0.225025028,0.657344043,0.569805264,-1.46348846,-1.24257803,-2.455279827,1.400512695,880.7631226,-0.960718274,6.555137634,0.803988397,1.765704632,0.356134176,0.396756679,-0.854237676,6.989434719,0.953539848
6.6,0.878717065,3.446213722,-0.557878494,-0.019765131,8.71629715,4.49395895,1.331914306,0.257861286,0.467922419,0.476811886,0.185746267,0.683386445,0.520703077,-1.574964881,-1.094752669,-2.583504677,1.16796875,880.7677612,0.854237676,13.60678577,3.934996843,1.334434152,0.254730612,0.452345371,0.775274515,12.86740398,3.894318819
6.7,1.405054688,5.479147911,-0.760844469,0.056149822,8.616738319,4.681778908,-0.682717741,-0.527710795,-0.430965096,0.475344181,0.169693261,0.68440032,0.526223063,-1.558803678,-1.073053956,-2.531831741,0.237792969,880.9179077,3.8668015,14.15354633,3.957728624,-0.680197954,-0.53084147,-0.446542144,2.561516523,14.16790295,4.516452789
6.8,1.180371046,0.038064003,-2.91428566,0.575577199,9.008213997,4.019184589,-0.992120743,0.014431681,-0.339640826,0.46747002,0.19200179,0.66112572,0.561471879,-1.421742797,-1.14469099,-2.409954071,-0.673706055,880.9650269,0.904486954,9.03051281,1.099501967,-0.989600956,0.011300999,-0.355217874,1.26341033,8.74576664,1.128215909
6.9,0.055234611,-3.025448799,0.490132809,0.709640265,9.354026794,2.858142853,-1.341535449,-0.894840539,-0.625830948,0.40037328,0.18949604,0.654148042,0.61309284,-1.327430367,-1.265790701,-2.198727131,-0.414794922,880.9411011,0.722632468,6.269195557,3.218346357,-1.339015603,-0.897971213,-0.641408026,0.879362345,5.950950146,3.108276606
7,-0.888142526,-3.160476685,0.518504739,1.284914136,9.574151993,1.689669967,-1.106047034,-0.082695819,-0.605977833,0.360610664,0.210747778,0.62455821,0.659903288,-0.920638919,-1.352610946,-1.757720232,-0.430664063,880.9391479,0.538385093,6.7704916,2.159522533,-1.103527188,-0.085826501,-0.621554911,0.465404004,6.492924213,2.114058733
7.1,-0.583531857,0.728381157,1.5145998,1.564387441,9.633290291,0.959113061,-0.54344058,-0.358501256,-0.250149131,0.330067009,0.221294552,0.609149873,0.68616128,-0.549990475,-1.382487178,-1.355449438,-0.953857422,881.0599976,1.28614223,10.95793152,2.456232548,-0.540920734,-0.36163196,-0.265726179,1.191625714,10.61336517,2.426322222
7.2,0.243497491,5.207052231,1.739405274,1.67646873,9.636507988,0.737399936,-0.021151192,-0.258014023,0.069027722,0.312211871,0.218423426,0.607588708,0.698571205,-0.41658622,-1.382117867,-1.181671381,-2.642211914,881.1762085,1.865205288,14.74337673,2.458625317,-0.018631376,-0.261144698,0.053450666,1.886740685,14.12842083,2.35812664
7.3,-0.148199439,0.084123611,-0.140108824,1.177236795,9.698723793,0.781902432,0.399734646,1.035492182,0.617278874,0.330818236,0.244494423,0.616603673,0.6712538,-0.586282074,-1.422298789,-1.426529169,-1.461181641,881.1456909,0.921236694,9.780662537,0.691525757,0.402254462,1.032361507,0.601701796,0.832702279,9.501898766,0.882951558
7.4,-0.723472416,-0.316841125,-0.767343044,0.788045406,9.657808304,1.50868535,1.021900415,1.343368053,0.6035344,0.389089435,0.265891701,0.623796821,0.623529136,-1.089437604,-1.396347404,-2.05650115,-0.023681641,880.8954468,0.021535404,9.328418732,0.739382207,1.024420261,1.340237379,0.587957323,-0.051445685,8.648857117,0.576670229
7.5,-0.601696134,-3.753229141,-1.820155859,0.473383874,9.478390694,2.725444555,1.454087257,0.73280865,0.406225085,0.450260609,0.266483873,0.639037013,0.575616956,-1.381522179,-1.285437226,-2.43599081,1.400512695,880.7692261,-0.178265288,5.230710506,0.637687206,1.456607103,0.729677975,0.390648037,-0.104087785,5.320441246,0.641276479
7.6,-1.127408504,0.633719444,-1.553514481,0.211802572,8.934576035,4.037189007,1.476689219,0.103312507,0.370489478,0.494493425,0.233052388,0.659460127,0.516018569,-1.518381476,-1.145879626,-2.626834869,1.278930664,880.7557983,-0.933200836,9.399007797,2.407179594,1.479209065,0.100181825,0.35491243,-0.876969516,9.860821724,2.796013355
7.7,0.699141324,3.661538124,0.016524315,-0.001332763,8.642745972,4.633925438,0.329790622,-0.274507374,-0.152410761,0.498612046,0.202881947,0.676322639,0.501211822,-1.571091533,-1.078637481,-2.646278858,0.668579102,880.8659058,0.671186745,12.63290691,4.94955349,0.332310438,-0.277638048,-0.167987809,1.063609719,12.53839111,4.61814785
7.8,3.670407534,2.986973763,-0.660118103,0.216888517,8.861307144,4.195304871,-0.864755452,0.163788125,-0.361021072,0.479581565,0.199492469,0.670182467,0.53200078,-1.519144535,-1.128104448,-2.544925213,-0.390991211,880.9349976,4.124029636,9.525827408,2.868994236,-0.862235665,0.160657436,-0.37659815,3.79621315,10.4291172,3.21356082
7.9,-0.460186422,-1.049399376,-1.939245462,0.777358353,9.223503113,3.404026747,-0.97471112,-0.90094918,-0.602923512,0.470400542,0.225060567,0.64092505,0.573114812,-1.335273147,-1.207772851,-2.362767458,-0.470336914,880.9450073,0.209371984,8.002795219,1.292124271,-0.972191274,-0.904079854,-0.61850059,0.531206608,8.062616348,1.714457393
8,-1.022880673,-3.414855957,0.776562214,1.136862159,9.481822014,2.230019569,-1.328401804,-0.134008467,-0.577572644,0.412377775,0.230381742,0.623666942,0.62282294,-1.09934032,-1.312696815,-2.0515275,-0.565429688,880.9535522,0.141176537,6.003592014,2.940778971,-1.325881958,-0.137139142,-0.593149722,0.21535404,6.082555294,2.715853691
8.1,-0.835145116,-2.44342804,1.433907628,1.550091982,9.607958794,1.206117392,-0.94325155,-0.052458014,-0.370794922,0.379617989,0.251122683,0.598251343,0.65948683,-0.661240041,-1.369154811,-1.590914607,-0.546875,880.9830933,0.717846811,7.558926582,2.703889608,-0.940731764,-0.055588696,-0.38637197,0.680758059,7.245467186,2.602194548
8.2,-0.100248933,1.410939217,0.493714511,1.769260168,9.620272636,0.700329185,-0.381561399,-0.339259028,-0.110566527,0.361266464,0.259209722,0.586249113,0.678007185,-0.376907855,-1.375523806,-1.28999114,-2.190429688,881.1278687,1.649851203,11.00339508,1.247856975,-0.379041582,-0.342389703,-0.126143575,1.665404558,10.91605663,1.231107235
8.3,1.228066564,4.592251778,1.215499401,1.649263144,9.66040802,0.634983242,0.069256797,0.518089712,0.498160213,0.345428586,0.255284041,0.595925629,0.683634818,-0.369877934,-1.389427066,-1.236219049,-3.088745117,881.2243042,2.689532757,14.11645699,1.829312921,0.071776614,0.514959037,0.482583165,2.068595171,14.21097374,1.818545222
8.4,-0.391496658,1.170827866,0.684919715,1.134069085,9.681760788,1.071341872,0.913471937,0.644844115,0.51587528,0.373650789,0.268976182,0.608862638,0.646688879,-0.756963432,-1.411032438,-1.70101428,-1.656616211,881.0704956,0.820738196,10.83948612,1.755135417,0.915991724,0.64171344,0.500298262,0.839880764,10.4913311,2.243271112
8.5,-0.586074233,-2.854651928,-1.227855682,0.728638828,9.610879898,1.808441281,1.041142702,1.60665071,0.610864758,0.43390739,0.294445187,0.613783658,0.590656102,-1.187783718,-1.370647311,-2.275900841,0.837646484,880.8934937,0.163908347,6.741777897,0.577866673,1.043662429,1.603520036,0.59528774,0.165104762,6.151947021,0.443868607
8.6,-1.156698465,-3.763888359,-2.369502544,0.640432537,9.323682785,3.257661819,1.653534651,0.414548099,0.155159652,0.500384569,0.284519672,0.625514567,0.540053606,-1.358510971,-1.225633144,-2.53569746,1.820556641,880.6976929,-0.784845829,5.313262463,0.589830756,1.656054378,0.411417425,0.139582604,-0.661615431,4.965106964,0.533599436
8.7,-0.762449384,1.892747879,-0.846670628,0.295627028,8.734063148,4.449621201,1.114446402,-0.349338293,0.281914085,0.520455241,0.232308209,0.656475544,0.494165063,-1.504455328,-1.098721266,-2.663116932,1.61706543,880.7528687,-0.472582459,10.45663452,3.516252756,1.116966248,-0.352468967,0.266337037,-0.116051897,10.88016415,3.863212109
8.8,1.056516767,7.142253876,1.200809956,0.140150651,8.691808701,4.539345264,-0.373620182,-0.430277884,-0.175623626,0.507853508,0.217890084,0.667366624,0.498770505,-1.539594173,-1.089331865,-2.652742147,0.425415039,880.8473511,3.486342669,15.69213104,5.808577061,-0.371100366,-0.433408558,-0.191200674,1.871187329,14.91326714,5.206781864
8.9,1.803008556,0.118393898,-3.162376404,0.607369184,9.0390625,3.754575968,-0.903239906,0.939891815,-0.287411869,0.504363239,0.254852742,0.635675132,0.520588875,-1.410417914,-1.172512412,-2.57906127,-0.301147461,880.9313354,1.095912814,8.907281876,0.005982057,-0.900720119,0.936761141,-0.302988917,1.682154298,8.778069496,0.229710966
9,-0.300646126,-2.58005619,0.308329344,0.821583509,9.40324688,2.863592863,-1.221500516,-1.087873816,-0.506406903,0.466149271,0.260915965,0.625835598,0.578660369,-1.271200776,-1.263283491,-2.33988595,-0.319702148,880.9271851,0.571884632,6.02752018,2.624926329,-1.21898067,-1.091004491,-0.521983981,0.460618347,6.369693756,2.744567633
9.1,-1.23667109,-2.871676445,0.917798519,1.167765856,9.614183426,1.540837646,-1.228830814,-0.714024544,-0.536644697,0.406003445,0.267472744,0.607386887,0.628252089,-0.922272742,-1.372349262,-1.920331478,-0.388305664,880.9369507,-0.086141616,6.600601196,2.435893536,-1.226311088,-0.717155278,-0.552221775,0.096909314,6.832705021,2.511267424
9.2,-0.486600876,0.372359276,2.2357409,1.336637735,9.682346344,0.797466993,-0.577343583,-0.335593849,-0.187535495,0.366810709,0.271595806,0.598403037,0.658482671,-0.537932098,-1.411407948,-1.477870584,-0.893066406,880.9887085,0.909272611,10.9244318,3.074777126,-0.574823737,-0.338724524,-0.203112543,0.934397221,10.43390274,3.095116138
9.3,-0.134948134,4.386386871,1.41003859,1.486209035,9.678539276,0.512885988,-0.080099642,-0.17127122,-0.077885263,0.34971416,0.268908411,0.593453944,0.67282325,-0.335522324,-1.40898025,-1.245270014,-2.068847656,881.1710815,1.79820621,14.2504549,1.737189293,-0.077579826,-0.174401894,-0.093462311,1.435693622,14.54118347,1.765903115
9.4,0.203529239,1.80922699,-0.281669021,1.216190577,9.715250015,0.65450263,0.699363828,0.345825821,0.50090909,0.36572957,0.283882588,0.600262225,0.656760573,-0.410538197,-1.42934227,-1.365817308,-2.62902832,881.1749878,1.243071318,10.79761219,-0.563509762,0.701883614,0.342695147,0.485332072,1.229910851,11.09671497,0.278763831
9.5,-0.436856449,-1.456688881,0.190290213,0.660220087,9.676664352,1.447992206,0.933630466,1.052290916,0.713184655,0.405733198,0.291061699,0.617754996,0.607488632,-1.143000841,-1.407797337,-2.177172899,-0.166381836,881.0006714,0.22372891,8.225327492,1.639083505,0.936150253,1.049160242,0.697607577,0.090927258,7.585247993,1.404586911
9.6,-0.740461648,-4.729820251,-1.593057632,0.238453493,9.490089417,2.460025072,1.558545113,0.229761511,0.410501122,0.450228691,0.28911978,0.63580817,0.55628401,-1.474166989,-1.316020608,-2.584462881,1.500854492,880.7318726,-0.498903513,5.002195835,1.115055323,1.561064959,0.226630837,0.394924074,-0.53479588,4.65403986,0.94277215
9.7,-1.091691732,0.914485931,-0.73756218,-0.136469498,8.989497185,4.146127224,1.440342784,0.022372922,0.455399692,0.491124958,0.246872172,0.673597753,0.506544113,-1.605624914,-1.133601785,-2.721779346,2.087402344,880.6964722,-1.278963685,9.634700775,3.332005501,1.44286263,0.01924224,0.439822644,-1.191625714,10.13001442,3.523431301
9.8,0.633171082,4.877343178,0.531836033,-0.346035272,8.650922775,4.607992649,0.143476859,0.09842559,-0.091324285,0.503256798,0.227428764,0.682582617,0.47827822,-1.645296216,-1.080404997,-2.772412777,1.16796875,880.7677612,0.321834654,13.42373466,5.120640278,0.145996675,0.095294908,-0.106901333,0.250049978,14.31147194,5.297709465
9.9,3.427614689,-0.834606171,-1.55470109,0.040303275,8.995091438,3.906033516,-0.790229976,0.910570323,-0.420885831,0.492780864,0.248188153,0.660566211,0.509138405,-1.56047833,-1.161105514,-2.689807653,0.216674805,880.920105,3.646661758,8.743373871,2.36650157,-0.78771013,0.907439649,-0.436462879,4.054637909,8.584251404,1.399801254
10,-0.633824825,-1.592755318,-2.955615759,0.654693663,9.272902489,3.123305082,-1.020831347,-1.035950303,-0.609948456,0.491486102,0.273469567,0.625731945,0.540205061,-1.364172578,-1.239350915,-2.526661396,-0.369873047,880.9325562,0.05383851,7.505088329,1.290927768,-1.01831162,-1.039080977,-0.625525534,0.20817557,7.558926582,0.673579574
10.1,-0.734186828,-2.833654881,0.548770666,1.038168907,9.57349205,2.093863249,-1.390404582,-0.628198087,-0.607505023,0.43808344,0.274086088,0.61441952,0.607881665,-1.060554624,-1.334057331,-2.106866598,-0.412109375,880.9408569,0.020338992,6.354140759,2.481357098,-1.387884736,-0.631328762,-0.623082101,0.090927258,6.48933506,2.593819857
10.2,-0.707244456,-0.594052315,2.300380468,1.4318223,9.656719208,0.93168807,-1.025107503,-0.480674237,-0.41111201,0.385135829,0.276905596,0.591878951,0.651669443,-0.576867998,-1.395709395,-1.555299163,-0.73449707,880.9716187,0.70348984,8.920442581,3.080759048,-1.022587657,-0.483804911,-0.426689059,0.796809912,8.87258625,3.080759048
10.3,-0.790780067,1.229063988,1.001382828,1.656804562,9.659754753,0.338406444,-0.339411736,0.013515383,-0.215024397,0.369332254,0.289882064,0.575716615,0.669378221,-0.201481357,-1.397495031,-1.177820683,-1.61706543,881.1134644,0.971485972,10.78086281,1.475175142,-0.336891919,0.010384701,-0.23060146,0.672383189,10.81675434,1.265803218
10.4,1.352847219,5.333233833,1.144834757,1.48283422,9.688444138,0.333695203,0.112628192,0.865060866,0.609948456,0.367001593,0.295838922,0.580410063,0.664013088,-0.215764537,-1.415375352,-1.194613457,-2.692382813,881.1818237,2.935993433,13.01815128,0.95952189,0.115148008,0.861930192,0.594371438,2.97427845,14.0925293,1.757528186
10.5,-0.1940763,0.360887527,0.391414881,1.01130414,9.716647148,1.083966374,1.174005747,0.40263626,0.371100366,0.409601867,0.309974283,0.597705007,0.625569344,-0.702987134,-1.423422933,-1.758005738,-0.602416992,881.0458374,0.685543716,10.02353382,1.476371527,1.176525593,0.399505556,0.355523288,0.801595569,10.05583763,1.64626193
10.6,-0.72188133,-3.744327068,-1.387185097,0.625681818,9.571296692,2.041860819,1.213711977,1.106047034,0.533284962,0.465844542,0.316238195,0.606012762,0.561150372,-1.273453355,-1.351269245,-2.455734015,0.938110352,880.7924194,-0.098105729,5.797809124,0.648454964,1.216231823,1.10291636,0.517707884,-0.178265288,5.479563713,0.620937467
10.7,-1.306216478,-3.215389252,-2.252896786,0.402937114,9.21486187,3.330818653,1.616271853,0.130495995,0.430354238,0.512608588,0.297025174,0.625485361,0.507716954,-1.450408697,-1.221618652,-2.69114542,1.61706543,880.7250366,-0.909272611,7.006184578,1.075573802,1.618791699,0.127365306,0.414777189,-1.109073281,6.399604321,0.897308469
10.8,-0.208391488,2.790613174,-0.619922638,-0.022975495,8.751861572,4.537069321,0.787022889,-0.175547272,0.314289927,0.531488359,0.264368832,0.660612166,0.465720713,-1.575989127,-1.089722872,-2.808915854,1.170532227,880.7675171,-0.290727943,11.33958626,3.841676712,0.789542735,-0.178677946,0.298712879,-0.149551421,12.10887909,4.246063709
10.9,1.580613136,5.319515228,0.654071808,0.03794067,8.742966652,4.44178915,-0.415464401,-0.29222244,-0.413250029,0.526361227,0.253807992,0.658637524,0.474213332,-1.562254906,-1.100721598,-2.768059254,0.499389648,880.888855,1.568495274,13.94058514,5.198407173,-0.412944585,-0.295353115,-0.428827077,1.822134495,14.31147194,4.923232555
11,2.946598291,-1.136593819,-2.561607838,0.477508754,9.129930496,3.547780991,-0.892244339,0.29329145,-0.303905219,0.509310186,0.277287215,0.631478906,0.51254493,-1.437006474,-1.197125554,-2.644287825,-0.504638672,880.9472046,3.424129248,9.269794464,0.95952189,-0.889724553,0.290160775,-0.319482267,2.596212626,8.451449394,0.745364249
11.1,-0.942217469,-0.683998108,-0.744916558,0.617822111,9.420770645,2.654976368,-1.155832529,-1.555185318,-0.426078171,0.472895324,0.286404073,0.622041941,0.554442525,-1.345413446,-1.289337516,-2.491678238,-0.462402344,880.9450073,0.406779855,7.55294466,2.787638426,-1.153312683,-1.558316112,-0.441655248,0.008374879,8.120043755,2.331805706
11.2,-0.357197583,-3.210856438,1.600412488,1.016764402,9.644053459,1.64341414,-1.11246109,-0.211588293,-0.701272786,0.415124238,0.282321393,0.613495111,0.619127691,-0.96217376,-1.379085422,-1.990834236,-0.425415039,880.9386597,0.285942316,5.979663849,2.907279491,-1.109941363,-0.214718968,-0.716849804,0.394815743,6.206982136,3.036491871
11.3,-1.114887357,-0.808689117,1.307251453,1.456052303,9.668358803,0.757046223,-0.672333062,-0.130037844,-0.369573206,0.391717046,0.292662859,0.583189905,0.64868772,-0.479464859,-1.402659774,-1.493666172,-0.713378906,881.0199585,0.318245411,8.707481384,2.257628202,-0.669813216,-0.133168519,-0.385150254,0.52642101,8.859425545,2.123630047
11.4,-0.591118097,2.438144684,0.211739838,1.489979863,9.679363251,0.541281044,-0.019929463,-0.230525091,0.177761644,0.376052946,0.292445451,0.581814229,0.659205616,-0.343816429,-1.409502745,-1.329576373,-2.229980469,881.132019,1.133001566,14.05424404,1.009771109,-0.017409647,-0.233655781,0.162184596,0.849452019,13.00379467,0.808774054
11.5,0.486082435,3.121563911,1.106755018,1.116222382,9.723088264,0.656098127,0.275423646,0.438982695,0.366518855,0.374935746,0.296213448,0.598180473,0.647567749,-0.494976223,-1.434396267,-1.476926565,-2.391235352,881.1969604,0.818345368,11.6769743,1.501496196,0.277943462,0.435852021,0.350941807,0.977468073,12.20937729,1.122233868
11.6,-0.391912818,0.070585251,0.983548999,0.898651063,9.686573029,1.238187075,0.736015677,1.516853571,0.414471745,0.418692559,0.308446497,0.599201381,0.608699441,-0.942977011,-1.414147258,-2.026733398,-0.953857422,880.9953003,0.508474827,9.775876999,2.081755638,0.738535523,1.513722897,0.398894697,0.602991283,10.2029953,1.970489502
11.7,-1.059276104,-4.561026573,-2.263154507,0.675787807,9.599374771,1.888306975,1.314504623,1.327790976,0.357050478,0.479208231,0.33769843,0.593042076,0.552100599,-1.227118969,-1.364829779,-2.46928072,1.186401367,880.8278198,-0.387637258,4.82034111,-0.203389928,1.317024469,1.324660301,0.341473401,-0.411565483,4.886143684,-0.283549488
11.8,-1.616911411,-0.887802124,-2.058095217,0.498474896,9.226477623,3.285424709,1.751883864,-0.068951361,0.381179631,0.52518785,0.310938478,0.614737451,0.499592692,-1.420221567,-1.225097418,-2.707658768,1.53515625,880.7284546,-0.933200836,9.883553505,2.13559413,1.754403591,-0.072082043,0.365602583,-1.088734269,9.061619759,1.622333765
11.9,0.591894746,3.789755821,0.211973667,0.200453103,8.84474659,4.316031933,0.582383215,0.069714941,0.071776614,0.543965399,0.283941031,0.641371429,0.463179052,-1.524888873,-1.114764571,-2.809732199,1.371337891,880.7750854,0.74297142,12.48096275,4.386044025,0.584903002,0.066584259,0.056199558,1.231107235,12.51446247,4.071387768
12,2.952078104,3.977692604,-0.88910532,0.227878198,8.879634857,4.155785084,-0.636902869,-0.320322216,-0.081245013,0.538751841,0.281891227,0.639161408,0.470494449,-1.516017318,-1.132487535,-2.792529106,0.319824219,880.8585815,3.18006134,12.86142159,3.268595695,-0.634383082,-0.32345289,-0.096822068,2.810370207,10.90648556,2.776870728
12.1,0.507289886,-0.015675545,-1.267168283,0.274279594,9.122769356,3.587512255,-0.75082916,-0.221667558,-0.192116976,0.524434328,0.300628662,0.628997624,0.488828182,-1.494490623,-1.195130467,-2.766168833,-0.433227539,880.9396362,0.781256616,9.15733242,2.316252232,-0.748309374,-0.224798232,-0.207694024,0.400797784,9.085547447,2.277967215
12.2,-0.083137989,-3.176146507,0.632885933,0.36854133,9.431389809,2.661476374,-1.18881917,-0.732045054,-0.565355361,0.476777315,0.300710469,0.625126243,0.539883137,-1.43319881,-1.293262482,-2.610172033,-0.496704102,880.946228,0.179461703,6.092126369,3.09272337,-1.186299443,-0.735175788,-0.580932379,0.220139682,5.995217323,3.022135019
12.3,-0.664108515,-2.099423409,0.918174624,0.982050002,9.639137268,1.697010279,-1.039462805,-0.026801692,-0.571464002,0.450054049,0.315600574,0.597997904,0.5923599,-0.995453656,-1.374453306,-2.138842583,-0.385742188,880.9525757,0.244067907,7.409375191,2.411965132,-1.036942959,-0.029932374,-0.58704108,0.254835606,7.683353424,2.500499725
12.4,-0.466773391,1.056594849,1.198604822,1.274598122,9.691558838,0.787084341,-0.735252142,-0.338953584,-0.288939029,0.420561701,0.323569477,0.574731588,0.622988164,-0.55319941,-1.417439342,-1.665053368,-1.315795898,881.0341187,0.704686284,10.60379314,2.099701881,-0.732732296,-0.342084289,-0.304516107,0.783649445,10.96869946,2.097309113
12.5,-0.273868322,4.355038643,2.106478214,1.318580508,9.708621025,0.417640328,-0.213268161,-0.125761792,0.253508896,0.393125087,0.320508868,0.57576412,0.641166031,-0.306738347,-1.429283142,-1.371077776,-2.119018555,881.1923218,2.051845312,13.95733452,2.520838737,-0.210748345,-0.128892466,0.237931833,1.283749342,14.83550072,2.694318295
12.6,0.336089194,0.696532249,-0.273673654,0.961753726,9.748179436,0.499524057,0.657519579,1.285641313,0.365602583,0.426407605,0.359681815,0.571227968,0.612546444,-0.388107389,-1.460475326,-1.545008898,-2.681884766,881.180603,0.522831738,9.960124016,-0.230907381,0.660039365,1.282510638,0.350025505,0.943968534,10.17667484,-0.177068874
12.7,-0.601023912,-2.097018242,-0.838933587,0.507090271,9.704189301,1.319833755,1.007239699,0.843375206,0.622776628,0.469483048,0.370719224,0.580082297,0.552666306,-1.203977823,-1.426114202,-2.480695963,-0.190185547,881.0079956,-0.047856454,7.596015453,0.545563579,1.009759426,0.840244532,0.607199609,-0.044267219,8.135597229,0.563509762
12.8,-0.610653877,-3.825474739,-1.553051829,0.19890216,9.495324135,2.443285465,1.562210321,0.551381826,0.317649692,0.508635819,0.360252798,0.60006392,0.501428783,-1.489567518,-1.318147182,-2.825351,1.270996094,880.7567749,-0.413958311,6.368497372,0.975075245,1.564730167,0.548251152,0.302072644,-0.611366212,5.910272121,0.866201818
12.9,-0.879374206,-0.050102234,-0.561898947,-0.099661514,9.0750103,3.715459585,1.112613797,-0.057650365,0.334753901,0.535475314,0.325969368,0.631526172,0.456272811,-1.597613454,-1.182072759,-2.93719697,1.701660156,880.711853,-0.606580555,9.479166985,3.561716557,1.115133643,-0.060781047,0.319176853,-0.764506817,9.21117115,3.316452265
13,1.061097026,4.064435005,-0.1344347,0.013294038,8.820352554,4.29856205,0.09338595,0.418518722,-0.255952328,0.560862958,0.315081269,0.636137426,0.431385994,-1.567724586,-1.116966128,-2.949455261,0.597167969,880.8287964,0.994217813,12.76810169,3.595216036,0.095905773,0.415388048,-0.271529406,0.592223585,12.69990635,4.021138668
13.1,3.419145823,0.250488281,-0.881235361,0.216300189,9.092416763,3.667638302,-0.881248832,-0.629114389,-0.295963973,0.539836347,0.318238378,0.622652471,0.46862027,-1.511889219,-1.186782718,-2.844559669,-0.335571289,880.9503784,3.695714474,9.450452805,2.787638426,-0.878728986,-0.632245064,-0.311541051,3.105883837,9.74835968,2.696711063
13.2,-0.063349515,0.478426933,-1.62526679,0.449456513,9.394184113,2.778067112,-1.149418473,-0.817871571,-0.273361981,0.520523131,0.339424908,0.601730764,0.501967669,-1.410398722,-1.279736519,-2.736596584,-0.438598633,880.9398804,0.460618347,9.870393753,1.962114573,-1.146898627,-0.821002245,-0.288939029,0.20817557,9.778269768,1.54217422
13.3,-0.117831051,-3.741642475,1.380972147,0.718102872,9.628661156,1.715692759,-1.316795349,-0.231135964,-0.752279997,0.471408695,0.33986944,0.589809895,0.560702145,-1.17440176,-1.379982114,-2.402743578,-0.282714844,880.9337769,0.471386075,5.843272686,2.830709219,-1.314275622,-0.234266639,-0.767857015,0.569491804,5.921039581,3.060420275
13.4,-1.29205215,-1.953531265,0.976574183,1.427673936,9.68020916,0.783250868,-0.800003767,0.052305296,-0.430048794,0.458094209,0.355733275,0.551890731,0.604934037,-0.425475717,-1.409685493,-1.652962565,-0.504638672,880.9469604,0.050249275,7.587640762,1.362712502,-0.797483981,0.049174614,-0.445625871,0.112462662,7.964509964,1.625923038
13.5,-0.507785559,1.413352966,2.133271217,1.529638767,9.67859745,0.388714075,-0.261526495,-0.467235208,-0.094684042,0.4341757,0.34900105,0.547554314,0.624398887,-0.24765788,-1.409017324,-1.425875902,-1.439941406,881.0973511,1.00737834,10.96032429,2.538784742,-0.259006679,-0.470365882,-0.11026109,0.948754191,10.99621677,2.356930256
13.6,0.665298104,4.67337513,1.356535912,1.317480445,9.704680443,0.503797054,0.265344381,0.549549222,0.529619753,0.427286178,0.344864577,0.56037885,0.620160758,-0.365237713,-1.426463127,-1.523472905,-2.362182617,881.1461792,1.751546144,14.3629179,1.807777524,0.267864197,0.546418548,0.514042735,2.30189538,14.54596901,1.566102386
13.7,-0.196762204,0.70759201,0.662338972,0.887118876,9.719063759,1.149731636,1.033201456,0.443258762,0.313373625,0.457924157,0.357179612,0.575454593,0.584889174,-0.825268626,-1.425078511,-2.044286013,-0.893066406,881.0692749,0.632901609,10.30110168,1.813759565,1.035721183,0.440128088,0.297796577,0.720239639,10.42672443,1.409372568
13.8,-0.927120447,-2.570966721,-0.814899325,0.73879528,9.583587646,1.945824981,0.946458638,1.427667379,0.294131398,0.512166023,0.368830055,0.571430087,0.52451694,-1.210007787,-1.357101321,-2.564197302,0.586669922,880.8300171,-0.192622229,7.016952515,1.131805062,0.948978424,1.424536705,0.27855435,-0.197407871,7.582854748,1.380658627
13.9,-1.381923914,-3.510037422,-2.551921606,0.794534683,9.313463211,2.962711573,1.522809505,0.899880171,0.201279938,0.565947056,0.365409523,0.57035327,0.469975442,-1.304692864,-1.252305031,-2.765064478,1.659423828,880.7352905,-0.58265233,6.155536175,0.562313318,1.525329351,0.896749496,0.18570289,-0.632901609,5.907878876,0.474975288
14,-1.129407883,0.739227295,-1.44876194,0.573971152,8.860298157,4.163661957,1.1000911,0.020234896,0.348498344,0.594990492,0.339937389,0.595968306,0.418629497,-1.433807254,-1.127864242,-2.922916651,1.551025391,880.7267456,0.187836573,9.881160736,3.477967739,1.102610946,0.017104214,0.332921296,-0.234496623,9.700503349,3.117847919
14.1,0.800914645,4.173858643,-0.17163372,0.557810903,8.679903984,4.576188087,-0.031841327,0.201661736,-0.238542691,0.607773304,0.333626479,0.602809072,0.399398744,-1.449500561,-1.081397653,-2.966001272,0.734619141,880.8607788,1.247856975,12.72742367,4.329812527,-0.02932151,0.198531047,-0.254119754,1.484746456,13.1019001,4.378865242
14.2,3.223335743,-0.061004639,-1.128938913,0.692559838,9.006720543,3.817031622,-1.078252673,-0.207312241,-0.211970076,0.587260485,0.343798578,0.588635564,0.437716305,-1.3913095,-1.164092779,-2.863759756,-0.504638672,880.9472046,3.984049797,9.062815666,2.691925526,-1.075732827,-0.210442916,-0.227547124,3.464807272,9.354740143,2.312663078
14.3,-0.293699622,-0.148184776,-1.282917976,0.949052751,9.316707611,2.910094023,-1.14544785,-0.674929202,-0.346971184,0.571103394,0.366256207,0.562861502,0.471411854,-1.255548,-1.253363252,-2.729063272,-0.729248047,880.9733276,0.832702279,9.164510727,2.16670084,-1.142928004,-0.678059876,-0.362548232,0.805184841,8.995817184,1.831705689
14.4,-0.991940141,-3.605348587,0.792452335,1.221563816,9.563263893,1.795037866,-1.418504357,-0.391487956,-0.543364227,0.527583838,0.370769292,0.547948658,0.532858074,-0.973262429,-1.347539186,-2.360203505,-0.441162109,880.9401245,0.088534437,5.913861275,2.394019127,-1.415984511,-0.39461866,-0.558941245,0.08015956,5.876772404,2.447857618
14.5,-0.82015419,-1.604310513,1.76610899,1.596412063,9.653603554,0.806257665,-0.956079721,-0.293138742,-0.134695679,0.496076554,0.381447464,0.524932981,0.58400625,-0.389669001,-1.388598204,-1.724077344,-0.37512207,880.9677124,0.752542734,7.905886173,2.419143677,-0.953559935,-0.296269417,-0.150272742,0.844666421,8.230113029,2.444268227
14.6,-0.649729371,1.457467079,1.012017608,1.597619891,9.672011375,0.234676465,-0.216627926,-0.208533958,6.11E-04,0.473946005,0.389407516,0.516685069,0.597555101,-0.145424232,-1.404899597,-1.464251518,-1.680419922,881.0731812,0.926022351,10.98903847,1.274178028,-0.214108109,-0.211664647,-0.014966187,0.857826889,11.17208862,1.713261008
14.7,0.801348448,4.646080017,2.169492722,1.37507093,9.70468235,0.301211506,0.138284519,0.94325155,0.550083756,0.459696025,0.382144272,0.53138566,0.598989725,-0.224606887,-1.426464796,-1.50368154,-2.541870117,881.1881714,1.934597135,14.34736443,2.461018085,0.140804335,0.940120876,0.534506679,2.297109842,14.43709564,2.072184324
14.8,-0.188609362,0.166369438,-0.230092227,0.924707711,9.742492676,0.806165874,1.00052011,0.98295778,0.395534933,0.497417092,0.412891358,0.534527779,0.554442465,-0.599375904,-1.450372934,-1.984488249,-1.500732422,881.053894,0.680758059,9.672985077,0.744167864,1.003039956,0.979827106,0.379957885,0.669990361,9.702896118,0.719043195
14.9,-0.582179844,-3.165604115,-1.593658805,0.496040672,9.64594841,1.697062373,1.045113325,0.764573634,0.474336505,0.537678242,0.421378106,0.543583751,0.485997021,-1.28642416,-1.389511704,-2.788372517,0.848266602,880.8844604,-0.089730851,6.457031727,0.250049978,1.047633052,0.761442959,0.458759457,-0.098105729,6.040680885,0.326620281
15,-0.957553089,-3.150499821,-1.812833786,0.270853609,9.363322258,2.902622461,1.485852242,0.119194992,0.258701235,0.566133082,0.399375945,0.571567297,0.439662397,-1.477752566,-1.268963218,-3.002298355,1.61706543,880.7194214,-0.690329313,7.284948349,1.247856975,1.488372087,0.11606431,0.243124187,-0.909272611,6.675975323,1.082752228
15.1,-0.595207751,0.974113464,-0.471784115,-0.02532254,8.990791321,3.916048527,0.795880437,-0.033826638,0.171347573,0.578280449,0.369261414,0.604100227,0.405340165,-1.577262521,-1.160006046,-3.084820747,1.540527344,880.762146,-0.501296341,11.28933716,3.773481369,0.798400283,-0.03695732,0.155770525,-0.570688188,10.51884842,3.471985579
15.2,1.069260716,6.813251495,0.666475773,0.127441436,8.959254265,4.11945343,-0.586506546,-0.213420883,-0.358577639,0.58466965,0.360530317,0.605490565,0.409620225,-1.538832784,-1.137188435,-3.038020849,0.388427734,880.8512573,1.109073281,15.8883419,4.737788677,-0.5839867,-0.216551557,-0.374154687,1.087537885,14.55314732,4.792823792
15.3,1.790035963,-1.145604134,-2.204761267,0.549126685,9.280617714,3.120734453,-0.74105531,0.689131856,-0.23396121,0.580878258,0.391449094,0.56459713,0.434047133,-1.396618605,-1.241776705,-2.942637205,-0.425415039,880.9472046,2.340180635,8.094919205,0.789631486,-0.738535523,0.686001122,-0.249538258,1.799402595,8.060222626,0.735792935
15.4,-0.483314753,-1.617483139,0.240259886,0.863191128,9.491631508,2.309593678,-0.955163419,-0.612010121,-0.518013358,0.559750676,0.39455241,0.548428297,0.480301619,-1.21312952,-1.316645026,-2.708293438,-0.557495117,880.9528198,0.43908295,7.853243828,2.705085993,-0.952643633,-0.615140855,-0.533590376,0.385244459,7.60678339,2.897708178
15.5,-1.059922695,-3.407867432,1.071444631,1.252454877,9.651875496,1.201264024,-1.10268724,-0.197538391,-0.503047168,0.527560651,0.402387559,0.52366668,0.534356773,-0.764538467,-1.392895579,-2.206662178,-0.570678711,880.9682007,0.13519448,6.480959892,2.325823545,-1.100167513,-0.20066908,-0.518624187,0.171086818,6.250052929,2.269592285
15.6,-0.610786796,-0.22522068,1.817145944,1.544496059,9.67469883,0.485885292,-0.522976637,0.044058621,-0.156381384,0.508437335,0.411910415,0.504310966,0.567358255,-0.254707098,-1.406414866,-1.674635172,-0.795288086,880.9782104,0.941575706,9.305686951,2.260020971,-0.520456791,0.040927939,-0.171958432,0.964307547,9.617950439,2.35812664
15.7,-0.471574426,2.812140465,1.090451002,1.625317693,9.667782784,0.250411153,-0.027259842,-0.326125443,0.075136371,0.496398121,0.406815886,0.500617087,0.580923676,-0.152866796,-1.402308583,-1.549025297,-1.720092773,881.1200562,1.154536963,12.36491108,1.355534077,-0.024740024,-0.329256117,0.059559315,1.222732425,13.15932846,1.434497118
15.8,1.471596003,1.792847633,0.541977525,1.240256786,9.72297287,0.321285367,0.471816689,0.832379639,0.469755024,0.498689562,0.423196822,0.507692397,0.560842395,-0.244751483,-1.440068126,-1.668534636,-2.536499023,881.164978,2.712264538,11.51904774,0.851844847,0.474336505,0.829248965,0.454177976,1.952543259,11.25942707,0.154337063
15.9,-0.229050279,-0.061844826,-0.122330129,1.01584816,9.697745323,1.212890029,1.03197968,0.948749363,0.385150254,0.541134834,0.429601938,0.51613313,0.51744175,-0.79957664,-1.412272096,-2.298150778,-0.768798828,881.0626831,0.659222662,9.193224907,1.165304661,1.034499526,0.945618689,0.369573206,0.722632468,9.573683739,1.077966571
16,-0.953863144,-4.355212212,-1.945341706,0.68126595,9.565753937,2.050028801,1.191415429,0.697073042,0.360715657,0.577479601,0.439015865,0.522044241,0.448611379,-1.249958038,-1.348688841,-2.866882324,1.321166992,880.7514038,-0.277567416,5.204389095,0.157926291,1.193935156,0.693942368,0.345138609,-0.277567416,5.015356064,0.118444718
16.1,-1.522871017,-0.926992416,-1.884383559,0.419675618,9.223139763,3.305746317,1.434539557,-0.248851046,0.336586505,0.599676788,0.412948877,0.555045724,0.399932891,-1.444518685,-1.224094272,-3.075402737,1.60925293,880.7543335,-0.948754191,9.20758152,2.152343988,1.437059402,-0.251981735,0.321009427,-1.122233868,8.718249321,1.768295884
16.2,0.474338025,4.049040794,0.760900259,-0.022050109,8.971032143,3.961034536,0.233884856,-0.276339948,0.034208428,0.594934523,0.390901029,0.590448022,0.381158262,-1.576345086,-1.154989243,3.121428967,0.536376953,880.8353882,1.344766378,13.01097298,4.698307037,0.236404672,-0.279470623,0.018631376,0.720239639,13.0887394,4.460221291
16.3,3.384082556,5.179319382,0.210006714,0.143370077,9.139239311,3.706786871,-0.708374083,-0.055817768,-0.203723401,0.592283845,0.399100155,0.581991196,0.399359345,-1.530467033,-1.183036327,-3.093000889,-0.153198242,880.9384155,3.656233072,11.10509014,2.768495798,-0.705854237,-0.05894845,-0.219300449,3.533002615,12.93440247,3.468396425
16.4,-0.361461729,0.409189224,-1.576710105,0.45651257,9.367632866,2.865209103,-0.954247117,-0.333150387,-0.339640826,0.588072717,0.417768806,0.550206006,0.421243608,-1.412794709,-1.270445466,-3.021344423,-0.525756836,880.9494019,0.095712908,9.686145782,1.305284739,-0.951727331,-0.336281061,-0.355217874,0.157926291,9.714859962,1.460818172
16.5,-0.12626034,-3.864583969,1.4775033,0.682078421,9.585343361,1.95610261,-1.128343582,-0.223194718,-0.583375871,0.548210084,0.411372185,0.544539154,0.483985573,-1.235286832,-1.357947469,-2.736090183,-0.235107422,880.9381714,0.435493708,5.691328526,3.209971666,-1.125823736,-0.226325408,-0.598952889,0.579063058,5.432903767,3.385843992
16.6,-1.211778402,-2.966354847,0.772258162,1.226155519,9.675310135,1.027274966,-0.746858537,0.100258179,-0.357661337,0.538924575,0.424046785,0.507609904,0.521609902,-0.697369635,-1.406949997,-2.201682329,-0.203369141,880.9147339,0.051445685,7.339983463,1.884347796,-0.744338751,0.097127497,-0.373238385,-0.020338992,6.941578388,1.844866276
16.7,-0.230730891,1.864685059,1.730561495,1.314906836,9.704117775,0.566639364,-0.270078599,-0.093691386,-0.024740024,0.526297808,0.431725949,0.497718096,0.539743125,-0.384172499,-1.424398661,-1.876206517,-0.967041016,881.0490112,1.064806104,11.42812061,2.216950178,-0.267558783,-0.096822068,-0.040317077,1.101894855,11.92582798,2.273181438
16.8,0.988888502,4.89046669,1.634521723,1.246118784,9.712666512,0.530739784,0.013973532,0.205632359,0.401949018,0.51456362,0.427803218,0.505120873,0.546908498,-0.402644664,-1.432239532,-1.859034538,-2.396484375,881.1500854,2.228914261,14.59143257,2.11645174,0.016493348,0.20250167,0.38637197,2.029113531,14.19542027,2.145165443
16.9,-0.275675178,0.1861763,-0.594277442,0.970683396,9.72928524,0.754442394,0.905530691,0.491517067,0.208304897,0.529842973,0.440060735,0.505094826,0.518418312,-0.660701275,-1.445102811,-2.179747105,-1.212768555,881.0956421,0.689132929,10.07976532,0.555134833,0.908050478,0.488386393,0.192727834,0.653240561,9.919445992,0.008374879
17,-0.515868783,-0.940444946,0.119990826,0.738030136,9.652067184,1.684799314,0.808708608,0.933783174,0.440738946,0.566230536,0.445920467,0.516159594,0.472756892,-1.131242275,-1.384385705,-2.716314316,0.005371094,880.8922729,0.08015956,7.25743103,1.337587833,0.811228454,0.930652499,0.425161898,0.112462662,7.987242222,1.538584948
17.1,-1.005090237,-4.276531219,-2.019184828,0.577807307,9.447351456,2.565806389,1.32397306,0.677525401,0.190895244,0.600221276,0.444387704,0.522520602,0.411371142,-1.349064589,-1.299266577,-3.03166461,1.463867188,880.7614136,-0.433100909,5.06560564,0.52043891,1.326492906,0.674394727,0.175318196,-0.587437987,5.375475883,0.530010223
17.2,-1.333726645,0.342272758,-1.626960754,0.347819686,9.063793182,3.727877617,1.215239167,-0.305966884,0.295353115,0.618284225,0.417599201,0.554866672,0.367110729,-1.477763295,-1.179065347,3.097832441,1.313232422,880.7521362,-0.482153773,10.18146038,2.70149684,1.217758894,-0.309097588,0.279776067,-0.726221681,9.638289452,2.350948334
17.3,0.942645729,4.713438988,1.038511753,0.03371051,8.879616737,4.162033558,-0.009544762,-0.317267895,-0.072998337,0.611532986,0.401019037,0.580917358,0.356547832,-1.562577963,-1.132483006,3.0707407,0.671142578,880.8676147,1.756331801,14.25165176,5.498706341,-0.007024945,-0.320398569,-0.088575393,1.283749342,13.70249844,5.391029358
17.4,3.440826178,0.153858185,-0.67445159,0.34728539,9.123282433,3.670728207,-0.53366673,0.82046777,-0.189368084,0.614540339,0.420224756,0.562204123,0.374193132,-1.474088311,-1.18622303,3.122017622,-0.383056641,880.934021,3.789034605,8.71705246,1.859223247,-0.531146944,0.817337096,-0.204945132,3.163311481,9.333204269,2.273181438
17.5,-0.330700934,-1.273181915,-1.248164892,0.698582828,9.331684113,2.932923317,-0.867198884,-0.540538967,-0.344527721,0.614597261,0.434809327,0.524550319,0.397351295,-1.336966753,-1.258293033,-3.037128448,-0.575927734,880.9630737,0.400797784,8.057829857,1.684547186,-0.864679098,-0.543669641,-0.360104799,0.413958311,7.797012806,2.090130568
17.6,-0.750849247,-3.734479904,0.39910984,0.969312012,9.551494598,1.999942541,-1.091080904,-0.159359351,-0.413555443,0.592063904,0.442020655,0.505169868,0.445961356,-1.11948812,-1.342182398,-2.77380681,-0.634155273,880.9608765,0.342173636,5.888736725,2.392822742,-1.088561058,-0.162490025,-0.429132521,0.228514567,5.631507874,2.420340061
17.7,-0.327246666,-0.878376961,1.78097403,1.175890088,9.67663765,1.198101521,-0.807639599,-0.309326649,-0.06108648,0.571821034,0.451261967,0.486998886,0.489060819,-0.739467561,-1.398434997,-2.352758646,-0.700195313,880.9979858,0.831505895,8.657232285,2.837887764,-0.805119753,-0.312457323,-0.076663531,0.660419047,8.583054543,2.639283419
17.8,-0.224259377,2.358113289,1.700855732,1.26844418,9.693048477,0.787348151,-0.283212185,-0.163635403,-0.124005549,0.556652129,0.451266527,0.481948912,0.50478816,-0.555515528,-1.418438315,-2.148169041,-1.849487305,881.0912476,0.969093144,11.92822075,2.482553482,-0.280692369,-0.166766092,-0.139582604,1.11984098,11.8468647,2.431107759
17.9,0.732096493,4.826607704,1.003957033,1.078487039,9.721697807,0.704258323,0.080557793,0.770376861,0.44776389,0.55140698,0.46006453,0.48306635,0.500936985,-0.57842958,-1.439074278,-2.176754951,-2.666015625,881.187439,1.722832322,14.5387907,1.720439434,0.08307761,0.767246187,0.432186842,1.713261008,13.48235893,1.599601984
18,0.047190249,0.07542038,-0.323942304,0.829579949,9.714418411,1.054637074,0.852690876,0.814359128,0.288328171,0.572685182,0.477147669,0.479617864,0.46295628,-0.90427804,-1.433538914,-2.582638264,-1.326416016,881.0350952,0.741775036,9.522237778,1.040877819,0.855210662,0.811228454,0.272751123,0.963111103,9.582057953,0.958325446
18.1,-0.566567421,-3.339046478,-1.172697783,0.605677545,9.635724068,1.864092708,0.800767362,0.581008792,0.357355893,0.60450536,0.486847371,0.483172327,0.412776738,-1.232110023,-1.370981932,-2.933913708,0.887817383,880.8717651,0.038285162,5.351547718,0.544367135,0.803287208,0.577878058,0.341778845,0.003589234,5.763113499,0.632901609
18.2,-1.413163304,-2.562028885,-1.800074816,0.385027617,9.339460373,2.965909004,1.376201987,0.242895111,0.308181286,0.629197001,0.474214643,0.505459726,0.351769954,-1.441700578,-1.260882854,3.020871878,1.622436523,880.7189331,-1.033699393,6.642475605,0.892522871,1.378721833,0.239764422,0.292604238,-1.216750264,7.148557663,0.860219717
18.3,-0.304257363,1.377648354,-0.04138422,-0.137026459,8.999809265,3.892945766,0.803821683,-0.434553921,0.393396914,0.625008643,0.452897787,0.549426973,0.319965333,-1.605980396,-1.162315249,2.89306426,1.484985352,880.7567749,-0.43908295,11.97727394,4.34775877,0.806341529,-0.437684625,0.377819866,-0.441475779,11.04526901,4.064209461
18.4,1.188288212,4.941195488,1.31594038,-0.200013757,8.93866539,4.028728485,-0.217544213,-0.239688069,-0.341167986,0.621614158,0.444268405,0.559306204,0.320747674,-1.620402455,-1.146892309,2.901188135,0.700195313,880.8178101,1.171286702,13.82812214,5.174479008,-0.215024397,-0.242818743,-0.356745034,0.893719256,12.87936783,4.902893543
18.5,2.691884995,-0.284365654,-0.20629549,0.235419005,9.202198029,3.484633684,-0.674165666,0.593531489,-0.304821521,0.623903334,0.453747332,0.539693534,0.350353628,-1.50128901,-1.207256556,3.011518478,-0.036987305,880.9220581,2.901297569,8.394021988,2.879761934,-0.67164582,0.590400815,-0.320398569,3.142972469,8.554341316,3.054438114
18.6,-0.823319316,-2.108653069,-1.974828839,0.681914091,9.407028198,2.685739279,-0.829019845,-0.278783411,-0.406835943,0.628223121,0.466898054,0.496572673,0.374304265,-1.322148919,-1.284335732,-3.02711916,-0.412109375,880.9371948,-0.16749759,7.276573658,0.89491564,-0.826500058,-0.281914085,-0.422412992,-0.077766739,7.054041386,1.049252748
18.7,-0.880579352,-3.322797775,0.916694641,0.824679017,9.605201721,1.797333479,-1.077641845,-0.518547833,-0.240680724,0.597229719,0.466798604,0.489951164,0.430538744,-1.140619993,-1.367755413,-2.85582304,-0.245727539,880.9291382,-0.033499517,6.616154671,2.867797852,-1.075121999,-0.521678507,-0.256257772,-0.099302143,6.407979012,2.781656265
18.8,-0.211629808,-0.893515587,2.075605392,0.792495787,9.741956711,0.969729841,-0.796644032,0.140269831,0.196087599,0.572286427,0.488177329,0.475769311,0.46333307,-0.83974725,-1.44274044,-2.531870365,-0.663208008,880.9640503,0.604187727,8.69551754,2.676372051,-0.794124186,0.137139142,0.180510536,0.614955425,8.541180611,2.870190859
18.9,-0.209471524,3.131362915,1.758532047,0.655592501,9.762252808,0.65256685,-0.126525372,-0.577190876,-0.014966187,0.552303791,0.486467808,0.479503006,0.477897912,-0.783028126,-1.475605011,-2.443184376,-1.492797852,881.0971069,0.424726009,12.78006554,2.402393818,-0.124005549,-0.58032155,-0.03054324,0.270388961,13.67617798,2.373680115
19,1.104608297,2.252239227,1.041677713,0.545157552,9.769435883,0.649362504,0.118736841,1.243797064,0.188146353,0.553364277,0.494456142,0.477842957,0.470071524,-0.866547644,-1.483650565,-2.53737998,-2.282836914,881.1378784,1.700100541,12.04068375,1.670190215,0.121256657,1.240666389,0.172569305,1.405783296,11.38385391,0.892522871
19.1,-0.230508506,-0.436612129,-1.35853827,0.565087497,9.723583221,1.139513969,0.966922581,0.602083623,0.197920188,0.589155853,0.505285621,0.464405805,0.42650798,-1.107641935,-1.440546393,-2.882753611,-0.145263672,880.9918823,0.226121739,9.146564484,0.333798766,0.969442427,0.598952889,0.18234314,0.218943268,9.2865448,0.063409798
19.2,-0.136158332,-3.803352356,-1.020023108,0.398857117,9.59708786,2.170751333,1.052138209,0.376674503,0.193949565,0.614592195,0.498731911,0.484047979,0.385433078,-1.371687531,-1.344112873,3.06294322,1.107177734,880.7741089,0.242871493,5.197210789,0.987039328,1.054658055,0.373543799,0.178372517,0.324227482,5.502295494,1.003789067
19.3,-1.432701111,-1.223999977,-1.709894419,0.239598542,9.21746254,3.339367628,1.373758554,-0.074449144,0.264504462,0.634982646,0.474157542,0.512794793,0.328552663,-1.49916935,-1.222394705,2.939606905,1.51940918,880.7382202,-1.13419795,7.853243828,1.448854089,1.3762784,-0.077579826,0.2489274,-1.256231904,8.135597229,1.712064624
19.4,0.108761884,3.595204353,1.020565987,-0.088949069,8.896454811,4.123838425,0.681954145,-0.329790622,0.106290475,0.632015407,0.449392408,0.552068233,0.308009833,-1.592914939,-1.136546493,2.889451504,1.022583008,880.7833862,0.611366212,12.79083347,5.089533806,0.684473991,-0.332921296,0.090713419,0.202193514,12.8255291,5.179264545
19.5,1.85227859,4.910606384,0.692102432,0.043849766,8.966070175,3.972157478,-0.721202254,0.011988222,-0.153937921,0.633698344,0.447426319,0.545503378,0.318942726,-1.559757233,-1.153738499,2.931562424,0.163818359,880.913269,3.042474031,10.94716358,3.778266907,-0.718682408,0.008857539,-0.169514969,3.272184849,13.73599815,4.789234638
19.6,0.348269165,0.35490799,-1.855279446,0.464482427,9.273531914,3.332752943,-0.943862438,-0.311159253,-0.385761112,0.637517512,0.469024062,0.5079,0.342422843,-1.424641371,-1.221127629,3.022875547,-0.44909668,880.9411011,0.118444718,9.530612946,1.306481123,-0.941342652,-0.314289927,-0.40133816,0.281156659,9.337990761,1.374676585
19.7,-0.120517552,-3.861267567,1.279856205,0.723999262,9.530731201,2.193486452,-1.212337494,-0.31390813,-0.641408026,0.605166614,0.462499142,0.499967128,0.41314292,-1.251987457,-1.333019853,-2.977736473,-0.610351563,880.9589233,0.44745782,5.631507874,3.448057413,-1.209817648,-0.317038834,-0.656985044,0.492921472,5.492724419,3.407379389
19.8,-1.090199351,-2.737478733,0.682180285,1.308004022,9.64950943,1.160373807,-0.882470548,-0.02527453,-0.40286532,0.59562552,0.469049126,0.461847663,0.460347623,-0.725660682,-1.391538262,-2.439632654,-0.570678711,880.9540405,0.179461703,7.330412388,2.002792597,-0.879950702,-0.028405212,-0.418442369,0.132801652,7.067201614,1.892722726
19.9,-0.409455895,1.670472145,2.102175236,1.46600306,9.67743206,0.648143947,-0.303370714,-0.159970209,-0.08613193,0.579068422,0.469643295,0.453273118,0.490258485,-0.39259091,-1.407874584,-2.069808483,-1.165161133,881.055603,1.00737834,11.20558834,2.700300455,-0.300850898,-0.163100898,-0.101708986,1.148554921,10.73539925,2.967100143
20,-0.321948051,4.45825386,1.627796531,1.352383614,9.695659637,0.579355121,0.013057235,-0.384157598,0.226325408,0.564473271,0.467333347,0.464017212,0.498570353,-0.404743075,-1.420201659,-2.040341854,-2.237915039,881.1329956,1.044467092,14.06022549,2.134397745,0.015577052,-0.387288272,0.210748345,2.055434704,14.1990099,2.286342144
20.1,-0.177087724,0.844316483,-0.697740734,0.876477301,9.732674599,0.813565195,0.943098843,0.997007668,0.550083756,0.577556074,0.491223931,0.464222819,0.459474534,-0.748189867,-1.447890282,-2.466085434,-1.231201172,881.0978394,0.699900627,10.58345413,0.463011175,0.945618689,0.993876994,0.534506679,0.556331277,10.52243805,0.230907381
20.2,-0.619123697,-1.390213966,-0.570111752,0.427268505,9.65369606,1.671523094,0.951956391,0.531223297,0.571158588,0.601084411,0.501574218,0.476065814,0.400602281,-1.320538759,-1.393947482,-2.913240433,0.08190918,880.8842163,-0.040677983,6.714260101,1.154536963,0.954476237,0.528092623,0.55558151,-0.108873427,7.446464062,1.113858938
20.3,-0.260994643,-3.867015362,-0.96249485,0.108837746,9.427656174,2.958898783,1.463250279,0.563293695,0.33322674,0.626632154,0.495537668,0.503341973,0.347144961,-1.530474186,-1.264157414,2.908399582,1.36340332,880.7709351,-0.31226337,5.377869129,1.649851203,1.465770006,0.560163021,0.317649692,-0.257228434,5.535795212,1.659422517
20.4,-1.225403428,0.862563133,-1.3298316,-0.140763298,8.86042881,4.200401783,1.290680885,0.163788125,0.380874187,0.64605999,0.472874492,0.532509744,0.274644434,-1.604295492,-1.127895355,2.78713274,1.292114258,880.7543335,-1.269392371,9.580862045,2.803191662,1.293200731,0.160657436,0.365297139,-1.223928809,9.765109062,2.956332445
20.5,0.970849454,4.770689011,0.45067358,-0.191881999,8.672692299,4.573617458,-0.041920595,-0.243047819,-0.209832057,0.647426784,0.459916443,0.546730042,0.264177978,-1.612725854,-1.085139394,2.79279232,0.861450195,880.8522339,1.190429211,14.48495197,4.967499733,-0.039400779,-0.246178508,-0.225409105,0.825523794,13.51346588,5.243870735
20.6,3.017433167,0.938154221,-0.753420115,0.036821414,9.003443718,3.886776447,-0.944167852,0.381866843,-0.2950477,0.644397378,0.469009399,0.527401924,0.299442202,-1.561323047,-1.163249016,2.859830856,-0.351318359,880.930603,3.141776085,9.774680138,2.740978241,-0.941648066,0.378736168,-0.310624748,3.157329559,9.95414257,2.82233429
20.7,-0.279917568,-0.944602966,-1.008615613,0.614055336,9.377401352,2.999766588,-1.164690018,-0.618729651,-0.745865881,0.644513249,0.483585507,0.488071233,0.346879423,-1.355144143,-1.2551862,2.998443604,-0.536376953,880.9506226,0.441475779,7.490731239,1.797009826,-1.162170291,-0.621860325,-0.761442959,0.459421933,7.940581799,2.074577332
20.8,-1.361794353,-3.869545937,0.438242555,1.24960959,9.583769798,1.661393642,-1.300607443,-0.190208018,-0.755945146,0.625235021,0.479501456,0.45427525,0.415684432,-0.925923645,-1.357188702,-2.733394384,-0.412109375,880.9371948,-0.098105729,5.638686657,2.086541414,-1.298087597,-0.193338707,-0.771522224,-0.009571291,5.748756409,2.019542217
20.9,-1.066587687,-0.943119049,1.635794282,1.634740472,9.640117645,0.75242281,-0.750218332,-0.296803921,-0.193644136,0.606464446,0.480447412,0.431063354,0.464273006,-0.431362063,-1.386243463,-2.194856882,-0.541625977,880.9884644,1.014556766,8.837890625,2.413161755,-0.747698486,-0.299934596,-0.209221184,0.729810894,8.675178528,2.611765862
21,-0.41778028,2.558569908,1.293306828,1.750571489,9.641876221,0.402430981,-0.200745434,-0.475176454,-0.073609203,0.592368484,0.476926535,0.429874837,0.493633032,-0.212813124,-1.387156129,-1.918187857,-1.846923828,881.0910034,1.306481123,12.0729866,1.634297848,-0.198225617,-0.478307128,-0.089186259,1.433300734,13.07438278,1.824527264
21.1,0.708654523,2.469615936,0.405080557,1.392940283,9.697859764,0.426174074,0.106519543,0.634154022,0.651487291,0.581725776,0.485370427,0.440411568,0.482302099,-0.296909571,-1.421704531,-2.013264894,-2.549804688,881.1854858,2.098505497,12.14596748,0.830309451,0.109039366,0.631023288,0.635910213,1.45483613,11.7834549,0.230907381
21.2,-0.079762876,1.575742722,0.777156413,0.811817884,9.711162567,1.097568989,0.901865482,1.119791508,0.795651376,0.596155882,0.500639439,0.45603615,0.431264848,-0.933951735,-1.431133509,-2.715141535,-1.170532227,881.0184937,0.893719256,11.30848026,1.715653777,0.904385328,1.116660833,0.780074298,0.772881687,10.94836044,1.823330879
21.3,-0.336344659,-4.337973595,-1.383653045,0.351698458,9.625355721,1.843695164,1.078099966,0.554130733,0.292604238,0.618807554,0.518151581,0.460467547,0.367435485,-1.382303715,-1.378213406,2.974445105,1.057006836,880.8519897,-0.015553347,4.743771076,0.522831738,1.080619812,0.551000059,0.27702719,0.02751746,4.936393261,0.55154562
21.4,-0.895106077,-2.229261398,-1.856462002,0.28061375,9.331513405,3.2551229,1.412243009,0.170813069,0.177150786,0.646150768,0.499386549,0.492918372,0.318789989,-1.477604389,-1.231408715,2.892067909,1.551025391,880.7265015,-0.850648463,6.869793892,1.239482164,1.414762855,0.167682379,0.161573738,-0.714257538,7.574480057,1.415354609
21.5,-0.771247029,3.894765854,0.391952276,0.046578541,8.937203407,4.03665781,0.555199742,-0.344145954,0.009773836,0.651262939,0.475393444,0.521341205,0.282354027,-1.559257984,-1.146530509,2.824246645,1.331787109,880.7765503,-0.728614509,12.74895859,4.389633179,0.557719529,-0.347276628,-0.005803215,-0.137587309,13.06361485,4.165904045
21.6,2.497030497,5.526284218,0.436718225,0.100310914,9.083754539,3.694013596,-0.647287607,-0.246713012,-0.175318196,0.641980469,0.474940658,0.518957555,0.304918826,-1.543648005,-1.184431791,2.869021177,0.17175293,880.8744507,3.680161238,14.42154217,4.24367094,-0.644767761,-0.249843702,-0.190895244,4.029513359,13.50868034,4.687539577
21.7,1.113765597,0.230650902,-2.338240623,0.339464426,9.353281021,2.927675724,-0.979598045,-0.15783219,-0.176234484,0.644118726,0.506805003,0.475227118,0.312782705,-1.455361605,-1.2655375,2.884095669,-0.604980469,880.9660034,0.313459754,9.543772697,0.55154562,-0.977078199,-0.160962865,-0.191811547,0.833898664,9.516255379,0.528813779
21.8,-0.242318988,-2.692591667,1.421990633,0.561513305,9.623236656,2.01866889,-1.213253856,-0.989219129,-0.701272786,0.613983929,0.497953206,0.474862456,0.397599906,-1.268779397,-1.358054161,2.981008053,-0.602416992,880.9574585,0.446261436,6.087340832,3.14895463,-1.21073401,-0.992349863,-0.716849804,0.329013109,6.51445961,3.066402197
21.9,-1.562008023,-2.910068035,1.174035549,1.221090317,9.687170982,0.915448308,-0.718147933,-0.053374309,-0.498465657,0.601535857,0.491248161,0.443189561,0.44767502,-0.643307567,-1.414538503,-2.416989088,-0.361938477,880.9364624,-0.333798766,6.653243542,2.01475668,-0.715628088,-0.056504991,-0.514042735,-0.345762879,7.024130821,2.124826431
22,-1.053375006,0.985275269,1.749644041,1.396929502,9.691115379,0.545448124,-0.321085811,-0.249767333,-0.052228939,0.58835423,0.485768944,0.439017564,0.474480152,-0.371931374,-1.417143822,-2.104003191,-0.774169922,880.9760132,0.46420759,11.64347458,2.530410051,-0.318565995,-0.252898008,-0.067805991,0.485742986,11.1876421,2.365305185
22.1,1.593411565,5.165944099,2.315876484,1.252358317,9.730255127,0.389576137,-0.105145097,0.727310896,0.463646382,0.579027951,0.495236963,0.442005455,0.482656628,-0.304469258,-1.436653495,-2.017733574,-2.367431641,881.1661987,2.542374134,14.78166199,2.309073925,-0.102625281,0.724180222,0.448069304,2.439482689,15.54377556,2.495713949
22.2,-0.604097843,-0.003705025,-1.614575028,0.806120038,9.751342773,0.657163203,0.94065541,0.53519392,0.27702719,0.598603845,0.52232796,0.429886222,0.427520901,-0.683951676,-1.464541554,-2.520644426,-1.302612305,881.0326538,0.184247345,9.767501831,-0.983450115,0.943175197,0.532063246,0.261450112,0.178265288,9.633503914,-0.624526739
22.3,-0.12092942,-2.867134571,-0.141035318,0.420175254,9.670827866,1.571281552,1.04694593,0.543745995,0.543669641,0.612991393,0.521025658,0.455092609,0.381660253,-1.309500694,-1.404170632,2.949579477,0.790039063,880.8710327,0.177068874,6.800402164,1.337587833,1.049465656,0.54061532,0.528092623,0.217746854,6.197410583,1.298106313
22.4,-0.737613738,-4.010285378,-1.744161129,0.109601118,9.417282104,2.733709574,1.591837287,0.214184463,0.299323738,0.634149849,0.513575256,0.480262816,0.32162413,-1.530725718,-1.288059711,2.830539942,1.479736328,880.734314,-1.000199914,6.235695839,1.018146038,1.594357133,0.211053789,0.28374669,-0.842273593,5.739185333,0.969093144
22.5,-0.373228908,2.201967239,-0.039542675,-0.162211105,8.964979172,4.122505665,0.982805073,-0.216780633,0.098654665,0.643847466,0.484020114,0.529972732,0.278272837,-1.608555198,-1.136324525,2.767903328,1.466552734,880.7748413,-0.581455886,10.9615202,4.019941807,0.98532486,-0.219911322,0.08307761,-0.259621263,11.83849049,4.455435753
22.6,1.994023085,4.434345245,0.142098427,-0.029539781,8.859231949,4.205177784,-0.207464948,-0.031383179,-0.229074299,0.651846111,0.476502329,0.523881316,0.268133223,-1.577820897,-1.127610922,2.786721706,0.18762207,880.8727417,1.913061738,13.49193001,4.197010994,-0.204945132,-0.034513861,-0.244651347,1.160519004,14.04108334,3.826123476
22.7,1.993065953,-0.33265686,-1.522120237,0.100617886,9.236745834,3.292840719,-0.916373551,0.19524765,-0.222660214,0.640878677,0.495383471,0.49946484,0.307253361,-1.540249109,-1.228200912,2.836122513,-0.515136719,880.951355,2.093719721,9.31525898,2.132004976,-0.913853705,0.192116976,-0.238237262,1.597209096,8.714659691,1.878365755
22.8,0.168113112,-1.165140152,1.571776628,0.457090169,9.556420326,2.358999252,-1.209894061,-0.822758496,-0.570242286,0.6258322,0.502696395,0.47867614,0.371184558,-1.361618161,-1.324589849,2.956454039,-0.55480957,880.9525757,0.780060172,7.570890903,3.481556892,-1.207374215,-0.82588917,-0.585819304,0.514456868,7.951349735,3.337987661
22.9,-0.980083942,-3.864359856,0.875637174,1.162080169,9.685411453,0.975998878,-1.090164542,0.533972204,-0.757472336,0.619144261,0.5095613,0.425555706,0.419416219,-0.698584497,-1.413389087,-2.554942369,-0.433227539,880.9469604,0.171086818,5.733202934,1.842473388,-1.087644696,0.53084147,-0.773049355,0.253639191,6.110072613,2.091326952
23,-0.829803407,-0.727575302,1.644276023,1.55489099,9.676208496,0.351708412,-0.413020939,-0.22930336,-0.187535495,0.612902403,0.50801754,0.40377304,0.451251596,-0.222451597,-1.407511115,-2.06132102,-0.845458984,880.9835815,0.702293456,8.806783676,1.990828395,-0.410501122,-0.232434049,-0.203112543,1.05523479,9.081958771,2.123630047
23.1,-0.300848126,3.173279762,1.904184818,1.521247029,9.683748245,0.28497985,0.08239039,-0.185931966,0.251676291,0.601804733,0.502874374,0.411883503,0.461457878,-0.185186505,-1.412310958,-1.991716266,-1.643432617,881.1224976,1.292124271,14.53759384,2.280359983,0.084910206,-0.189062655,0.236099243,1.324427366,13.69292736,2.130808592
23.2,0.436815619,2.065313339,-0.847978115,1.036480427,9.734437943,0.610148668,0.56772244,1.053818107,0.463646382,0.611327708,0.525629282,0.417791098,0.428475291,-0.462096453,-1.445506692,-2.325227022,-1.997558594,881.1071167,0.424726009,10.83230782,-0.384048045,0.570242286,1.050687432,0.448069304,0.892522871,11.17089272,0.239282265
23.3,-0.207726419,0.324762344,0.185177803,0.587555826,9.643675804,1.68068099,1.159345031,0.500069201,0.544280529,0.626415372,0.522418976,0.445398688,0.370891929,-1.234483123,-1.388231158,-2.910483122,0.142700195,880.951355,0.269192547,10.02353382,1.8628124,1.161864758,0.496938497,0.528703451,0.257228434,9.418149948,1.897508383
23.4,-0.548894525,-4.297510147,-1.731097221,0.293347389,9.463551521,2.554512024,1.387503028,0.608497679,0.323147476,0.644638538,0.52427721,0.458450496,0.31527406,-1.456462026,-1.305495739,2.854544163,1.218139648,880.7623901,-0.257228434,5.2737813,1.124626637,1.390022755,0.605367005,0.307570428,-0.424726009,5.145765305,0.985842943
23.5,-1.192754984,-1.165180206,-1.541764021,0.188395828,9.022472382,3.837953329,1.310228586,-0.026801692,0.162795469,0.662846148,0.496580064,0.493763834,0.265029311,-1.521748185,-1.168172836,2.778846979,1.551025391,880.7445679,-1.009771109,8.504091263,2.671586514,1.312748432,-0.029932374,0.147218406,-0.9906286,8.177471161,2.426322222
23.6,0.761245251,4.501529694,0.285655975,0.109610982,8.710651398,4.516038895,0.095829412,-0.086361006,-0.254425168,0.669456065,0.478059918,0.515640855,0.242746636,-1.54675281,-1.091898918,2.762952805,0.737182617,880.8139038,0.869791031,13.09950733,4.741377831,0.098349229,-0.089491688,-0.270002246,0.943968534,13.02054405,4.886143684
23.7,3.684813023,1.831501007,-0.259362221,0.387950301,8.959360123,3.968595028,-0.888273776,-0.167911455,-0.311846465,0.669376671,0.481272608,0.498594761,0.271493316,-1.473350883,-1.152052522,2.849037886,0.039672852,880.9240112,4.073780537,10.81436157,3.719642878,-0.88575393,-0.171042144,-0.327423513,3.562912941,9.034101486,3.17407918
23.8,-0.026747882,0.29686451,-1.126333475,0.792438865,9.231893539,3.211628675,-0.869336963,0.248392895,-0.349109232,0.672660172,0.499407142,0.458464146,0.291604221,-1.32888782,-1.2267313,2.949600697,-0.494018555,880.9459839,0.765703261,9.471988678,2.08534503,-0.866817117,0.245262206,-0.36468628,0.401994199,9.710074425,2.057827473
23.9,-0.728523612,-3.145636559,1.226594448,1.082342386,9.574439049,2.097896338,-1.500971079,-0.236328319,-0.453872532,0.652342558,0.508389533,0.439002931,0.367432863,-1.035387397,-1.3312428,-2.856457233,-0.435913086,880.946228,0.305084884,5.866004944,2.930011272,-1.498451352,-0.239458993,-0.46944958,0.361316234,5.837290764,2.860619545
24,-1.12701273,-2.192299843,1.684415698,1.505406022,9.660820007,0.756773233,-1.032437801,0.168675035,-0.350330949,0.637671292,0.516995609,0.394919276,0.412467748,-0.465807855,-1.398126006,-2.386971951,-0.673706055,880.9650269,0.358923405,7.343572617,2.321038008,-1.029918075,0.165544361,-0.365907997,0.406779855,7.764709473,2.48733902
24.1,-0.545588732,1.156744003,1.675255299,1.503334761,9.685317993,0.34577316,-0.089568049,-0.042684175,0.071471177,0.627565444,0.523846149,0.384123892,0.42756331,-0.223826155,-1.41332829,-2.127738237,-1.593261719,881.1224976,1.009771109,10.88495064,2.015953064,-0.087048233,-0.045814857,0.055894129,0.973878801,10.8119688,1.970489502
24.2,0.644352674,5.161603928,1.515228748,1.281552196,9.70907402,0.509281158,0.319100499,0.835739374,0.537866414,0.624033153,0.527058721,0.395564348,0.419432461,-0.379929751,-1.429611444,-2.288764715,-2.61315918,881.1732788,2.01475668,14.87498188,1.213161111,0.321620315,0.8326087,0.522289395,1.920240164,14.82832146,1.939382792
24.3,-0.143187582,0.851209641,0.141678095,0.836381137,9.724590302,1.137467146,0.942793429,0.115835235,0.330783278,0.631977558,0.542076111,0.41135636,0.381683528,-0.849112809,-1.430123568,-2.668251753,-1.173095703,881.0949097,0.556331277,10.49491978,1.281356573,0.945313275,0.112704553,0.31520623,0.477368116,10.59422207,1.665404558
24.4,-0.295458734,-3.443889141,-0.997134447,0.437640041,9.624081612,1.831912637,0.785495758,0.871169508,0.482277751,0.64725709,0.550576806,0.417903215,0.321514696,-1.336294174,-1.377535582,2.911247015,0.274902344,880.8634644,0.206979156,6.181857109,0.835095108,0.788015544,0.868038833,0.466700703,0.16031912,5.685346603,0.610169768
24.5,-0.977791429,-3.972033501,-2.514708519,0.253457725,9.357292175,2.923566103,1.544189811,0.318642348,0.252898008,0.666872919,0.544389069,0.436712503,0.261157602,-1.484317899,-1.266901374,2.702672958,1.479736328,880.7631226,-0.727418065,5.92343235,0.561116934,1.546709657,0.315511644,0.23732096,-0.866201818,5.575276852,0.490528643
24.6,-1.146256328,2.679767609,-1.50001812,-0.07055556,8.873157501,4.175223827,1.194164276,-0.450436413,0.184481159,0.670464635,0.518188119,0.484848827,0.216517568,-1.587693334,-1.130933762,2.620043993,1.418945313,880.7406616,-0.680758059,12.85304642,4.162314892,1.196684122,-0.453567088,0.168904111,-1.045663476,12.5491581,3.263810158
24.7,1.567542195,4.81265831,1.128231525,-0.063058622,8.790343285,4.409767151,-0.220293105,-0.582383215,-0.607199609,0.666411579,0.501340926,0.503833652,0.23063831,-1.585301757,-1.104202032,2.683778763,0.80859375,880.8405151,1.586441398,13.51944828,5.309673309,-0.217773288,-0.58551389,-0.622776628,1.591227055,12.5180521,5.541777134
24.8,1.449489117,-1.034778595,-1.427884102,0.446786314,9.089694023,3.653524637,-0.774652898,0.389502645,-0.313679069,0.673329294,0.503033817,0.473473579,0.263452917,-1.449111581,-1.186042428,2.811756372,-0.221923828,880.916687,1.896311998,7.97767067,1.94177556,-0.772133052,0.38637197,-0.329256117,1.386640668,8.143971443,1.91066885
24.9,-0.975463986,-1.596734524,-0.116449833,0.692240834,9.39647007,2.71984148,-1.222416759,-0.571998537,-0.365602583,0.662087739,0.512126088,0.450170994,0.311342686,-1.321572781,-1.280549526,2.970871449,-0.406860352,880.9437866,0.293120772,7.779066563,3.294916868,-1.219896913,-0.575129211,-0.381179631,0.049052864,7.318448067,2.961117983
25,-0.536374629,-3.13688755,1.157079697,0.907973707,9.689203262,1.448770761,-1.385212302,0.182114065,-0.084910206,0.641371489,0.534183502,0.417615354,0.374241441,-0.921072125,-1.395997405,-2.883289337,-0.813720703,880.9801636,-0.009571291,6.441478729,2.153540373,-1.382692456,0.178983375,-0.100487255,0.161515534,6.262016773,2.279163599
25.1,-0.257400811,0.291344643,2.099487782,0.922373176,9.746409416,0.54339081,-0.498542011,0.189139009,-0.070554882,0.625208914,0.54745084,0.391496658,0.396075726,-0.532383263,-1.459898591,-2.490674734,-1.841674805,881.1495972,0.629312336,9.894321442,2.809173822,-0.496022195,0.186008319,-0.08613193,0.585045159,10.26760197,2.706282377
25.2,-0.57531029,4.308987617,0.725436687,0.975839853,9.7455616,0.487936258,0.136146486,0.122860178,0.095905773,0.622287214,0.545429289,0.393174887,0.401869774,-0.463661015,-1.459119797,-2.405669212,-2.819213867,881.1952515,0.736989379,15.00539112,2.019542217,0.138666302,0.119729497,0.080328718,0.373280346,14.63689613,1.384247899
25.3,-0.081617296,1.259708405,-1.122166991,0.592935324,9.756796837,0.715683103,0.739680886,0.811610222,0.268169641,0.628070354,0.564238489,0.391652137,0.368454754,-0.878923595,-1.469920278,-2.888468742,-1.387084961,881.1312866,0.336191595,10.50808048,-0.28713873,0.742200732,0.808479548,0.252592593,0.342173636,10.71027374,0.110069841
25.4,-0.160600096,0.563943863,-0.025660157,0.389221042,9.673452377,1.694125414,0.752814472,0.56359911,0.362548232,0.648166716,0.564652979,0.404818296,0.320542067,-1.326750159,-1.393692851,2.893261433,0.132202148,880.8788452,0.131605253,8.746963501,1.793420553,0.755334318,0.560468435,0.346971184,0.263210505,9.605986595,1.692921996
25.5,-0.556369185,-4.710737228,-1.916472673,0.25814575,9.484483719,2.479581594,1.142546177,0.862617433,0.171958432,0.668747425,0.566926956,0.406733423,0.256785244,-1.467061758,-1.31376195,2.660098314,1.669921875,880.7509155,-0.300299227,4.725824833,0.54317075,1.145066023,0.859486759,0.156381384,-0.477368116,4.582255363,0.461814761
25.6,-1.869013429,-0.039885521,-1.745478392,0.142504364,9.104874611,3.640238762,1.326416492,-0.247934744,0.170431271,0.681233346,0.549373329,0.436947614,0.20472613,-1.531669021,-1.190187931,2.570587873,1.685791016,880.7120972,-1.621137381,9.290133476,2.471785784,1.328936338,-0.251065433,0.154854223,-1.787438512,9.166903496,2.183450699
25.7,0.922478139,4.692214012,1.390101671,-0.061527509,8.908894539,4.098914623,-0.220598549,-0.069256797,-0.176845357,0.67782253,0.537308872,0.462706983,0.193602428,-1.585877895,-1.13957119,2.547318459,1.197021484,880.8121948,0.845862806,13.83051491,5.624329567,-0.218078732,-0.072387479,-0.192422405,1.016949654,13.81137276,5.576473236
25.8,2.823716402,1.155304909,-0.629114866,0.343105733,9.231818199,3.457010746,-0.995785952,0.211741,-0.146912977,0.683969438,0.549856305,0.433659762,0.222888574,-1.466894746,-1.209277749,2.641068459,-0.110961914,880.9049683,3.223132133,8.535198212,1.111466169,-0.993266106,0.208610326,-0.162490025,3.677768469,9.231510162,1.956132531
25.9,-0.354716599,-0.554251671,-1.239188194,0.527313471,9.429129601,2.642695189,-0.860479414,-1.243644357,-0.435546577,0.679106116,0.554095387,0.407544822,0.256320864,-1.37384665,-1.292422652,2.75541997,-0.581298828,880.9594116,0.17587246,8.870193481,1.402194023,-0.857959569,-1.246775031,-0.451123625,0.108873427,8.586644173,1.940579176
26,-0.490309179,-3.858838558,1.544447303,0.790078044,9.59869194,1.846962571,-1.048320293,0.086513728,-0.517097056,0.659053087,0.540897489,0.409746319,0.325543225,-1.166580319,-1.364489913,2.922784328,-0.480834961,880.944519,0.294317186,6.026323795,3.378665686,-1.045800447,0.083383046,-0.532674074,0.205782741,5.716453075,3.135794163
26.1,-0.931577325,-1.195898056,1.308108568,1.162223697,9.685861588,1.096557498,-0.617966056,-0.194789514,-0.181732267,0.655088723,0.542906463,0.383165777,0.365205795,-0.711427569,-1.408740401,-2.735688686,-0.338134766,880.9584351,0.212961212,8.342576027,2.294716835,-0.61544627,-0.197920188,-0.19730933,0.025124637,8.122436523,2.222932339
26.2,-0.350735486,2.107050896,2.245752811,1.203359604,9.698070526,0.818373322,-0.201050878,-0.158443049,-0.078801557,0.644850492,0.539656043,0.383949339,0.381473541,-0.597227037,-1.421849847,-2.591427565,-1.447875977,881.0482788,0.866201818,11.67338562,3.08434844,-0.198531047,-0.161573738,-0.094378605,0.808774054,11.71525955,3.058027267
26.3,1.363168359,4.64170742,1.174331903,1.100490928,9.709641457,0.833269656,0.20945026,1.110017657,0.510377526,0.649242043,0.550180972,0.375754565,0.366870791,-0.643823266,-1.430024624,-2.676650047,-2.232666016,881.1347046,2.383251429,14.33898926,1.999203324,0.211970076,1.106886983,0.494800478,2.492124796,13.07677555,1.201196909
26.4,0.048424304,1.346869469,-0.075074315,0.780623853,9.692937851,1.268054605,0.809014022,0.345825821,0.331088722,0.660672426,0.566387951,0.373401254,0.321422935,-1.018979549,-1.41836369,-2.921940804,-1.210083008,881.022644,0.776470959,10.80000496,2.029113531,0.811533868,0.342695147,0.315511644,0.953539848,10.99143124,1.727617979
26.5,-0.318998098,-3.93411541,-0.279233336,0.650744677,9.59950161,2.041955471,0.769002378,0.910875738,0.145996675,0.680038869,0.570554435,0.376746744,0.275574595,-1.252156377,-1.350851417,2.853806257,0.657958984,880.8881226,0.147158593,4.719842434,1.170090318,0.771522224,0.907745063,0.130419627,0.218943268,5.14456892,1.39860487
26.6,-1.745320797,-2.762363434,-2.092847347,0.703597486,9.24606514,3.190740347,1.492877126,0.431041449,0.107817635,0.704108477,0.558310509,0.39018327,0.200692758,-1.352744102,-1.231041193,2.664374352,1.315917969,880.7518921,-1.048056364,6.356533527,0.945164919,1.495396972,0.427910775,0.092240579,-1.044467092,6.973881721,1.118644595
26.7,0.205908895,3.153665543,-0.732040882,0.523236275,8.832911491,4.228035927,0.963562846,-0.097356573,0.178372517,0.708686113,0.542571127,0.42301178,0.155375555,-1.447668552,-1.121392608,2.559775591,1.157348633,880.81073,1.000199914,12.63290691,4.176671982,0.966082633,-0.100487255,0.162795469,0.872183859,12.67238903,3.803391695
26.8,1.610466957,4.468055725,0.383138657,0.528497338,8.817492485,4.259449005,-0.79053539,-0.448909253,-0.260533839,0.708307326,0.539357007,0.427419633,0.158891857,-1.44735074,-1.117786765,2.573254824,0.010620117,880.8917847,2.124826431,13.19282722,4.626522541,-0.788015544,-0.452039927,-0.276110888,2.635694027,14.55912971,4.185046673
26.9,2.124739408,0.635371208,-0.725195408,0.796705663,9.158799171,3.482898235,-0.594753206,0.351323605,-0.130725056,0.709344327,0.553483307,0.396348327,0.190014496,-1.337064981,-1.198920965,2.661334991,-0.710693359,880.9760132,1.700100541,9.786644936,1.799402595,-0.592233419,0.34819293,-0.146302119,2.288734913,10.00439167,2.385644197
27,-0.071413279,-2.863413334,1.143065929,0.767814517,9.425570488,2.597446203,-1.111850262,-0.564973533,-0.262061,0.691953361,0.556801915,0.38846454,0.245167047,-1.285054445,-1.291105032,2.795918465,-0.716064453,880.9696655,0.713061154,6.551548481,3.341576815,-1.109330416,-0.568104267,-0.277638048,0.54317075,6.104090691,3.50069952
27.1,-1.172524214,-4.002895355,0.920246124,1.098284483,9.624116898,1.529877186,-0.920955002,0.059941106,-0.447458446,0.683995008,0.562005401,0.357984632,0.296896875,-0.948163986,-1.377554536,-2.952846527,-0.515136719,880.9581909,0.114855483,6.038288116,2.486142635,-0.918435216,0.056810424,-0.463035494,-0.011964113,5.728417397,2.39162612
27.2,-0.429988801,0.605855942,1.975650311,1.271800995,9.684168816,0.905233741,-0.343382359,0.044058621,-0.084299341,0.676762462,0.565402865,0.340595424,0.327673197,-0.593373597,-1.411804199,-2.750117302,-1.186279297,881.0202026,0.83868432,10.13958549,2.819941521,-0.340862542,0.040927939,-0.099876389,0.843469977,10.77727318,2.748156786
27.3,-0.173972487,5.1782341,1.257945418,1.301559091,9.685725212,0.814283192,0.052458014,-0.34689483,0.059864748,0.670152187,0.560708225,0.347703189,0.340544283,-0.55904597,-1.413593769,-2.677587748,-2.248535156,881.1757202,1.147358418,14.77567959,2.02073884,0.05497783,-0.350025505,0.044287696,1.188036442,14.28156185,2.053041935
27.4,0.497323751,1.659226418,-0.434242845,0.829850554,9.719716072,0.932124674,0.659963012,0.600861847,0.485026628,0.66568625,0.581162214,0.348179251,0.314916462,-0.843378067,-1.437544584,-2.914257526,-2.528564453,881.1642456,1.203589797,11.39821053,1.563709617,0.662482858,0.597731173,0.46944958,1.045663476,11.30608654,0.862612545
27.5,-0.209703982,0.159619331,0.344772458,0.496052206,9.660115242,1.614464402,0.73173964,1.116431713,0.526565433,0.674898744,0.591403365,0.353483289,0.264203191,-1.272696972,-1.397708058,2.776556015,-0.317016602,881.008728,0.184247345,8.153543472,1.418943882,0.734259486,1.113301039,0.510988414,0.218943268,9.058030128,1.701296926
27.6,-0.414312661,-4.480885983,-1.807128906,0.338860154,9.508230209,2.634573936,1.404301763,0.415158987,0.080023289,0.691976309,0.597997129,0.360904574,0.205984876,-1.437928915,-1.296695471,2.526452065,1.109863281,880.7738647,-0.142372951,4.407579422,0.794417143,1.406821609,0.412028283,0.064446233,-0.105284199,4.706682205,0.897308469
27.7,-1.088190317,0.612575531,-1.682941675,0.24780035,8.972006798,3.951212406,1.407966971,0.067271486,0.227241695,0.70249337,0.574136436,0.397156209,0.135450736,-1.508163333,-1.155235529,2.423603296,1.598632813,880.7252808,-0.898504913,9.440881729,2.204986095,1.410486817,0.064140804,0.211664647,-0.803988397,9.763913155,2.525624275
27.8,1.181485415,4.013494492,0.155183792,0.096941002,8.778738976,4.368738651,0.046043932,-0.317267895,-0.207388595,0.700363994,0.565381229,0.417881519,0.12184453,-1.548764825,-1.108839631,2.400364876,0.922241211,880.7938843,1.348355532,13.34836102,4.743771076,0.048563749,-0.320398569,-0.222965643,1.170090318,13.15693569,4.606183529
27.9,3.069373608,1.587162971,-0.079151869,0.28939572,8.997470856,3.890007019,-0.857730508,-0.30718863,-0.255646914,0.70027715,0.561895192,0.411726505,0.159575522,-1.49653852,-1.16171515,2.49560523,0.182373047,880.9081421,3.463610888,9.320044518,3.573680639,-0.855210662,-0.310319304,-0.271223962,3.160918713,9.598808289,3.671786308
28,0.063406885,0.093597412,-0.567582607,0.610130608,9.335306168,3.112127066,-0.980514348,-0.411341071,-0.398283839,0.702543318,0.572138131,0.377917409,0.197139233,-1.366249204,-1.242420793,2.618818045,-0.393676758,880.9352417,0.54317075,8.788837433,2.227717876,-0.977994502,-0.414471745,-0.413860887,0.865005374,9.108279228,2.520838737
28.1,-0.772269905,-3.782096863,0.172519088,1.03564024,9.559596062,1.926644564,-1.213864684,-0.237855479,-0.620638609,0.697801769,0.569640338,0.350295484,0.256662458,-1.077572942,-1.345856309,2.863827229,-0.319702148,880.93573,0.257228434,5.702096462,2.087737799,-1.211344838,-0.240986153,-0.636215687,0.05383851,5.698507309,1.861616015
28.2,-0.94094348,-1.800512314,1.364882946,1.466347218,9.643935204,1.00733912,-0.856508791,-0.491975218,-0.250454545,0.690071225,0.562294841,0.330244809,0.313950002,-0.601928473,-1.388377309,-2.793346882,-0.673706055,880.9650269,0.632901609,8.571090698,2.772084951,-0.853988945,-0.495105892,-0.266031623,0.562313318,8.118846893,2.512463808
28.3,-0.317379355,1.476551056,2.094044209,1.594329596,9.662398338,0.551775038,-0.255417824,-0.161802813,-0.135611981,0.679115951,0.559155762,0.328080326,0.349128962,-0.313581914,-1.398665547,-2.45500803,-1.574707031,881.1166382,1.220339537,11.00818062,2.43708992,-0.252898008,-0.164933488,-0.151189029,1.137787223,11.19721317,2.504088879
28.4,1.087674499,4.715340614,0.813552201,1.328657508,9.696608543,0.617111683,0.166689724,0.640873492,0.682641387,0.670390248,0.564711869,0.336018264,0.3439762,-0.434815675,-1.420848966,-2.569036245,-2.383300781,881.1486206,2.279163599,14.30070496,1.366301775,0.16920954,0.637742817,0.667064369,2.256431818,14.24686623,1.786242127
28.5,0.174139023,0.645909309,0.247246742,0.870385766,9.699055672,1.158072829,1.005101681,0.468915075,0.416609794,0.672869921,0.578960955,0.347949952,0.302693576,-0.926283658,-1.422528148,-2.849999189,-0.581298828,881.0365601,1.130608678,10.35374355,2.079362869,1.007621408,0.465784401,0.401032716,1.010967612,10.3226366,1.838884234
28.6,-0.453811347,-3.563506126,-0.829940915,0.621150613,9.584993362,1.9779917,0.991051733,0.807639599,0.311235607,0.686023355,0.583004415,0.357225746,0.247066423,-1.266517162,-1.357778311,2.763472319,0.866699219,880.7999878,-0.002392823,5.18046093,0.795613527,0.993571579,0.804508924,0.295658559,0.072981089,5.533402443,0.933200836
28.7,-1.152414799,-2.447184563,-2.011529922,0.483260751,9.277528763,3.420493126,1.594891548,0.044974919,0.273361981,0.701052904,0.574356794,0.390732795,0.186053157,-1.418125749,-1.21158421,2.561326027,1.770385742,880.7162476,-0.867398202,6.611369133,1.339980721,1.597411394,0.041844238,0.257784933,-0.764506817,7.013363361,1.568495274
28.8,-0.043219313,2.37342453,-0.095581532,0.16852884,8.732996941,4.459059238,0.86277014,-0.028023422,0.212886378,0.700758934,0.555541098,0.428740948,0.13118051,-1.534180403,-1.098482013,2.442848206,1.318603516,880.7516479,0.102891371,10.98425198,4.301098824,0.865289986,-0.031154104,0.19730933,0.299102843,11.69731331,4.461417675
28.9,1.201034307,4.495388031,-0.259017467,0.352933824,8.706418991,4.499343395,-0.213879034,0.026343543,-0.315511644,0.70736748,0.551878572,0.421230882,0.125275761,-1.492515564,-1.092559457,2.467216492,0.504760742,880.8795776,2.250449657,13.15454292,4.137190342,-0.211359218,0.023212861,-0.331088722,1.995614052,12.56471157,4.240081787
29,3.839784145,-0.101377487,-0.483050346,0.614418983,9.111798286,3.718972683,-0.902934492,0.212657303,-0.256257772,0.708001733,0.559601545,0.403479278,0.173378676,-1.400511265,-1.177683234,2.583265781,-0.414794922,880.937439,3.335594654,8.739784241,2.799602509,-0.900414705,0.209526613,-0.271834821,3.944568157,8.746963501,3.022135019
29.1,-0.606247008,-1.569190025,-0.241439104,0.949618101,9.400787354,2.625608206,-1.150945544,-0.591546178,-0.495411336,0.706623971,0.563487947,0.366147876,0.22158435,-1.223758221,-1.282091379,2.784631014,-0.459716797,880.9425659,0.357726991,7.819744587,2.380858421,-1.148425817,-0.594676852,-0.510988414,0.388833672,8.134400368,2.575873613
29.2,-1.17777133,-3.480386734,0.878214598,1.270631075,9.612297058,1.46956563,-1.204090834,-0.275118232,-0.377209008,0.693988085,0.563949049,0.34231168,0.288382858,-0.857869267,-1.37137568,-2.864247561,-0.438598633,880.9398804,0.185443759,6.472585201,2.644068956,-1.201570988,-0.278248906,-0.392786056,0.055034921,6.23330307,2.465803623
29.3,-0.691954374,-1.202431679,2.104748249,1.386919856,9.688446045,0.616733372,-0.675692797,0.013209951,-0.013744458,0.678454757,0.568910003,0.324991137,0.332297057,-0.418373048,-1.415376544,-2.590030193,-0.700195313,881.0126343,0.674775958,8.863015175,2.845066071,-0.67317301,0.010079269,-0.02932151,0.660419047,8.557929993,2.809173822
29.4,-0.54047066,3.47385025,1.511084557,1.408299327,9.697800636,0.408719093,-0.128357962,-0.251294494,-0.004886918,0.67296958,0.569626629,0.324843973,0.348027438,-0.269738734,-1.421414256,-2.434802055,-2.124389648,881.1207886,0.851844847,13.06122208,1.842473388,-0.125838146,-0.254425168,-0.02046397,0.995414197,14.03270817,1.909472466
29.5,0.754154682,2.001739502,-0.408881962,1.01993835,9.733790398,0.526034832,0.316657037,0.930423439,0.558635831,0.669163406,0.586273432,0.324531019,0.322835416,-0.47616905,-1.448823452,-2.667604208,-2.391235352,881.2003784,1.774278045,11.74277687,0.117248312,0.319176853,0.927292764,0.543058813,1.282552958,11.62911797,-0.205782741
29.6,-0.150260985,0.427353859,0.167335033,0.742936432,9.686562538,1.337510467,1.06343925,0.757854104,0.453567088,0.680004954,0.589667141,0.338461697,0.274722546,-1.063769102,-1.414139986,2.874839067,-0.634155273,880.9608765,0.594616413,10.15633583,1.85443759,1.065959096,0.75472343,0.43799004,0.470189661,10.14556789,1.661815286
29.7,-0.502294183,-4.521102905,-1.576301694,0.512199461,9.547039032,2.182224035,1.210657597,0.834212244,0.28374669,0.694686472,0.597893894,0.339935273,0.208628014,-1.34025526,-1.340185761,2.603656292,1.331787109,880.8058472,-0.165104762,4.997410297,0.440279365,1.213177443,0.83108151,0.268169641,-0.058624156,4.939982414,0.457029134
29.8,-1.218596578,-0.855193138,-1.824344635,0.352725804,9.154166222,3.767045975,1.620853305,-0.188375428,0.273056567,0.704847336,0.586494207,0.382165402,0.142652303,-1.47034502,-1.175359607,2.428814173,1.648803711,880.7160034,-1.015753269,8.060222626,1.886740685,1.623373151,-0.191506103,0.257479519,-0.841077149,8.31027317,2.286342144
29.9,0.345406801,3.29178524,0.448876858,0.065823838,8.717905045,4.489155293,0.583604932,0.195553094,0.136222839,0.701346397,0.573437691,0.409363329,0.099917635,-1.555659294,-1.095110536,2.344088793,1.289428711,880.7938843,0.381655216,11.94377422,4.904089928,0.586124778,0.192422405,0.120645791,0.728614509,12.34098244,5.112265587
30,0.644907355,4.280983925,-0.033114672,0.247226804,8.877157211,4.15996933,-0.766406238,-0.043600474,-0.284662992,0.706948936,0.577342629,0.392518073,0.113261737,-1.511436224,-1.131892562,2.380491495,-0.013183594,880.8942261,3.422932863,13.2777729,3.662214994,-0.763886392,-0.046731155,-0.30024004,2.008774519,13.27538013,3.684946775
30.1,1.394471526,0.083069801,-0.596033096,0.645005763,9.329371452,3.145763636,-1.02480197,0.174478248,-0.438906342,0.710560024,0.588664651,0.353339821,0.162353247,-1.355713725,-1.238888383,2.530768633,-0.567993164,880.9598999,0.966700375,9.358329773,2.185843468,-1.022282243,0.171347573,-0.45448339,1.405783296,9.433703423,2.190629244
30.2,-0.199770749,-3.328197002,1.015023589,1.088240027,9.591879845,1.726833582,-1.425834775,0.096592993,-0.567187965,0.709843576,0.588940978,0.312511921,0.227171436,-1.008470535,-1.361125708,2.920765162,-0.840209961,880.9830933,0.73459655,6.549155712,2.874976397,-1.423314929,0.093462311,-0.582764983,0.887737215,6.948757172,3.218346357
30.3,-1.271160126,-2.450686932,0.716809988,1.62241292,9.650743484,0.787545323,-0.952414572,0.176005408,-0.451123625,0.713081002,0.589228988,0.272595912,0.270515591,-0.361206621,-1.392131925,-2.720177174,-0.776733398,880.9769897,0.260817677,7.367500782,1.572084427,-0.949894726,0.172874734,-0.466700703,0.102891371,7.109076023,1.392622828
30.4,-0.4435848,0.258399963,1.930746436,1.781157255,9.642839432,0.116191998,-0.385532022,-0.150807247,-0.104763307,0.705613732,0.584122717,0.261071116,0.304832697,-0.065141603,-1.387762547,-2.380201101,-1.458496094,881.0494995,1.304088354,10.12642574,2.108076811,-0.383012205,-0.153937921,-0.120340362,1.296909928,9.781859398,2.182254314
30.5,-0.724676371,4.498732567,1.955585241,1.765774488,9.645484924,0.13056612,0.106824979,-0.424474657,0.118202336,0.698161602,0.579805136,0.274853498,0.316942245,-0.073808387,-1.389250398,-2.342808962,-2.211547852,881.1557007,1.349551916,14.39522076,1.95015049,0.109344795,-0.427605331,0.102625281,2.455035925,14.07936859,2.048256159
30.6,-0.087178946,1.272904396,-0.042196274,1.246433139,9.718297958,0.514754951,0.890564501,0.791757107,0.486553788,0.696304262,0.603606999,0.277210355,0.283333749,-0.291681975,-1.430666208,-2.623217106,-2.222045898,881.1312866,0.9906286,10.67438221,0.30388847,0.893084288,0.788626432,0.47097674,0.976271629,10.2723875,0.136390895
30.7,-0.447045386,-1.036696434,0.178228617,0.81741035,9.654708862,1.512886882,0.98708111,0.992120743,0.487775534,0.704057455,0.609283388,0.294434994,0.214428231,-1.075432062,-1.394535899,2.806365013,0.155883789,880.9481812,0.373280346,9.363115311,1.694118381,0.989600956,0.988990068,0.472198486,0.373280346,8.652446747,1.696511269
30.8,-0.871328413,-4.019351959,-2.263629198,0.652814567,9.480995178,2.419701099,1.391473651,0.661032021,0.186619192,0.715337455,0.614436984,0.298635066,0.146889657,-1.307278872,-1.312366128,2.480881214,1.366088867,880.7462769,-0.318245411,5.300102234,0.203389928,1.393993378,0.657901347,0.171042144,-0.222532511,5.45085001,0.244067907
30.9,-1.365638971,-0.314800262,-1.645356417,0.484600544,9.066251755,3.706564188,1.371315122,-0.17279838,0.20250167,0.718943298,0.601498604,0.336885244,0.088477679,-1.440792441,-1.179722905,2.324080229,1.728149414,880.7606812,-0.732203722,8.925228119,2.447857618,1.373834848,-0.175929055,0.186924621,-0.519242525,9.253045082,2.823530674
31,1.000542402,4.684209824,0.420942783,0.417730719,8.86263752,4.20911932,-0.033063058,0.061773703,-0.154854223,0.718995273,0.595545769,0.356151074,0.068500996,-1.471876025,-1.124841809,2.286975145,0.346191406,880.8556519,0.873380244,13.09113312,4.414757729,-0.03054324,0.058643021,-0.170431271,1.363908887,13.42612743,4.453042984
31.1,4.012189865,-0.855143547,-0.152932882,0.611024857,9.172874451,3.414004087,-1.129565358,0.05016727,-0.275805444,0.720707715,0.599091768,0.331565201,0.108323693,-1.393695593,-1.209311843,2.39133811,-0.396240234,880.9691772,3.957728624,9.851250648,3.857230186,-1.127045512,0.047036588,-0.291382492,4.701896667,8.401200294,3.280559778
31.2,-0.676874578,-0.498084068,-1.650237322,1.051838636,9.396998405,2.600085258,-1.032437801,-0.48617202,-0.510988414,0.732208967,0.603164852,0.287338316,0.129281774,-1.186382174,-1.280737638,2.559818268,-0.753051758,880.9738159,0.425922424,8.829515457,1.239482164,-1.029918075,-0.489302695,-0.526565433,0.746560693,8.925228119,1.612762451
31.3,-0.878702044,-3.51151371,0.6902107,1.418483853,9.570633888,1.600392818,-1.347644091,-0.566195309,-0.623998344,0.72967726,0.593651831,0.274326354,0.199733868,-0.845582545,-1.35095942,2.870508432,-0.610351563,880.9650269,0.4953143,6.192625046,2.084148407,-1.345124245,-0.569325984,-0.639575422,0.385244459,6.02752018,2.273181438
31.4,-0.786357284,-1.276035309,2.450946093,1.976298094,9.589677811,0.76945585,-0.646982133,-0.316962451,-0.4327977,0.726289034,0.577544332,0.2635203,0.271942735,-0.329219639,-1.356189251,-2.690660477,-0.663208008,880.9640503,1.227517962,8.429914474,3.055634499,-0.644462347,-0.320093155,-0.448374748,1.16769743,8.197810173,2.945564747
31.5,-0.640793085,1.160957336,1.766680837,2.128369331,9.564997673,0.365884632,-0.213268161,-0.040851582,-0.083383046,0.72389394,0.57057178,0.256935894,0.291659832,-0.169369787,-1.348339558,-2.510930538,-1.365966797,881.0819702,1.418943882,10.74138069,2.294716835,-0.210748345,-0.043982264,-0.098960094,1.445264935,10.61695385,2.146361828
31.6,1.101768494,3.929301262,1.768824697,1.845146775,9.621874809,0.430346072,0.238771766,0.902323663,0.845131397,0.713616431,0.578531802,0.26471588,0.291252255,-0.229229018,-1.376367211,-2.555351973,-2.134887695,881.1217651,2.991028309,13.46680546,2.187039852,0.241291583,0.899192929,0.829554379,2.804388046,13.56969738,2.120040894
31.7,0.051767886,0.751256943,0.284944057,1.093733072,9.707555771,0.995703459,1.064660907,0.519311428,0.778547168,0.707646072,0.61566478,0.267325968,0.234524786,-0.624077916,-1.423372984,2.731803656,-0.660522461,881.0519409,0.981057286,10.38724327,0.667597532,1.067180753,0.516180754,0.76297009,0.746560693,10.44227791,1.282552958
31.8,-0.328247905,-3.514907837,-0.707320333,0.39776513,9.622031212,1.851673245,0.889953613,0.89682585,0.629496157,0.703421235,0.634065747,0.278711736,0.160241142,-1.359197855,-1.376449347,2.416689873,0.760986328,880.8112183,0.157926291,6.678368092,1.325623751,0.892473459,0.893695176,0.613919079,0.069391854,6.104090691,1.143769264
31.9,-0.867071748,-3.084210873,-1.671660662,0.133968696,9.330604553,3.015336037,1.546633244,0.265191674,0.359493911,0.70510149,0.633562982,0.302931428,0.094712943,-1.526396513,-1.257935286,2.192484617,1.857543945,880.7096558,-0.825523794,6.470192432,1.411765337,1.54915309,0.262061,0.343916863,-0.73459655,6.142375946,1.244267821
32,-0.506233931,1.514079094,-0.222548485,-0.197532147,8.861289024,4.196298122,1.02373302,0.12713623,0.354607016,0.698762596,0.626591384,0.342716426,0.040737446,-1.617834449,-1.128100276,2.087021828,1.622436523,880.7189331,-0.660419047,10.91366386,4.218546391,1.026252866,0.124005549,0.339029938,-0.485742986,11.67218876,4.584648132
32.1,1.266451836,4.672437668,0.057235718,-0.024304995,8.838839531,4.332788467,-0.3030653,0.094760396,-0.252592593,0.705562472,0.624644041,0.336761832,0.030697897,-1.57651794,-1.113103271,2.100605249,0.819213867,880.850769,1.682154298,14.24686623,4.376472473,-0.300545484,0.091629714,-0.268169641,1.287338614,13.29930782,3.890729666
32.2,2.971608639,-0.209625244,-1.822959542,0.324894756,9.179870605,3.434357405,-0.719064176,0.359875709,-0.243429616,0.711281955,0.623788476,0.324174434,0.070863418,-1.510294557,-1.185014606,2.195581675,-0.140014648,880.9078979,2.684746981,8.886942863,1.428515077,-0.71654439,0.356745034,-0.259006679,3.297309637,8.915657043,1.483550072
32.3,-0.641227841,-1.07039547,-0.17946887,0.750281096,9.421244621,2.616796494,,,,,,,,,,,-0.274780273,880.9240112,0.162711933,7.858029366,2.778067112,,,,0.258424848,8.362915039,3.017349243
32.4,-1.284630418,-3.751806736,1.138763547,1.26065135,9.612517357,1.476699948,,,,,,,,,,,-0.095092773,880.9030151,0.071784683,5.816951752,2.854637384,,,,-0.021535404,6.008377552,2.742174864
32.5,-0.876322031,-0.867774963,2.436960459,1.74297905,9.636188507,0.639301717,,,,,,,,,,,-0.409545898,880.9850464,0.892522871,9.00179863,2.950350285,,,,0.851844847,8.640482903,2.935993433
32.6,-0.597797751,2.930371284,2.141245127,1.812392831,9.633625984,0.22301878,,,,,,,,,,,-1.672485352,881.0722046,1.220339537,13.36870003,2.294716835,,,,1.194018483,12.4618206,2.371287346
32.7,0.458207846,3.129069328,-1.157514453,1.424463987,9.697979927,0.300782681,,,,,,,,,,,-2.282836914,881.1737671,1.361516118,12.18903828,-1.13419795,,,,1.883151412,12.83031464,-0.337387979
32.8,-0.423000067,0.420545578,0.770519495,0.882495284,9.689211845,1.438445091,,,,,,,,,,,-0.787353516,880.9772339,0.370887518,10.10728264,2.009970903,,,,0.344566464,9.805787086,2.390429735
32.9,-0.754532218,-4.269769192,-1.928031206,0.428894877,9.507889748,2.36357069,,,,,,,,,,,1.321166992,880.8102417,-0.279960245,5.587240696,0.679561615,,,,-0.327816695,5.264209747,0.552742004
33,-0.96345818,-0.803138733,-1.659134626,0.098624259,9.066884995,3.735270262,,,,,,,,,,,1.564331055,880.7252808,-0.772881687,8.504091263,2.304288149,,,,-0.801595569,8.137989998,2.024327993
33.1,0.07407435,3.357824326,-0.397524834,-0.082527153,8.733679771,4.460159302,,,,,,,,,,,1.24987793,880.8019409,0.145962179,12.14596748,4.14197588,,,,0.466600418,12.56949711,3.986442566
33.2,3.132543087,3.852822304,0.159421206,0.095190242,8.990188599,4.142457962,,,,,,,,,,,-0.005249023,880.8934937,3.811766386,13.84008598,3.933800459,,,,3.227917671,12.19861031,3.862015724
33.3,0.636745512,0.207986832,-1.292366028,0.377131373,9.345012665,2.949392796,,,,,,,,,,,-0.462402344,880.9476929,0.385244459,9.604789734,1.536192179,,,,1.014556766,9.504291534,1.521835208
33.4,-0.323803514,-3.421962738,0.783479214,0.652640641,9.601582527,1.885222077,,,,,,,,,,,-0.53894043,880.9506226,0.349352092,5.819344521,2.522035122,,,,0.428315252,6.163911343,2.533999205
33.5,-1.396559119,-2.719925404,0.981366575,1.183397055,9.707736015,0.727882147,,,,,,,,,,,-0.523071289,880.9545288,-0.289531529,7.211967468,1.773081541,,,,-0.272781789,7.599604607,1.844866276
33.6,-0.331146717,1.117365837,2.366664171,1.390381217,9.709827423,0.185712129,,,,0.713578165,0.616855145,0.225466877,0.250480086,-0.107927211,-1.427905321,-2.561361313,-1.360717773,881.0387573,1.012163997,10.84905815,2.694318295,,,,1.040877819,10.69591713,2.495713949
33.7,0.81874311,4.79276371,1.491535306,1.356528401,9.703021049,0.426147282,0.301690847,0.927979946,0.706465125,0.708651841,0.607906044,0.250152707,0.258797705,-0.304383457,-1.425290942,-2.704838276,-2.311889648,881.1686401,1.643869162,14.54836178,2.323430777,0.304210663,0.924849272,0.690888047,1.942971945,14.41675663,1.787438512
33.8,-0.02979511,1.062223434,-0.321715832,0.847836316,9.736720085,0.804898441,0.988913715,0.556574166,0.377209008,0.704364896,0.627296686,0.25153771,0.217020005,-0.759423792,-1.451301336,2.7837708,-2.095214844,881.1176147,0.684347272,10.69591713,0.952343404,0.991433561,0.553443491,0.36163196,0.820738196,10.82991505,1.42372942
33.9,-0.491169184,-1.765526295,-0.236625195,0.622810781,9.646876335,1.78635776,0.861853838,1.110628486,0.294131398,0.714579284,0.635979831,0.256424546,0.15541698,-1.209735394,-1.377229929,2.525348186,0.274902344,880.9447632,0.122033954,7.11625433,1.205982566,0.864373684,1.107497811,0.27855435,0.110069841,6.405586243,1.004985452
34,-1.288998485,-4.328536034,-2.319180727,0.604609668,9.380541801,2.792211771,1.474551201,0.604221642,0.142026067,0.724988282,0.63210994,0.262742132,0.076128811,-1.353685498,-1.274927258,2.277304888,1.696411133,880.7111206,-0.509671211,5.448457241,0.413958311,1.477071047,0.601090968,0.126449004,-0.679561615,4.953142643,0.354137748
34.1,-1.122959137,1.041099548,-0.779032469,0.360282481,8.917976379,4.063284874,1.268078923,-0.086055577,0.324674636,0.719724715,0.623834789,0.30441469,0.019120609,-1.482359648,-1.141792178,2.131900072,1.500854492,880.7755737,-0.581455886,10.35135078,3.572484255,1.270598769,-0.089186259,0.309097588,-0.768096089,9.824930191,3.223132133
34.2,1.027558088,4.455740929,-0.065011024,0.204368353,8.792613029,4.338037491,-0.21021384,0.234648436,-0.13591741,0.71285814,0.625265181,0.302616984,6.55E-04,-1.523720384,-1.112024426,2.074851036,0.198242188,880.8717651,1.426122308,13.25384426,4.546362877,-0.207694024,0.231517747,-0.151494458,1.450050473,13.22991657,4.68275404
34.3,3.912778139,0.1215868,-0.261649847,0.529296696,9.128242493,3.693883419,-0.894993246,0.423405647,-0.284357548,0.725097418,0.628392577,0.289604694,0.034913816,-1.422573924,-1.181943774,2.175587654,-0.462402344,880.9645386,4.189832687,9.3367939,3.046063185,-0.892473459,0.420274973,-0.299934596,4.443471432,9.006584167,2.411965132
34.4,-0.437200427,-0.936890602,-1.201694012,0.872498155,9.406389236,2.632296085,-1.086193919,-1.098869324,-0.473725647,0.734251559,0.628696799,0.247116536,0.073209576,-1.250733614,-1.284104586,2.350237846,-0.655273438,880.9630737,0.311066955,8.090133667,1.976471543,-1.083674073,-1.102000117,-0.489302695,0.425922424,8.470592499,1.430907965
34.5,-0.92080152,-3.04519701,1.229617476,1.18905437,9.601042747,1.605154991,-1.248073101,-0.398818344,-0.640491724,0.732909441,0.617585957,0.240754381,0.153194919,-0.933226943,-1.365662932,2.776028633,-0.496704102,880.9515991,0.315852582,6.374479294,2.900100946,-1.245553255,-0.401949018,-0.656068802,0.380458802,6.515655994,2.998206854
34.6,-0.641967058,-1.439343452,2.424407482,1.686321974,9.630635262,0.759984076,-0.778318107,0.021456625,-0.426078171,0.73660028,0.603464961,0.223274544,0.208323091,-0.423415452,-1.381046057,-2.86007905,-0.911499023,880.9906616,1.191625714,8.209774017,3.110669374,-0.775798261,0.018325943,-0.441655248,1.067198873,8.341380119,3.074777126
34.7,-0.733056545,1.590821266,1.131655931,1.948132634,9.607004166,0.297252208,-0.27985242,-0.294360459,-0.208610326,0.739938617,0.599609494,0.208078161,0.230409414,-0.151317194,-1.368468404,-2.646943092,-1.741210938,881.1144409,1.272981644,11.66740322,1.478764415,-0.277332604,-0.297491133,-0.224187374,1.217946768,11.08594704,1.399801254
34.8,1.399606824,3.334078789,1.048330903,1.683170438,9.655731201,0.336968243,0.182572216,0.522976637,0.490829855,0.73038584,0.607369483,0.212801486,0.228810638,-0.189439431,-1.395131826,-2.693330765,-2.618408203,881.1737671,2.574677229,12.35653591,0.665204704,0.185092032,0.519845903,0.475252807,3.259024382,12.99063396,1.371087432
34.9,-0.332523584,0.122062683,0.864539623,1.403117776,9.663588524,0.903712451,1.017624378,0.626212776,0.351552695,0.731590748,0.615318596,0.223257586,0.190562546,-0.572198451,-1.399777412,-2.892534018,-0.827026367,881.069519,0.882951558,9.702896118,2.009970903,1.020144224,0.623082101,0.335975617,1.074377418,9.801001549,2.038684845
35,-1.003570914,-3.696246147,-0.997862935,1.083260059,9.593806267,1.893349886,1.086041212,1.399567604,0.535422981,0.736947596,0.633455396,0.217196822,0.114596054,-1.008555889,-1.349118948,2.609318972,0.729370117,880.8148804,0.038285162,5.477170944,0.411565483,1.088561058,1.39643693,0.519845903,-0.021535404,5.206781864,0.16749759
35.1,-1.652722478,-1.849005222,-2.47513628,0.757838428,9.244936943,3.182328463,1.629710913,0.028787002,0.358272195,0.733609021,0.635539889,0.239687368,0.021372737,-1.337011099,-1.230695724,2.181404591,1.648803711,880.7208862,-0.801595569,7.771887779,0.949950576,1.632230639,0.02565632,0.342695147,-0.882951558,7.267002583,0.662811875
35.2,0.354798138,3.450404167,0.106248856,0.348264247,8.867534637,4.173241615,0.742124379,-0.077503473,0.255036056,-0.719449043,-0.633268356,-0.284981847,0.01223205,-1.487537622,-1.129589081,2.051981926,1.270996094,880.7567749,0.772881687,12.81595802,4.465006828,0.744644165,-0.080634154,0.239458993,0.808774054,12.92842102,4.223331928
35.3,1.392482996,4.741763115,-0.024132013,0.368143231,8.967133522,3.952895403,-0.835739374,-0.449520111,-0.266642481,-0.719072282,-0.634640038,-0.279201955,0.011315836,-1.477931619,-1.154006124,2.069001436,0.45715332,880.882019,1.684547186,13.68455315,3.969692707,-0.833219588,-0.452650815,-0.282219529,2.46221447,13.61755371,3.919443607
35.4,2.137673378,-0.034975052,-1.619840384,0.744508147,9.32191658,3.094885111,-0.864450037,0.373314738,-0.338724524,0.732593298,0.63728565,0.246444061,0.035586104,-1.32379365,-1.242688417,2.209863424,-0.383056641,880.934021,2.201396942,9.265008926,1.31126678,-0.861930192,0.370184064,-0.354301572,1.610369682,9.389435768,0.988235772
35.5,-0.533448279,-2.28109169,0.692686558,1.056048989,9.535571098,2.031756163,-1.238299251,-0.676150978,-0.509766638,0.7384395,0.630926609,0.219289929,0.092469715,-1.091456771,-1.335124254,2.497839212,-0.557495117,880.9606323,0.459421933,6.817151546,2.579462767,-1.235779405,-0.679281652,-0.525343716,0.540777922,7.247859955,2.428714991
35.6,-1.285179734,-3.087425709,1.154318333,1.475975037,9.652627945,0.904787719,-1.046487689,-0.2277762,-0.476779968,0.742316484,0.622593999,0.192673057,0.155627981,-0.549930751,-1.393330216,2.835113287,-0.525756836,880.9494019,0.186640173,6.642475605,2.053041935,-1.043967962,-0.230906889,-0.492357016,0.196211457,6.778866768,2.06261301
35.7,-0.697394252,0.171114922,2.023964405,1.6897825,9.659319878,0.242308378,-0.378812522,-0.190513447,-0.096822068,0.739411473,0.617843807,0.182561949,0.200729027,-0.11744646,-1.3964082,-2.709623575,-0.80847168,881.0211792,0.976271629,9.183652878,2.249253273,-0.376292706,-0.193644136,-0.112399116,0.985842943,9.693324089,2.220539331
35.8,-0.705393672,5.041939735,1.775133729,1.622817159,9.665697098,0.333403081,0.160581082,-0.361555606,0.195782155,0.732962608,0.614423871,0.201783866,0.211389259,-0.202627748,-1.401045084,-2.74617815,-1.957885742,881.1029663,1.684547186,14.23250866,2.912065268,0.163100898,-0.36468628,0.180205107,0.976271629,14.62493229,2.105684042
35.9,0.01131916,1.391524315,-0.535264969,1.065975666,9.730772972,0.517608106,0.749454737,1.067867994,0.629496157,0.724260032,0.640247524,0.189032957,0.172618151,-0.452038825,-1.446318269,-2.885893345,-1.561523438,881.1261597,0.725025237,10.83948612,0.258424848,0.751974523,1.06473732,0.613919079,1.079162955,11.1433754,0.002392823
36,-0.389831036,0.267992973,-0.355039835,0.627601981,9.673358917,1.484126687,1.115973592,0.862617433,0.575740039,0.722279847,0.655166447,0.196870804,0.101541243,-1.170725703,-1.405733585,2.397555828,-0.155883789,880.9096069,0.229710966,9.30807972,1.179661512,1.118493438,0.859486759,0.560163021,0.356530577,9.968499184,1.280160069
36.1,-0.423658848,-3.855725288,-1.697347164,0.363473386,9.492948532,2.681898832,1.387197614,0.650647342,0.193949565,0.719462693,0.662041366,0.205932125,0.036257833,-1.422533512,-1.291243672,2.066078901,1.648803711,880.7662964,-0.217746854,5.240281582,0.746560693,1.38971734,0.647516668,0.178372517,-0.339780807,5.087141037,0.768096089
36.2,-1.299303055,-0.14675045,-1.439600945,0.216097772,8.972483635,3.951991558,1.311450362,-0.174020097,0.18234314,-0.713959336,-0.653251767,-0.249487922,0.035776783,-1.516170144,-1.155355811,1.935536623,1.70690918,880.7098999,-0.823130965,8.721838951,2.734996319,1.313970089,-0.177150786,0.166766092,-1.0863415,8.69551754,2.455035925
