time,seconds_elapsed,z,y,x
1711072925807063300,0.044063232421875,0,0,0
1711072925826022700,0.063022705078125,-0.05295705795288086,0.011232852935791016,-0.04314899444580078
1711072925844982300,0.081982177734375,-0.08932971954345703,-0.0626668930053711,-0.10680150985717773
1711072925863941600,0.100941650390625,-0.17945623397827148,-0.08331060409545898,-0.22196674346923828
1711072925882901000,0.11990087890625,-0.4118504524230957,-0.12364864349365234,-0.48580074310302734
1711072925901860600,0.138860595703125,-1.0864601135253906,-0.35011911392211914,-1.2075281143188477
1711072925920820000,0.157820068359375,-1.2461771965026855,-1.376382827758789,-1.7846789360046387
1711072925939779300,0.176779296875,-0.8172025680541992,-0.47435998916625977,-1.456845760345459
1711072925958738700,0.19573876953125,-0.08209848403930664,0.19579029083251953,-0.733156681060791
1711072925977698300,0.2146982421875,0.42861485481262207,0.4708251953125,-0.2240281105041504
1711072925996657700,0.23365771484375,1.092954397201538,0.7705802917480469,0.5899848937988281
1711072926015617000,0.252616943359375,1.6234521865844727,0.5334467887878418,1.1428403854370117
1711072926034576400,0.271576416015625,0.25145769119262695,2.90671968460083,1.5168566703796387
1711072926053536000,0.290535888671875,1.0964546203613281,1.0980043411254883,-0.25085973739624023
1711072926072495400,0.309495361328125,-0.10351300239562988,2.0225605964660645,-0.8610811233520508
1711072926091454700,0.328454833984375,0.42385125160217285,1.5540885925292969,0.1403951644897461
1711072926110414000,0.3474140625,1.1391842365264893,1.4741573333740234,0.8455462455749512
1711072926129373400,0.36637353515625,0.8497792482376099,1.6639652252197266,1.046137809753418
1711072926148333000,0.3853330078125,0.18103790283203125,1.8032779693603516,0.8711338043212891
1711072926167292400,0.40429248046875,-0.42876964807510376,2.0583338737487793,1.2233247756958008
1711072926186251800,0.423251708984375,-1.0184496641159058,1.8739943504333496,1.6712613105773926
1711072926205211400,0.44221142578125,-0.8511899709701538,1.231337547302246,1.5231513977050781
1711072926224170800,0.461170654296875,-0.9577111005783081,0.6763820648193359,1.1332478523254395
1711072926243130000,0.480130126953125,-1.6590179204940796,0.9083828926086426,1.4729456901550293
1711072926262089700,0.49908984375,-2.575160503387451,1.5449142456054688,1.9267120361328125
1711072926281049000,0.518049072265625,-2.9575250148773193,1.7389936447143555,1.698171615600586
1711072926300008400,0.537008544921875,-2.916602849960327,1.1330828666687012,1.4615368843078613
1711072926318967800,0.5559677734375,-2.7027134895324707,-0.5312771797180176,2.215639591217041
1711072926337927400,0.574927490234375,-2.3802857398986816,-2.1211013793945312,2.783320903778076
1711072926356886800,0.59388671875,-2.2384040355682373,-2.402458667755127,2.503117084503174
1711072926375846100,0.61284619140625,-2.6045827865600586,-1.760953426361084,2.660332202911377
1711072926394805500,0.631805419921875,-3.1268744468688965,-1.1743230819702148,2.940402030944824
1711072926413764900,0.650764892578125,-2.9197838306427,-1.025106430053711,2.115537643432617
1711072926432724500,0.669724365234375,-2.53837513923645,-1.0155272483825684,0.33559226989746094
1711072926451683800,0.688683837890625,-2.204101800918579,-1.1126246452331543,-0.6150007247924805
1711072926470643200,0.707643310546875,-1.6301645040512085,-0.8760876655578613,-0.9354162216186523
1711072926489602600,0.7266025390625,-0.9904040694236755,-0.2534923553466797,-0.3233218193054199
1711072926508562200,0.745562255859375,-0.15005099773406982,0.7780957221984863,0.352109432220459
1711072926527521500,0.764521484375,0.5527950525283813,1.7827882766723633,0.6165933609008789
1711072926546481000,0.78348095703125,0.9728890061378479,1.8564262390136719,0.44393444061279297
1711072926565440500,0.8024404296875,0.8187718391418457,1.162827968597412,0.33561229705810547
1711072926584400000,0.82139990234375,0.47190678119659424,0.7656302452087402,-0.08050346374511719
1711072926603359200,0.840359130859375,0.05630624294281006,1.6554679870605469,-0.7520151138305664
1711072926622318600,0.859318603515625,0.3510251045227051,2.445010185241699,-1.144805908203125
1711072926641278200,0.8782783203125,1.2923482656478882,1.8470430374145508,-1.6897029876708984
1711072926660237600,0.897237548828125,1.735951542854309,1.2773146629333496,-1.5826749801635742
1711072926679197000,0.916197021484375,1.5591918230056763,1.0227770805358887,-1.0426640510559082
1711072926698156300,0.93515625,1.6921536922454834,1.091024398803711,-0.5958852767944336
1711072926717116000,0.954115966796875,1.7735402584075928,1.612483024597168,-0.2648353576660156
1711072926736075300,0.9730751953125,1.5032724142074585,1.4542732238769531,-0.12187862396240234
1711072926755034600,0.99203466796875,0.8973226547241211,0.5347552299499512,-0.4646873474121094
1711072926773994200,1.010994140625,0.6342220306396484,0.22563886642456055,-0.9077720642089844
1711072926792953600,1.02995361328125,1.035614013671875,0.3642549514770508,-1.0229854583740234
1711072926811913000,1.048912841796875,1.8611239194869995,-0.23812198638916016,0.09682941436767578
1711072926830872600,1.06787255859375,-0.7386862635612488,0.043358802795410156,0.3692159652709961
1711072926849832000,1.08683203125,-2.1983253955841064,1.286947250366211,-0.5127696990966797
1711072926868791300,1.105791259765625,-3.9154906272888184,1.2739381790161133,-1.5336837768554688
1711072926887751000,1.1247509765625,-2.7360384464263916,-0.2814207077026367,-1.3586320877075195
1711072926906710300,1.143710205078125,-0.22598004341125488,-1.2745580673217773,0.28090667724609375
1711072926925669600,1.162669677734375,0.4867290258407593,0.032689571380615234,2.1059703826904297
1711072926944629200,1.181629150390625,-0.13333740830421448,1.5842227935791016,2.392934799194336
1711072926963588600,1.200588623046875,-0.03552299737930298,0.7701096534729004,0.3352527618408203
1711072926982548000,1.2195478515625,-0.0425579696893692,-0.6220602989196777,-1.6992568969726562
1711072927001507600,1.238507568359375,-0.03120093047618866,-0.3021836280822754,-1.7348732948303223
1711072927020467000,1.257467041015625,-0.2787778079509735,0.6562204360961914,-1.2757840156555176
1711072927039426300,1.27642626953125,-0.4242669641971588,0.7716054916381836,-1.315730094909668
1711072927058386000,1.295385986328125,-1.824692726135254,0.17319107055664062,-1.0978670120239258
1711072927077345300,1.31434521484375,-1.3622478246688843,-0.685335636138916,-0.5819516181945801
1711072927096304600,1.3333046875,-0.28876742720603943,-1.222825527191162,0.034949302673339844
1711072927115264300,1.35226416015625,0.14436008036136627,-1.6797542572021484,0.11128425598144531
1711072927134223600,1.3712236328125,0.07842287421226501,-1.761491298675537,-0.8982348442077637
1711072927153183200,1.390183349609375,-0.8825305700302124,-1.6308894157409668,-1.6787362098693848
1711072927172142600,1.409142578125,-0.8428149223327637,-1.898125171661377,-1.9743561744689941
1711072927191102000,1.42810205078125,-1.0241388082504272,-1.4176249504089355,-1.9081001281738281
1711072927210061600,1.4470615234375,-1.0767185688018799,0.28350067138671875,-0.9352335929870605
1711072927229021000,1.46602099609375,-0.739167332649231,1.0275025367736816,0.4249114990234375
1711072927247980500,1.48498046875,-0.8326308727264404,0.73199462890625,0.07507848739624023
1711072927266940000,1.50393994140625,-1.5711700916290283,2.2524280548095703,0.287355899810791
1711072927285899300,1.522899169921875,-1.0792934894561768,4.300397872924805,1.2327675819396973
1711072927304859000,1.54185888671875,0.08995866775512695,4.053499698638916,1.6751790046691895
1711072927323818200,1.560818359375,0.3519977331161499,5.443264484405518,3.269990921020508
1711072927342777900,1.57977783203125,0.8852471113204956,7.486462593078613,5.741465091705322
1711072927361737200,1.5987373046875,1.3248802423477173,8.10000228881836,8.487735748291016
1711072927380696600,1.617696533203125,2.4524874687194824,8.587615013122559,8.573311805725098
1711072927399656200,1.63665625,2.017822027206421,8.323348999023438,8.416099548339844
1711072927418615600,1.655615478515625,1.5054230690002441,6.833955764770508,7.620253086090088
1711072927437575000,1.674574951171875,0.9601082801818848,3.0081286430358887,5.603022575378418
1711072927456534500,1.693534423828125,-0.4023299217224121,-0.5991568565368652,3.154592514038086
1711072927475494000,1.712493896484375,-1.4007267951965332,-4.343972206115723,0.5978240966796875
1711072927494453500,1.73145361328125,-1.9408988952636719,-6.394613742828369,-1.300532341003418
1711072927513412900,1.750412841796875,-1.76078200340271,-6.837950229644775,-3.065424919128418
1711072927532372500,1.76937255859375,-0.2915515899658203,-4.827880859375,-2.2460951805114746
1711072927551331800,1.788331787109375,-0.1488037109375,-3.3376407623291016,-1.4553627967834473
1711072927570291500,1.80729150390625,-0.8389320373535156,-3.674590587615967,-2.5951976776123047
1711072927589250800,1.826250732421875,-1.9191584587097168,-4.672796249389648,-4.3312811851501465
1711072927608210400,1.84521044921875,-1.1800975799560547,-5.305722236633301,-4.211617946624756
1711072927627169800,1.864169677734375,0.24604511260986328,-4.6190972328186035,-3.0747532844543457
1711072927646129400,1.88312939453125,-3.428565502166748,-2.3861565589904785,-3.7265021800994873
1711072927665088800,1.9020888671875,-1.5699059963226318,-2.058899402618408,-0.36186933517456055
1711072927684048100,1.921048095703125,-0.20387673377990723,-3.1027631759643555,1.0213947296142578
1711072927703007700,1.9400078125,1.3667042255401611,-2.441175937652588,0.3764004707336426
1711072927721967000,1.958967041015625,-2.3504886627197266,-1.404350757598877,-0.9981684684753418
1711072927740926700,1.9779267578125,-0.2651689052581787,-2.1824045181274414,-0.05516481399536133
1711072927759886000,1.996885986328125,1.1290571689605713,-2.5837931632995605,-0.2720661163330078
1711072927778845700,2.015845703125,0.3773038387298584,-1.8771495819091797,-1.4076762199401855
1711072927797805000,2.03480517578125,0.21416878700256348,-1.7225751876831055,-2.2870547771453857
1711072927816764700,2.0537646484375,0.2911672592163086,-2.5804710388183594,-1.7072205543518066
1711072927835724000,2.07272412109375,0.40868568420410156,-2.0460476875305176,-0.7223639488220215
1711072927854683600,2.09168359375,0.506756067276001,-1.7154865264892578,-1.1587693691253662
1711072927873643000,2.11064306640625,-0.014641523361206055,-1.0645017623901367,-1.429173231124878
1711072927892602600,2.1296025390625,0.14170312881469727,-1.0944442749023438,-1.1881685256958008
1711072927911562000,2.14856201171875,0.5037851333618164,-1.1886777877807617,-0.26567506790161133
1711072927930521600,2.167521484375,-0.3098127841949463,-0.39380836486816406,-0.0348048210144043
1711072927949481000,2.18648095703125,-0.2218468189239502,-0.15438175201416016,0.17714595794677734
1711072927968440600,2.205440673828125,0.5420892238616943,-0.4152107238769531,0.5827279090881348
1711072927987400000,2.22439990234375,0.7279086112976074,-0.08156394958496094,1.4779295921325684
1711072928006359600,2.243359619140625,0.540818452835083,0.2490396499633789,2.103329658508301
1711072928025319000,2.26231884765625,0.3855729103088379,0.0833272933959961,1.6618964672088623
1711072928044278500,2.281278564453125,0.12766170501708984,-0.1490802764892578,1.2654929161071777
1711072928063238100,2.300238037109375,0.36085033416748047,0.14737415313720703,1.5569355487823486
1711072928082197500,2.319197509765625,0.2777416706085205,0.38783836364746094,2.5725460052490234
1711072928101157000,2.3381572265625,0.9275379180908203,0.31580162048339844,2.4830172061920166
1711072928120116500,2.357116455078125,0.3852994441986084,0.3427600860595703,1.4377827644348145
1711072928139075800,2.376075927734375,-0.10717511177062988,0.03387260437011719,0.6282172203063965
1711072928158035500,2.395035400390625,0.14853572845458984,-0.20915985107421875,-0.7460780143737793
1711072928176995000,2.4139951171875,-0.0020720958709716797,-0.024580955505371094,-0.7985599040985107
1711072928195954400,2.432954345703125,0.11627793312072754,-0.6969079971313477,-0.02015995979309082
1711072928214914000,2.4519140625,0.975963830947876,-1.4104504585266113,-0.6530780792236328
1711072928233873400,2.470873291015625,-0.1308128833770752,-0.7176203727722168,-1.2434942722320557
1711072928252833000,2.4898330078125,-0.6691765785217285,-0.3259286880493164,-2.1778464317321777
1711072928271792600,2.508792724609375,-0.1417553424835205,-0.650909423828125,-2.5436673164367676
1711072928290752000,2.527751953125,-0.6701509952545166,-0.3523397445678711,-2.232828378677368
1711072928309711400,2.54671142578125,-0.08568668365478516,-0.3968667984008789,-1.2855733633041382
1711072928328671000,2.5656708984375,-0.15612554550170898,-0.5118274688720703,-1.5071052312850952
1711072928347630600,2.584630615234375,-0.6438312530517578,0.1436605453491211,-0.8895738124847412
1711072928366590000,2.60358984375,-0.14355945587158203,0.4206428527832031,0.09365582466125488
1711072928385549600,2.622549560546875,-0.27515172958374023,0.8823108673095703,0.9747164249420166
1711072928404509000,2.641509033203125,-1.2253243923187256,1.152364730834961,0.5234494209289551
1711072928423468500,2.660468505859375,-2.806335687637329,0.6543741226196289,-1.8726136684417725
1711072928442428200,2.67942822265625,-0.24085760116577148,-0.10816097259521484,-1.3278284072875977
1711072928461387500,2.698387451171875,0.4236328601837158,-0.7103395462036133,-0.2855217456817627
1711072928480347100,2.71734716796875,1.1904160976409912,-1.253209114074707,-1.353760004043579
1711072928499306500,2.736306396484375,-0.1151430606842041,-0.9957723617553711,-3.2998576164245605
1711072928518266000,2.75526611328125,0.0742192268371582,-0.5417547225952148,-2.2521860599517822
1711072928537225500,2.7742255859375,1.1327617168426514,-0.9783668518066406,-1.1267421245574951
1711072928556185000,2.79318505859375,1.0144693851470947,-0.5523519515991211,0.3165844678878784
1711072928575144700,2.812144775390625,0.4827275276184082,0.24338817596435547,-0.9773272275924683
1711072928594104000,2.83110400390625,-0.7138247489929199,-1.0577497482299805,-2.7311980724334717
1711072928613063700,2.850063720703125,0.4105696678161621,-1.4583930969238281,-1.752974510192871
1711072928632023000,2.86902294921875,1.8373520374298096,-0.3741607666015625,-0.19168174266815186
1711072928650982700,2.887982666015625,0.5286307334899902,0.12599945068359375,0.3063364028930664
1711072928669942300,2.9069423828125,-0.45528268814086914,0.24670982360839844,0.9489507675170898
1711072928688901600,2.925901611328125,-0.290600061416626,1.5325031280517578,1.354234218597412
1711072928707861200,2.944861328125,-0.06477212905883789,0.8952875137329102,1.196666955947876
1711072928726820900,2.96382080078125,-0.6163105964660645,0.622344970703125,1.1244568824768066
1711072928745780200,2.9827802734375,0.47161269187927246,0.1279163360595703,0.0019307136535644531
1711072928764739600,3.001739501953125,0.46123814582824707,-0.046794891357421875,-2.107140064239502
1711072928783699200,3.02069921875,1.0654799938201904,-0.8653669357299805,-1.710376501083374
1711072928802658800,3.039658935546875,1.019728183746338,-1.049673080444336,0.3992820978164673
1711072928821618200,3.0586181640625,0.6000447273254395,-0.21441078186035156,-0.17467117309570312
1711072928840577800,3.077577880859375,-0.0865015983581543,-0.5062828063964844,-1.4746832847595215
1711072928859537400,3.096537353515625,0.29738283157348633,-1.7960443496704102,-1.8359569311141968
1711072928878496800,3.115496826171875,1.0903244018554688,-0.813507080078125,-1.3181291818618774
1711072928897456400,3.134456298828125,0.8983807563781738,-0.31952762603759766,-1.0521018505096436
1711072928916415700,3.153415771484375,0.012262344360351562,-0.4643058776855469,0.8009722232818604
1711072928935375400,3.172375244140625,-0.7551112174987793,1.0457630157470703,0.4414405822753906
1711072928954335000,3.1913349609375,-1.106994867324829,1.1060199737548828,-0.4657137393951416
1711072928973294300,3.21029443359375,-0.3736226558685303,-0.1548748016357422,0.13633489608764648
1711072928992254000,3.22925390625,-0.29733872413635254,0.7729568481445312,1.0655229091644287
1711072929011213600,3.248213623046875,-0.7195694446563721,0.7120161056518555,0.8985588550567627
1711072929030173000,3.2671728515625,-0.9197571277618408,-0.43979740142822266,-0.4819221496582031
1711072929049132500,3.286132568359375,-0.43431973457336426,-0.8225569725036621,-0.2416517734527588
1711072929068092000,3.305091796875,-0.12967610359191895,0.03993034362792969,-0.01844334602355957
1711072929087051500,3.324051513671875,-0.36550378799438477,0.8220653533935547,-0.19644618034362793
1711072929106011100,3.34301123046875,-0.4502851963043213,-0.38051414489746094,-1.3410069942474365
1711072929124970800,3.361970703125,0.1761152744293213,-0.7323818206787109,-1.4215261936187744
1711072929143930000,3.38093017578125,0.4190514087677002,-0.29631614685058594,-1.2987208366394043
1711072929162889700,3.3998896484375,0.3418760299682617,-0.09704303741455078,-2.1216979026794434
1711072929181849000,3.41884912109375,0.2596919536590576,0.2442340850830078,-2.611855983734131
1711072929200808700,3.43780859375,0.8335497379302979,1.6586084365844727,-2.4098827838897705
1711072929219768300,3.456768310546875,1.9269945621490479,3.1207761764526367,-1.8709726333618164
1711072929238727700,3.475727783203125,1.688384771347046,2.1317672729492188,-2.1255640983581543
1711072929257687300,3.494687255859375,-0.9128749370574951,-0.4335470199584961,-1.4031691551208496
1711072929276647000,3.51364697265625,-3.1640172004699707,-2.45375394821167,0.5870375633239746
1711072929295606300,3.532606201171875,-3.9203503131866455,-0.4088115692138672,3.104526996612549
1711072929314566000,3.55156591796875,-2.2693216800689697,0.8919792175292969,4.951644420623779
1711072929333525500,3.570525390625,-0.64556884765625,-0.5276627540588379,4.7212724685668945
1711072929352484900,3.58948486328125,-1.0776445865631104,-2.344742774963379,2.6279659271240234
1711072929371444500,3.608444580078125,-2.3665127754211426,-3.1697497367858887,0.9777874946594238
1711072929390404000,3.627404052734375,-3.82882022857666,-3.1275806427001953,-0.4461088180541992
1711072929409363500,3.646363525390625,-4.688020706176758,-3.0756747722625732,-0.7672996520996094
1711072929428323000,3.665322998046875,-4.732843399047852,-2.9795756340026855,-0.096038818359375
1711072929447282700,3.68428271484375,-4.127830505371094,-1.4708828926086426,1.363429069519043
1711072929466242000,3.703241943359375,-2.882108688354492,0.9030046463012695,3.7406883239746094
1711072929485201700,3.72220166015625,-2.0998194217681885,1.176650047302246,4.255155563354492
1711072929504161300,3.741161376953125,-0.5657045841217041,0.7848062515258789,3.97390079498291
1711072929523120600,3.76012060546875,0.5852980613708496,0.7298374176025391,2.494668483734131
1711072929542080300,3.779080322265625,1.2272868156433105,1.5189642906188965,1.0826373100280762
1711072929561040000,3.798039794921875,1.2653183937072754,3.0429699420928955,2.000542163848877
1711072929579999200,3.816999267578125,1.5695409774780273,4.288485527038574,2.5817813873291016
1711072929598958800,3.835958740234375,2.369896411895752,4.615365982055664,2.7033543586730957
1711072929617918500,3.85491845703125,2.061107635498047,3.9211935997009277,1.2406649589538574
1711072929636877800,3.8738779296875,0.7428865432739258,3.16348934173584,-0.33899641036987305
1711072929655837400,3.89283740234375,-0.16655302047729492,3.0565738677978516,-1.2145771980285645
1711072929674797000,3.911797119140625,0.005083560943603516,2.523930072784424,-1.7911663055419922
1711072929693756400,3.93075634765625,0.3900728225708008,1.5209444761276245,-1.931136131286621
1711072929712716000,3.949716064453125,0.7704014778137207,0.624579906463623,-1.439201831817627
1711072929731675600,3.968675537109375,1.1696701049804688,0.43693971633911133,-0.5754871368408203
1711072929750635000,3.987635009765625,1.5686044692993164,0.6501351594924927,0.1398782730102539
1711072929769594600,4.0065947265625,1.7432937622070312,1.3471907377243042,0.03476524353027344
1711072929788554200,4.02555419921875,1.0607481002807617,1.3120982646942139,-1.8308649063110352
1711072929807513600,4.044513671875,-0.11592578887939453,0.8263279795646667,-3.438263416290283
1711072929826473200,4.06347314453125,-1.0073981285095215,0.41605234146118164,-2.574044704437256
1711072929845432800,4.082432861328125,-1.2829585075378418,0.12325578927993774,-0.41947221755981445
1711072929864392200,4.10139208984375,-0.7561664581298828,0.0014792084693908691,2.2411446571350098
1711072929883351800,4.120351806640625,0.20860862731933594,-0.06998956203460693,4.277921676635742
1711072929902311400,4.1393115234375,0.730349063873291,-0.2925969064235687,4.73897123336792
1711072929921271000,4.15827099609375,0.3157944679260254,-0.15311604738235474,4.132556438446045
1711072929940229400,4.1772294921875,-0.47219419479370117,0.09671974182128906,2.4506139755249023
1711072929959189200,4.196189208984375,-0.7636537551879883,0.28842034935951233,0.9681625366210938
1711072929978148900,4.21514892578125,-0.38283681869506836,0.5662246942520142,-0.2245655059814453
1711072929997108500,4.2341083984375,-0.055020809173583984,0.7910902500152588,-0.8038210868835449
1711072930016068000,4.253068115234375,0.4985957145690918,0.7960278987884521,-0.9036636352539062
1711072930035027500,4.27202734375,1.0058307647705078,0.599445104598999,-1.2415704727172852
1711072930053987000,4.290987060546875,1.0363831520080566,1.0292503833770752,-1.7075614929199219
1711072930072946700,4.30994677734375,0.21359777450561523,1.4698816537857056,-3.2858738899230957
1711072930091906000,4.328906005859375,-1.04410982131958,1.132555365562439,-5.010952949523926
1711072930110865700,4.34786572265625,-0.7352075576782227,0.4324887692928314,-4.418602466583252
1711072930129825300,4.3668251953125,0.524843692779541,-0.33071693778038025,-0.7359485626220703
1711072930148785000,4.385784912109375,0.9556970596313477,-0.6530882120132446,2.601830005645752
1711072930167744300,4.404744140625,-0.5826587677001953,-0.2197646051645279,3.3926119804382324
1711072930186704000,4.423703857421875,-1.342618465423584,-0.7007845640182495,1.4536843299865723
1711072930205663200,4.442663330078125,-2.028865337371826,-2.1907715797424316,-0.5798120498657227
1711072930224622800,4.461622802734375,-2.8298983573913574,-1.1804225444793701,-2.40067720413208
1711072930243582500,4.48058251953125,-1.7941064834594727,1.2047953605651855,-2.7168092727661133
1711072930262542000,4.4995419921875,1.1099920272827148,0.9542497992515564,-1.1438665390014648
1711072930281501400,4.51850146484375,1.5132074356079102,-0.2665432095527649,1.1234917640686035
1711072930300461000,4.5374609375,-0.11899137496948242,-0.21716684103012085,1.4506497383117676
1711072930319420700,4.556420654296875,-0.31649065017700195,0.2599942684173584,0.9182229042053223
1711072930338380000,4.575380126953125,0.4884777069091797,0.35814380645751953,0.3533334732055664
1711072930357339600,4.594339599609375,0.8802070617675781,-0.2055048942565918,0.44525766372680664
1711072930376299300,4.61329931640625,1.0925254821777344,-1.1848790645599365,1.2109546661376953
1711072930395258600,4.632258544921875,0.8528943061828613,-1.3689980506896973,1.061326026916504
1711072930414218200,4.65121826171875,-0.03692007064819336,-0.4403681755065918,0.6189751625061035
1711072930433177900,4.670177734375,0.0949091911315918,0.31010377407073975,-0.0064029693603515625
1711072930452137500,4.689137451171875,0.9102950096130371,0.9187496900558472,-0.6299595832824707
1711072930471097000,4.70809716796875,-1.63795804977417,0.9170806407928467,-0.6204385757446289
1711072930490056400,4.727056396484375,-1.6853327751159668,-0.14105987548828125,-0.28278160095214844
1711072930509016000,4.74601611328125,0.9209389686584473,-1.1663161516189575,-0.14192438125610352
1711072930527975700,4.7649755859375,-0.17526483535766602,-1.00188148021698,0.0016379356384277344
1711072930546935000,4.78393505859375,0.10534906387329102,-0.18012475967407227,-0.32558631896972656
1711072930565894700,4.802894775390625,1.793736457824707,0.6147220134735107,0.8417553901672363
1711072930584854300,4.821854248046875,2.2416181564331055,0.7013784646987915,1.7179651260375977
1711072930603813600,4.840813720703125,1.0134568214416504,0.6965223550796509,1.5865707397460938
1711072930622773200,4.859773193359375,0.8860945701599121,-0.2199394702911377,0.3384528160095215
1711072930641732900,4.87873291015625,1.3680944442749023,-0.27394866943359375,-0.5423297882080078
1711072930660692500,4.8976923828125,1.3610048294067383,0.26367413997650146,-0.25290489196777344
1711072930679651800,4.91665185546875,0.3045802116394043,0.8632357120513916,-0.005099296569824219
1711072930698611500,4.935611572265625,-0.05968284606933594,0.3046513795852661,0.025942325592041016
1711072930717571000,4.954571044921875,-0.1421189308166504,-0.8666552305221558,-0.815159797668457
1711072930736530400,4.973530517578125,-0.0260009765625,-1.460986852645874,-1.2628369331359863
1711072930755490000,4.992489990234375,0.6862368583679199,-1.19624924659729,-0.9393224716186523
1711072930774449700,5.01144970703125,0.18428754806518555,-0.3038961887359619,0.0632772445678711
1711072930793409300,5.0304091796875,0.040631771087646484,0.6264101266860962,0.8757357597351074
1711072930812368600,5.04936865234375,0.661689281463623,1.075409173965454,1.1156296730041504
1711072930831328300,5.068328369140625,0.549616813659668,0.9623856544494629,0.8914804458618164
1711072930850287900,5.087287841796875,0.46485280990600586,0.9120699167251587,1.0720610618591309
1711072930869247500,5.10624755859375,0.3674507141113281,0.8250023126602173,0.5819339752197266
1711072930888206800,5.125206787109375,-0.24652385711669922,0.4178330898284912,-0.01268768310546875
1711072930907166500,5.14416650390625,0.35119152069091797,-0.05964255332946777,-0.7513594627380371
1711072930926126000,5.1631259765625,0.8002452850341797,-0.007235288619995117,-1.128556251525879
1711072930945085400,5.18208544921875,0.057190895080566406,-0.36772477626800537,-0.33725976943969727
1711072930964045000,5.201045166015625,-1.6254310607910156,-1.08229660987854,0.37903690338134766
1711072930983004700,5.220004638671875,-2.400756359100342,-1.3182098865509033,0.9432764053344727
1711072931001964300,5.23896435546875,-1.9108490943908691,-0.6298673152923584,0.9482054710388184
1711072931020923600,5.257923583984375,-1.1381826400756836,0.27362561225891113,0.6543488502502441
1711072931039883300,5.27688330078125,-0.7909665107727051,0.5263816118240356,0.9510049819946289
1711072931058843000,5.2958427734375,-0.702301025390625,0.4255317449569702,1.040182113647461
1711072931077802500,5.314802490234375,-0.5175662040710449,0.22222912311553955,0.8432674407958984
1711072931096761900,5.333761962890625,-0.09639692306518555,0.3791548013687134,0.6316184997558594
1711072931115721500,5.352721435546875,0.37267446517944336,0.4793807566165924,0.25823450088500977
1711072931134681000,5.37168115234375,0.890383243560791,0.49454373121261597,-0.48215198516845703
1711072931153640700,5.390640625,1.280189037322998,0.941486120223999,-1.6919984817504883
1711072931172600000,5.40960009765625,0.6775908470153809,1.2378783226013184,-2.8753294944763184
1711072931191559700,5.4285595703125,0.07693052291870117,0.6730682849884033,-2.202885150909424
1711072931210519000,5.44751904296875,0.15111112594604492,0.3204548954963684,-0.3515810966491699
1711072931229478700,5.466478759765625,0.3915982246398926,0.14836029708385468,0.7178544998168945
1711072931248438300,5.485438232421875,0.48364925384521484,-0.00450298935174942,0.7531256675720215
1711072931267398000,5.50439794921875,-0.07413339614868164,-0.28614291548728943,0.7976226806640625
1711072931286357500,5.523357421875,-0.9231119155883789,-0.407586932182312,1.0618605613708496
1711072931305316900,5.54231689453125,-1.1131033897399902,-0.057083860039711,1.4732508659362793
1711072931324276500,5.5612763671875,-0.4481344223022461,0.2164679914712906,0.9868955612182617
1711072931343236000,5.580236083984375,0.5755996704101562,0.025345563888549805,0.20348691940307617
1711072931362195700,5.59919580078125,1.3512444496154785,0.08106982707977295,-0.3044414520263672
1711072931381155000,5.618155029296875,1.695584774017334,0.703557014465332,-0.4255857467651367
1711072931400114700,5.63711474609375,-0.06702232360839844,0.9323362112045288,-0.49639129638671875
1711072931419074300,5.65607421875,-0.5293660163879395,1.000361442565918,-0.14556217193603516
1711072931438034000,5.675033935546875,-0.37026309967041016,0.21025632321834564,-0.4929008483886719
1711072931456993300,5.6939931640625,-0.5825390815734863,-0.6926933526992798,-0.3290743827819824
1711072931475953000,5.712952880859375,-0.6406550407409668,-0.8592761754989624,0.13361263275146484
1711072931494912500,5.73191259765625,-1.1241178512573242,-0.48823511600494385,-0.07678031921386719
1711072931513872000,5.750871826171875,-0.6065139770507812,0.03794461488723755,-0.5072345733642578
1711072931532831500,5.76983154296875,0.31113719940185547,0.3240530490875244,-0.9797143936157227
1711072931551791000,5.788791015625,0.38851356506347656,0.03242647647857666,-0.6964330673217773
1711072931570750700,5.807750732421875,-0.06925821304321289,-0.26326653361320496,-0.8598570823669434
1711072931589710000,5.8267099609375,-1.0866713523864746,0.19112759828567505,-1.8419532775878906
1711072931608669700,5.845669677734375,-1.5117545127868652,0.3599465787410736,-1.7832980155944824
1711072931627629300,5.86462939453125,-0.08369112014770508,0.02845543622970581,-0.26510190963745117
1711072931646589000,5.8835888671875,0.8847079277038574,-0.5908591747283936,1.7727155685424805
1711072931665548500,5.902548583984375,0.8006534576416016,-0.5891017317771912,3.2032904624938965
1711072931684508000,5.9215078125,0.6515321731567383,-0.3609567880630493,2.8478922843933105
1711072931703467500,5.940467529296875,0.1816239356994629,-0.6082111597061157,1.2133750915527344
1711072931722427100,5.95942724609375,-1.3568763732910156,-0.7128845453262329,0.04068183898925781
1711072931741386800,5.97838671875,-2.0834097862243652,-0.18926256895065308,-1.5819354057312012
1711072931760346400,5.997346435546875,-0.4927229881286621,-0.02125522494316101,-2.1367740631103516
1711072931779305700,6.0163056640625,1.493039608001709,-0.5592777132987976,0.4638543128967285
1711072931798265300,6.035265380859375,1.4662232398986816,-0.33568471670150757,2.912586212158203
1711072931817225000,6.054224853515625,0.7442779541015625,0.6198274493217468,2.5220017433166504
1711072931836184600,6.0731845703125,-0.3879694938659668,0.2832164168357849,0.004583835601806641
1711072931855144000,6.09214404296875,-0.9388728141784668,-0.4105415940284729,-1.3028717041015625
1711072931874103600,6.111103515625,-1.06392240524292,-0.33764779567718506,-1.2300853729248047
1711072931893063200,6.130063232421875,-0.579230785369873,0.07987445592880249,-0.5861992835998535
1711072931912022800,6.149022705078125,0.5953478813171387,0.3991551995277405,-0.40891075134277344
1711072931930982400,6.167982421875,1.6061625480651855,1.0888824462890625,0.17632436752319336
1711072931949941800,6.186941650390625,1.49434232711792,1.46221125125885,0.7458786964416504
1711072931968901400,6.2059013671875,0.4589114189147949,1.3117284774780273,0.9703893661499023
1711072931987861000,6.224861083984375,0.44826698303222656,0.7974691390991211,0.5039300918579102
1711072932006820600,6.243820556640625,0.6424221992492676,0.18047505617141724,0.4509592056274414
1711072932025780200,6.2627802734375,0.08839988708496094,-0.18933892250061035,-0.16807937622070312
1711072932044739800,6.28173974609375,-0.8868837356567383,0.5533283948898315,-0.2995309829711914
1711072932063699500,6.300699462890625,-0.9862809181213379,1.081454873085022,0.1821002960205078
1711072932082658800,6.319658935546875,-0.7874116897583008,0.5550794005393982,0.37476253509521484
1711072932101618400,6.338618408203125,-0.7881636619567871,-0.03537863492965698,-0.0643463134765625
1711072932120578000,6.357578125,0.6980900764465332,0.2744666635990143,-0.7749929428100586
1711072932139537700,6.37653759765625,1.3925135135650635,0.7062690258026123,-0.7377862930297852
1711072932158497300,6.395497314453125,-0.5725126266479492,0.01921159029006958,-0.5899114608764648
1711072932177456600,6.41445654296875,-1.748213768005371,-0.8626567125320435,-0.6842060089111328
1711072932196416300,6.433416259765625,-1.237170696258545,-0.3236862123012543,-0.15362834930419922
1711072932215376000,6.4523759765625,-0.4123954772949219,1.8585633039474487,0.4844179153442383
1711072932234335500,6.47133544921875,-0.09417057037353516,2.9508068561553955,0.7988061904907227
1711072932253295000,6.490295166015625,0.20473814010620117,2.0371696949005127,0.9543743133544922
1711072932272254700,6.509254638671875,0.5888795852661133,0.5547723770141602,1.2059869766235352
1711072932291214300,6.52821435546875,0.2004690170288086,-0.14045485854148865,0.7806777954101562
1711072932310174000,6.547174072265625,-0.7125954627990723,0.4707450270652771,0.48063087463378906
1711072932329133300,6.56613330078125,-1.1938848495483398,1.4294768571853638,0.4333162307739258
1711072932348093000,6.585093017578125,-1.1598095893859863,1.3691235780715942,-0.3865232467651367
1711072932367052500,6.604052490234375,-1.7321581840515137,0.6746803522109985,-0.7603340148925781
1711072932386012200,6.62301220703125,-1.3605647087097168,0.2528492212295532,-0.29421234130859375
1711072932404971800,6.6419716796875,-1.0469684600830078,-0.5178247094154358,0.15437602996826172
1711072932423931400,6.660931396484375,-0.7540347576141357,-1.306679368019104,0.23884010314941406
1711072932442891000,6.67989111328125,-0.8944847583770752,-1.4621448516845703,-0.17844486236572266
1711072932461850600,6.6988505859375,0.08696198463439941,-0.9513918161392212,-0.7784252166748047
1711072932480810200,6.717810302734375,-0.09854626655578613,0.3278961479663849,-0.5210952758789062
1711072932499769900,6.736769775390625,-0.14580368995666504,-0.06096690893173218,-0.9524421691894531
1711072932518729500,6.7557294921875,-1.3141250610351562,-2.813588857650757,-1.8383464813232422
1711072932537688800,6.774688720703125,0.2179243564605713,-3.5006394386291504,-2.175971031188965
1711072932556648700,6.793648681640625,0.900068998336792,-0.6442623734474182,0.46201610565185547
1711072932575608300,6.8126083984375,1.9267501831054688,-0.01523292064666748,1.1454944610595703
1711072932594568000,6.83156787109375,1.7552810907363892,-0.9316216111183167,1.002488136291504
1711072932613527300,6.85052734375,1.146942138671875,-1.4789905548095703,0.5980739593505859
1711072932632487000,6.86948681640625,0.20705580711364746,-1.4850354194641113,0.5220232009887695
1711072932651446800,6.88844677734375,-0.661074161529541,-1.5505149364471436,-0.3292818069458008
1711072932670406100,6.90740625,-0.45345616340637207,-1.6968231201171875,-0.7689533233642578
1711072932689365800,6.92636572265625,0.52970290184021,-1.8655736446380615,-1.7320747375488281
1711072932708325400,6.945325439453125,-1.3004322052001953,-1.2206097841262817,-1.3549060821533203
1711072932727285000,6.964284912109375,-0.45800256729125977,-1.1869844198226929,-1.0309514999389648
1711072932746244600,6.98324462890625,0.1822795867919922,-1.8323898315429688,-1.1229686737060547
1711072932765204200,7.002204345703125,0.77288818359375,-1.119415521621704,-1.365640640258789
1711072932784163800,7.021163818359375,-0.005869865417480469,-0.1713901311159134,-0.8566780090332031
1711072932803123500,7.04012353515625,-0.20227885246276855,-0.3701917827129364,0.040465354919433594
1711072932822083000,7.0590830078125,-0.5005626678466797,-1.1694093942642212,0.4451560974121094
1711072932841042700,7.078042724609375,-0.5118453502655029,-1.710886836051941,0.5072135925292969
1711072932860002300,7.097002197265625,0.43848657608032227,-1.7202262878417969,-0.32476806640625
1711072932878962000,7.1159619140625,0.5750935077667236,-1.7121914625167847,-0.5372028350830078
1711072932897921500,7.134921630859375,-0.523249626159668,-1.973773717880249,-1.3093843460083008
1711072932916881200,7.153881103515625,-0.3325366973876953,-1.9521770477294922,-1.476184368133545
1711072932935840800,7.1728408203125,-0.6267824172973633,-1.2989833354949951,-0.8460779190063477
1711072932954800400,7.19180029296875,-1.6861677169799805,-0.46234330534935,0.21092987060546875
1711072932973760000,7.210760009765625,-0.20549488067626953,-0.31475597620010376,0.15170860290527344
1711072932992719600,7.2297197265625,0.20164012908935547,-0.12304937839508057,-0.49206066131591797
1711072933011679200,7.24867919921875,-2.0327954292297363,0.026040375232696533,1.2665977478027344
1711072933030638800,7.267638916015625,-0.3219571113586426,0.3152127265930176,1.895979881286621
1711072933049598500,7.286598388671875,0.013202667236328125,0.3514953851699829,1.5805377960205078
1711072933068558000,7.30555810546875,-1.1340522766113281,0.6273103952407837,2.1515626907348633
1711072933087517700,7.324517578125,-1.362678050994873,0.41561150550842285,3.4052906036376953
1711072933106477300,7.343477294921875,0.10269355773925781,1.906419277191162,3.4183473587036133
1711072933125437000,7.36243701171875,-1.1961822509765625,3.3400356769561768,4.248622894287109
1711072933144396500,7.381396484375,-0.06814956665039062,3.48846697807312,5.206424713134766
1711072933163356200,7.400356201171875,1.021714210510254,1.524688482284546,3.1191091537475586
1711072933182315800,7.419315673828125,3.853822708129883,1.7301661968231201,1.2441654205322266
1711072933201275400,7.438275390625,1.1013331413269043,2.2110745906829834,0.9714641571044922
1711072933220235000,7.457235107421875,1.3738224506378174,1.201413631439209,-0.2581901550292969
1711072933239195000,7.47619482421875,0.9117331504821777,-0.9789059162139893,-1.5214271545410156
1711072933258154500,7.495154541015625,0.22396397590637207,-1.3053061962127686,-2.8397741317749023
1711072933277113900,7.51411376953125,0.9934766292572021,-1.5418236255645752,-2.7513084411621094
1711072933296073700,7.53307373046875,1.2482025623321533,-1.8735017776489258,-2.3800554275512695
1711072933315033300,7.552033447265625,0.5053026676177979,-1.3957281112670898,-1.8159427642822266
1711072933333993000,7.570992919921875,-0.5094695091247559,-0.9562168121337891,-0.8394041061401367
1711072933352952600,7.58995263671875,0.04100847244262695,-2.4964206218719482,-1.6880202293395996
1711072933371912200,7.608912109375,-0.03773331642150879,-1.139206886291504,-2.5285587310791016
1711072933390871800,7.627871826171875,-0.821491003036499,-0.10787725448608398,-2.2351160049438477
1711072933409831400,7.64683154296875,-1.3388094902038574,-1.3821983337402344,-1.6447806358337402
1711072933428791000,7.665791015625,0.694890022277832,-1.1300501823425293,-0.9900355339050293
1711072933447750700,7.684750732421875,1.1937718391418457,-1.690448522567749,-0.6277866363525391
1711072933466710300,7.703710205078125,2.099848985671997,-1.4557652473449707,-0.5785236358642578
1711072933485670000,7.722669921875,1.817545771598816,-0.35444164276123047,-0.6417088508605957
1711072933504629500,7.74162939453125,1.5802066326141357,2.4229464530944824,0.3975496292114258
1711072933523589000,7.760589111328125,1.5524426698684692,1.8652968406677246,1.544365406036377
1711072933542548700,7.779548828125,1.9580590724945068,0.6529951095581055,0.3457212448120117
1711072933561508400,7.79850830078125,1.384140968322754,0.12116098403930664,-0.763364315032959
1711072933580468000,7.817468017578125,0.9160091876983643,0.6053738594055176,-0.34952402114868164
1711072933599427600,7.836427490234375,0.8554229736328125,0.6240978240966797,0.021166324615478516
1711072933618387200,7.85538720703125,0.18650007247924805,-0.17358684539794922,-0.8717107772827148
1711072933637346800,7.874346923828125,0.5352509021759033,-0.5221705436706543,-1.3439884185791016
1711072933656306700,7.893306640625,0.37038469314575195,-0.16338300704956055,-1.107889175415039
1711072933675266000,7.91226611328125,0.47384071350097656,-0.45637059211730957,-0.6813492774963379
1711072933694226000,7.931225830078125,0.37079954147338867,-0.47063302993774414,-0.7779293060302734
1711072933713185500,7.950185546875,-0.09004497528076172,-0.6041662693023682,-1.0259637832641602
1711072933732145200,7.969145263671875,0.025645732879638672,-0.4694538116455078,-1.0921211242675781
1711072933751104800,7.988104736328125,-0.6418075561523438,0.1508197784423828,-0.6879229545593262
1711072933770064400,8.007064453125,-0.22958707809448242,0.6620385646820068,-0.16021251678466797
1711072933789024000,8.02602392578125,0.4491596221923828,-0.8228051662445068,0.7670783996582031
1711072933807983600,8.044983642578124,1.4592688083648682,-1.803358793258667,0.5636801719665527
1711072933826943200,8.063943115234375,1.0671005249023438,-0.7955272197723389,-0.48267364501953125
1711072933845902800,8.08290283203125,-1.4827637672424316,1.1572604179382324,-0.5791759490966797
1711072933864862500,8.101862548828125,-0.11187601089477539,-0.02488994598388672,-0.20548534393310547
1711072933883822000,8.120822021484376,1.1887526512145996,-1.3946268558502197,-0.38733911514282227
1711072933902781700,8.13978173828125,0.03945589065551758,-0.06877326965332031,-0.5584979057312012
1711072933921741300,8.1587412109375,-1.6158947944641113,1.9843522310256958,-0.5277175903320312
1711072933940701000,8.177700927734374,-0.2310643196105957,0.8912092447280884,-0.3034381866455078
1711072933959660500,8.19666064453125,0.6134328842163086,-0.5794346332550049,0.0561833381652832
1711072933978620400,8.215620361328124,1.4954090118408203,-0.5323101282119751,-0.002658843994140625
1711072933997579800,8.234579833984375,1.4676194190979004,0.14393585920333862,0.17980527877807617
1711072934016539400,8.253539306640626,-0.41322755813598633,1.4023661613464355,1.0525803565979004
1711072934035499300,8.272499267578125,0.862189769744873,1.6233526468276978,0.5269408226013184
1711072934054458600,8.291458740234376,0.45450401306152344,0.47714728116989136,0.3314065933227539
1711072934073418500,8.31041845703125,-0.3928823471069336,0.01727190613746643,0.09624385833740234
1711072934092378000,8.329378173828125,-0.3853797912597656,0.34176743030548096,-0.6434884071350098
1711072934111337700,8.348337646484374,0.19495773315429688,0.5629240274429321,-0.023694515228271484
1711072934130297300,8.36729736328125,-0.35610198974609375,0.2041846513748169,0.28259897232055664
1711072934149257000,8.386257080078124,-0.74932861328125,0.659627377986908,0.4635753631591797
1711072934168216600,8.405216552734375,0.20968914031982422,0.922249972820282,1.4525985717773438
1711072934187176200,8.42417626953125,0.5528273582458496,0.11477255821228027,0.19778728485107422
1711072934206135800,8.4431357421875,-0.9164628982543945,0.14937877655029297,-1.7487430572509766
1711072934225095400,8.462095458984376,-2.154172420501709,0.5802750587463379,-0.4293203353881836
1711072934244055000,8.481054931640625,-0.9653730392456055,0.15313124656677246,0.8300786018371582
1711072934263014700,8.5000146484375,-0.1305866241455078,-0.3217201232910156,1.3973093032836914
1711072934281974300,8.518974365234374,-1.4107365608215332,0.4775404930114746,1.2071733474731445
1711072934300934000,8.537933837890625,-0.27405405044555664,0.48241615295410156,0.543220043182373
1711072934319893800,8.556893798828124,-0.37361860275268555,-0.5376853942871094,0.15653419494628906
1711072934338853000,8.57585302734375,0.2324528694152832,-1.328169822692871,-0.3245525360107422
1711072934357813000,8.59481298828125,-1.216686725616455,-0.5486955642700195,-0.12338638305664062
1711072934376772600,8.613772705078125,-1.682713508605957,-0.15744400024414062,-0.22380733489990234
1711072934395732000,8.63273193359375,0.8220276832580566,-1.1709709167480469,0.00913238525390625
1711072934414691800,8.65169189453125,0.0373530387878418,-0.7122573852539062,0.3214449882507324
1711072934433651500,8.6706513671875,-2.529205799102783,0.43678998947143555,0.5699834823608398
1711072934452611000,8.689611083984374,-0.3412647247314453,-1.0301017761230469,0.6381664276123047
1711072934471570700,8.70857080078125,1.46317720413208,-0.9843287467956543,0.8098955154418945
1711072934490530300,8.7275302734375,-1.5420622825622559,-0.015501976013183594,1.015031337738037
1711072934509490000,8.746489990234375,-1.364671230316162,-0.59112548828125,-0.1099081039428711
1711072934528449500,8.765449462890626,-0.07674360275268555,-0.9863185882568359,0.13577890396118164
1711072934547409200,8.7844091796875,-0.2630438804626465,-0.037546634674072266,0.5369887351989746
1711072934566368800,8.80336865234375,-0.6576321125030518,-0.23530101776123047,0.7373270988464355
1711072934585328400,8.822328369140624,0.6863803863525391,-1.036977767944336,0.6852807998657227
1711072934604288000,8.8412880859375,0.6917200088500977,-0.5185871124267578,0.2766900062561035
1711072934623247600,8.86024755859375,-1.6881399154663086,0.07381963729858398,0.0937809944152832
1711072934642207200,8.879207275390625,-1.016970157623291,-0.705042839050293,-0.43624401092529297
1711072934661166800,8.898166748046876,0.9332911968231201,-0.07130146026611328,-1.098802089691162
1711072934680126500,8.91712646484375,-0.6614089012145996,0.5215573310852051,1.4240002632141113
1711072934699086000,8.936086181640626,0.5189704895019531,-0.8590288162231445,1.3799891471862793
1711072934718046000,8.9550458984375,0.2621724605560303,-0.4014735221862793,-0.07351493835449219
1711072934737005300,8.97400537109375,-1.3087892532348633,-0.7064895629882812,-1.9182868003845215
1711072934755965000,8.99296484375,0.3099350929260254,-0.7292242050170898,-2.138051986694336
1711072934774924800,9.0119248046875,-0.9231224060058594,0.10511064529418945,0.4090409278869629
1711072934793884200,9.03088427734375,-0.7001781463623047,0.15236377716064453,1.3902382850646973
1711072934812844000,9.049843994140625,0.58534836769104,-0.040192604064941406,1.015061378479004
1711072934831803600,9.0688037109375,0.851320743560791,1.1128454208374023,1.3512940406799316
1711072934850763000,9.087762939453125,0.5329709053039551,1.067915439605713,1.8580670356750488
1711072934869723000,9.106722900390626,0.009834766387939453,0.0665130615234375,0.5077996253967285
1711072934888682500,9.1256826171875,-0.37817931175231934,-0.9065980911254883,-0.9942116737365723
1711072934907642000,9.14464208984375,-1.6565518379211426,-0.46761035919189453,0.17357110977172852
1711072934926601700,9.163601806640624,-0.47482919692993164,-0.017009735107421875,0.6935091018676758
1711072934945561300,9.182561279296875,-0.023427963256835938,-0.23618602752685547,0.06379985809326172
1711072934964521000,9.20152099609375,0.4095606803894043,-0.024932384490966797,-0.2950892448425293
1711072934983480600,9.22048046875,0.801760196685791,0.4455389976501465,0.37883996963500977
1711072935002440200,9.239440185546876,0.10701298713684082,0.3150033950805664,1.3189449310302734
1711072935021399800,9.25839990234375,0.292402982711792,0.18426036834716797,1.1604666709899902
1711072935040359400,9.277359375,0.01025533676147461,-0.26132726669311523,0.11697816848754883
1711072935059319000,9.296319091796875,-0.3839285373687744,-0.1329340934753418,-0.7053995132446289
1711072935078278700,9.315278564453125,-0.1827867031097412,-0.043415069580078125,-0.2223811149597168
1711072935097238300,9.33423828125,0.28409457206726074,0.03372621536254883,0.5872602462768555
1711072935116198000,9.353197998046875,0.24660444259643555,-0.1286935806274414,0.8853278160095215
1711072935135157500,9.372157470703126,0.14344072341918945,0.20247936248779297,0.7660117149353027
1711072935154117000,9.3911171875,0.42577242851257324,0.3405141830444336,0.5646347999572754
1711072935173076700,9.41007666015625,0.27544069290161133,0.15898990631103516,0.765204906463623
1711072935192036400,9.429036376953125,0.2421436309814453,-0.017885208129882812,0.7957234382629395
1711072935210996000,9.447995849609375,0.3241753578186035,0.2066974639892578,0.5337061882019043
1711072935229955600,9.46695556640625,0.053862810134887695,0.20606279373168945,0.39972400665283203
1711072935248915200,9.485915283203125,0.2079482078552246,0.2334599494934082,0.5029525756835938
1711072935267874800,9.504874755859374,0.2461259365081787,0.059546470642089844,0.6463727951049805
1711072935286834400,9.52383447265625,0.4032480716705322,0.09460306167602539,0.3569812774658203
1711072935305794000,9.5427939453125,0.3068723678588867,0.05115222930908203,0.15825462341308594
1711072935324753700,9.561753662109375,0.10704922676086426,0.11007118225097656,-0.029412269592285156
1711072935343713300,9.58071337890625,-0.3665022850036621,-0.06802177429199219,0.4367995262145996
1711072935362673000,9.5996728515625,-0.2813398838043213,-0.10664892196655273,0.28079748153686523
1711072935381632500,9.618632568359375,-0.19283485412597656,0.04461193084716797,0.045477867126464844
1711072935400592100,9.637592041015624,-0.09691214561462402,-0.17788171768188477,-0.2966446876525879
1711072935419551700,9.6565517578125,-0.12615466117858887,-0.058568477630615234,-0.2851138114929199
1711072935438511400,9.675511474609374,-0.02978348731994629,-0.07956314086914062,-0.10650253295898438
1711072935457471000,9.694470947265625,-0.10549116134643555,-0.1092844009399414,0.18152666091918945
1711072935476430600,9.7134306640625,-0.18800115585327148,-0.0342402458190918,-0.13017702102661133
1711072935495390200,9.73239013671875,-0.368135929107666,0.035529136657714844,0.031574249267578125
1711072935514349800,9.751349853515626,-0.33327746391296387,-0.17089128494262695,0.058422088623046875
1711072935533309400,9.770309326171875,-0.0615849494934082,0.02061319351196289,0.13896846771240234
1711072935552269000,9.78926904296875,0.17740392684936523,0.13068246841430664,0.09314727783203125
1711072935571228700,9.808228759765624,0.11414980888366699,0.09322452545166016,0.04090070724487305
1711072935590188300,9.827188232421875,0.05115008354187012,-0.030555248260498047,0.19539499282836914
1711072935609148000,9.84614794921875,0.02146124839782715,0.2755618095397949,0.504523754119873
1711072935628107500,9.865107421875,0.06532835960388184,0.2086505889892578,0.5675997734069824
1711072935647067100,9.884067138671876,0.21807360649108887,-0.11598682403564453,0.19254493713378906
1711072935666026800,9.90302685546875,0.01649188995361328,0.034075260162353516,-0.25025033950805664
1711072935684986400,9.921986328125,0.04246950149536133,0.17569494247436523,0.08594608306884766
1711072935703946000,9.940946044921875,0.12576937675476074,0.10832786560058594,0.3111572265625
1711072935722905600,9.959905517578125,-0.006670475006103516,0.012694835662841797,0.23066473007202148
1711072935741865200,9.978865234375,-0.20082449913024902,-0.014842510223388672,0.25632429122924805
1711072935760824800,9.997824951171875,-0.15534210205078125,-0.011126995086669922,0.25376224517822266
1711072935779784400,10.016784423828126,0.10643792152404785,-0.08306455612182617,-0.1326456069946289
1711072935798744000,10.035744140625,0.003898143768310547,-0.12436723709106445,-0.31845617294311523
1711072935817703700,10.05470361328125,-0.024739742279052734,0.0361170768737793,-0.0782475471496582
1711072935836663300,10.073663330078125,-0.02083563804626465,0.053522586822509766,0.22211074829101562
1711072935855623000,10.092622802734375,-0.08145928382873535,0.023468971252441406,0.32994890213012695
1711072935874582500,10.11158251953125,-0.1747739315032959,0.03220319747924805,0.0673513412475586
1711072935893542100,10.130542236328125,-0.13496708869934082,-0.026967525482177734,-0.21593761444091797
1711072935912501800,10.149501708984374,-0.03600955009460449,-0.03607320785522461,-0.0749044418334961
1711072935931461400,10.16846142578125,0.051055908203125,-0.017926692962646484,-0.13030624389648438
1711072935950421000,10.1874208984375,-0.10639619827270508,-0.18303823471069336,-0.2135448455810547
1711072935969380600,10.206380615234375,-0.1185293197631836,-0.10158586502075195,-0.20701837539672852
1711072935988340200,10.22534033203125,0.03977084159851074,0.03201484680175781,-0.05274629592895508
1711072936007299800,10.2442998046875,0.000025987625122070312,0.05382108688354492,0.13361358642578125
1711072936026259500,10.263259521484375,-0.0189058780670166,-0.013527393341064453,0.06012678146362305
1711072936045219000,10.282218994140624,-0.01799607276916504,-0.07727384567260742,-0.12725257873535156
1711072936064178700,10.3011787109375,0.09697270393371582,0.01655864715576172,-0.24431419372558594
1711072936083138300,10.32013818359375,-0.04313492774963379,-0.06482362747192383,-0.05260419845581055
1711072936102098000,10.339097900390625,-0.1635904312133789,0.06082630157470703,0.20562982559204102
1711072936121057500,10.3580576171875,-0.10819745063781738,0.003123760223388672,0.15085744857788086
1711072936140017200,10.37701708984375,0.01686859130859375,-0.11633157730102539,-0.1471710205078125
1711072936158976800,10.395976806640626,-0.08490443229675293,-0.0486903190612793,-0.19388818740844727
1711072936177936400,10.414936279296874,-0.06576800346374512,0.30754661560058594,0.03372907638549805
1711072936196896000,10.43389599609375,0.01600503921508789,-0.14276599884033203,0.26477622985839844
1711072936215855600,10.452855712890624,-0.0785987377166748,-0.062374114990234375,0.1526646614074707
1711072936234815000,10.47181494140625,0.08909153938293457,0.13053274154663086,-0.053472042083740234
1711072936253774800,10.49077490234375,0.04339766502380371,-0.05855274200439453,-0.06130695343017578
1711072936272734500,10.509734375,0.07732629776000977,0.06406927108764648,0.19013357162475586
1711072936291694000,10.528694091796876,0.16794991493225098,0.0923757553100586,0.09799766540527344
1711072936310653400,10.5476533203125,0.1485278606414795,-0.14780282974243164,-0.20022010803222656
1711072936329613300,10.56661328125,-0.09101080894470215,-0.1608257293701172,-0.056998252868652344
1711072936348573000,10.585572998046874,-0.036258697509765625,0.1219940185546875,0.3264741897583008
1711072936367532300,10.6045322265625,-0.018462181091308594,0.05710744857788086,0.11966753005981445
1711072936386492000,10.623491943359374,-0.03397011756896973,0.021683692932128906,-0.09959220886230469
1711072936405451500,10.642451416015625,-0.041373491287231445,0.07838678359985352,-0.0044841766357421875
1711072936424411100,10.6614111328125,0.16307687759399414,0.030493736267089844,0.16928339004516602
1711072936443370800,10.680370849609375,0.16174530982971191,-0.006466865539550781,0.11106681823730469
1711072936462330400,10.699330322265626,-0.06236720085144043,0.058945655822753906,-0.031472206115722656
1711072936481290000,10.7182900390625,0.03423666954040527,0.0115966796875,0.13792943954467773
1711072936500249600,10.73724951171875,-0.013231515884399414,0.10200929641723633,0.36173009872436523
1711072936519209200,10.756209228515624,0.0187225341796875,0.08408117294311523,0.17009639739990234
1711072936538168800,10.7751689453125,0.06729865074157715,-0.09935188293457031,-0.06618547439575195
1711072936557128400,10.79412841796875,-0.03843188285827637,0.007161140441894531,-0.09084224700927734
1711072936576088000,10.813088134765625,0.025293588638305664,0.09589910507202148,0.006402015686035156
1711072936595047700,10.832047607421876,0.08413958549499512,0.033998966217041016,0.12516117095947266
1711072936614007300,10.85100732421875,0.00186920166015625,0.09122037887573242,0.054352760314941406
1711072936632967000,10.869966796875,-0.11445856094360352,-0.07584238052368164,-0.04373741149902344
1711072936651926500,10.888926513671874,-0.11753392219543457,-0.0848846435546875,0.15127801895141602
1711072936670886100,10.90788623046875,0.1220405101776123,0.16532087326049805,0.1301579475402832
1711072936689845800,10.926845703125,0.18535399436950684,0.059148311614990234,-0.07462024688720703
1711072936708805400,10.945805419921875,0.05959320068359375,-0.15711450576782227,-0.08391571044921875
1711072936727765000,10.964764892578126,-0.11501574516296387,-0.11084318161010742,0.005315303802490234
1711072936746724400,10.983724365234375,-0.020155668258666992,0.2035083770751953,0.14905405044555664
1711072936765684200,11.002684326171876,0.10799694061279297,-0.013080120086669922,0.1377243995666504
1711072936784643800,11.021643798828125,-0.06490087509155273,-0.032518863677978516,0.03957319259643555
1711072936803603500,11.040603515625,-0.09056711196899414,0.08871889114379883,-0.12973976135253906
1711072936822563000,11.05956298828125,0.06015896797180176,-0.032622337341308594,0.017175674438476562
1711072936841522700,11.078522705078125,0.03325629234313965,-0.1517658233642578,0.1041107177734375
1711072936860482300,11.097482421875,-0.012093305587768555,0.19479990005493164,-0.16531658172607422
1711072936879441700,11.116441650390625,-0.027318239212036133,-0.12136173248291016,-0.23630237579345703
1711072936898401500,11.135401611328126,-0.1930689811706543,-0.17998313903808594,-0.16163158416748047
1711072936917361200,11.154361083984375,-0.17411112785339355,0.028151512145996094,0.020337581634521484
1711072936936320500,11.173320556640626,0.2439885139465332,0.22820663452148438,0.2322525978088379
1711072936955280100,11.192280029296874,0.1467888355255127,-0.04218244552612305,0.2760782241821289
1711072936974240000,11.211239990234375,0.05349564552307129,0.0008287429809570312,0.04555225372314453
1711072936993199400,11.230199462890624,0.13209271430969238,0.1100916862487793,-0.11664819717407227
1711072937012159000,11.249158935546875,0.1423342227935791,-0.054090023040771484,-0.08986902236938477
1711072937031118800,11.268118896484374,0.027095317840576172,-0.05251932144165039,0.05602741241455078
1711072937050078200,11.287078125,-0.016316890716552734,-0.03386878967285156,0.28378963470458984
1711072937069037800,11.306037841796876,0.0630490779876709,0.09889459609985352,0.22404718399047852
1711072937087997700,11.324997802734375,0.07967972755432129,0.010084152221679688,0.18477201461791992
1711072937106957300,11.343957275390625,0.17361783981323242,0.030402660369873047,-0.026531696319580078
1711072937125916700,11.362916748046874,0.18484210968017578,0.009815692901611328,-0.08703994750976562
1711072937144876500,11.38187646484375,-0.054717063903808594,0.005637645721435547,-0.10461902618408203
1711072937163836200,11.400836181640624,-0.04170060157775879,0.04276704788208008,-0.08375263214111328
1711072937182795800,11.419795654296875,-0.09107470512390137,-0.025144577026367188,0.11413002014160156
1711072937201755400,11.43875537109375,-0.11803388595581055,-0.08986091613769531,0.02797985076904297
1711072937220715000,11.457715087890625,-0.16339492797851562,0.0038123130798339844,-0.26117849349975586
1711072937239674600,11.476674560546876,-0.1846146583557129,-0.1067194938659668,-0.4391899108886719
1711072937258634200,11.49563427734375,-0.12665605545043945,-0.13691139221191406,-0.3640866279602051
1711072937277593900,11.51459375,-0.08425331115722656,-0.16831207275390625,-0.16991424560546875
1711072937296553500,11.533553466796874,-0.12484335899353027,-0.07326030731201172,-0.042545318603515625
1711072937315513000,11.55251318359375,-0.10447072982788086,-0.00164794921875,-0.08025932312011719
1711072937334472700,11.57147265625,0.038771629333496094,0.03309297561645508,-0.016013622283935547
1711072937353432300,11.590432373046875,0.05036568641662598,0.0011982917785644531,-0.0006818771362304688
1711072937372392000,11.609391845703126,0.00290679931640625,-0.03274679183959961,-0.1316370964050293
1711072937391351600,11.6283515625,-0.1378459930419922,-0.01236867904663086,-0.06595277786254883
1711072937410311200,11.647311279296876,-0.10867953300476074,0.07235240936279297,0.05860137939453125
1711072937429270800,11.666270751953125,0.04307913780212402,0.015583992004394531,0.06319713592529297
1711072937448230400,11.68523046875,0.052167415618896484,0.014781951904296875,0.14189481735229492
1711072937467190000,11.70418994140625,-0.128035306930542,0.10952997207641602,0.10064077377319336
1711072937486150000,11.72314990234375,-0.10994553565979004,-0.015527725219726562,0.05376386642456055
1711072937505109200,11.742109130859374,0.07123255729675293,0.018143653869628906,0.045294761657714844
1711072937524069000,11.761069091796875,0.10031938552856445,-0.18093156814575195,-0.029561519622802734
1711072937543028700,11.78002880859375,0.012879133224487305,-0.024787425994873047,-0.04206275939941406
1711072937561988400,11.79898828125,0.2215120792388916,0.12860870361328125,0.08035755157470703
1711072937580948000,11.817947998046876,0.2134850025177002,0.017536163330078125,0.24155187606811523
1711072937599907600,11.836907470703125,-0.04223203659057617,0.1282181739807129,0.4407649040222168
1711072937618867200,11.8558671875,0.10898756980895996,0.28484678268432617,0.4259319305419922
1711072937637826800,11.874826904296874,0.10119915008544922,0.18233489990234375,0.21122360229492188
1711072937656786400,11.893786376953125,0.019036054611206055,0.040509700775146484,0.1617884635925293
1711072937675746000,11.91274609375,0.06154370307922363,0.016944408416748047,0.00788736343383789
1711072937694705700,11.93170556640625,-0.08400630950927734,0.002582550048828125,-0.05038261413574219
1711072937713665500,11.95066552734375,0.03878903388977051,-0.008446693420410156,-0.013392925262451172
1711072937732625200,11.969625244140625,0.055648088455200195,-0.20613336563110352,0.055240631103515625
1711072937751584800,11.988584716796876,-0.0169832706451416,-0.027222633361816406,-0.009198188781738281
1711072937770544400,12.00754443359375,0.20458006858825684,0.11455106735229492,-0.16387414932250977
1711072937789504000,12.02650390625,0.12312531471252441,0.005009174346923828,-0.14301395416259766
1711072937808463600,12.045463623046874,0.011071443557739258,-0.03437948226928711,-0.0962224006652832
1711072937827423200,12.06442333984375,0.00496673583984375,-0.05895185470581055,-0.038519859313964844
1711072937846382800,12.0833828125,-0.04308938980102539,-0.2241520881652832,0.026689529418945312
1711072937865342700,12.1023427734375,-0.08588409423828125,0.14389753341674805,-0.055762290954589844
1711072937884302000,12.121302001953126,0.07265591621398926,0.055661678314208984,-0.25011348724365234
1711072937903262000,12.140261962890625,-0.06670665740966797,-0.0980677604675293,-0.3747382164001465
1711072937922221600,12.1592216796875,-0.22504949569702148,-0.2389698028564453,-0.5460376739501953
1711072937941181200,12.17818115234375,-0.29526805877685547,-0.04851675033569336,-0.32119178771972656
1711072937960140800,12.197140869140625,-0.13680481910705566,0.07906389236450195,0.026247501373291016
1711072937979100400,12.216100341796874,-0.17662811279296875,-0.041910648345947266,0.3595728874206543
1711072937998060000,12.23506005859375,0.0632333755493164,0.04021644592285156,0.17783355712890625
1711072938017020000,12.25402001953125,0.023667097091674805,0.021697044372558594,0.09763145446777344
1711072938035979500,12.2729794921875,-0.14841103553771973,0.14966917037963867,0.10592126846313477
1711072938054939100,12.291939208984376,-0.038323163986206055,0.12385845184326172,0.44657278060913086
1711072938073898800,12.310898681640625,-0.028214454650878906,0.12161016464233398,0.4438948631286621
1711072938092858400,12.3298583984375,0.11800575256347656,0.00932931900024414,0.019559860229492188
1711072938111818000,12.34881787109375,0.1945967674255371,-0.14191627502441406,-0.4199080467224121
1711072938130777600,12.367777587890625,0.10727047920227051,-0.1596965789794922,-0.4706234931945801
1711072938149737500,12.386737548828124,-0.027884960174560547,0.008773326873779297,-0.11001968383789062
1711072938168697000,12.405697021484375,-0.061936378479003906,0.08837461471557617,0.37990856170654297
1711072938187656700,12.42465673828125,-0.03997206687927246,0.036037445068359375,0.3631768226623535
1711072938206616300,12.4436162109375,-0.14496874809265137,-0.033102989196777344,0.18147850036621094
1711072938225576000,12.462575927734376,-0.12569689750671387,0.08887577056884766,0.11346244812011719
1711072938244535600,12.48153564453125,0.06350255012512207,0.07748174667358398,0.0433802604675293
1711072938263495400,12.500495361328126,0.044942378997802734,-0.006075382232666016,0.005582332611083984
1711072938282454800,12.519454833984375,0.1527397632598877,-0.07905054092407227,-0.08556175231933594
1711072938301414700,12.53841455078125,-0.3485233783721924,0.13672113418579102,0.16689634323120117
1711072938320374300,12.557374267578124,-0.10357499122619629,0.17750787734985352,0.20956087112426758
1711072938339334000,12.576333984375,-0.13927960395812988,0.07854413986206055,0.08619499206542969
1711072938358293500,12.59529345703125,-0.29103541374206543,0.10289144515991211,0.09736204147338867
1711072938377253000,12.614253173828125,-0.04298973083496094,-0.19117212295532227,-0.4484529495239258
1711072938396212700,12.633212646484376,-0.6766989231109619,-0.46447181701660156,-1.111222267150879
1711072938415172600,12.652172607421875,-0.5627076625823975,-0.48047590255737305,-1.012420654296875
1711072938434132200,12.67113232421875,0.0005273818969726562,-0.08140993118286133,-0.05574512481689453
1711072938453091800,12.690091796875,0.28295445442199707,0.199066162109375,0.5237102508544922
1711072938472051500,12.709051513671875,0.2094120979309082,0.4503049850463867,0.6318836212158203
1711072938491011000,12.728010986328124,0.5554910898208618,0.06645917892456055,0.31606483459472656
1711072938509970700,12.746970703125,-0.0793447494506836,0.1235494613647461,0.0637812614440918
1711072938528930300,12.765930419921874,-0.06180834770202637,-0.0916910171508789,0.33475589752197266
1711072938547890200,12.78489013671875,0.45322179794311523,-0.18988275527954102,0.42199087142944336
1711072938566849800,12.803849853515626,-0.6275496482849121,-0.25462913513183594,0.186065673828125
1711072938585809400,12.822809326171875,-1.5447180271148682,-0.41041088104248047,0.027038097381591797
1711072938604769000,12.84176904296875,-2.3529205322265625,-0.6067156791687012,-0.7839088439941406
1711072938623728600,12.860728759765625,-1.2985825538635254,-0.7294416427612305,-2.020512342453003
1711072938642688300,12.879688232421875,-0.44472765922546387,-0.3320746421813965,-1.0134878158569336
1711072938661648100,12.898648193359374,2.2198119163513184,-0.20545578002929688,0.09523773193359375
1711072938680607700,12.917607666015625,2.9693665504455566,0.9723310470581055,1.881462574005127
1711072938699567400,12.9365673828125,1.9112919569015503,1.1054344177246094,2.267808437347412
1711072938718527000,12.95552685546875,0.5643875598907471,0.5051946640014648,1.7043752670288086
1711072938737486600,12.974486572265626,-0.7280256748199463,-0.1267871856689453,1.7815141677856445
1711072938756446500,12.993446533203125,0.5690262317657471,1.2501044273376465,2.738037586212158
1711072938775405800,13.01240576171875,2.1585886478424072,1.90189790725708,2.2231087684631348
1711072938794365700,13.03136572265625,2.8008017539978027,0.7547016143798828,0.432279109954834
1711072938813325300,13.0503251953125,-1.222377061843872,-0.5007271766662598,0.3344125747680664
1711072938832285000,13.069284912109374,-1.6611812114715576,-1.7398204803466797,-1.030651569366455
1711072938851244500,13.08824462890625,-0.7042863368988037,-1.4588837623596191,-0.46326589584350586
1711072938870204200,13.1072041015625,0.6021728515625,0.6589961051940918,0.5723023414611816
1711072938889163800,13.126163818359375,0.006117343902587891,0.6467490196228027,0.9618334770202637
1711072938908123600,13.14512353515625,0.13045930862426758,-1.2116141319274902,0.671717643737793
1711072938927083300,13.164083251953125,0.2553744316101074,-0.760225772857666,0.057919979095458984
1711072938946043000,13.18304296875,-1.3362507820129395,0.6005582809448242,1.8159127235412598
1711072938965002500,13.20200244140625,-0.8422436714172363,-0.09215259552001953,2.235360622406006
1711072938983962000,13.220962158203125,0.38628387451171875,-0.8974051475524902,-0.0570526123046875
1711072939002922000,13.239921875,1.4039757251739502,-1.2443509101867676,-2.137064218521118
1711072939021881300,13.25888134765625,-1.066990852355957,-0.7452421188354492,-0.7295613288879395
1711072939040841200,13.27784130859375,-0.1989455223083496,-0.12897396087646484,2.0015835762023926
1711072939059800800,13.29680078125,-0.20532703399658203,-0.8347816467285156,1.6467161178588867
1711072939078760400,13.315760498046876,-0.37337160110473633,-1.555257797241211,-1.4043059349060059
1711072939097720000,13.334719970703125,-1.649803638458252,-1.6167678833007812,-2.298344612121582
1711072939116679700,13.3536796875,-1.0890998840332031,-1.353090763092041,-0.18458080291748047
1711072939135639300,13.372639404296875,1.1565313339233398,-0.8058109283447266,1.5901546478271484
1711072939154599200,13.39159912109375,-0.9721035957336426,0.6436476707458496,1.3526701927185059
1711072939173558800,13.410558837890624,-2.332083225250244,-0.004422664642333984,-1.7677407264709473
1711072939192518400,13.429518310546875,-0.1589503288269043,-2.070718765258789,-2.3559370040893555
1711072939211478000,13.44847802734375,0.5158329010009766,-0.962923526763916,2.992267608642578
1711072939230437600,13.467437744140625,2.4570798873901367,1.057525396347046,3.4634528160095215
1711072939249397200,13.486397216796876,-0.2830815315246582,0.36934328079223633,1.6982965469360352
1711072939268356900,13.50535693359375,-0.8380146026611328,-0.9210531711578369,-0.05467510223388672
1711072939287316700,13.524316650390626,-1.8723945617675781,-0.7990946769714355,-1.7059412002563477
1711072939306276400,13.5432763671875,-0.3535604476928711,-0.6105238199234009,-1.4982709884643555
1711072939325236000,13.562236083984375,0.041899681091308594,-0.07615184783935547,-1.2055420875549316
1711072939344195600,13.581195556640624,-0.5921268463134766,0.03197091817855835,0.5937271118164062
1711072939363155200,13.6001552734375,0.007386207580566406,-0.7667235136032104,0.8594574928283691
1711072939382114800,13.61911474609375,0.8682456016540527,-1.3297375440597534,-0.7048659324645996
1711072939401074700,13.63807470703125,0.841707706451416,-0.9299203157424927,-1.9083456993103027
1711072939420034000,13.657033935546876,0.6572389602661133,-0.5211659073829651,-2.287151336669922
1711072939438994000,13.675993896484375,-0.5576686859130859,0.939794659614563,-0.662024974822998
1711072939457953500,13.69495361328125,0.7816166877746582,0.8157937526702881,-0.06263351440429688
1711072939476913200,13.7139130859375,0.8489837646484375,-0.11566519737243652,-0.06154441833496094
1711072939495872800,13.732872802734375,0.2845029830932617,-0.294511079788208,-0.25789737701416016
1711072939514832400,13.751832275390624,-1.7014579772949219,-0.6654932498931885,-0.1912527084350586
1711072939533792000,13.7707919921875,1.709000587463379,-1.6043928861618042,0.42964744567871094
1711072939552751600,13.789751708984374,3.4125189781188965,-0.9162380695343018,-1.5482580661773682
1711072939571711200,13.808711181640625,-2.796297073364258,2.264655113220215,-2.5791683197021484
1711072939590671000,13.827671142578126,-2.7309603691101074,-0.8952188491821289,-1.8927574157714844
1711072939609630700,13.846630615234375,2.967400074005127,-3.400365114212036,-1.088573932647705
1711072939628590300,13.86559033203125,-1.2904167175292969,1.2393321990966797,2.2524194717407227
1711072939647550000,13.884550048828125,-1.7075204849243164,-0.03586244583129883,1.5982885360717773
1711072939666509600,13.903509521484375,2.030552387237549,-4.430767059326172,-0.09083843231201172
1711072939685469200,13.92246923828125,1.2478070259094238,-3.092257022857666,-1.1871590614318848
1711072939704428800,13.9414287109375,-0.7878885269165039,1.254758358001709,-0.5161280632019043
1711072939723388400,13.960388427734374,0.06307077407836914,-0.752138614654541,0.088348388671875
1711072939742348000,13.97934814453125,1.5788874626159668,-2.2428455352783203,-0.7913928031921387
1711072939761308000,13.998307861328126,0.6438241004943848,0.10594797134399414,-1.195052146911621
1711072939780267500,14.017267578125,-0.15102529525756836,0.6928310394287109,-0.37087297439575195
1711072939799227100,14.03622705078125,1.5190815925598145,-2.0017223358154297,0.33146238327026367
1711072939818186800,14.055186767578125,0.20760107040405273,1.0504016876220703,0.6493544578552246
1711072939837146400,14.074146484375,0.566622257232666,0.9908161163330078,1.8668293952941895
1711072939856106000,14.09310595703125,0.6384172439575195,-1.0305724143981934,-0.8339924812316895
1711072939875065600,14.112065673828125,1.0243091583251953,0.8686299324035645,-0.5430245399475098
1711072939894025200,14.131025146484374,0.27681875228881836,0.6704692840576172,0.156982421875
1711072939912984800,14.14998486328125,1.0671162605285645,-0.5808067321777344,0.10500860214233398
1711072939931944700,14.16894482421875,-0.08968925476074219,-2.5684709548950195,-3.0051136016845703
1711072939950904000,14.187904052734375,-0.005545139312744141,-0.2551736831665039,-0.114410400390625
1711072939969864000,14.206864013671876,0.3450608253479004,-1.221726894378662,0.21171951293945312
1711072939988823600,14.225823486328125,-0.3554224967956543,-1.7259654998779297,-1.236210823059082
1711072940007783200,14.244783203125,0.4034566879272461,-1.2471270561218262,-0.9016962051391602
1711072940026742800,14.26374267578125,-0.11923980712890625,0.2424297332763672,-0.029370784759521484
1711072940045702400,14.282702392578125,0.4284019470214844,-1.5308446884155273,0.0038900375366210938
1711072940064662000,14.301662109375,-0.08323812484741211,-2.8630313873291016,-1.3590869903564453
1711072940083621600,14.32062158203125,0.627434253692627,0.19907760620117188,0.35804080963134766
1711072940102581200,14.339581298828126,0.32242345809936523,-0.46308374404907227,-0.013503074645996094
1711072940121540900,14.358540771484375,0.5429220199584961,-2.7357540130615234,-1.0737671852111816
1711072940140500700,14.377500732421876,-0.6283330917358398,-1.2157387733459473,-1.0956346988677979
1711072940159460000,14.396460205078125,-0.8445501327514648,-0.7178936004638672,0.3248128890991211
1711072940178420000,14.415419921875,0.06239938735961914,-1.2280497550964355,-0.48651742935180664
1711072940197379600,14.434379638671874,2.0948126316070557,-2.390106678009033,-0.5386252403259277
1711072940216339000,14.4533388671875,2.0696067810058594,-3.1483120918273926,-1.6866016387939453
1711072940235298800,14.472298828125,-0.9341769218444824,0.7587876319885254,-1.035010814666748
1711072940254258400,14.491258544921875,-0.2623872756958008,2.4683265686035156,1.236440658569336
1711072940273218000,14.510218017578126,1.1686816215515137,-2.2439188957214355,1.0746698379516602
1711072940292177700,14.529177734375,0.5232992172241211,-3.484161376953125,-2.299805164337158
1711072940311137300,14.54813720703125,-0.5460062026977539,-2.615597724914551,-1.900979995727539
1711072940330097000,14.567096923828124,0.882746696472168,2.1537561416625977,0.25171566009521484
1711072940349056500,14.586056396484375,0.5820460319519043,0.13994503021240234,0.4278831481933594
1711072940368016100,14.60501611328125,0.23172569274902344,-2.227353572845459,-1.5681877136230469
1711072940386975700,14.623975830078125,-0.3037567138671875,-1.0763635635375977,-0.9204230308532715
1711072940405935400,14.642935302734376,0.10674858093261719,0.031332969665527344,1.1826515197753906
1711072940424895000,14.66189501953125,1.2021689414978027,-0.35498476028442383,-0.5203309059143066
1711072940443854600,14.6808544921875,-1.1882786750793457,0.799774169921875,-1.2789011001586914
1711072940462814200,14.699814208984375,1.0116519927978516,-0.22325944900512695,1.7480502128601074
1711072940481774000,14.718774169921875,2.1671314239501953,-0.8118138313293457,0.1469893455505371
1711072940500733400,14.7377333984375,-0.6692466735839844,1.053356647491455,-1.5454769134521484
1711072940519693300,14.756693359375,-1.614804744720459,1.6133654117584229,-0.6197586059570312
1711072940538653000,14.77565283203125,1.5523838996887207,0.40854525566101074,1.8382844924926758
1711072940557612300,14.7946123046875,0.8145575523376465,-0.7955539226531982,-0.06716537475585938
1711072940576572200,14.813572265625,-1.5721697807312012,-0.8177413940429688,-1.7048940658569336
1711072940595531800,14.83253173828125,-0.11866140365600586,1.9892938137054443,0.01029205322265625
1711072940614491400,14.851491455078126,-0.6074461936950684,1.1580250263214111,2.0424413681030273
1711072940633451000,14.870450927734375,1.5993237495422363,-1.0231571197509766,-0.4849247932434082
1711072940652410600,14.88941064453125,-1.9685850143432617,0.1739823818206787,-1.8697724342346191
1711072940671370200,14.908370361328124,-0.7121272087097168,1.574803113937378,0.39495325088500977
1711072940690329900,14.927329833984375,0.7646536827087402,1.0890979766845703,1.237011432647705
1711072940709289500,14.94628955078125,0.6598057746887207,-0.039191246032714844,-0.632265567779541
1711072940728249000,14.9652490234375,-1.1069583892822266,-0.025975853204727173,-0.35642385482788086
1711072940747208700,14.984208740234376,-0.07836103439331055,0.5972891449928284,0.2802715301513672
1711072940766168300,15.003168212890625,-0.26383256912231445,1.081602931022644,2.1729660034179688
1711072940785128000,15.0221279296875,3.7542877197265625,-0.6797019243240356,0.6040387153625488
1711072940804087600,15.041087646484375,-0.8595170974731445,-0.8585894107818604,-1.4795451164245605
1711072940823047200,15.060047119140625,-5.415472984313965,2.0441930294036865,-1.049880027770996
1711072940842006800,15.0790068359375,-0.2923097610473633,2.5258796215057373,1.16748046875
1711072940860966400,15.09796630859375,4.091213226318359,-1.2833884954452515,0.16553449630737305
1711072940879926000,15.116926025390624,-0.8240585327148438,-1.3584339618682861,-1.2432136535644531
1711072940898885600,15.1358857421875,-2.601835250854492,1.2239089012145996,-0.7533345222473145
1711072940917845200,15.15484521484375,-0.16113758087158203,1.6006451845169067,0.3085670471191406
1711072940936804900,15.173804931640625,1.0434808731079102,-0.2415165901184082,1.0361790657043457
1711072940955764500,15.192764404296875,0.6158437728881836,-0.6063637733459473,1.0273313522338867
1711072940974724000,15.21172412109375,-0.37389326095581055,0.5693149566650391,0.6645970344543457
1711072940993683700,15.23068359375,-2.76112699508667,1.535248041152954,0.1950392723083496
1711072941012643300,15.249643310546874,0.18988275527954102,0.7318863868713379,-0.867729663848877
1711072941031603000,15.26860302734375,0.43422937393188477,-0.31046247482299805,-1.8794689178466797
1711072941050562600,15.2875625,-3.6976218223571777,0.21448230743408203,-0.06421661376953125
1711072941069522200,15.306522216796875,-0.3298764228820801,0.41312503814697266,2.382782459259033
1711072941088481800,15.325481689453126,2.1350796222686768,-0.16405963897705078,2.0116019248962402
1711072941107441400,15.34444140625,-0.9476919174194336,-0.4629936218261719,0.7277379035949707
1711072941126401000,15.363401123046875,-0.9338421821594238,-0.36777353286743164,-0.028625011444091797
1711072941145360600,15.382360595703124,0.9574918746948242,0.33434200286865234,0.20543384552001953
1711072941164320300,15.4013203125,-2.5309348106384277,0.6565999984741211,0.16397714614868164
1711072941183279900,15.42027978515625,-0.8825621604919434,0.1823897361755371,0.46108102798461914
1711072941202239500,15.439239501953125,2.2853424549102783,-0.9448184967041016,0.516815185546875
1711072941221199000,15.45819921875,-0.364778995513916,-1.1224522590637207,-0.0013208389282226562
1711072941240159000,15.477158935546875,-4.245932102203369,-0.3711204528808594,-0.13844633102416992
1711072941259118300,15.496118408203126,0.029372215270996094,-0.26198339462280273,0.5936017036437988
1711072941278078000,15.515077880859375,2.1638755798339844,-0.711209774017334,0.9667510986328125
1711072941297037800,15.534037841796875,-1.0345911979675293,-0.7262272834777832,-0.05002593994140625
1711072941315997200,15.5529970703125,-2.286672592163086,0.1323719024658203,-0.997523307800293
1711072941334956800,15.571956787109375,-0.4274787902832031,1.1355032920837402,1.0071702003479004
1711072941353916400,15.59091650390625,2.143578290939331,0.22908973693847656,2.1432137489318848
1711072941372876000,15.6098759765625,1.3913280963897705,-0.7481522560119629,2.2334065437316895
1711072941391835600,15.628835693359376,-1.3981738090515137,-1.008521556854248,1.246603012084961
1711072941410795300,15.647795166015625,-1.52256178855896,-0.5924167633056641,-0.35176706314086914
1711072941429755000,15.6667548828125,-0.5677051544189453,-0.36829280853271484,-1.0473361015319824
1711072941448714500,15.685714599609375,-1.752648115158081,-0.46370983123779297,-1.2411370277404785
1711072941467674000,15.704674072265625,-0.7127671241760254,-1.214559555053711,-1.8873932361602783
1711072941486633700,15.7236337890625,0.45691680908203125,-0.517601490020752,-0.08738231658935547
1711072941505593300,15.74259326171875,0.1333332061767578,-0.023815155029296875,0.5216732025146484
1711072941524553000,15.761552978515626,-0.11468386650085449,-0.11732721328735352,-0.833158016204834
1711072941543512600,15.7805126953125,0.768629789352417,-0.9136552810668945,-0.8776044845581055
1711072941562472200,15.79947216796875,-0.18819832801818848,0.4125990867614746,0.9996848106384277
1711072941581431800,15.818431884765625,-0.30750441551208496,0.376436710357666,0.9056339263916016
1711072941600391400,15.837391357421875,-0.5444033145904541,0.8018841743469238,0.7401657104492188
1711072941619351000,15.85635107421875,1.2754626274108887,-0.623652458190918,0.393984317779541
1711072941638310700,15.875310546875,1.3414616584777832,-0.22156143188476562,0.29074954986572266
1711072941657270300,15.894270263671874,-0.6711394786834717,-0.235992431640625,0.7736773490905762
1711072941676230000,15.91322998046875,-0.6450350284576416,0.48226165771484375,1.2495880126953125
1711072941695189500,15.932189453125,1.1182764768600464,-0.9764289855957031,0.1253814697265625
1711072941714149000,15.951149169921875,1.1575069427490234,1.192734718322754,1.0600190162658691
1711072941733108700,15.970108642578126,0.7667570114135742,-0.009047508239746094,0.8747868537902832
1711072941752068400,15.989068359375,0.5303249359130859,-0.21724891662597656,1.7103137969970703
1711072941771028000,16.008028076171875,0.13708233833312988,0.5213956832885742,1.2266840934753418
1711072941789987600,16.026987548828124,0.22658085823059082,-0.08758831024169922,2.02470064163208
1711072941808947200,16.045947265625,0.035729408264160156,0.20763349533081055,1.6588220596313477
1711072941827906800,16.06490673828125,-0.1474008560180664,0.10862207412719727,0.6593337059020996
1711072941846866400,16.083866455078127,0.43248724937438965,0.5671858787536621,1.2925076484680176
1711072941865826000,16.102825927734376,1.301588535308838,0.1411113739013672,1.5872082710266113
1711072941884785700,16.12178564453125,0.061865806579589844,-1.0854907035827637,0.9377293586730957
1711072941903745300,16.140745361328126,-1.4470348358154297,-0.872469425201416,-0.0019407272338867188
1711072941922705000,16.159704833984375,-2.10664701461792,0.20742559432983398,-0.6545982360839844
1711072941941664500,16.17866455078125,0.7049493789672852,1.0833501815795898,1.343782901763916
1711072941960624000,16.1976240234375,1.5286109447479248,0.2233595848083496,2.657485008239746
1711072941979583700,16.216583740234373,0.16294288635253906,-1.0361652374267578,1.4631762504577637
1711072941998543400,16.23554345703125,-0.12257146835327148,-0.455960750579834,0.10822105407714844
1711072942017503000,16.2545029296875,-0.3179316520690918,0.08135604858398438,0.2400956153869629
1711072942036462600,16.273462646484376,0.7682809829711914,-0.45116662979125977,0.6535286903381348
1711072942055422200,16.292422119140625,-1.4801979064941406,-1.0035252571105957,-0.35595703125
1711072942074381800,16.3113818359375,-1.6779861450195312,-0.1947774887084961,-1.927877426147461
1711072942093341400,16.330341552734374,0.38603973388671875,-0.2680482864379883,-0.08094930648803711
1711072942112301000,16.349301025390623,0.8538308143615723,-1.598994255065918,1.6956100463867188
1711072942131261000,16.368260986328124,-0.7067642211914062,-0.8859515190124512,1.07598876953125
1711072942150220300,16.38722021484375,-1.5641570091247559,0.7346696853637695,-0.856654167175293
1711072942169180000,16.406179931640626,-0.4166383743286133,-0.31903982162475586,-0.6926412582397461
1711072942188139800,16.425139892578127,1.1693782806396484,-2.7311019897460938,0.8552870750427246
1711072942207099400,16.444099365234376,-0.34862613677978516,-1.9058518409729004,0.5650138854980469
1711072942226059000,16.46305908203125,-0.05207204818725586,0.7140035629272461,0.9937834739685059
1711072942245018600,16.4820185546875,-0.09554338455200195,-0.10717964172363281,-0.7463445663452148
1711072942263978200,16.500978271484374,-1.9076919555664062,-1.366208791732788,-1.0642318725585938
1711072942282937900,16.519937744140623,0.020858287811279297,-0.33414721488952637,-1.5595154762268066
1711072942301897500,16.5388974609375,-0.6064634323120117,0.969205379486084,-0.6919465065002441
1711072942320857000,16.557857177734373,0.9978780746459961,-0.7477824687957764,0.45334768295288086
1711072942339816700,16.576816650390626,-0.5613903999328613,-1.0891560316085815,1.2666778564453125
1711072942358776300,16.5957763671875,0.11833572387695312,-0.17487835884094238,0.28279733657836914
1711072942377736000,16.61473583984375,-0.3676176071166992,0.4543365240097046,0.15752696990966797
1711072942396695600,16.633695556640625,-0.7474603652954102,-0.2404184341430664,-0.809321403503418
1711072942415655200,16.6526552734375,0.14383554458618164,-0.1590784192085266,-0.4055767059326172
1711072942434614800,16.67161474609375,0.5783815383911133,-0.7534189820289612,-0.728184700012207
1711072942453574400,16.690574462890623,-1.0258302688598633,-0.5659135580062866,0.08561944961547852
1711072942472534300,16.7095341796875,0.8683319091796875,-0.261401504278183,-0.26975107192993164
1711072942491493600,16.72849365234375,0.19270849227905273,-0.9110279083251953,-1.3227782249450684
1711072942510453500,16.74745361328125,-0.9317111968994141,-0.2650233507156372,-1.3268446922302246
1711072942529413000,16.7664130859375,-1.1698532104492188,-0.08783113956451416,-0.8874020576477051
1711072942548372700,16.785372802734376,0.18116044998168945,-0.967308759689331,0.029990196228027344
1711072942567332400,16.804332275390625,-0.06914329528808594,-0.27421140670776367,1.1304097175598145
1711072942586292000,16.8232919921875,0.5822181701660156,-1.1419343948364258,-1.4588737487792969
1711072942605251600,16.84225146484375,-0.23659133911132812,-1.2242100238800049,-1.620185136795044
1711072942624211200,16.861211181640623,-0.8965702056884766,0.5396792888641357,0.15418052673339844
1711072942643170300,16.88017041015625,0.10951995849609375,0.25339341163635254,0.590303897857666
1711072942662130700,16.899130615234377,1.3513050079345703,-1.2940220832824707,0.022452831268310547
1711072942681090300,16.91809033203125,0.3173518180847168,-0.8878934383392334,-0.0883173942565918
1711072942700050000,16.9370498046875,0.5104742050170898,-0.6223495006561279,-0.15918636322021484
1711072942719009500,16.956009521484376,1.1810269355773926,0.0015916824340820312,-1.3674261569976807
1711072942737969200,16.97496923828125,-0.30292797088623047,0.7186236381530762,0.30131053924560547
1711072942756928800,16.9939287109375,1.017293930053711,-2.657316207885742,-0.821436882019043
1711072942775888400,17.012888427734374,0.13972997665405273,0.025954723358154297,-1.5787336826324463
1711072942794848000,17.031847900390623,-0.4128885269165039,-0.37390613555908203,-0.7162213325500488
1711072942813807600,17.0508076171875,0.7157497406005859,-0.5036411285400391,0.5486454963684082
1711072942832767500,17.069767578125,1.06243896484375,-0.25208282470703125,0.35218286514282227
1711072942851727000,17.08872705078125,-0.5238113403320312,0.623990535736084,0.8756036758422852
1711072942870686700,17.107686767578127,0.9737777709960938,-2.1261348724365234,0.16282415390014648
1711072942889646300,17.126646240234376,0.8825950622558594,-1.7137784957885742,-0.9019091129302979
1711072942908606000,17.14560595703125,0.41156721115112305,0.4029369354248047,1.3115267753601074
1711072942927565800,17.16456591796875,1.400496006011963,-0.9805030822753906,-0.7820806503295898
1711072942946525200,17.183525146484374,0.09697532653808594,-1.717219352722168,-1.6304006576538086
1711072942965485000,17.202485107421875,1.032320499420166,-1.452864646911621,-0.3710513114929199
1711072942984444700,17.221444580078124,0.4821023941040039,0.291597843170166,-0.11105632781982422
1711072943003404300,17.240404296875,-0.1162419319152832,-1.286207675933838,0.04470348358154297
1711072943022364000,17.259364013671874,0.5522732734680176,-2.9101123809814453,-0.4905581474304199
1711072943041323500,17.278323486328127,0.10405397415161133,-1.1877341270446777,-0.8667924404144287
1711072943060283100,17.297283203125,1.3538074493408203,0.8403620719909668,0.20434999465942383
1711072943079243000,17.316242919921876,-0.09770536422729492,-1.408156394958496,-0.6470699310302734
1711072943098202600,17.33520263671875,0.27791404724121094,-3.0061099529266357,-0.8351771831512451
1711072943117162200,17.354162353515626,1.0583782196044922,-1.216783046722412,-1.0025525093078613
1711072943136121900,17.373121826171875,0.9154782295227051,-0.7600259780883789,0.08128118515014648
1711072943155081500,17.39208154296875,-0.29151391983032227,0.24171161651611328,0.5857782363891602
1711072943174041300,17.411041259765625,0.30224609375,-2.003115653991699,0.08255624771118164
1711072943193001000,17.4300009765625,1.642961025238037,-0.8647723197937012,-1.4845976829528809
1711072943211960600,17.448960693359375,-0.0011873245239257812,-0.8249297142028809,-0.8974204063415527
1711072943230920200,17.467920166015624,-0.7118010520935059,0.6105432510375977,0.7243170738220215
1711072943249879800,17.4868798828125,1.0072879791259766,-1.16813325881958,1.5597925186157227
1711072943268839700,17.505839599609374,1.166276454925537,-3.34368896484375,-1.8627541065216064
1711072943287799000,17.524799072265626,-0.5600681304931641,-1.555861473083496,-1.479238748550415
1711072943306759000,17.543759033203123,-0.26308107376098633,-0.3425636291503906,-0.8611249923706055
1711072943325718500,17.562718505859376,0.2663693428039551,-1.098609447479248,-1.0368361473083496
1711072943344678100,17.58167822265625,0.26796627044677734,-1.8141870498657227,-1.737806797027588
1711072943363637800,17.6006376953125,-0.11915206909179688,-0.9416031837463379,-1.2739992141723633
1711072943382597400,17.619597412109375,-0.962378978729248,-0.26735401153564453,-1.2182917594909668
1711072943401557200,17.63855712890625,0.33211374282836914,-0.9195218086242676,-0.40753650665283203
1711072943420516900,17.657516845703125,2.5216307640075684,-2.0323262214660645,-0.5523147583007812
1711072943439476500,17.6764765625,-0.6746902465820312,-0.6143553256988525,-1.6881232261657715
1711072943458436000,17.69543603515625,-1.8282999992370605,0.9048311710357666,-0.2526235580444336
1711072943477395700,17.714395751953123,1.680774211883545,0.35669398307800293,0.5093379020690918
1711072943496355600,17.73335546875,0.6731300354003906,-0.12624335289001465,0.5681443214416504
1711072943515315200,17.752315185546873,-0.9800634384155273,0.5479898452758789,-0.3493328094482422
1711072943534274800,17.77127490234375,0.3736863136291504,1.1126928329467773,-0.27777624130249023
1711072943553234400,17.790234375,-0.027359962463378906,1.2726359367370605,0.19902420043945312
1711072943572194000,17.809194091796876,1.8737969398498535,-1.2463769912719727,-0.5200867652893066
1711072943591154000,17.82815380859375,-1.376823902130127,-0.9494970440864563,-1.805424690246582
1711072943610113500,17.847113525390625,-0.5194745063781738,2.449227809906006,0.09022283554077148
1711072943629073200,17.8660732421875,0.14771032333374023,3.0782384872436523,0.6995954513549805
1711072943648032800,17.88503271484375,0.4081234931945801,0.3778953552246094,1.2701759338378906
1711072943666992400,17.903992431640624,0.8578791618347168,-2.3305468559265137,0.3858199119567871
1711072943685952300,17.9229521484375,-1.5089564323425293,-0.15222933888435364,-0.11545610427856445
1711072943704912000,17.941911865234374,-2.0440025329589844,2.9198825359344482,0.8478174209594727
1711072943723871500,17.96087158203125,2.7413697242736816,0.02970576286315918,-0.046410560607910156
1711072943742831000,17.9798310546875,-0.37712669372558594,-1.004880666732788,-1.2747015953063965
1711072943761790700,17.998790771484376,-4.154113292694092,1.738649845123291,0.9971189498901367
1711072943780750600,18.01775048828125,0.8877167701721191,2.4199798107147217,0.9802651405334473
1711072943799710200,18.036710205078126,2.9251441955566406,-0.5374469757080078,0.2451486587524414
1711072943818669800,18.055669921875,-2.709247589111328,-0.6579132080078125,-0.923823356628418
1711072943837629400,18.07462939453125,-2.891745090484619,1.617556095123291,0.5850744247436523
1711072943856589000,18.093589111328125,0.7815375328063965,1.2938132286071777,1.4083118438720703
1711072943875549000,18.112548828125,1.2991700172424316,-0.5208611488342285,-0.005509376525878906
1711072943894508500,18.131508544921875,-1.7507386207580566,-0.5704076290130615,0.5451579093933105
1711072943913468200,18.15046826171875,-2.9482674598693848,0.10025167465209961,0.25995922088623047
1711072943932427800,18.169427734375,0.9919033050537109,0.5272059440612793,0.7459945678710938
1711072943951387400,18.188387451171874,1.8915033340454102,0.8868024349212646,0.29192066192626953
1711072943970347300,18.20734716796875,-3.826775074005127,1.8307275772094727,0.8633041381835938
1711072943989307000,18.226306884765624,0.37113332748413086,1.2097218036651611,1.893064022064209
1711072944008266500,18.2452666015625,2.596569538116455,-0.027181625366210938,1.7787532806396484
1711072944027226000,18.26422607421875,-3.0079164505004883,-0.04072761535644531,2.5904135704040527
1711072944046185700,18.283185791015626,-1.8862919807434082,-0.18482255935668945,0.5502052307128906
1711072944065145600,18.3021455078125,0.747614860534668,-0.9096193313598633,-1.1708173751831055
1711072944084105200,18.321105224609376,-1.0054097175598145,-1.1611599922180176,-2.791632890701294
1711072944103064800,18.34006494140625,-3.395401954650879,0.5915484428405762,-1.1184887886047363
1711072944122024400,18.3590244140625,-1.5444092750549316,0.7281923294067383,2.053177833557129
1711072944140984000,18.377984130859375,2.5731441974639893,-0.8453474044799805,2.7341394424438477
1711072944159944000,18.39694384765625,0.5459113121032715,-1.456533432006836,2.4932823181152344
1711072944178903600,18.415903564453124,-0.2611856460571289,-1.8032054901123047,0.7706513404846191
1711072944197863200,18.43486328125,-0.6909542083740234,-0.38939571380615234,-0.9689822196960449
1711072944216822800,18.45382275390625,-4.102099418640137,1.7876057624816895,-0.4644474983215332
1711072944235782400,18.472782470703127,-0.07699728012084961,0.34073543548583984,0.5504817962646484
1711072944254742000,18.491741943359376,3.984314203262329,-1.4426689147949219,1.8506083488464355
1711072944273702000,18.510701904296877,0.2467632293701172,-0.27180004119873047,3.775571823120117
1711072944292661500,18.52966162109375,-4.384960651397705,1.3175835609436035,2.467067241668701
1711072944311621000,18.54862109375,-2.4250452518463135,-1.2584118843078613,-2.479945659637451
1711072944330580700,18.567580810546875,0.2643558979034424,-2.075132369995117,-2.967447519302368
1711072944349540400,18.586540283203124,0.22228527069091797,-1.0634994506835938,-1.1760039329528809
1711072944368500200,18.605500244140625,0.025726795196533203,-1.333953857421875,-2.2189254760742188
1711072944387459800,18.6244599609375,1.2031868696212769,-0.7139034271240234,-0.9825224876403809
1711072944406419500,18.64341943359375,0.13716650009155273,0.9989447593688965,2.0490293502807617
1711072944425379000,18.662379150390624,-0.03408336639404297,0.4553084373474121,0.8369131088256836
1711072944444338700,18.681338623046877,-0.12553024291992188,0.2267475128173828,1.1731104850769043
1711072944463298600,18.700298583984374,0.40976810455322266,-0.5501537322998047,1.1725468635559082
1711072944482258200,18.719258056640626,0.5888500213623047,0.18636655807495117,-0.3815298080444336
1711072944501217800,18.7382177734375,0.2647368907928467,1.388657569885254,1.284715175628662
1711072944520177400,18.757177490234376,2.0421693325042725,-0.16292524337768555,1.6349153518676758
1711072944539137000,18.776136962890625,0.7051975727081299,-0.19465875625610352,1.6393389701843262
1711072944558097000,18.795096923828126,-0.20067429542541504,0.6121129989624023,0.21803569793701172
1711072944577056300,18.81405615234375,-0.45849132537841797,-0.021185874938964844,0.22179365158081055
1711072944596016000,18.83301611328125,-0.36145687103271484,-1.1938538551330566,1.3508896827697754
1711072944614975700,18.851975830078125,0.10723018646240234,-0.7775249481201172,0.2998647689819336
1711072944633935400,18.870935302734374,0.5968589782714844,0.7828598022460938,0.024393081665039062
1711072944652895000,18.88989501953125,2.207843542098999,0.4939565658569336,0.6712236404418945
1711072944671854600,18.9088544921875,-0.46736717224121094,0.11507129669189453,3.511679172515869
1711072944690814500,18.927814453125,-1.179455280303955,-0.7242412567138672,2.083317756652832
1711072944709774000,18.946774169921873,1.0761134624481201,-0.5611662864685059,1.3669943809509277
1711072944728733700,18.965733642578126,-0.13926267623901367,-0.02299356460571289,-0.17998456954956055
1711072944747693300,18.984693359375,-1.532059669494629,-0.5466599464416504,-1.2666044235229492
1711072944766653000,19.00365283203125,-0.42063426971435547,-0.9168353080749512,-0.5054764747619629
1711072944785612500,19.022612548828125,-0.59136962890625,-0.15673828125,0.9120955467224121
1711072944804572400,19.041572509765626,-0.1168828010559082,-0.09853172302246094,0.8956599235534668
1711072944823532000,19.060531982421875,-0.8276619911193848,-0.48434925079345703,0.9993877410888672
1711072944842491600,19.07949169921875,1.562281608581543,-0.1826186180114746,1.0189146995544434
1711072944861451300,19.098451171875,-0.42607927322387695,0.42018651962280273,1.0179228782653809
1711072944880411000,19.117410888671873,-0.7928380966186523,-0.4902033805847168,-1.2032818794250488
1711072944899370500,19.13637060546875,-1.205493450164795,-1.7346043586730957,0.24101018905639648
1711072944918330000,19.155330078125,-1.2161211967468262,0.02521371841430664,1.0910272598266602
1711072944937290000,19.1742900390625,0.18482446670532227,0.8615446090698242,1.1076388359069824
1711072944956249600,19.19324951171875,0.7428536415100098,-0.9578638076782227,1.1097822189331055
1711072944975209200,19.212209228515626,0.4589414596557617,-2.17742919921875,1.728750228881836
1711072944994168800,19.2311689453125,-2.478483200073242,-1.526991605758667,0.6845345497131348
1711072945013128400,19.25012841796875,-0.7624478340148926,-1.5993759632110596,-1.657515525817871
1711072945032088000,19.269088134765624,-1.095900058746338,-0.9728567600250244,-3.4565930366516113
1711072945051048000,19.2880478515625,-2.7463512420654297,0.15073108673095703,-4.231023788452148
1711072945070007600,19.307007568359374,-0.657341480255127,-0.03734779357910156,-0.632453441619873
1711072945088967200,19.32596728515625,1.4817042350769043,-1.6464149951934814,1.8998241424560547
1711072945107926800,19.3449267578125,1.2416276931762695,-0.9774980545043945,1.0783987045288086
1711072945126886400,19.363886474609377,-0.43413257598876953,1.2723698616027832,1.4554519653320312
1711072945145846000,19.382845947265626,-0.07639837265014648,1.359881043434143,2.6368346214294434
1711072945164805600,19.4018056640625,0.6058449745178223,-0.27715587615966797,0.3297748565673828
1711072945183765200,19.42076513671875,-0.9554014205932617,-0.7630918025970459,-1.4883718490600586
1711072945202725000,19.43972509765625,-1.0578718185424805,0.1445164978504181,-2.571415424346924
1711072945221684700,19.458684814453125,-0.8356785774230957,0.43303534388542175,-1.593461513519287
1711072945240644400,19.477644287109374,-0.5307106971740723,-0.004324674606323242,-0.3181490898132324
1711072945259604000,19.49660400390625,0.48841142654418945,-0.7498902678489685,0.6306800842285156
1711072945278563600,19.5155634765625,-0.22290563583374023,-0.9603066444396973,-0.2812809944152832
1711072945297523200,19.534523193359377,1.301863193511963,-0.3157995939254761,0.23254966735839844
1711072945316482800,19.55348291015625,-1.1698880195617676,0.18330645561218262,-1.7522783279418945
1711072945335442700,19.572442626953126,-1.1245570182800293,-0.5131657123565674,-0.08924484252929688
1711072945354402300,19.59140234375,-1.3822011947631836,-0.07854032516479492,-2.2016515731811523
1711072945373362000,19.61036181640625,-0.07325172424316406,-0.4378664493560791,-0.3719825744628906
1711072945392321500,19.629321533203125,1.703260898590088,-0.7602088451385498,0.7896766662597656
1711072945411281200,19.64828125,-0.37411022186279297,1.4796669483184814,0.8196988105773926
1711072945430240800,19.66724072265625,0.32061195373535156,-0.404970645904541,0.17829084396362305
1711072945449200400,19.686200439453124,0.8486223220825195,-2.28273868560791,-0.6582765579223633
1711072945468160000,19.705159912109377,2.260067939758301,-1.0924334526062012,-1.799788475036621
1711072945487119600,19.72411962890625,-0.7391862869262695,2.225984573364258,0.13249683380126953
1711072945506079500,19.74307958984375,0.28400659561157227,-1.2124481201171875,0.7790307998657227
1711072945525038800,19.762038818359375,0.37159299850463867,-2.4262495040893555,-1.7176580429077148
1711072945543998700,19.780998779296876,-0.10086584091186523,0.04651308059692383,-0.9450349807739258
1711072945562958300,19.799958251953125,0.570624828338623,0.12691259384155273,0.5560946464538574
1711072945581918000,19.81891796875,-0.47085142135620117,-1.7341127395629883,0.28077220916748047
1711072945600877600,19.837877685546875,0.17998743057250977,-2.3157756328582764,-1.576551914215088
1711072945619837200,19.856837158203124,-0.041045188903808594,-0.1593341827392578,-0.40410852432250977
1711072945638796800,19.875796875,-0.1944870948791504,0.7681088447570801,0.12807750701904297
1711072945657756400,19.89475634765625,0.005586147308349609,-0.7954654693603516,-0.07496023178100586
1711072945676716000,19.913716064453126,0.6786222457885742,-3.8362045288085938,-2.004307508468628
1711072945695676000,19.932676025390624,1.4417619705200195,-0.6692714691162109,0.36373138427734375
1711072945714635500,19.951635498046876,0.005875110626220703,0.44698429107666016,0.4673137664794922
1711072945733595100,19.97059521484375,0.719670295715332,-2.0303874015808105,-1.4677865505218506
1711072945752554800,19.9895546875,-0.9537439346313477,-1.109682559967041,-0.4529738426208496
1711072945771514400,20.008514404296875,0.9346442222595215,-1.6108064651489258,2.0837364196777344
1711072945790474000,20.027473876953124,2.257240056991577,-3.40248966217041,0.2959890365600586
1711072945809433600,20.04643359375,0.8779125213623047,-2.5135669708251953,-2.3305888175964355
1711072945828393200,20.065393310546874,0.26267576217651367,-1.4530396461486816,-0.6906776428222656
1711072945847352800,20.084352783203126,0.35616397857666016,0.27980899810791016,0.2429366111755371
1711072945866312400,20.1033125,1.6623234748840332,-0.8358845710754395,-0.22334575653076172
1711072945885272000,20.12227197265625,1.6561567783355713,-2.493995189666748,-0.9992251396179199
1711072945904231700,20.141231689453125,1.0741424560546875,-2.778251886367798,-0.7138304710388184
1711072945923191600,20.160191650390626,0.7490391731262207,-1.9980955123901367,0.10233783721923828
1711072945942151000,20.17915087890625,0.1646718978881836,-1.1099419593811035,0.5233941078186035
1711072945961110800,20.19811083984375,0.12769794464111328,-1.3533477783203125,0.046154022216796875
1711072945980070400,20.2170703125,1.5303525924682617,-2.0643155574798584,-1.3704867362976074
1711072945999030000,20.236030029296874,1.6715383529663086,-1.75382661819458,-2.1605348587036133
1711072946017989600,20.25498974609375,-1.0434999465942383,0.3940129280090332,-1.187356948852539
1711072946036949200,20.27394921875,-0.7466902732849121,-0.9025764465332031,0.4474363327026367
1711072946055908900,20.292908935546876,1.1751008033752441,-2.7477307319641113,0.08076667785644531
1711072946074868500,20.311868408203125,0.7954745292663574,-2.539905548095703,-0.6499223709106445
1711072946093828000,20.330828125,-2.1692276000976562,0.33036136627197266,-0.7439742088317871
1711072946112787700,20.34978759765625,-0.4249234199523926,0.9324889183044434,-1.2784552574157715
1711072946131747300,20.368747314453124,2.574817180633545,0.6442246437072754,-0.5356388092041016
1711072946150707200,20.387707275390625,-0.23627376556396484,-0.354534387588501,-0.1014714241027832
1711072946169666600,20.40666650390625,-1.2349085807800293,0.00632929801940918,-0.5577797889709473
1711072946188626400,20.42562646484375,0.6505999565124512,2.134568691253662,-2.188286304473877
1711072946207586000,20.4445859375,-1.1814632415771484,1.045637845993042,0.24338626861572266
1711072946226545400,20.46354541015625,0.5465188026428223,-0.5995769500732422,1.526383876800537
1711072946245505300,20.48250537109375,1.2693719863891602,1.4931048154830933,-0.18144893646240234
1711072946264465000,20.50146484375,-0.7473850250244141,3.426482677459717,1.9467568397521973
1711072946283424500,20.520424560546875,0.8601040840148926,0.6141954660415649,-0.2251567840576172
1711072946302384000,20.539384033203124,-0.10605525970458984,-1.813856840133667,-1.8053064346313477
1711072946321343700,20.55834375,-2.3690056800842285,0.36934545636177063,-1.0489163398742676
1711072946340303400,20.577303466796874,0.5769400596618652,1.5203691720962524,1.1636829376220703
1711072946359263000,20.596262939453126,1.9852957725524902,0.7127792835235596,0.4918036460876465
1711072946378222600,20.61522265625,-2.5239133834838867,1.353629469871521,-0.24623680114746094
1711072946397182200,20.63418212890625,-1.0653157234191895,1.5879936218261719,0.3747138977050781
1711072946416141800,20.653141845703125,1.684401512145996,0.03630185127258301,1.0408358573913574
1711072946435101400,20.672101318359374,-0.46253490447998047,-0.3138854503631592,1.2661991119384766
1711072946454061000,20.69106103515625,0.06708240509033203,0.4830493927001953,1.0355658531188965
1711072946473020700,20.710020751953124,-1.723010540008545,0.8695907592773438,-1.5767288208007812
1711072946491980300,20.728980224609376,-1.9999799728393555,0.6476888656616211,1.202834129333496
1711072946510940000,20.74793994140625,0.717803955078125,-0.6872119903564453,2.017829418182373
1711072946529899800,20.766899658203126,1.0515851974487305,-1.0169758796691895,0.8271112442016602
1711072946548859400,20.785859375,-4.73767614364624,0.15277910232543945,-0.40675973892211914
1711072946567819000,20.804819091796876,-2.9752936363220215,0.4082822799682617,-1.2025165557861328
1711072946586778600,20.823778564453125,1.0991153717041016,-0.8412466049194336,-0.9537591934204102
1711072946605738200,20.84273828125,-0.8964104652404785,-1.1988730430603027,-0.8169541358947754
1711072946624697900,20.86169775390625,-5.211949825286865,-0.6467056274414062,-0.5971598625183105
1711072946643657500,20.880657470703124,0.29603147506713867,-1.056675910949707,-0.38923120498657227
1711072946662617000,20.8996171875,2.94464373588562,-0.8701081275939941,0.007905006408691406
1711072946681576700,20.91857666015625,-3.4557876586914062,0.762692928314209,2.449284076690674
1711072946700536300,20.937536376953126,-1.8967647552490234,0.6238627433776855,2.1577653884887695
1711072946719496000,20.956495849609375,4.234992504119873,-0.7198905944824219,1.4509973526000977
1711072946738455600,20.97545556640625,-0.8598208427429199,-0.36612510681152344,1.8723697662353516
1711072946757415200,20.994415283203125,-4.408874034881592,-0.4481816291809082,0.5044689178466797
1711072946776374800,21.013374755859374,0.039615631103515625,-0.10433530807495117,0.10032272338867188
1711072946795334400,21.03233447265625,1.041306495666504,1.1830921173095703,2.0712037086486816
1711072946814294000,21.0512939453125,1.4292798042297363,0.5929460525512695,2.7529425621032715
1711072946833253600,21.070253662109376,-0.36732029914855957,-0.7485299110412598,2.994208812713623
1711072946852213200,21.089213134765625,0.4841489791870117,-1.4853472709655762,1.33380126953125
1711072946871173000,21.108173095703126,-1.1725053787231445,-0.515498161315918,-0.2161874771118164
1711072946890132500,21.127132568359375,-3.0222818851470947,-2.0751900672912598,-3.980221748352051
1711072946909092400,21.14609228515625,-1.812265157699585,-2.489887237548828,-4.9803547859191895
1711072946928052000,21.165052001953125,-0.7122955322265625,-1.4752707481384277,-3.735687255859375
1711072946947011600,21.184011474609374,0.6975361108779907,-0.681391716003418,-1.048903465270996
1711072946965971200,21.20297119140625,-0.5165205001831055,1.2556686401367188,3.8024368286132812
1711072946984930800,21.221930908203124,0.5575762987136841,1.0570201873779297,3.606189727783203
1711072947003890400,21.240890380859376,-0.5370821952819824,0.5747857093811035,1.786794662475586
1711072947022850000,21.25985009765625,-2.0081839561462402,-0.6101789474487305,0.44624805450439453
1711072947041809700,21.2788095703125,-1.0615088939666748,-0.32065773010253906,1.378699779510498
1711072947060769300,21.297769287109375,1.4829511642456055,0.6631183624267578,2.4222960472106934
1711072947079729000,21.31672900390625,1.3672590255737305,1.6406702995300293,2.2043027877807617
1711072947098688800,21.335688720703125,1.4717673063278198,1.123927116394043,2.1027183532714844
1711072947117648100,21.354648193359374,1.1592721939086914,0.059340476989746094,1.048849105834961
1711072947136608000,21.37360791015625,-0.11102628707885742,0.35507822036743164,0.1921548843383789
1711072947155567600,21.392567626953124,-3.2232003211975098,-0.3388071060180664,0.3499126434326172
1711072947174527200,21.41152734375,1.1429073810577393,0.03069019317626953,1.4779119491577148
1711072947193486800,21.43048681640625,-0.5295097827911377,0.42479705810546875,3.589822769165039
1711072947212446500,21.449446533203126,2.1807990074157715,1.30629301071167,2.8300681114196777
1711072947231406000,21.468406005859375,1.3046305179595947,2.2641725540161133,2.915773868560791
1711072947250365700,21.48736572265625,-0.9697573184967041,-0.011976242065429688,2.2339892387390137
1711072947269325300,21.5063251953125,0.1292266845703125,-2.129037857055664,-0.6321229934692383
1711072947288285200,21.52528515625,-0.19836163520812988,-0.6844720840454102,-0.579291820526123
1711072947307244800,21.544244873046875,-1.1745338439941406,0.46674013137817383,0.2551131248474121
1711072947326204400,21.563204345703124,0.31200718879699707,-0.4679603576660156,-0.8715629577636719
1711072947345164000,21.5821640625,1.1651015281677246,-0.7538251876831055,0.7035999298095703
1711072947364123600,21.60112353515625,0.3277292251586914,-0.5028986930847168,1.3264446258544922
1711072947383083300,21.620083251953126,-0.9326629638671875,-0.9786977767944336,-0.41622304916381836
1711072947402043000,21.63904296875,0.49664926528930664,-1.1066126823425293,-1.1448068618774414
1711072947421002500,21.65800244140625,0.2894101142883301,-0.1702437400817871,0.5585775375366211
1711072947439962400,21.67696240234375,0.1500544548034668,0.13243389129638672,0.8882408142089844
1711072947458922000,21.695921875,0.26879072189331055,-1.0278844833374023,0.7434754371643066
1711072947477881600,21.714881591796875,1.0537376403808594,-1.3391547203063965,0.49876832962036133
1711072947496841200,21.73384130859375,-0.9324007034301758,-0.848940372467041,0.21967744827270508
1711072947515800800,21.75280078125,-0.8722662925720215,-1.1093087196350098,-1.5370545387268066
1711072947534760400,21.771760498046874,-0.877403736114502,-1.6392011642456055,0.8269820213317871
1711072947553720300,21.79072021484375,0.4115610122680664,-0.6300082206726074,1.9386286735534668
1711072947572679700,21.8096796875,0.6695046424865723,-0.504204273223877,2.5976133346557617
1711072947591639600,21.8286396484375,-0.7503976821899414,-1.7354369163513184,-1.6822752952575684
1711072947610599200,21.84759912109375,-2.6016974449157715,-2.1297528743743896,-2.4939475059509277
1711072947629558800,21.866558837890626,0.9431624412536621,-1.5179030895233154,0.39815616607666016
1711072947648518400,21.885518310546875,-0.1142125129699707,-0.7813072204589844,1.446415901184082
1711072947667478000,21.90447802734375,-0.17657136917114258,-0.4991757869720459,0.27564144134521484
1711072947686438000,21.92343798828125,-2.3401827812194824,-0.40067291259765625,-1.0433359146118164
1711072947705397500,21.9423974609375,1.1869139671325684,-1.2576839923858643,-0.45627403259277344
1711072947724357000,21.961357177734374,-1.233123779296875,-1.1350364685058594,1.245678424835205
1711072947743316700,21.980316650390623,1.6213207244873047,-0.4091815948486328,1.223313331604004
1711072947762276400,21.9992763671875,-1.4533014297485352,0.6423546671867371,-0.13193273544311523
1711072947781236000,22.018236083984377,0.4181199073791504,1.0822948217391968,-1.3474721908569336
1711072947800195800,22.03719580078125,0.227020263671875,-0.26239341497421265,-0.4615612030029297
1711072947819155500,22.056155517578127,-0.5813541412353516,-1.3354686498641968,-0.7111911773681641
1711072947838115000,22.075114990234376,-1.4909553527832031,-0.7304002046585083,-1.062356948852539
1711072947857074700,22.09407470703125,-0.4970273971557617,-0.4336109757423401,-0.4525279998779297
1711072947876034300,22.113034423828125,-0.12270355224609375,-1.6492915153503418,-0.07409238815307617
1711072947894994200,22.131994140625,-0.061614990234375,-1.5435240268707275,1.0349721908569336
1711072947913953800,22.150953857421875,0.792292594909668,0.7833807468414307,0.22110939025878906
1711072947932913400,22.169913330078124,-0.8245730400085449,1.3917818069458008,-1.4518561363220215
1711072947951873000,22.188873046875,-0.00794363021850586,-0.2230067253112793,-1.671907901763916
1711072947970832600,22.20783251953125,-0.6740593910217285,-1.5498576164245605,-2.5705296993255615
1711072947989792500,22.22679248046875,0.6343250274658203,0.4767732620239258,-0.26502323150634766
1711072948008752000,22.245752197265624,-1.1559224128723145,0.2012462615966797,-0.9729070663452148
1711072948027711700,22.264711669921876,-0.0531163215637207,-1.3282866477966309,0.1575489044189453
1711072948046671400,22.28367138671875,1.7050766944885254,-1.9737863540649414,0.6905279159545898
1711072948065631200,22.30263134765625,-0.09394502639770508,-0.45737218856811523,-1.818678379058838
1711072948084590800,22.3215908203125,-1.5311346054077148,1.384108066558838,-1.4937548637390137
1711072948103550500,22.340550537109376,-0.23246526718139648,-0.6927204132080078,-0.9054808616638184
1711072948122510000,22.359510009765625,1.4368233680725098,-3.063601493835449,-1.4728307723999023
1711072948141469700,22.3784697265625,0.09677505493164062,-0.7438468933105469,-1.0082902908325195
1711072948160429600,22.3974296875,0.18502235412597656,-0.34046268463134766,-0.6028399467468262
1711072948179389200,22.41638916015625,0.2879939079284668,-0.40494728088378906,0.3719673156738281
1711072948198348800,22.435348876953125,0.518984317779541,-2.537285327911377,-0.24213504791259766
1711072948217308400,22.454308349609374,-0.004202842712402344,-2.8860507011413574,-0.99819016456604
1711072948236268000,22.47326806640625,0.6309309005737305,1.3196821212768555,1.4938669204711914
1711072948255228000,22.492227783203123,1.3581714630126953,0.40731096267700195,0.9529314041137695
1711072948274187500,22.5111875,0.4276595115661621,-3.9404942989349365,-1.6944847106933594
1711072948293147100,22.530147216796873,0.49825000762939453,-1.7907018661499023,-0.0890355110168457
1711072948312106800,22.549106689453126,0.7908282279968262,-0.25077342987060547,-0.3007502555847168
1711072948331066400,22.56806640625,0.6063175201416016,-0.9483470916748047,-1.3582475185394287
1711072948350026200,22.587026123046876,0.022952556610107422,-1.7986183166503906,-1.4270339012145996
1711072948368985900,22.60598583984375,1.2468597888946533,-4.497985363006592,-0.0880131721496582
1711072948387945500,22.624945556640625,0.618394136428833,-1.7003703117370605,-0.3485403060913086
1711072948406905000,22.643905029296874,0.5949602127075195,-0.08272743225097656,-0.1425929069519043
1711072948425865000,22.662864990234375,1.2474989891052246,-1.2432255744934082,-0.19754981994628906
1711072948444824600,22.681824462890624,0.7273311614990234,-2.6575136184692383,0.13462305068969727
1711072948463784200,22.7007841796875,1.7835650444030762,-2.421469211578369,0.16726016998291016
1711072948482743800,22.719743896484374,0.6052150726318359,-0.29789113998413086,-0.02002239227294922
1711072948501703400,22.738703369140627,0.6506426334381104,-0.5165257453918457,-0.7846469879150391
1711072948520663300,22.757663330078124,1.0467159748077393,-2.0453009605407715,-0.7538957595825195
1711072948539623000,22.776622802734376,0.4792928695678711,-1.2061619758605957,-0.29096269607543945
1711072948558582500,22.79558251953125,-0.33370065689086914,-0.19423961639404297,0.7322354316711426
1711072948577542100,22.814542236328126,0.47805356979370117,-0.6829934120178223,-1.0698299407958984
1711072948596501800,22.833501708984375,0.988344669342041,-0.9898538589477539,-0.8239092826843262
1711072948615461600,22.852461669921876,-0.5817704200744629,-1.852510929107666,0.22349834442138672
1711072948634421200,22.871421142578125,0.5431923866271973,-0.3790721893310547,-0.3892974853515625
1711072948653380900,22.890380859375,-0.13665008544921875,1.5265522003173828,-0.32639312744140625
1711072948672340700,22.9093408203125,-0.6718668937683105,-2.1012754440307617,-0.04476118087768555
1711072948691300000,22.928300048828124,0.1296224594116211,-1.8892650604248047,-0.595916748046875
1711072948710260000,22.947260009765625,0.529571533203125,2.1952571868896484,-2.2328057289123535
1711072948729219600,22.966219482421874,-0.730475902557373,0.2180013656616211,-0.9208312034606934
1711072948748179200,22.98517919921875,0.496523380279541,-1.0997505187988281,-0.8182587623596191
1711072948767139000,23.00413916015625,0.755490779876709,1.2820439338684082,-0.30938196182250977
1711072948786098700,23.0230986328125,0.5413665771484375,1.475898265838623,1.2223472595214844
1711072948805058300,23.042058349609373,0.6430344581604004,-1.2454619407653809,0.5633883476257324
1711072948824018000,23.061017822265626,0.5848121643066406,0.7158184051513672,0.5260944366455078
1711072948842977500,23.0799775390625,0.7373790740966797,2.449106216430664,-1.1768689155578613
1711072948861937400,23.0989375,-0.00452423095703125,0.8546755313873291,0.5041580200195312
1711072948880897000,23.11789697265625,-0.2704281806945801,-0.5070618391036987,0.37019777297973633
1711072948899856600,23.136856689453126,0.2339940071105957,0.42083048820495605,-0.4521613121032715
1711072948918816300,23.155816162109375,-1.0570378303527832,1.6628564596176147,-0.36937999725341797
1711072948937775900,23.17477587890625,-0.40860605239868164,0.375219464302063,0.2977638244628906
1711072948956735700,23.19373583984375,0.5666837692260742,-0.41911399364471436,0.5511341094970703
1711072948975695400,23.2126953125,0.7757329940795898,0.14624708890914917,-0.21276617050170898
1711072948994655000,23.231655029296874,-2.1021714210510254,0.010880500078201294,-1.306344985961914
1711072949013614600,23.250614501953127,0.5865206718444824,0.25273916125297546,-0.5559582710266113
1711072949032574200,23.26957421875,-2.0039844512939453,2.380948305130005,0.5284466743469238
1711072949051534000,23.2885341796875,-1.1151537895202637,1.593937635421753,1.4632906913757324
1711072949070493700,23.30749365234375,2.710282325744629,-0.8058643341064453,-0.5698189735412598
1711072949089453300,23.326453369140626,-2.2308945655822754,-1.1695348024368286,-1.9413185119628906
1711072949108413000,23.345412841796875,-1.4002041816711426,-0.7370316982269287,-0.24613428115844727
1711072949127372800,23.364372802734376,-1.5839104652404785,0.43268680572509766,0.951596736907959
1711072949146332400,23.38333251953125,0.7969861030578613,0.16984319686889648,1.7231249809265137
1711072949165292000,23.4022919921875,3.34844708442688,-0.7440755367279053,0.6272077560424805
1711072949184251600,23.421251708984375,-3.520716667175293,0.5332479476928711,-1.4851021766662598
1711072949203211300,23.440211181640624,-3.161865711212158,1.8097453117370605,-1.0791163444519043
1711072949222171100,23.459171142578125,2.342844009399414,-0.14112544059753418,-0.11419963836669922
1711072949241130800,23.478130859375,0.4615001678466797,-2.1769540309906006,-0.5293927192687988
1711072949260090400,23.49709033203125,-3.4988226890563965,-0.9090440273284912,0.06087493896484375
1711072949279050000,23.516050048828124,0.1101531982421875,1.1320891380310059,1.9155926704406738
1711072949298009600,23.535009521484376,2.771228313446045,0.8002071380615234,1.872753620147705
1711072949316969500,23.553969482421873,-3.658803939819336,-0.8245010375976562,1.0823450088500977
