time,seconds_elapsed,z,y,x
1711072925816543000,0.05354296875,0.0732274129986763,-0.0360410213470459,0.10713040828704834
1711072925835502600,0.072502685546875,0.07108938694000244,-0.10720676928758621,0.10468695312738419
1711072925854462000,0.0914619140625,0.07658717036247253,-0.21777328848838806,0.11232276260852814
1711072925873421300,0.11042138671875,0.08513928204774857,-0.4367683231830597,0.12240202724933624
1711072925892380700,0.129380615234375,0.12301289290189743,-0.8988875150680542,0.12789981067180634
1711072925911340300,0.14834033203125,0.21494804322719574,-1.6924008131027222,0.14378230273723602
1711072925930299600,0.167299560546875,0.3181841969490051,-2.4941608905792236,0.18776455521583557
1711072925949259000,0.186259033203125,0.31177011132240295,-2.998735189437866,0.21281002461910248
1711072925968218400,0.20521826171875,0.23632831871509552,-3.2843143939971924,0.23968806862831116
1711072925987178000,0.224177978515625,0.08513928204774857,-3.1642794609069824,0.2833648920059204
1711072926006137300,0.243137451171875,-0.22762349247932434,-2.791041135787964,0.3050506114959717
1711072926025096700,0.2620966796875,-0.5996401309967041,-2.6141958236694336,0.39362600445747375
1711072926044056000,0.28105615234375,-1.1934007406234741,-2.5769331455230713,0.28550294041633606
1711072926063015700,0.300015625,-1.1488075256347656,-2.4575090408325195,-0.08529199659824371
1711072926081975000,0.31897509765625,-1.1396446228027344,-2.65970516204834,-0.6863829493522644
1711072926100934400,0.337934326171875,-1.283808708190918,-2.832885503768921,-1.061453938484192
1711072926119893800,0.356893798828125,-1.5556435585021973,-2.9046621322631836,-1.349782109260559
1711072926138853400,0.375853271484375,-1.6439135074615479,-2.9889614582061768,-1.6799545288085938
1711072926157812700,0.394812744140625,-1.5864921808242798,-2.959334373474121,-2.0421972274780273
1711072926176772000,0.413772216796875,-1.5571706295013428,-2.9150466918945312,-2.4362051486968994
1711072926195731500,0.4327314453125,-1.550756573677063,-3.0103416442871094,-2.7520222663879395
1711072926214691000,0.451691162109375,-1.4789799451828003,-3.0393576622009277,-2.9392521381378174
1711072926233650400,0.470650390625,-1.3528363704681396,-2.9407031536102295,-3.0992987155914307
1711072926252609800,0.48960986328125,-1.3225985765457153,-2.941924810409546,-3.2208609580993652
1711072926271569400,0.5085693359375,-1.262733817100525,-3.1422884464263916,-3.2996623516082764
1711072926290528800,0.52752880859375,-0.997618556022644,-3.2879796028137207,-3.289888620376587
1711072926309488000,0.546488037109375,-0.6008618474006653,-3.2589635848999023,-3.1854307651519775
1711072926328447500,0.565447509765625,-0.17142392694950104,-3.0662357807159424,-2.932838201522827
1711072926347407000,0.584406982421875,0.31787875294685364,-2.81119966506958,-2.491488456726074
1711072926366366500,0.603366455078125,0.7778599262237549,-2.380845546722412,-1.9823325872421265
1711072926385325800,0.622325927734375,1.056414246559143,-1.922391414642334,-1.4823397397994995
1711072926404285200,0.64128515625,1.169424295425415,-1.5903865098953247,-0.9927316308021545
1711072926423244800,0.660244873046875,1.253418207168579,-1.4007129669189453,-0.41668614745140076
1711072926442204200,0.6792041015625,1.3346631526947021,-1.3384047746658325,0.14347685873508453
1711072926461163500,0.69816357421875,1.4406481981277466,-1.461188554763794,0.6764563918113708
1711072926480123000,0.717122802734375,1.5151736736297607,-1.481041669845581,1.1306343078613281
1711072926499082500,0.73608251953125,1.4455351829528809,-1.2351685762405396,1.463861107826233
1711072926518041900,0.755041748046875,1.2234858274459839,-0.8020654320716858,1.6611703634262085
1711072926537001200,0.774001220703125,0.9006437659263611,-0.2813032269477844,1.8288527727127075
1711072926555960600,0.792960693359375,0.7277690172195435,0.19303326308727264,1.9681299924850464
1711072926574920200,0.811920166015625,0.7864120602607727,0.42302384972572327,2.0417392253875732
1711072926593879600,0.830879638671875,0.8514691591262817,0.5296197533607483,1.9357541799545288
1711072926612839000,0.8498388671875,0.6892845630645752,0.435241162776947,1.6807180643081665
1711072926631798300,0.86879833984375,0.4470766484737396,0.2706131041049957,1.4846304655075073
1711072926650758000,0.8877578125,0.33315038681030273,0.2663370370864868,1.3419935703277588
1711072926669717200,0.90671728515625,0.2827540338039398,0.35643959045410156,1.067104458808899
1711072926688676600,0.925676513671875,0.20395247638225555,0.4358520209789276,0.7821359634399414
1711072926707636200,0.94463623046875,0.09552398324012756,0.6994401812553406,0.5628355145454407
1711072926726595600,0.963595703125,-0.04405862092971802,0.9544762372970581,0.37316203117370605
1711072926745555000,0.982554931640625,-0.18791727721691132,1.0146464109420776,0.18226677179336548
1711072926764514300,1.001514404296875,-0.24900375306606293,0.9819651246070862,-0.055970486253499985
1711072926783474000,1.020473876953125,-0.16745330393314362,0.9770781993865967,-0.3739255964756012
1711072926802433300,1.039433349609375,-0.11797326058149338,1.1038326025009155,-0.4548651874065399
1711072926821392600,1.058392578125,-0.37697991728782654,1.2873975038528442,-0.1778380125761032
1711072926840352300,1.077352294921875,-0.6072759628295898,1.266933560371399,-0.19738568365573883
1711072926859311600,1.0963115234375,-0.7318923473358154,0.8527672290802002,-0.2300669401884079
1711072926878271000,1.11527099609375,-0.757243275642395,-0.14782927930355072,-0.37056586146354675
1711072926897230600,1.134230712890625,-0.5602393746376038,-0.8008437156677246,-0.3528507649898529
1711072926916190000,1.15318994140625,-0.4145480990409851,-0.5513054728507996,-0.23922991752624512
1711072926935149300,1.1721494140625,-0.6118574142456055,0.14599667489528656,-0.2862665057182312
1711072926954109000,1.19110888671875,-0.922176718711853,0.6157516837120056,-0.39622217416763306
1711072926973068300,1.210068359375,-0.9811251759529114,0.7113520503044128,-0.4307360351085663
1711072926992027600,1.229027587890625,-0.8546761870384216,0.5427533388137817,-0.45822495222091675
1711072927010987300,1.2479873046875,-0.8268818259239197,0.2153298407793045,-0.5208385586738586
1711072927029946600,1.266946533203125,-0.877278208732605,0.06780599057674408,-0.570624053478241
1711072927048906000,1.285906005859375,-0.9395864009857178,-0.08979712426662445,-0.5187005400657654
1711072927067865600,1.304865478515625,-0.9246202111244202,-0.26389357447624207,-0.4854084253311157
1711072927086825000,1.323824951171875,-0.7868701815605164,-0.2614501118659973,-0.4670824706554413
1711072927105784600,1.34278466796875,-0.6219366788864136,-0.11911863088607788,-0.5807033181190491
1711072927124744000,1.361743896484375,-0.40171995759010315,-0.015577051788568497,-0.7462477087974548
1711072927143703300,1.380703369140625,-0.20288346707820892,-0.07819069176912308,-0.8513164520263672
1711072927162663000,1.399662841796875,-0.013515383005142212,-0.3454440236091614,-0.9099594354629517
1711072927181622300,1.418622314453125,0.18287764489650726,-0.600785493850708,-0.9518036842346191
1711072927200582000,1.437581787109375,0.28214317560195923,-0.6728675365447998,-1.0638973712921143
1711072927219541200,1.456541259765625,0.23602287471294403,-0.6249146461486816,-1.2609012126922607
1711072927238500600,1.47550048828125,0.19356778264045715,-0.3326158821582794,-1.3464223146438599
1711072927257460200,1.494460205078125,0.325514554977417,-0.08491020649671555,-1.448742151260376
1711072927276419600,1.513419677734375,0.2690095901489258,-0.3298669755458832,-1.5812997817993164
1711072927295379200,1.532379150390625,0.0423787422478199,-0.476779967546463,-1.6732349395751953
1711072927314338600,1.551338623046875,0.060704685747623444,-0.39370235800743103,-1.9380449056625366
1711072927333298000,1.5702978515625,-0.06177370250225067,-0.24220788478851318,-2.2486696243286133
1711072927352257500,1.589257568359375,-0.326583594083786,0.13225223124027252,-2.4676647186279297
1711072927371217000,1.608216796875,-0.681801438331604,0.5119046568870544,-2.5473825931549072
1711072927390176300,1.62717626953125,-0.8699477910995483,0.7327322959899902,-2.644815444946289
1711072927409135900,1.646135986328125,-1.0626755952835083,0.8640682101249695,-2.5709006786346436
1711072927428095200,1.66509521484375,-1.0260237455368042,0.8487966060638428,-2.295706272125244
1711072927447054800,1.684054931640625,-0.7777072191238403,0.8286380767822266,-1.8790963888168335
1711072927466014200,1.70301416015625,-0.4664716124534607,0.7651081085205078,-1.3827687501907349
1711072927484973800,1.721973876953125,-0.1937204897403717,0.6795870661735535,-0.803363561630249
1711072927503933200,1.74093310546875,-0.10178534686565399,0.6878337264060974,-0.2514472007751465
1711072927522892800,1.759892822265625,-0.14424043893814087,0.6918043494224548,0.21372631192207336
1711072927541852200,1.77885205078125,-0.46372273564338684,0.9935715794563293,0.5985711216926575
1711072927560811500,1.7978115234375,-0.7123447060585022,1.3732240200042725,0.8203150629997253
1711072927579771100,1.816771240234375,-0.922176718711853,1.3545926809310913,0.9818887710571289
1711072927598730500,1.83573046875,-1.0290781259536743,0.9957095980644226,1.0622174739837646
1711072927617690000,1.854690185546875,-1.1491130590438843,0.4251618981361389,1.3126720190048218
1711072927636649500,1.8736494140625,-1.1060470342636108,-0.002443459117785096,1.3551270961761475
1711072927655609000,1.892609130859375,-0.9664644598960876,-0.45387253165245056,1.141324520111084
1711072927674568400,1.911568359375,-1.0580941438674927,-0.4740310609340668,1.0872629880905151
1711072927693528000,1.930528076171875,-1.0107520818710327,-0.1640172004699707,1.1077269315719604
1711072927712487400,1.9494873046875,-0.8589522242546082,0.18356487154960632,1.0390046834945679
1711072927731446800,1.96844677734375,-0.8030580878257751,-0.010079269297420979,0.815122663974762
1711072927750406400,1.987406494140625,-0.7624356150627136,0.0360410213470459,0.7372374534606934
1711072927769365800,2.00636572265625,-0.644844114780426,0.22327107191085815,0.780303418636322
1711072927788325400,2.025325439453125,-0.5828413367271423,0.008552107028663158,0.6831759214401245
1711072927807285000,2.044284912109375,-0.5565741658210754,-0.282524973154068,0.5875755548477173
1711072927826244400,2.063244384765625,-0.42707082629203796,-0.49113526940345764,0.4061487317085266
1711072927845204000,2.082203857421875,-0.36628979444503784,-0.4211912751197815,0.24671301245689392
1711072927864163300,2.101163330078125,-0.33024877309799194,-0.4010327160358429,0.13553562760353088
1711072927883123000,2.120123046875,-0.3427715003490448,-0.48105600476264954,-0.03428478538990021
1711072927902082300,2.139082275390625,-0.3320813775062561,-0.5225948095321655,-0.09445496648550034
1711072927921041700,2.158041748046875,-0.3119228184223175,-0.44929105043411255,-0.16623157262802124
1711072927940001300,2.177001220703125,-0.32994332909584045,-0.45448338985443115,-0.26366451382637024
1711072927958960600,2.195960693359375,-0.3519344627857208,-0.4712821841239929,-0.3928624093532562
1711072927977920300,2.214920166015625,-0.2505309283733368,-0.3903425931930542,-0.4102720618247986
1711072927996880000,2.2338798828125,-0.19646938145160675,-0.21777328848838806,-0.3632354736328125
1711072928015839200,2.252839111328125,-0.18180863559246063,0.0665842592716217,-0.35071274638175964
1711072928034798800,2.271798828125,-0.18577924370765686,0.09957095980644226,-0.3846157491207123
1711072928053758200,2.29075830078125,-0.11614066362380981,0.2370155304670334,-0.4255436658859253
1711072928072717800,2.3097177734375,-0.06482802331447601,0.3857611119747162,-0.42157304286956787
1711072928091677200,2.32867724609375,-0.013515383005142212,0.6808087825775146,-0.38614290952682495
1711072928110636800,2.34763671875,-0.0058795735239982605,1.0567960739135742,-0.2645808160305023
1711072928129596200,2.36659619140625,-0.1372154951095581,1.1236857175827026,-0.224569171667099
1711072928148555800,2.3855556640625,-0.2771035432815552,1.1139118671417236,-0.14943279325962067
1711072928167515100,2.40451513671875,-0.20227259397506714,1.0259474515914917,-0.10758855938911438
1711072928186474800,2.423474853515625,-0.20807582139968872,0.9602794051170349,-0.009850194677710533
1711072928205434000,2.44243408203125,-0.1839466542005539,1.0671807527542114,-0.026648975908756256
1711072928224393700,2.461393798828125,-0.10881029069423676,1.1004729270935059,-0.0077121676877141
1711072928243353300,2.480353271484375,-0.1424078494310379,0.9642500281333923,-0.034895651042461395
1711072928262312700,2.499312744140625,-0.2199876755475998,0.6985238790512085,-0.0006872228696011007
1711072928281272300,2.518272216796875,-0.20318889617919922,0.4471530318260193,0.07108938694000244
1711072928300231700,2.537231689453125,-0.20654866099357605,0.287106454372406,-0.010461059398949146
1711072928319191300,2.55619140625,-0.2606101930141449,0.20280711352825165,-0.028787001967430115
1711072928338150700,2.575150634765625,-0.26274821162223816,0.1695149689912796,-0.0077121676877141
1711072928357110300,2.5941103515625,-0.36567893624305725,0.2877173125743866,0.12759438157081604
1711072928376069600,2.613069580078125,-0.49884745478630066,0.7470875978469849,0.4541015923023224
1711072928395029200,2.632029296875,-0.6317105293273926,1.2147046327590942,0.723798394203186
1711072928413988900,2.65098876953125,-0.6063596606254578,1.145371437072754,0.6324741244316101
1711072928432948200,2.6699482421875,-0.42737627029418945,0.5485565662384033,0.5576431751251221
1711072928451907800,2.688907958984375,-0.26794055104255676,0.31123560667037964,0.5231293439865112
1711072928470867200,2.7078671875,-0.16195552051067352,0.27397283911705017,0.4492146968841553
1711072928489826800,2.726826904296875,-0.17020219564437866,0.14996729791164398,0.3920988440513611
1711072928508786200,2.7457861328125,-0.10728313028812408,-0.23823726177215576,0.12179116904735565
1711072928527745800,2.764745849609375,-0.15951207280158997,-0.5198459029197693,-0.029703300446271896
1711072928546705400,2.783705322265625,-0.013820815831422806,-0.23854269087314606,0.01672242395579815
1711072928565664800,2.802664794921875,0.13614648580551147,0.039706211537122726,0.15416699647903442
1711072928584624400,2.821624267578125,0.170965775847435,-0.14782927930355072,0.03810269013047218
1711072928603584000,2.840583984375,0.15844304859638214,-0.5849030017852783,-0.20777037739753723
1711072928622543400,2.85954345703125,0.23419028520584106,-0.5308414697647095,-0.45364347100257874
1711072928641503000,2.8785029296875,0.2479347437620163,-0.25503605604171753,-0.3901135325431824
1711072928660462300,2.89746240234375,0.2326631247997284,0.021685699000954628,-0.2092975378036499
1711072928679422000,2.916421875,0.0527634471654892,0.12370011955499649,-0.014126247726380825
1711072928698381600,2.935381591796875,-0.041615162044763565,0.22693626582622528,0.24365869164466858
1711072928717341000,2.9543408203125,-0.04130972921848297,0.44898560643196106,0.4431060254573822
1711072928736300500,2.973300537109375,-0.12102758139371872,0.6359102129936218,0.5518399477005005
1711072928755260000,2.992260009765625,-0.10697769373655319,0.40927940607070923,0.41439539194107056
1711072928774219500,3.011219482421875,-0.059024810791015625,-0.15302163362503052,0.18287764489650726
1711072928793179000,3.030178955078125,0.000839939049910754,-0.2733619809150696,0.09063705801963806
1711072928812138500,3.049138427734375,0.04085158184170723,0.07024945318698883,0.1297324001789093
1711072928831098000,3.06809814453125,0.08941533416509628,-0.010384701192378998,0.13767364621162415
1711072928850057500,3.087057373046875,0.10041090101003647,-0.20830489695072174,-0.09812015295028687
1711072928869017000,3.10601708984375,0.1651625633239746,-0.41294458508491516,-0.29878923296928406
1711072928887976700,3.124976806640625,0.24885104596614838,-0.5690205693244934,-0.377285361289978
1711072928906936000,3.14393603515625,0.29710936546325684,-0.5610793232917786,-0.3012326955795288
1711072928925895700,3.162895751953125,0.32765260338783264,-0.26358816027641296,-0.20746494829654694
1711072928944855000,3.18185498046875,0.252210795879364,-0.3601047992706299,-0.2560287117958069
1711072928963814700,3.200814697265625,0.19387321174144745,-0.6621774435043335,-0.2560287117958069
1711072928982774300,3.219774169921875,0.23449571430683136,-0.42913252115249634,-0.1430187225341797
1711072929001734000,3.23873388671875,0.1340084671974182,-0.205861434340477,-0.07612902671098709
1711072929020693200,3.257693359375,0.04909825697541237,-0.2162461280822754,-0.17539454996585846
1711072929039652600,3.276652587890625,0.12881611287593842,-0.601396381855011,-0.30428701639175415
1711072929058612200,3.2956123046875,0.21525347232818604,-0.4764745235443115,-0.3586539924144745
1711072929077571800,3.31457177734375,0.2635118067264557,-0.40408703684806824,-0.2902371287345886
1711072929096531500,3.333531494140625,0.38293585181236267,-0.41813695430755615,-0.3381900191307068
1711072929115490800,3.35249072265625,0.5319868922233582,-0.5574141144752502,-0.47838348150253296
1711072929134450400,3.371450439453125,0.5219075679779053,-0.9217949509620667,-0.6066650748252869
1711072929153409800,3.390409912109375,0.5713876485824585,-1.2067633867263794,-0.7606030106544495
1711072929172369400,3.409369384765625,0.667904257774353,-1.5360194444656372,-0.9267582297325134
1711072929191329000,3.4283291015625,0.6388881802558899,-1.944993495941162,-1.1579705476760864
1711072929210288400,3.447288330078125,0.41378453373908997,-2.4242169857025146,-1.4078142642974854
1711072929229248000,3.466248046875,0.08941533416509628,-2.995986223220825,-1.432248830795288
1711072929248207600,3.48520751953125,0.2577085793018341,-3.5585927963256836,-1.2025636434555054
1711072929267167200,3.504167236328125,0.5524508357048035,-3.8017170429229736,-0.7172316312789917
1711072929286126600,3.523126708984375,0.9110284447669983,-3.5222463607788086,-0.4857138693332672
1711072929305086200,3.542086181640625,0.9907463192939758,-3.040273904800415,-0.5266417860984802
1711072929324045600,3.561045654296875,0.7497601509094238,-2.467588186264038,-0.23587016761302948
1711072929343005200,3.580005126953125,0.7286853194236755,-1.747989535331726,0.2473238706588745
1711072929361964800,3.59896484375,0.8755983114242554,-1.2980875968933105,0.7635046243667603
1711072929380924200,3.617924072265625,1.1046725511550903,-1.4685189723968506,1.2653300762176514
1711072929399883800,3.6368837890625,1.4650827646255493,-2.142913579940796,1.7082070112228394
1711072929418843100,3.655843017578125,1.8603123426437378,-2.959334373474121,2.1257331371307373
1711072929437802800,3.674802734375,2.17551851272583,-3.6731300354003906,2.4788129329681396
1711072929456762400,3.693762451171875,2.1605522632598877,-3.940383195877075,2.8450262546539307
1711072929475722000,3.712721923828125,1.9525529146194458,-3.6987862586975098,3.0844852924346924
1711072929494681300,3.731681396484375,1.8193843364715576,-3.2449138164520264,3.232009172439575
1711072929513641000,3.750640869140625,1.687743067741394,-2.8432700634002686,3.50201153755188
1711072929532600300,3.769600341796875,1.548160433769226,-2.651458501815796,3.834321975708008
1711072929551560000,3.788559814453125,1.5157846212387085,-2.3380849361419678,3.93816876411438
1711072929570519600,3.80751953125,1.2943460941314697,-1.7522655725479126,3.779344081878662
1711072929589479200,3.826479248046875,0.9348521828651428,-1.0305289030075073,3.519726514816284
1711072929608438500,3.8454384765625,0.5371792316436768,-0.3295615613460541,3.2555274963378906
1711072929627398100,3.864398193359375,0.39454227685928345,0.1185077652335167,2.887786865234375
1711072929646357500,3.883357421875,0.3337612450122833,0.2919933497905731,2.44399356842041
1711072929665317000,3.902317138671875,0.2787834107875824,0.2831358313560486,1.9861505031585693
1711072929684276700,3.92127685546875,0.18318307399749756,0.18845178186893463,1.5848122835159302
1711072929703236400,3.940236328125,0.09674570709466934,0.09193515032529831,1.268384337425232
1711072929722196000,3.959196044921875,0.06772962957620621,0.07024945318698883,1.0628283023834229
1711072929741155300,3.9781552734375,0.0683404952287674,0.1646280586719513,0.9397391080856323
1711072929760115000,3.997114990234375,-0.007101302966475487,0.430659681558609,0.7882446646690369
1711072929779074300,4.01607421875,-0.34490951895713806,0.6789761781692505,0.5878809690475464
1711072929798034000,4.035033935546875,-0.5174788236618042,0.4059196412563324,0.4369973838329315
1711072929816993500,4.05399365234375,-0.35987570881843567,-0.4276053309440613,0.35361436009407043
1711072929835953200,4.072953125,-0.08193223923444748,-1.2977821826934814,0.37377288937568665
1711072929854912500,4.09191259765625,0.14622575044631958,-1.7632611989974976,0.5148826241493225
1711072929873872100,4.1108720703125,0.28122687339782715,-1.6065744161605835,0.6324741244316101
1711072929892831500,4.12983154296875,0.4177551567554474,-0.8732311725616455,0.7173843383789062
1711072929911791000,4.148791015625,0.5057196617126465,0.03329212963581085,0.7683915495872498
1711072929930750700,4.167750732421875,0.5826886296272278,0.6426297426223755,0.8368083834648132
1711072929949709600,4.18670947265625,0.7045561671257019,0.8875865340232849,0.862159252166748
1711072929968669200,4.205669189453125,0.761366605758667,0.8866702318191528,0.816649854183197
1711072929987628500,4.224628662109375,0.7158571481704712,0.8173370957374573,0.6840922236442566
1711072930006588200,4.243588134765625,0.5610029697418213,0.82436203956604,0.45685049891471863
1711072930025547800,4.2625478515625,0.3493382930755615,1.0192278623580933,0.20425790548324585
1711072930044507400,4.28150732421875,0.09338594973087311,1.3353503942489624,-0.06146826967597008
1711072930063466800,4.300466796875,-0.31009024381637573,1.5250239372253418,-0.2810741662979126
1711072930082426400,4.31942626953125,-0.571540355682373,1.0445787906646729,-0.6359865665435791
1711072930101386000,4.338385986328125,-0.30428701639175415,-0.1646280586719513,-1.0764200687408447
1711072930120345300,4.357345458984375,-0.03245219215750694,-1.0048725605010986,-1.2147809267044067
1711072930139305000,4.376304931640625,-0.20624321699142456,-0.963333785533905,-1.0052543878555298
1711072930158264600,4.3952646484375,-0.6020836234092712,-0.28008151054382324,-0.6478984355926514
1711072930177224000,4.414223876953125,-0.8113048076629639,0.6356047987937927,-0.3369682729244232
1711072930196183600,4.43318359375,-0.8904117941856384,0.9837977290153503,0.13095413148403168
1711072930215143200,4.45214306640625,-0.7633519172668457,0.47586366534233093,0.390571653842926
1711072930234102800,4.471102783203125,-0.5464949011802673,-0.38759371638298035,0.06039925664663315
1711072930253062100,4.490062255859375,-0.616744339466095,-0.8936951756477356,-0.17692171037197113
1711072930272021800,4.509021728515625,-0.7731257081031799,-0.9896009564399719,0.004505127668380737
1711072930290981400,4.5279814453125,-0.7923679947853088,-0.8881973624229431,0.16730059683322906
1711072930309940700,4.546940673828125,-0.6689732670783997,-0.5400044918060303,0.09827287495136261
1711072930328900400,4.565900390625,-0.4551706314086914,-0.30024003982543945,-0.05566505342721939
1711072930347860000,4.58485986328125,-0.30520331859588623,-0.24831652641296387,-0.24136795103549957
1711072930366819600,4.603819580078125,-0.17905974388122559,-0.1591302752494812,-0.32414013147354126
1711072930385779000,4.622779052734375,-0.06635518372058868,-0.08552107214927673,-0.2911534309387207
1711072930404738600,4.641738525390625,0.05001455545425415,0.06383536756038666,-0.20105087757110596
1711072930423698200,4.6606982421875,0.13828451931476593,0.2000582218170166,-0.2346484363079071
1711072930442657500,4.679657470703125,0.18684826791286469,0.2629773020744324,-0.30886849761009216
1711072930461617200,4.6986171875,0.12056943774223328,0.17715078592300415,-0.3372737169265747
1711072930480576800,4.71757666015625,-0.057497646659612656,-0.0412333719432354,-0.4200458824634552
1711072930499536100,4.7365361328125,-0.15615230798721313,-0.16859868168830872,-0.3473529815673828
1711072930518495700,4.755495849609375,-0.19677481055259705,-0.16035200655460358,-0.11797326058149338
1711072930537455400,4.774455322265625,-0.11278090626001358,-0.26358816027641296,-0.11461350321769714
1711072930556415000,4.7934150390625,-0.027870705351233482,-0.4046979248523712,-0.18791727721691132
1711072930575374600,4.81237451171875,0.04024071618914604,-0.20127993822097778,-0.23373213410377502
1711072930594334000,4.831333984375,0.08483384549617767,0.06566796451807022,-0.20227259397506714
1711072930613293600,4.85029345703125,0.1453094631433487,0.2205221801996231,-0.11125374585390091
1711072930632253000,4.8692529296875,0.24701844155788422,0.15241076052188873,-0.053832460194826126
1711072930651212500,4.888212646484375,0.2699258625507355,0.14569124579429626,0.015500693581998348
1711072930670172200,4.907172119140625,0.2699258625507355,0.27091851830482483,-0.013209951110184193
1711072930689131800,4.9261318359375,0.20517420768737793,0.287106454372406,-0.011988221667706966
1711072930708091100,4.945091064453125,0.09155336022377014,0.2834412455558777,0.12637265026569366
1711072930727050800,4.96405078125,0.1349247545003891,0.09682206809520721,0.2479347437620163
1711072930746010400,4.98301025390625,0.2216675579547882,-0.08460476994514465,0.26656612753868103
1711072930764970000,5.001969970703125,0.25618141889572144,-0.07513637095689774,0.23052509129047394
1711072930783929300,5.020929443359375,0.2690095901489258,0.013744457624852657,0.15813761949539185
1711072930802889000,5.039888916015625,0.2738964855670929,0.2107483446598053,0.12056943774223328
1711072930821848600,5.0588486328125,0.3044397234916687,0.37720900774002075,0.07994692772626877
1711072930840808000,5.077807861328125,0.3392590284347534,0.42882707715034485,-0.00007635809743078426
1711072930859767600,5.096767578125,0.31848961114883423,0.42791077494621277,-0.057497646659612656
1711072930878727200,5.11572705078125,0.32276567816734314,0.3652971386909485,-0.1476002037525177
1711072930897686800,5.134686767578125,0.3349829614162445,0.16676609218120575,-0.2603047490119934
1711072930916646100,5.153646240234375,0.39881834387779236,0.026878049597144127,-0.3473529815673828
1711072930935605800,5.172605712890625,0.3560578227043152,0.059864748269319534,-0.31009024381637573
1711072930954565400,5.1915654296875,0.28672465682029724,0.0821613147854805,-0.09995274990797043
1711072930973525000,5.21052490234375,0.3355938494205475,-0.06291907280683517,0.1505018174648285
1711072930992484400,5.229484375,0.3872119188308716,-0.2415970265865326,0.3249036967754364
1711072931011444000,5.24844384765625,0.3908770978450775,-0.2919933497905731,0.4385245442390442
1711072931030403600,5.267403564453125,0.38476845622062683,-0.2623664140701294,0.5585594773292542
1711072931049363000,5.286363037109375,0.3719402849674225,-0.22785256803035736,0.6755400896072388
1711072931068322600,5.305322509765625,0.36827510595321655,-0.1533270627260208,0.7470112442970276
1711072931087282200,5.3242822265625,0.36858054995536804,0.04245510324835777,0.7317396402359009
1711072931106241500,5.343241455078125,0.3453676700592041,0.24373504519462585,0.641331672668457
1711072931125201200,5.362201171875,0.30749404430389404,0.3915643095970154,0.5179370045661926
1711072931144160800,5.381160888671875,0.17402009665966034,0.47525280714035034,0.38140869140625
1711072931163120400,5.400120361328125,0.020082179456949234,0.36682429909706116,0.20822852849960327
1711072931182080000,5.419080078125,0.02802342176437378,-0.06108647957444191,0.0680350661277771
1711072931201039400,5.438039306640625,0.04024071618914604,-0.3900371491909027,-0.020540328696370125
1711072931219999000,5.4569990234375,-0.02695440873503685,-0.4199695289134979,-0.091400645673275
1711072931238958600,5.47595849609375,-0.0962875634431839,-0.27397283911705017,-0.09934188425540924
1711072931257918200,5.494918212890625,-0.12011128664016724,-0.10873392969369888,0.05520690605044365
1711072931276877600,5.513877685546875,-0.10270164161920547,0.019853105768561363,0.28641921281814575
1711072931295837200,5.532837158203125,-0.050778135657310486,-0.060781046748161316,0.41042476892471313
1711072931314796800,5.551796875,0.0035888305865228176,-0.01954767294228077,0.4018726646900177
1711072931333756200,5.570756103515625,0.08269581943750381,0.050090912729501724,0.3410916328430176
1711072931352715800,5.5897158203125,0.16974404454231262,0.15118902921676636,0.24976733326911926
1711072931371675400,5.60867529296875,0.1700494885444641,0.30024003982543945,0.14378230273723602
1711072931390635000,5.627635009765625,0.12270746380090714,0.40347617864608765,-0.009850194677710533
1711072931409594400,5.646594482421875,0.06039925664663315,0.46517354249954224,-0.1989128440618515
1711072931428554000,5.665553955078125,-0.06818778067827225,0.4111120104789734,-0.25847217440605164
1711072931447513600,5.684513671875,0.0066431546583771706,0.2617555558681488,-0.17600540816783905
1711072931466473200,5.70347314453125,0.06467530876398087,0.21441353857517242,0.0066431546583771706
1711072931485432800,5.722432861328125,0.07903063297271729,0.12644900381565094,0.10041090101003647
1711072931504392200,5.74139208984375,0.10774127393960953,-0.07422006875276566,0.08483384549617767
1711072931523351800,5.760351806640625,0.09613484144210815,-0.23915356397628784,0.09185878932476044
1711072931542311400,5.7793115234375,0.012751801870763302,-0.20311254262924194,0.08788817375898361
1711072931561271000,5.79827099609375,-0.07704532146453857,-0.13713914155960083,0.1611919403076172
1711072931580230400,5.81723046875,-0.1476002037525177,-0.23915356397628784,0.28550294041633606
1711072931599190000,5.83618994140625,-0.16042836010456085,-0.7816014885902405,0.2690095901489258
1711072931618149600,5.855149658203125,-0.17142392694950104,-1.2611303329467773,0.13736821711063385
1711072931637109000,5.87410888671875,-0.11950042098760605,-1.0855066776275635,0.15386156737804413
1711072931656068600,5.893068603515625,-0.06940951198339462,-0.4987711012363434,0.11507165431976318
1711072931675028200,5.9120283203125,-0.16226094961166382,0.14782927930355072,0.008170315995812416
1711072931693987800,5.93098779296875,-0.24717116355895996,0.767857015132904,0.02130390889942646
1711072931712947500,5.949947509765625,-0.2511417865753174,1.0916153192520142,0.23877176642417908
1711072931731906800,5.96890673828125,-0.21601705253124237,0.6356047987937927,0.33895358443260193
1711072931750866400,5.987866455078125,0.026801692321896553,-0.281914085149765,0.1611919403076172
1711072931769826000,6.006825927734375,0.3862956166267395,-0.7666352987289429,0.12118030339479446
1711072931788785700,6.02578564453125,0.5313760042190552,-0.4523453712463379,0.22502730786800385
1711072931807745000,6.0447451171875,0.30596688389778137,0.2205221801996231,0.4589885175228119
1711072931826704600,6.06370458984375,0.05459604039788246,0.6682860851287842,0.5698604583740234
1711072931845664300,6.082664306640625,0.05459604039788246,0.6084213256835938,0.5463421940803528
1711072931864623900,6.101623779296875,0.19295690953731537,0.3029889166355133,0.5610029697418213
1711072931883583500,6.12058349609375,0.2317468225955963,-0.034208428114652634,0.4944186806678772
1711072931902543000,6.139543212890625,0.20517420768737793,-0.24251331388950348,0.3710239827632904
1711072931921502500,6.15850244140625,0.14286600053310394,-0.2101374864578247,0.2534325122833252
1711072931940462000,6.177462158203125,0.05215258151292801,-0.03481929376721382,0.14744748175144196
1711072931959421700,6.196421630859375,-0.07796161621809006,0.13683371245861053,0.08055779337882996
1711072931978381300,6.21538134765625,-0.21143557131290436,0.287106454372406,0.036880962550640106
1711072931997341000,6.2343408203125,-0.2202931046485901,0.38667741417884827,0.07139482349157333
1711072932016300300,6.25330029296875,-0.21174100041389465,0.44501498341560364,0.11690424382686615
1711072932035260000,6.272260009765625,-0.21296273171901703,0.37781986594200134,0.07903063297271729
1711072932054219500,6.291219482421875,-0.28382304310798645,0.21502439677715302,0.012751801870763302
1711072932073179100,6.31017919921875,-0.3849211633205414,0.189673513174057,0.00603228947147727
1711072932092138800,6.329138671875,-0.45333802700042725,0.2565632164478302,0.015195261687040329
1711072932111098000,6.34809814453125,-0.4084394574165344,0.29901832342147827,-0.06696604937314987
1711072932130057700,6.3670576171875,-0.3739255964756012,0.508544921875,-0.17081306874752045
1711072932149017300,6.386017333984375,-0.542829692363739,0.6698132157325745,-0.04436405375599861
1711072932167977000,6.40497705078125,-0.5507709383964539,0.40255987644195557,0.17371466755867004
1711072932186936600,6.4239365234375,-0.32566729187965393,0.16126830875873566,0.40431612730026245
1711072932205896200,6.442896240234375,-0.15187625586986542,0.13469567894935608,0.45593419671058655
1711072932224855800,6.461855712890625,-0.189444437623024,0.1597411334514618,0.3462839722633362
1711072932243815400,6.4808154296875,-0.25266894698143005,0.18295399844646454,0.18440480530261993
1711072932262774800,6.49977490234375,-0.24442227184772491,0.4422661066055298,0.12301289290189743
1711072932281734400,6.518734375,-0.15065452456474304,0.7538071274757385,0.19540037214756012
1711072932300694000,6.537694091796875,-0.00923932995647192,0.9388991594314575,0.24885104596614838
1711072932319653600,6.556653564453125,0.017944153398275375,0.9831868410110474,0.2381609082221985
1711072932338613200,6.57561328125,-0.014126247726380825,1.0470222234725952,0.2167806327342987
1711072932357572900,6.59457275390625,0.07628174126148224,1.008843183517456,0.13339759409427643
1711072932376532500,6.613532470703125,0.21433718502521515,0.8521563410758972,0.02802342176437378
1711072932395492000,6.6324921875,0.22350014746189117,0.8567378520965576,-0.008628465235233307
1711072932414451700,6.65145166015625,0.13064870238304138,0.8927788734436035,0.06711876392364502
1711072932433411300,6.670411376953125,0.00022907429956831038,0.9159917235374451,0.1346193253993988
1711072932452371000,6.689370849609375,-0.03550651669502258,1.0607666969299316,0.1556941568851471
1711072932471330300,6.708330322265625,-0.14026983082294464,1.0687079429626465,0.1553887277841568
1711072932490290000,6.7272900390625,-0.2905425727367401,0.9984585046768188,0.22808164358139038
1711072932509249500,6.74624951171875,-0.450589120388031,0.9505056142807007,0.3853793144226074
1711072932528209200,6.765209228515625,-0.26855143904685974,0.30634868144989014,0.6275871992111206
1711072932547168800,6.784168701171875,-0.0025198173243552446,-0.35094180703163147,0.6660717129707336
1711072932566128400,6.80312841796875,-0.05230529606342316,-0.40408703684806824,0.4486038088798523
1711072932585088000,6.822087890625,-0.1729510873556137,-0.14477495849132538,0.2784779667854309
1711072932604047600,6.841047607421875,-0.14515674114227295,0.06261363625526428,0.060704685747623444
1711072932623007200,6.86000732421875,-0.02390008419752121,0.021685699000954628,-0.12957969307899475
1711072932641966800,6.878966796875,0.01763872057199478,-0.08979712426662445,-0.2086866796016693
1711072932660926500,6.897926513671875,-0.02542724646627903,-0.2611446976661682,-0.22670719027519226
1711072932679886000,6.916885986328125,-0.06238456442952156,-0.09804379940032959,-0.24686573445796967
1711072932698845700,6.935845703125,-0.08315397053956985,-0.03787361457943916,-0.37270388007164
1711072932717805300,6.954805419921875,-0.20624321699142456,-0.28954991698265076,-0.38247770071029663
1711072932736765000,6.973764892578125,-0.270689457654953,-0.3225366175174713,-0.30459246039390564
1711072932755724500,6.992724609375,-0.23128867149353027,-0.4147771894931793,-0.29817837476730347
1711072932774684200,7.01168408203125,-0.23098324239253998,-0.5076286196708679,-0.4664716124534607
1711072932793643500,7.0306435546875,-0.2807687222957611,-0.8106175661087036,-0.5920043587684631
1711072932812603400,7.049603271484375,-0.29481860995292664,-0.9114102721214294,-0.6717221736907959
1711072932831563000,7.06856298828125,-0.2300669401884079,-0.9334014058113098,-0.7505237460136414
1711072932850522600,7.087522705078125,-0.15095995366573334,-0.8292489647865295,-0.7587704062461853
1711072932869482200,7.106482177734375,-0.12530364096164703,-0.6239983439445496,-0.8409317135810852
1711072932888441900,7.12544189453125,-0.1631772518157959,-0.5103775262832642,-0.9035453796386719
1711072932907401500,7.1444013671875,-0.0859028622508049,-0.5299251675605774,-0.8809433579444885
1711072932926360800,7.16336083984375,-0.07307469844818115,-0.46486809849739075,-0.8665880560874939
1711072932945320700,7.18232080078125,-0.1582903414964676,-0.5849030017852783,-1.0693951845169067
1711072932964280300,7.2012802734375,-0.3226129710674286,-0.6459894776344299,-1.09688401222229
1711072932983240000,7.220239990234375,-0.3128391206264496,-0.4004218578338623,-1.0825287103652954
1711072933002199600,7.239199462890625,-0.23312127590179443,-0.43860089778900146,-1.1005492210388184
1711072933021159200,7.2581591796875,-0.2749654948711395,-0.7348703145980835,-1.0623701810836792
1711072933040118800,7.277118896484375,-0.2606101930141449,-0.639270007610321,-1.091386318206787
1711072933059078400,7.296078369140625,-0.22395829856395721,-0.45539969205856323,-1.2468513250350952
1711072933078038000,7.3150380859375,-0.2713003158569336,-0.4987711012363434,-1.3259583711624146
1711072933096997600,7.33399755859375,-0.2774089574813843,-0.5232056975364685,-1.5550326108932495
1711072933115957200,7.352957275390625,-0.32933247089385986,-0.6560688018798828,-1.782885193824768
1711072933134916900,7.371916748046875,-0.4402044415473938,-0.43860089778900146,-2.164675712585449
1711072933153876500,7.39087646484375,-0.5293906927108765,-0.37262752652168274,-2.3280820846557617
1711072933172836000,7.409836181640625,-0.3473529815673828,-0.004276053514331579,-2.3503785133361816
1711072933191795700,7.428795654296875,-0.27404922246932983,0.2263254076242447,-2.21171236038208
1711072933210755300,7.44775537109375,-0.49457138776779175,0.5006036758422852,-2.0565526485443115
1711072933229715000,7.46671484375,-0.7404444813728333,0.3796524703502655,-1.7132465839385986
1711072933248674600,7.485674560546875,-0.7477748394012451,0.3555232882499695,-1.5263220071792603
1711072933267634200,7.50463427734375,-0.7441096305847168,0.08613193035125732,-1.3644428253173828
1711072933286593800,7.52359375,-0.7914516925811768,0.06505709886550903,-1.127732753753662
1711072933305553400,7.542553466796875,-0.7343358397483826,0.08796452730894089,-0.903850793838501
1711072933324513000,7.561512939453125,-0.7117338180541992,0.05803215503692627,-0.7859538793563843
1711072933343472600,7.58047265625,-0.7758746147155762,0.1337793916463852,-0.672638475894928
1711072933362432300,7.599432373046875,-0.7233402729034424,0.27916520833969116,-0.5049561262130737
1711072933381392000,7.618391845703125,-0.7019599676132202,0.20677772164344788,-0.4108829200267792
1711072933400351500,7.6373515625,-0.6482039093971252,0.09193515032529831,-0.2746600806713104
1711072933419311000,7.65631103515625,-0.581314206123352,-0.06017018109560013,-0.09964732080698013
1711072933438270700,7.675270751953125,-0.46891507506370544,-0.1487455666065216,-0.008933897130191326
1711072933457230300,7.694230224609375,-0.23220497369766235,-0.05894844979047775,0.04818195849657059
1711072933476190200,7.713190185546875,-0.01107192412018776,-0.13713914155960083,0.23357942700386047
1711072933495149600,7.732149658203125,0.10102175921201706,-0.37690356373786926,0.29100072383880615
1711072933514109400,7.751109375,0.19448406994342804,-0.3133736252784729,0.13797907531261444
1711072933533069000,7.770069091796875,0.30566146969795227,-0.2415970265865326,0.1193477064371109
1711072933552028400,7.7890283203125,0.4076758921146393,-0.32100942730903625,0.1810450553894043
1711072933570988300,7.80798828125,0.5026653409004211,-0.4318813979625702,0.26106834411621094
1711072933589948000,7.826947998046875,0.47090038657188416,-0.39767298102378845,0.3050506114959717
1711072933608907500,7.845907470703125,0.4330267608165741,-0.2309068888425827,0.44646579027175903
1711072933627867100,7.8648671875,0.3447568118572235,-0.4056142270565033,0.6376664638519287
1711072933646826800,7.88382666015625,0.28733551502227783,-0.5342012643814087,0.8099303245544434
1711072933665786400,7.902786376953125,0.2977202236652374,-0.4929678738117218,0.9073632955551147
1711072933684746000,7.92174609375,0.29588761925697327,-0.43860089778900146,1.0078505277633667
1711072933703705600,7.94070556640625,0.20242531597614288,-0.4926624298095703,1.159650444984436
1711072933722665200,7.959665283203125,0.20547963678836823,-0.5592467188835144,1.2677735090255737
1711072933741624800,7.978624755859375,0.2677878439426422,-0.5360338687896729,1.2454769611358643
1711072933760584400,7.99758447265625,0.25068363547325134,-0.4819723069667816,1.2723549604415894
1711072933779544000,8.0165439453125,0.25098907947540283,-0.5519163012504578,1.2598322629928589
1711072933798503700,8.035503662109376,0.3355938494205475,-0.4511236250400543,1.2815179824829102
1711072933817463600,8.054463623046875,0.4024835228919983,-0.24740023910999298,1.3847540616989136
1711072933836423000,8.0734228515625,0.6220894455909729,-0.1588248461484909,1.380478024482727
1711072933855382800,8.0923828125,0.5466476082801819,-0.42913252115249634,1.334052324295044
1711072933874342400,8.11134228515625,0.4629591405391693,-0.472198486328125,1.414991855621338
1711072933893301200,8.13030126953125,0.464486300945282,-0.2263254076242447,1.5374703407287598
1711072933912261600,8.14926171875,0.474260151386261,-0.07788526266813278,1.631543517112732
1711072933931221200,8.16822119140625,0.3313177824020386,-0.4318813979625702,1.564959168434143
1711072933950180900,8.187180908203125,0.2949713170528412,-0.499381959438324,1.613828420639038
1711072933969140500,8.206140380859376,0.49625128507614136,-0.389120876789093,1.705763578414917
1711072933988100000,8.22510009765625,0.6566032767295837,-0.32528549432754517,1.767460823059082
1711072934007059700,8.244059814453125,0.7375428676605225,-0.3811796307563782,1.7103450298309326
1711072934026019300,8.263019287109374,0.7916043996810913,-0.08124501258134842,1.5930589437484741
1711072934044979000,8.28197900390625,0.7586176991462708,0.1130099818110466,1.5930589437484741
1711072934063938600,8.3009384765625,0.8056542873382568,0.09071341902017593,1.611079454421997
1711072934082898200,8.319898193359375,0.880790650844574,-0.032681263983249664,1.6248239278793335
1711072934101857800,8.33885791015625,0.9693660736083984,-0.08552107214927673,1.6098577976226807
1711072934120817400,8.3578173828125,0.9195805788040161,-0.10720676928758621,1.6907973289489746
1711072934139777000,8.376777099609376,0.9351575970649719,0.013439024798572063,1.6611703634262085
1711072934158737000,8.39573681640625,0.9308815598487854,0.12675444781780243,1.4601958990097046
1711072934177696300,8.4146962890625,0.7711403965950012,0.3130682110786438,1.601305603981018
1711072934196656000,8.43365625,0.8129846453666687,0.39767298102378845,1.806250810623169
1711072934215615700,8.45261572265625,0.9928843379020691,-0.061391908675432205,1.6981277465820312
1711072934234575400,8.471575439453124,0.9928843379020691,-0.4056142270565033,1.4928771257400513
1711072934253535000,8.490534912109375,0.882317841053009,-0.24953825771808624,1.462639331817627
1711072934272494600,8.50949462890625,0.7836631536483765,0.07086031138896942,1.4947097301483154
1711072934291454200,8.5284541015625,0.7329613566398621,0.29138249158859253,1.371925950050354
1711072934310413800,8.547413818359376,0.6645445227622986,0.4269944727420807,1.261664867401123
1711072934329373400,8.56637353515625,0.7289907336235046,0.32620179653167725,1.2344813346862793
1711072934348333000,8.5853330078125,0.8013782501220703,0.14141519367694855,1.3398555517196655
1711072934367292700,8.604292724609374,0.8697950839996338,-0.0461202897131443,1.2543344497680664
1711072934386252300,8.623252197265625,0.7961859107017517,0.04673115536570549,1.1669808626174927
1711072934405212000,8.6422119140625,0.6926442980766296,0.2159406989812851,1.2381465435028076
1711072934424171500,8.661171630859375,0.7082213759422302,0.1078176349401474,1.1294126510620117
1711072934443131100,8.680131103515626,0.8297834396362305,0.14110976457595825,0.917747974395752
1711072934462090800,8.6990908203125,0.8334486484527588,0.26939135789871216,0.963257372379303
1711072934481050400,8.71805029296875,0.6837867498397827,0.49480047821998596,0.9513455629348755
1711072934500010000,8.737010009765624,0.7729730010032654,0.4877755343914032,0.6248382925987244
1711072934518969600,8.755969482421875,0.871016800403595,0.5433642268180847,0.548480212688446
1711072934537929500,8.774929443359374,0.750981867313385,0.39767298102378845,0.6370556354522705
1711072934556888800,8.793888916015625,0.6645445227622986,0.4584540128707886,0.5460367798805237
1711072934575848700,8.8128486328125,0.6920334100723267,0.61117023229599,0.33803731203079224
1711072934594808300,8.831808349609375,0.7173843383789062,0.8863648176193237,0.2995528280735016
1711072934613768000,8.850767822265626,0.6349175572395325,0.9447023868560791,0.22075125575065613
1711072934632727600,8.8697275390625,0.5133554935455322,0.7043271064758301,0.14928008615970612
1711072934651687200,8.888687255859375,0.5325977206230164,0.6246092319488525,0.1862373948097229
1711072934670646800,8.907646728515624,0.5692496299743652,0.4816668927669525,0.10315979272127151
1711072934689606400,8.9266064453125,0.5481747984886169,0.6001746654510498,-0.10789398849010468
1711072934708566000,8.94556591796875,0.5310705900192261,1.1661409139633179,-0.1375209391117096
1711072934727525600,8.964525634765625,0.4589885175228119,1.1032217741012573,-0.1534034162759781
1711072934746485200,8.9834853515625,0.45562875270843506,0.6563742160797119,-0.0758235901594162
1711072934765444900,9.00244482421875,0.41989317536354065,0.32620179653167725,-0.0006872228696011007
1711072934784404500,9.021404541015626,0.2946659028530121,0.09437860548496246,0.0628427118062973
1711072934803364000,9.040364013671875,0.4577668011188507,0.2406807243824005,0.07353284955024719
1711072934822323700,9.05932373046875,0.5212967395782471,0.37262752652168274,-0.020540328696370125
1711072934841283300,9.078283447265624,0.36247187852859497,0.7916807532310486,-0.2447277009487152
1711072934860243000,9.097242919921875,0.32673630118370056,1.128572702407837,-0.39805474877357483
1711072934879202600,9.11620263671875,0.40431612730026245,1.0027345418930054,-0.34032803773880005
1711072934898162200,9.135162109375,0.4107302129268646,0.5406153202056885,-0.29909467697143555
1711072934917121800,9.154121826171876,0.21403174102306366,0.4199695289134979,-0.2401462197303772
1711072934936081400,9.173081298828125,0.19784383475780487,0.47097674012184143,-0.17172935605049133
1711072934955041000,9.192041015625,0.2687041461467743,0.24770566821098328,-0.06268999725580215
1711072934974000600,9.211000732421875,0.30566146969795227,0.06933315098285675,-0.05658135190606117
1711072934992960300,9.229960205078125,0.23510658740997314,0.05070177838206291,-0.14882193505764008
1711072935011920000,9.248919921875,0.1810450553894043,0.22510367631912231,-0.19738568365573883
1711072935030879500,9.26787939453125,0.21861323714256287,0.3656025826931,-0.14424043893814087
1711072935049839000,9.286839111328124,0.2519053518772125,0.1331685185432434,-0.033979352563619614
1711072935068799000,9.305799072265625,0.18684826791286469,-0.14049890637397766,-0.024205517023801804
1711072935087758300,9.32475830078125,0.12179116904735565,-0.1954767256975174,-0.01565340906381607
1711072935106718200,9.34371826171875,0.14805835485458374,-0.10598503798246384,0.027107125148177147
1711072935125677800,9.362677734375,0.15661045908927917,-0.0821613147854805,0.045738499611616135
1711072935144637200,9.38163720703125,0.11384992301464081,-0.0925460159778595,0.004505127668380737
1711072935163597000,9.40059716796875,0.07933606207370758,-0.07757982611656189,-0.036422811448574066
1711072935182556700,9.419556640625,0.0836121141910553,-0.025045456364750862,-0.03520108386874199
1711072935201516000,9.43851611328125,0.08269581943750381,0.023212861269712448,-0.011682788841426373
1711072935220476000,9.457475830078126,0.04818195849657059,-0.018325943499803543,0.01672242395579815
1711072935239435500,9.476435546875,0.027717988938093185,-0.07330377399921417,0.03627009689807892
1711072935258395000,9.495394775390626,0.030772313475608826,-0.06230820715427399,0.04482220485806465
1711072935277354800,9.514354736328125,0.04451677203178406,0.002443459117785096,0.03871355578303337
1711072935296314400,9.533314453125,0.015195261687040329,0.07024945318698883,0.011530072428286076
1711072935315273700,9.552273681640624,-0.007406735327094793,0.04886918142437935,0.006948587018996477
1711072935334233600,9.571233642578125,-0.004352411720901728,-0.0054977829568088055,-0.004657844081521034
1711072935353193200,9.590193115234374,0.0191658828407526,0.01435532234609127,0.02893971838057041
1711072935372152800,9.60915283203125,0.01824958436191082,0.022907428443431854,0.02649625949561596
1711072935391112400,9.628112548828126,-0.008933897130191326,0.006719512399286032,0.03474293276667595
1711072935410072000,9.647072021484375,-0.010766491293907166,-0.05894844979047775,0.049709122627973557
1711072935429031700,9.66603173828125,0.001450803829357028,-0.09162971377372742,0.055512335151433945
1711072935447991300,9.6849912109375,0.018860450014472008,-0.06291907280683517,0.03535379841923714
1711072935466951000,9.703950927734375,-0.00007635809743078426,-0.01954767294228077,0.03413207083940506
1711072935485910500,9.72291064453125,-0.021456625312566757,-0.06811141967773438,0.04512763395905495
1711072935504870100,9.7418701171875,-0.005574141163378954,-0.10934479534626007,0.06742420047521591
1711072935523829800,9.760829833984374,0.03657552972435951,-0.10690133273601532,0.07903063297271729
1711072935542789400,9.779789306640625,0.01977674663066864,-0.08429934084415436,0.07506000995635986
1711072935561749000,9.7987490234375,-0.018096869811415672,-0.0821613147854805,0.060093823820352554
1711072935580708600,9.81770849609375,-0.022983787581324577,-0.08368847519159317,0.06039925664663315
1711072935599668200,9.836668212890626,-0.006490438245236874,-0.0977383628487587,0.07719803601503372
1711072935618627800,9.8556279296875,0.011530072428286076,-0.053756099194288254,0.04940368980169296
1711072935637587500,9.87458740234375,0.015195261687040329,0.039706211537122726,0.0295505840331316
1711072935656547000,9.893547119140624,-0.010155626572668552,0.04214967042207718,0.03474293276667595
1711072935675506700,9.912506591796875,-0.04650207981467247,-0.046425722539424896,0.03871355578303337
1711072935694466300,9.93146630859375,-0.03367391973733902,-0.032681263983249664,0.041157014667987823
1711072935713426000,9.950426025390625,-0.02695440873503685,0.021991131827235222,0.03504836559295654
1711072935732385500,9.969385498046876,-0.01107192412018776,0.03695731982588768,0.03932442143559456
1711072935751345200,9.98834521484375,-0.004657844081521034,0.0054977829568088055,0.03962985426187515
1711072935770304800,10.0073046875,-0.008323032408952713,0.03695731982588768,0.044211339205503464
1711072935789264400,10.026264404296874,-0.015958841890096664,0.02718348242342472,0.05429060757160187
1711072935808224000,10.04522412109375,-0.02390008419752121,-0.03237583488225937,0.06650790572166443
1711072935827183600,10.06418359375,-0.038560837507247925,-0.032070402055978775,0.04146244749426842
1711072935846143200,10.083143310546875,-0.022983787581324577,0.03543015569448471,0.01977674663066864
1711072935865102600,10.1021025390625,-0.0016035200096666813,0.07116574794054031,0.012140937149524689
1711072935884062500,10.1210625,0.0035888305865228176,0.03695731982588768,0.013362666592001915
1711072935903022000,10.14002197265625,-0.011988221667706966,0.001221729558892548,0.022220205515623093
1711072935921981400,10.1589814453125,-0.026038112118840218,0.020769402384757996,0.02283107116818428
1711072935940941300,10.17794140625,-0.019013166427612305,0.037262752652168274,0.03260490670800209
1711072935959901000,10.19690087890625,0.006948587018996477,-0.022907428443431854,0.04176788032054901
1711072935978860300,10.2158603515625,-0.007406735327094793,-0.0513126403093338,0.03413207083940506
1711072935997820000,10.23481982421875,-0.019929463043808937,-0.023823726922273636,0.014889828860759735
1711072936016779800,10.25377978515625,-0.004657844081521034,0.0256563201546669,0.011224640533328056
1711072936035739400,10.272739501953126,0.01030834298580885,0.020769402384757996,0.013057234697043896
1711072936054698800,10.29169873046875,0.009086613543331623,-0.021991131827235222,0.021609341725707054
1711072936073658400,10.310658447265626,-0.004352411720901728,-0.03481929376721382,0.022220205515623093
1711072936092618200,10.3296181640625,0.009697478264570236,-0.022907428443431854,0.014889828860759735
1711072936111577600,10.34857763671875,0.0191658828407526,-0.009162971749901772,0.014584396965801716
1711072936130537200,10.367537109375,0.015500693581998348,0.001832594396546483,0.013362666592001915
1711072936149496800,10.386496826171875,0.0066431546583771706,-0.020158538594841957,0.024663666263222694
1711072936168456400,10.40545654296875,-0.006185005884617567,-0.040317077189683914,0.004810560029000044
1711072936187416000,10.424416015625,-0.003741546766832471,-0.014049889519810677,-0.004963276442140341
1711072936206375700,10.443375732421876,0.027107125148177147,0.0054977829568088055,0.010613775812089443
1711072936225335300,10.462335205078125,0.03352120518684387,-0.0054977829568088055,0.00755945174023509
1711072936244295000,10.481294921875,0.020998476073145866,-0.032681263983249664,0.01030834298580885
1711072936263254500,10.500254638671874,0.020387612283229828,-0.040317077189683914,0.01763872057199478
1711072936282214100,10.519214111328125,0.021914774551987648,0.01282816007733345,0.005421424750238657
1711072936301173800,10.538173828125,0.014278964139521122,0.03390299528837204,0.003283398225903511
1711072936320133400,10.55713330078125,0.02496909722685814,-0.01282816007733345,0.017027854919433594
1711072936339093000,10.576093017578126,0.024052800610661507,-0.026878049597144127,0.013362666592001915
1711072936358052600,10.595052490234375,0.01030834298580885,0.035124726593494415,-0.0012980876490473747
1711072936377012200,10.61401220703125,0.007864884100854397,0.039706211537122726,0.006948587018996477
1711072936395971800,10.632971923828125,0.015195261687040329,-0.016798781231045723,0.023747367784380913
1711072936414931500,10.651931396484375,0.012446369975805283,-0.016798781231045723,0.000839939049910754
1711072936433891000,10.67089111328125,0.0057268571108579636,0.03451386094093323,-0.018402300775051117
1711072936452850700,10.6898505859375,0.0066431546583771706,0.021991131827235222,-0.004046979360282421
1711072936471810300,10.708810302734374,0.008170315995812416,-0.03756818547844887,0.011530072428286076
1711072936490769700,10.727769775390625,0.003283398225903511,-0.021991131827235222,0.01763872057199478
1711072936509729500,10.7467294921875,-0.004352411720901728,0.039706211537122726,-0.020540328696370125
1711072936528689200,10.765689208984375,-0.0012980876490473747,0.06414080411195755,-0.02695440873503685
1711072936547648800,10.784648681640626,0.004505127668380737,0.004886918235570192,0.009697478264570236
1711072936566608100,10.803608154296874,-0.004352411720901728,-0.03634645417332649,0.01824958436191082
1711072936585567700,10.822567626953125,-0.011682788841426373,-0.009162971749901772,-0.0012980876490473747
1711072936604527600,10.841527587890624,-0.015042545273900032,0.03451386094093323,-0.010461059398949146
1711072936623487000,10.860487060546875,-0.006185005884617567,0.018631376326084137,0.0035888305865228176
1711072936642446600,10.879446533203126,0.007254019379615784,-0.024740023538470268,0.028328854590654373
1711072936661406200,10.89840625,0.0011453714687377214,-0.01588248461484909,0.015195261687040329
1711072936680365800,10.91736572265625,-0.02909243479371071,0.04001164436340332,-0.014431680552661419
1711072936699325400,10.936325439453125,-0.029703300446271896,0.036651886999607086,-0.007101302966475487
1711072936718285000,10.95528515625,0.0005345066892914474,-0.013439024798572063,0.0191658828407526
1711072936737244700,10.97424462890625,0.0005345066892914474,-0.043371398001909256,0.008781181648373604
1711072936756204300,10.993204345703125,-0.019929463043808937,0.018325943499803543,-0.009850194677710533
1711072936775164000,11.012163818359374,-0.03061959706246853,0.05925388261675835,0.000839939049910754
1711072936794123500,11.03112353515625,-0.023594651371240616,0.01588248461484909,0.018555017188191414
1711072936813083100,11.050083251953126,-0.01107192412018776,-0.014966187067329884,0.011224640533328056
1711072936832042800,11.069042724609375,0.000839939049910754,0.020769402384757996,0.010613775812089443
1711072936851002400,11.08800244140625,-0.015042545273900032,0.06444623321294785,-0.01779143698513508
1711072936869962000,11.1069619140625,-0.046807512640953064,0.07024945318698883,-0.03581194952130318
1711072936888921600,11.125921630859375,-0.025732679292559624,0.028405211865901947,-0.00679587060585618
1711072936907881200,11.144881103515624,-0.011988221667706966,-0.04001164436340332,0.01824958436191082
1711072936926840800,11.1638408203125,-0.019013166427612305,-0.04764745384454727,0.00603228947147727
1711072936945800400,11.182800537109374,-0.03000873140990734,0.03298669680953026,-0.004352411720901728
1711072936964760000,11.201760009765625,-0.006490438245236874,0.08307760953903198,-0.0058795735239982605
1711072936983719700,11.2207197265625,-0.006185005884617567,0.05803215503692627,-0.00954476185142994
1711072937002679300,11.23967919921875,-0.017486004158854485,0.017715077847242355,0.004810560029000044
1711072937021639000,11.258638916015625,-0.020540328696370125,-0.003970621153712273,0.012751801870763302
1711072937040598500,11.2775986328125,-0.02756527252495289,-0.004276053514331579,0.023136503994464874
1711072937059558100,11.29655810546875,-0.019929463043808937,0.020769402384757996,0.020082179456949234
1711072937078517800,11.315517822265624,-0.014737112447619438,0.03940077871084213,0.020387612283229828
1711072937097477400,11.334477294921875,-0.033368486911058426,0.04581485688686371,0.004810560029000044
1711072937116437000,11.35343701171875,-0.04039343446493149,0.07024945318698883,-0.0058795735239982605
1711072937135396600,11.372396728515625,-0.03275762498378754,0.03543015569448471,0.006948587018996477
1711072937154356200,11.391356201171876,-0.024510949850082397,-0.015577051788568497,0.029245151206851006
1711072937173315800,11.41031591796875,-0.024205517023801804,-0.008857538923621178,0.022220205515623093
1711072937192275500,11.429275390625,-0.03000873140990734,0.019242240116000175,0.028634287416934967
1711072937211235000,11.448235107421874,-0.008628465235233307,0.012522728182375431,0.02649625949561596
1711072937230194700,11.467194580078125,-0.0031306820455938578,-0.01588248461484909,0.03168861195445061
1711072937249154300,11.486154296875,-0.00679587060585618,-0.0720820426940918,0.04085158184170723
1711072937268114000,11.505114013671875,-0.0012980876490473747,-0.08826996386051178,0.04787652567028999
1711072937287073500,11.524073486328126,0.004199695307761431,-0.0818558782339096,0.053985174745321274
1711072937306033200,11.543033203125,0.014584396965801716,-0.08399390429258347,0.04696023091673851
1711072937324993000,11.561992919921876,0.020082179456949234,-0.08307760953903198,0.034437503665685654
1711072937343952400,11.580952392578125,-0.0025198173243552446,-0.039706211537122726,0.0035888305865228176
1711072937362912000,11.599912109375,-0.005574141163378954,0.005803215317428112,-0.014737112447619438
1711072937381871900,11.618871826171874,0.013057234697043896,-0.01893680728971958,0.015500693581998348
1711072937400831200,11.637831298828125,0.026190826669335365,-0.07238747924566269,0.02802342176437378
1711072937419791000,11.656791015625,0.014584396965801716,-0.05039634555578232,0.01611155830323696
1711072937438750700,11.675750732421875,0.015195261687040329,-0.012522728182375431,0.003283398225903511
1711072937457710300,11.69471044921875,0.020387612283229828,-0.02107483521103859,0.013668099418282509
1711072937476670000,11.713669921875,0.025274530053138733,-0.01588248461484909,0.013973532244563103
1711072937495629600,11.732629638671876,0.014278964139521122,-0.0027488914784044027,0.004505127668380737
1711072937514589200,11.751589111328125,0.01763872057199478,0.00946840364485979,0.0023671009112149477
1711072937533548800,11.770548828125,0.024052800610661507,-0.0360410213470459,0.01977674663066864
1711072937552508400,11.78950830078125,0.012140937149524689,-0.06994401663541794,0.018555017188191414
1711072937571468000,11.808468017578125,-0.011682788841426373,-0.032070402055978775,0.006337722297757864
1711072937590427600,11.827427734375,-0.017486004158854485,-0.01649334840476513,0.004505127668380737
1711072937609387500,11.846387451171875,-0.013209951110184193,-0.0009162971982732415,-0.015347977168858051
1711072937628347000,11.865346923828126,-0.0016035200096666813,0.049480047076940536,-0.02909243479371071
1711072937647306800,11.884306640625,-0.004657844081521034,0.06108647957444191,-0.016569707542657852
1711072937666266400,11.903266357421876,-0.010155626572668552,0.07513637095689774,-0.008933897130191326
1711072937685226000,11.92222607421875,-0.018402300775051117,0.08368847519159317,-0.023594651371240616
1711072937704185600,11.941185546875,-0.039477135986089706,0.07360920310020447,-0.027870705351233482
1711072937723145200,11.960145263671874,-0.03306305781006813,0.08460476994514465,-0.02237292192876339
1711072937742104800,11.979104736328125,-0.019929463043808937,0.07116574794054031,-0.008933897130191326
1711072937761064400,11.998064453125,-0.011682788841426373,0.08093958348035812,-0.009850194677710533
1711072937780024000,12.017024169921875,-0.019624030217528343,0.08826996386051178,-0.019929463043808937
1711072937798984000,12.03598388671875,-0.031230462715029716,0.0769689604640007,-0.023594651371240616
1711072937817943600,12.054943603515625,-0.029703300446271896,0.07452550530433655,-0.022067490965127945
1711072937836903200,12.073903076171876,-0.004657844081521034,0.05711585655808449,-0.008628465235233307
1711072937855862800,12.09286279296875,0.0005345066892914474,0.03176496922969818,-0.010461059398949146
1711072937874822400,12.111822509765625,-0.021151192486286163,0.06872228533029556,-0.03825540840625763
1711072937893782000,12.130781982421874,-0.007101302966475487,0.08460476994514465,-0.023594651371240616
1711072937912741600,12.14974169921875,0.015195261687040329,0.015271619893610477,0.0057268571108579636
1711072937931701200,12.168701171875,0.007864884100854397,-0.09896009415388107,0.04848739132285118
1711072937950661000,12.1876611328125,-0.00007635809743078426,-0.14599667489528656,0.06559160351753235
1711072937969620700,12.206620849609376,0.00847574882209301,-0.11545344442129135,0.06101011857390404
1711072937988580400,12.225580322265625,0.017027854919433594,-0.06811141967773438,0.032910339534282684
1711072938007540000,12.2445400390625,0.00603228947147727,-0.019242240116000175,-0.002825249684974551
1711072938026499600,12.26349951171875,-0.013515383005142212,-0.07819069176912308,0.006948587018996477
1711072938045459200,12.282459228515625,-0.0034361144062131643,-0.0922405794262886,0.020693045109510422
1711072938064419000,12.301419189453124,0.020693045109510422,-0.00946840364485979,0.008170315995812416
1711072938083378400,12.32037841796875,0.012751801870763302,0.09040798991918564,-0.02756527252495289
1711072938102338300,12.33933837890625,0.0017562361899763346,0.08674279600381851,-0.03275762498378754
1711072938121298000,12.3582978515625,0.00022907429956831038,0.001832594396546483,-0.0019089524867013097
1711072938140257500,12.377257568359376,0.0023671009112149477,-0.07391463965177536,0.0191658828407526
1711072938159217200,12.396217041015625,-0.004352411720901728,-0.059864748269319534,0.009086613543331623
1711072938178176800,12.4151767578125,-0.002825249684974551,0.028099779039621353,-0.0012980876490473747
1711072938197136400,12.434136474609375,-0.0025198173243552446,0.06994401663541794,-0.0009926552884280682
1711072938216096300,12.45309619140625,0.013973532244563103,0.05283980444073677,0.000839939049910754
1711072938235055900,12.472055908203124,0.012446369975805283,0.051618073135614395,-0.0006872228696011007
1711072938254015500,12.491015380859375,0.015195261687040329,0.08063415437936783,-0.019929463043808937
1711072938272975000,12.50997509765625,0.00847574882209301,0.10567960888147354,-0.037949975579977036
1711072938291934700,12.528934814453125,0.016416991129517555,0.15271618962287903,-0.070631243288517
1711072938310894300,12.547894287109376,0.004810560029000044,0.20677772164344788,-0.1424078494310379
1711072938329854000,12.56685400390625,0.0631481483578682,0.3594939112663269,-0.20044000446796417
1711072938348813800,12.585813720703126,0.08544471114873886,0.4202749729156494,-0.2908479869365692
1711072938367773400,12.6047734375,0.0732274129986763,0.43340855836868286,-0.2868773639202118
1711072938386733000,12.623733154296875,0.08025235682725906,0.2981020212173462,-0.1738673895597458
1711072938405692700,12.642692626953124,0.0576503649353981,0.028099779039621353,-0.054443322122097015
1711072938424652300,12.66165234375,0.04512763395905495,-0.14782927930355072,0.0322994738817215
1711072938443612000,12.68061181640625,0.04451677203178406,-0.11209368705749512,0.03413207083940506
1711072938462571800,12.69957177734375,0.05826122686266899,0.0665842592716217,-0.03917170315980911
1711072938481531100,12.71853125,0.07628174126148224,0.16249002516269684,-0.091400645673275
1711072938500491000,12.737490966796875,0.09766200929880142,0.23365578055381775,-0.13660463690757751
1711072938519450600,12.75645068359375,0.025579962879419327,0.24312418699264526,-0.13507747650146484
1711072938538410200,12.77541015625,-0.014737112447619438,0.2889390289783478,-0.08437569439411163
1711072938557369900,12.794369873046875,-0.03520108386874199,0.24342961609363556,0.013362666592001915
1711072938576329500,12.81332958984375,-0.019929463043808937,0.18387030065059662,0.06650790572166443
1711072938595289300,12.832289306640625,0.013668099418282509,-0.26480987668037415,0.11079560220241547
1711072938614249000,12.8512490234375,0.02741255611181259,-0.7809906005859375,0.3084103465080261
1711072938633208600,12.87020849609375,-0.021456625312566757,-1.7073670625686646,0.5631409883499146
1711072938652168200,12.889168212890626,0.09552398324012756,-2.126114845275879,0.669126033782959
1711072938671127800,12.9081279296875,0.11873684078454971,-2.0885467529296875,0.5182424187660217
1711072938690087400,12.92708740234375,-0.03764454275369644,-1.598022222518921,0.20609050989151
1711072938709047300,12.94604736328125,-0.19249875843524933,-1.4269801378250122,0.14133884012699127
1711072938728007000,12.9650068359375,-0.20715951919555664,-1.5748094320297241,0.2888626754283905
1711072938746966500,12.983966552734374,-0.24808746576309204,-1.91414475440979,0.36796966195106506
1711072938765926100,13.002926025390625,-0.2761872410774231,-1.7073670625686646,0.1395062506198883
1711072938784885800,13.0218857421875,-0.2816850244998932,-1.0543526411056519,-0.21326816082000732
1711072938803845400,13.040845458984375,-0.41179922223091125,-0.8521563410758972,-0.3369682729244232
1711072938822805000,13.059804931640626,-0.6894372701644897,-1.3991857767105103,-0.2658025324344635
1711072938841764900,13.078764892578125,-0.6588940024375916,-1.5231913328170776,-0.16745330393314362
1711072938860724500,13.097724365234376,-0.6992111206054688,-1.3927717208862305,-0.1787542998790741
1711072938879684000,13.11668408203125,-0.830547034740448,-1.094058871269226,-0.47349655628204346
1711072938898643700,13.135643798828125,-0.987844705581665,-0.9660826325416565,-0.5501601099967957
1711072938917603300,13.154603271484374,-0.942335307598114,-1.1426225900650024,-0.6005564332008362
1711072938936563000,13.17356298828125,-0.7404444813728333,-0.9786053895950317,-0.7743474841117859
1711072938955522800,13.192522705078124,-0.8378773927688599,-0.547029435634613,-0.8232166767120361
1711072938974482400,13.211482421875,-1.0794744491577148,-0.3640754222869873,-0.8067232966423035
1711072938993442000,13.230442138671876,-1.1399500370025635,-0.3787361681461334,-0.886441171169281
1711072939012401700,13.249401611328125,-0.811610221862793,-0.8261946439743042,-1.124372959136963
1711072939031361300,13.268361328125,-0.6717221736907959,-1.0412189960479736,-1.328401803970337
1711072939050321000,13.28732080078125,-0.9206495881080627,-0.6307178735733032,-1.292055368423462
1711072939069280500,13.306280517578125,-1.086804747581482,0.016798781231045723,-1.313435673713684
1711072939088240400,13.325240478515624,-1.0199151039123535,-0.22907429933547974,-1.374522089958191
1711072939107200000,13.344199951171875,-0.8821650743484497,-1.0488548278808594,-1.561752200126648
1711072939126159600,13.36315966796875,-0.8620065450668335,-1.1139118671417236,-1.5959606170654297
1711072939145119200,13.382119140625,-1.0571779012680054,-0.2162461280822754,-1.329928994178772
1711072939164078800,13.401078857421876,-1.3995676040649414,0.19700388610363007,-1.3161845207214355
1711072939183038500,13.42003857421875,-1.3112976551055908,-0.7122683525085449,-1.624671220779419
1711072939201998300,13.438998291015626,-0.9414190053939819,-1.395520567893982,-1.617646336555481
1711072939220957700,13.457957763671875,-0.8152754306793213,-0.9056070446968079,-1.739513874053955
1711072939239917600,13.47691748046875,-0.7270054221153259,0.18112140893936157,-1.9615631103515625
1711072939258877200,13.495877197265624,-0.6081922650337219,0.5213730931282043,-2.1652865409851074
1711072939277836800,13.5148369140625,-0.663475513458252,0.4874700903892517,-2.205909013748169
1711072939296796400,13.53379638671875,-0.8051961660385132,0.04276053607463837,-2.024176836013794
1711072939315756000,13.552756103515625,-0.9166789650917053,-0.24740023910999298,-1.9560654163360596
1711072939334715600,13.571715576171876,-0.6598103046417236,-0.3894262909889221,-2.1518476009368896
1711072939353675500,13.590675537109375,-0.6317105293273926,-0.16065743565559387,-2.146960735321045
1711072939372635100,13.60963525390625,-0.708984911441803,0.1948658674955368,-2.0565526485443115
1711072939391594800,13.6285947265625,-0.7248674035072327,0.12217295914888382,-1.9826380014419556
1711072939410554400,13.647554443359375,-0.6961567997932434,-0.14233149588108063,-1.7318780422210693
1711072939429514000,13.666513916015624,-0.5593230724334717,-0.5174024701118469,-1.661017656326294
1711072939448473600,13.6854736328125,-0.682412326335907,-0.41233372688293457,-1.5764129161834717
1711072939467433200,13.70443310546875,-0.6442332863807678,-0.1853974610567093,-1.6714023351669312
1711072939486392800,13.723392822265625,-0.6353757381439209,0.11698060482740402,-1.5565598011016846
1711072939505352700,13.742352783203126,-0.7560214996337891,-0.04153880476951599,-1.4383574724197388
1711072939524312300,13.761312255859375,-0.8113048076629639,-0.1441640853881836,-1.4844777584075928
1711072939543272000,13.78027197265625,-0.7163153290748596,0.3436114490032196,-1.552283763885498
1711072939562231600,13.7992314453125,-0.5791761875152588,0.6514872908592224,-1.4102576971054077
1711072939581191200,13.818191162109375,-1.0278563499450684,0.14630211889743805,-1.1103230714797974
1711072939600150800,13.83715087890625,-1.06206476688385,-0.44837474822998047,-1.1460586786270142
1711072939619110400,13.8561103515625,-0.5516872406005859,-0.15271618962287903,-1.4536291360855103
1711072939638070000,13.875070068359374,-0.7059305906295776,0.4404335021972656,-1.5764129161834717
1711072939657030000,13.89402978515625,-0.6665298342704773,0.2367101013660431,-1.5767183303833008
1711072939675989200,13.9129892578125,-0.19646938145160675,0.2306014597415924,-1.5489239692687988
1711072939694949000,13.93194921875,0.004505127668380737,-0.12431098520755768,-1.5541163682937622
1711072939713908700,13.95090869140625,-0.15065452456474304,-0.11423171311616898,-1.4261401891708374
1711072939732868400,13.969868408203125,-0.31436628103256226,0.11239911615848541,-1.2517383098602295
1711072939751828000,13.988827880859375,-0.29940009117126465,0.07299833744764328,-1.154305338859558
1711072939770787600,14.00778759765625,-0.37117671966552734,-0.17348559200763702,-0.9759328365325928
1711072939789747200,14.026747314453125,-0.3739255964756012,-0.09529490768909454,-0.8861356973648071
1711072939808706800,14.045706787109374,-0.06268999725580215,-0.03390299528837204,-1.0223585367202759
1711072939827666400,14.06466650390625,-0.07796161621809006,-0.04550942778587341,-1.0849722623825073
1711072939846626000,14.0836259765625,-0.039477135986089706,0.09987638890743256,-1.1069633960723877
1711072939865586000,14.1025859375,0.12148573249578476,0.04428769648075104,-1.0028108358383179
1711072939884545500,14.121545654296876,0.056428633630275726,-0.06627883017063141,-1.0312161445617676
1711072939903505200,14.140505126953125,-0.034895651042461395,0.1282816082239151,-0.9139300584793091
1711072939922464800,14.15946484375,-0.005574141163378954,0.19150610268115997,-0.7609084248542786
1711072939941424400,14.17842431640625,0.06498073786497116,-0.12767073512077332,-0.617355227470398
1711072939960384000,14.197384033203125,-0.11003202199935913,0.007024944759905338,-0.5046506524085999
1711072939979343600,14.216343505859374,-0.1011744812130928,0.0824667438864708,-0.4820486605167389
1711072939998303200,14.23530322265625,-0.0449749194085598,0.03329212963581085,-0.39133524894714355
1711072940017262800,14.254262939453126,-0.022678354755043983,0.01893680728971958,-0.36537349224090576
1711072940036222700,14.27322265625,-0.15554144978523254,0.04276053607463837,-0.21479532122612
1711072940055182000,14.29218212890625,-0.03825540840625763,0.061391908675432205,-0.23067781329154968
1711072940074142000,14.311141845703125,0.06772962957620621,-0.00946840364485979,-0.14057525992393494
1711072940093101600,14.3301015625,0.05215258151292801,0.04428769648075104,-0.09262236952781677
1711072940112061200,14.349061279296874,0.11140646785497665,0.06994401663541794,0.013668099418282509
1711072940131020800,14.368020751953125,0.2482401728630066,0.028405211865901947,-0.017486004158854485
1711072940149980400,14.38698046875,0.1407279670238495,-0.0821613147854805,0.12637265026569366
1711072940168940000,14.40593994140625,0.1349247545003891,-0.032681263983249664,0.274812787771225
1711072940187899600,14.424899658203126,0.2583194375038147,-0.0772743970155716,0.33773186802864075
1711072940206859300,14.443859375,0.4534907341003418,-0.027488915249705315,0.48250681161880493
1711072940225819000,14.46281884765625,0.632168710231781,-0.20311254262924194,0.5921570658683777
1711072940244778500,14.481778564453125,0.3771326541900635,-0.37293294072151184,0.6987529397010803
1711072940263738000,14.500738037109375,0.21586434543132782,0.1127045527100563,0.6101775765419006
1711072940282697700,14.51969775390625,0.37835437059402466,0.5064069032669067,0.7631992101669312
1711072940301657600,14.53865771484375,0.47151124477386475,-0.0461202897131443,0.965395450592041
1711072940320617000,14.557616943359376,0.5026653409004211,-0.28527384996414185,1.04786217212677
1711072940339576800,14.576576904296875,0.29100072383880615,0.1380554437637329,1.0964258909225464
1711072940358536400,14.595536376953126,0.18532110750675201,0.36621344089508057,1.2857940196990967
1711072940377495800,14.614495849609375,0.37988153100013733,0.012217295356094837,1.3371065855026245
1711072940396455700,14.63345556640625,0.4632645845413208,-0.11056652665138245,1.344131588935852
1711072940415415300,14.652415283203124,0.5808560252189636,0.17684535682201385,1.3890300989151
1711072940434375000,14.671375,0.7253255844116211,-0.029932374134659767,1.3545162677764893
1711072940453334500,14.69033447265625,0.714024543762207,-0.29535311460494995,1.3991093635559082
1711072940472294100,14.709294189453125,0.7451786994934082,0.10873392969369888,1.3859758377075195
1711072940491253800,14.728253662109376,0.8792635202407837,0.3283398151397705,1.3731476068496704
1711072940510213400,14.74721337890625,0.8459713459014893,-0.30604326725006104,1.4632502794265747
1711072940529173000,14.766173095703126,0.7528144717216492,-0.37110036611557007,1.4488948583602905
1711072940548132600,14.785132568359375,0.6828704476356506,0.3136790692806244,1.4968477487564087
1711072940567092200,14.80409228515625,0.7870228886604309,0.20433427393436432,1.5344159603118896
1711072940586051800,14.8230517578125,0.797102153301239,-0.3433060050010681,1.4479786157608032
1711072940605011500,14.842011474609375,0.6077340841293335,-0.3894262909889221,1.4937934875488281
1711072940623971000,14.86097119140625,0.500832736492157,0.10384701192378998,1.5515202283859253
1711072940642930700,14.8799306640625,0.7405971884727478,0.3637699782848358,1.4742457866668701
1711072940661890300,14.898890380859376,0.8349757790565491,-0.10537417232990265,1.4718023538589478
1711072940680850000,14.917849853515625,0.510606586933136,-0.18387030065059662,1.5322779417037964
1711072940699809800,14.936809814453126,0.5194641351699829,0.2721402645111084,1.5768710374832153
1711072940718769200,14.95576904296875,0.6810378432273865,0.1328630894422531,1.5509092807769775
1711072940737728800,14.974728759765625,0.7598394155502319,-0.1747073233127594,1.5612939596176147
1711072940756688600,14.993688720703124,0.816649854183197,-0.15729768574237823,1.3377175331115723
1711072940775648000,15.01264794921875,0.7274636030197144,0.2458730787038803,1.3688715696334839
1711072940794607900,15.03160791015625,0.7677806615829468,0.8503237962722778,1.5386919975280762
1711072940813567500,15.0505673828125,1.0735185146331787,0.4871646761894226,1.4418699741363525
1711072940832527000,15.069527099609376,0.8572723865509033,-0.5216785073280334,1.2415063381195068
1711072940851486700,15.08848681640625,0.5109120011329651,0.01954767294228077,1.3264164924621582
1711072940870446300,15.1074462890625,0.6636282205581665,0.6478220820426941,1.5783982276916504
1711072940889406000,15.126406005859375,0.8676570653915405,0.15088360011577606,1.6147446632385254
1711072940908365600,15.145365478515625,0.7870228886604309,-0.40958482027053833,1.482187032699585
1711072940927325200,15.1643251953125,0.7030289769172668,-0.20280711352825165,1.3926953077316284
1711072940946284800,15.183284912109375,0.8416953086853027,0.09834922850131989,1.4241548776626587
1711072940965244400,15.202244384765624,0.8908699154853821,0.3503309488296509,1.4696643352508545
1711072940984204000,15.2212041015625,0.8762091398239136,0.49968740344047546,1.4577524662017822
1711072941003163600,15.24016357421875,0.7137191295623779,0.23732095956802368,1.3667335510253906
1711072941022123300,15.259123291015625,0.5802451968193054,0.20738859474658966,1.4583632946014404
1711072941041083000,15.278082763671875,0.7806088328361511,-0.018631376326084137,1.4378993511199951
1711072941060042500,15.29704248046875,0.8975894451141357,-0.4926624298095703,1.2164608240127563
1711072941079002000,15.316002197265625,0.6657662391662598,-0.10659590363502502,1.1853067874908447
1711072941097961700,15.334961669921874,0.6480512022972107,0.6004800796508789,1.1938588619232178
1711072941116921300,15.35392138671875,0.8184824585914612,0.4889972507953644,1.0539708137512207
1711072941135881000,15.372880859375,0.8499419689178467,0.39797839522361755,1.1080323457717896
1711072941154840600,15.391840576171875,0.7485384345054626,0.6276635527610779,1.1428515911102295
1711072941173800200,15.41080029296875,0.7919098138809204,0.31093016266822815,0.954094409942627
1711072941192759800,15.429759765625,0.8398627042770386,0.41233372688293457,0.8887318968772888
1711072941211719400,15.448719482421875,0.7372374534606934,0.8527672290802002,0.917137086391449
1711072941230679000,15.467678955078124,0.7625883221626282,0.7687733173370361,0.9113339185714722
1711072941249638700,15.486638671875,0.8426116108894348,0.0717766135931015,0.7491493225097656
1711072941268598300,15.505598388671874,0.7268527150154114,0.4147771894931793,0.7124974131584167
1711072941287558000,15.524557861328125,0.6474403142929077,0.9984585046768188,0.770529568195343
1711072941306517500,15.543517578125,0.7882446646690369,0.777325451374054,0.7815251350402832
1711072941325477000,15.56247705078125,0.7497601509094238,0.1957821547985077,0.6798161268234253
1711072941344436700,15.581436767578126,0.6871465444564819,0.3494146466255188,0.5286270976066589
1711072941363396400,15.600396240234375,0.8053488731384277,1.0109812021255493,0.4284452795982361
1711072941382356000,15.61935595703125,0.8004619479179382,1.4834851026535034,0.2830594778060913
1711072941401315600,15.638315673828124,0.733572244644165,1.5479313135147095,0.15386156737804413
1711072941420275200,15.657275146484375,0.6541598439216614,1.5870267152786255,0.04329504072666168
1711072941439234800,15.67623486328125,0.5325977206230164,1.4046835899353027,0.04482220485806465
1711072941458194400,15.6951943359375,0.41470083594322205,0.7003564834594727,0.19906556606292725
1711072941477154000,15.714154052734376,0.40309441089630127,0.37843072414398193,0.19326233863830566
1711072941496113700,15.73311376953125,0.3652207851409912,0.7241802215576172,0.06895136088132858
1711072941515073300,15.7520732421875,0.3707185685634613,0.8255837559700012,-0.20318889617919922
1711072941534033000,15.771032958984375,0.24976733326911926,0.49021899700164795,-0.21784965693950653
1711072941552992500,15.789992431640625,0.20486877858638763,0.43890634179115295,-0.13355031609535217
1711072941571952000,15.8089521484375,0.2931387424468994,0.3591884970664978,-0.08559742569923401
1711072941590911700,15.827911865234375,0.3551415205001831,0.2507599890232086,-0.07276926934719086
1711072941609871400,15.846871337890626,0.16943861544132233,0.11087195575237274,-0.1631772518157959
1711072941628831000,15.8658310546875,0.11690424382686615,0.1591302752494812,-0.09506583213806152
1711072941647790600,15.88479052734375,0.12759438157081604,-0.10506874322891235,-0.09231694042682648
1711072941666750200,15.903750244140625,-0.02176205813884735,-0.6420188546180725,0.0066431546583771706
1711072941685709600,15.92270947265625,-0.008628465235233307,-0.630107045173645,0.02802342176437378
1711072941704669400,15.94166943359375,-0.013515383005142212,-0.7339540123939514,0.061620984226465225
1711072941723629000,15.960629150390625,-0.17081306874752045,-0.8567378520965576,-0.07215840369462967
1711072941742588400,15.97958837890625,-0.1784488707780838,-1.0445787906646729,-0.12255474925041199
1711072941761548300,15.99854833984375,-0.26335906982421875,-1.0021237134933472,-0.05352702736854553
1711072941780508000,16.0175078125,-0.28504478931427,-1.0293071269989014,-0.16745330393314362
1711072941799467500,16.036467529296875,-0.3723984360694885,-0.8487966060638428,-0.11614066362380981
1711072941818427100,16.05542724609375,-0.5263363718986511,-0.9663881063461304,-0.2560287117958069
1711072941837386800,16.07438671875,-0.5834522247314453,-1.183550477027893,-0.3571268320083618
1711072941856346400,16.093346435546874,-0.6020836234092712,-0.9691369533538818,-0.5000692009925842
1711072941875306000,16.112305908203126,-0.6249909996986389,-0.6395754218101501,-0.6225475668907166
1711072941894265600,16.131265625,-0.8061124086380005,-0.7290670871734619,-0.3895026445388794
1711072941913225200,16.15022509765625,-0.9832631945610046,-1.1414008140563965,-0.23739732801914215
1711072941932184800,16.169184814453125,-0.9154572486877441,-1.2843432426452637,-0.4811323583126068
1711072941951144400,16.18814453125,-0.9521090984344482,-0.9511164426803589,-0.7407498955726624
1711072941970104000,16.20710400390625,-0.9075160026550293,-0.4324922561645508,-0.7538834810256958
1711072941989063700,16.226063720703124,-0.8653663396835327,-0.28008151054382324,-0.700738251209259
1711072942008023300,16.245023193359376,-0.7801506519317627,-0.35063639283180237,-0.8482621312141418
1711072942026983000,16.26398291015625,-0.8024472594261169,-0.3170388340950012,-1.0293835401535034
1711072942045942500,16.282942626953126,-1.0345758199691772,-0.1997527778148651,-0.8036689758300781
1711072942064902100,16.301902099609375,-1.0593159198760986,-0.38789913058280945,-0.6814960241317749
1711072942083861800,16.32086181640625,-1.014111876487732,-0.9004147052764893,-0.9362266063690186
1711072942102821400,16.3398212890625,-0.9753220081329346,-0.9877683520317078,-1.2080614566802979
1711072942121781000,16.358781005859374,-0.9444733262062073,-0.2525925934314728,-1.033964991569519
1711072942140740600,16.37774072265625,-1.1472804546356201,0.01282816007733345,-0.9117920398712158
1711072942159700200,16.3967001953125,-1.3183225393295288,-0.5403099060058594,-1.1573597192764282
1711072942178659800,16.415659912109376,-1.1979821920394897,-0.989295482635498,-1.3604722023010254
1711072942197619500,16.434619384765625,-0.8635337352752686,-0.6478220820426941,-1.4753148555755615
1711072942216579000,16.4535791015625,-0.8284090161323547,-0.35766133666038513,-1.4692060947418213
1711072942235538700,16.47253857421875,-1.0525963306427002,-0.07880155742168427,-1.504636287689209
1711072942254498300,16.491498291015624,-1.071227788925171,-0.13439024984836578,-1.46951162815094
1711072942273458000,16.5104580078125,-1.1390337944030762,-0.2672533392906189,-1.2896119356155396
1711072942292417500,16.52941748046875,-1.2160027027130127,-0.5195404887199402,-1.2242493629455566
1711072942311377400,16.54837744140625,-1.2172244787216187,-0.6963858604431152,-1.3363430500030518
1711072942330336800,16.567336669921875,-1.1054362058639526,-0.6374374032020569,-1.3552799224853516
1711072942349296600,16.586296630859376,-0.9450841546058655,-0.3836230933666229,-1.4832561016082764
1711072942368256300,16.60525634765625,-0.9264528155326843,-0.15179990231990814,-1.6414700746536255
1711072942387216000,16.6242158203125,-0.8928552269935608,-0.04306596517562866,-1.6680426597595215
1711072942406175500,16.643175537109375,-0.8314633369445801,-0.3225366175174713,-1.6533818244934082
1711072942425135000,16.662135009765624,-0.8430697321891785,-0.1695149689912796,-1.6243658065795898
1711072942444094700,16.6810947265625,-0.7777072191238403,-0.32070401310920715,-1.6912554502487183
1711072942463054300,16.700054443359374,-0.7575486898422241,-0.1585194170475006,-1.6787327527999878
1711072942482014000,16.719013916015626,-0.7792344093322754,-0.046425722539424896,-1.5770237445831299
1711072942500973600,16.7379736328125,-0.6671407222747803,0.0616973415017128,-1.5751911401748657
1711072942519933200,16.75693310546875,-0.6860775351524353,-0.3491092324256897,-1.6552144289016724
1711072942538892800,16.775892822265625,-0.6393463611602783,-0.40378162264823914,-1.7205770015716553
1711072942557852400,16.794852294921874,-0.6753873825073242,-0.19792018830776215,-1.7468441724777222
1711072942576812300,16.813812255859375,-0.7948114275932312,0.23548837006092072,-1.6646828651428223
1711072942595771600,16.832771728515624,-0.6625592112541199,-0.05528326332569122,-1.6695698499679565
1711072942614731500,16.8517314453125,-0.5614610910415649,-0.38850998878479004,-1.6885066032409668
1711072942633691100,16.870691162109374,-0.6136900186538696,-0.18845178186893463,-1.6396374702453613
1711072942652650800,16.889650634765626,-0.6158280372619629,-0.03329212963581085,-1.6054290533065796
1711072942671610400,16.9086103515625,-0.4243219494819641,-0.008857538923621178,-1.616729974746704
1711072942690570000,16.927570068359376,-0.42737627029418945,-0.1282816082239151,-1.4991384744644165
1711072942709529600,16.946529541015625,-0.32078036665916443,-0.12156209349632263,-1.5116612911224365
1711072942728489500,16.965489501953126,-0.3644571900367737,-0.07757982611656189,-1.366580843925476
1711072942747448800,16.98444873046875,-0.49396052956581116,0.1533270627260208,-1.2737294435501099
1711072942766408700,17.00340869140625,-0.44906195998191833,0.05192350596189499,-1.1472804546356201
1711072942785368300,17.022368408203125,-0.4753291606903076,-0.24312418699264526,-1.0574833154678345
1711072942804328000,17.041327880859374,-0.4967094361782074,-0.2816086709499359,-1.033964991569519
1711072942823287600,17.06028759765625,-0.45914125442504883,-0.06994401663541794,-1.0281617641448975
1711072942842247200,17.0792470703125,-0.3879754841327667,0.02871064469218254,-1.0464876890182495
1711072942861206800,17.098206787109376,-0.42798712849617004,0.11942406743764877,-1.051680088043213
1711072942880166700,17.117166748046873,-0.09812015295028687,-0.008246674202382565,-1.0318269729614258
1711072942899126000,17.1361259765625,-0.06207913160324097,-0.1383608728647232,-0.9481384754180908
1711072942918086000,17.1550859375,-0.09323323518037796,0.22968515753746033,-0.8959095478057861
1711072942937045500,17.17404541015625,-0.17142392694950104,0.16859868168830872,-0.7221185564994812
1711072942956005000,17.193005126953125,-0.12499820441007614,-0.028099779039621353,-0.654007077217102
1711072942974964700,17.21196484375,-0.08651372790336609,0.06719512492418289,-0.544967770576477
1711072942993924400,17.23092431640625,-0.1625663936138153,0.09498947113752365,-0.5122864842414856
1711072943012884200,17.24988427734375,-0.05108356848359108,0.1747073233127594,-0.4447859227657318
1711072943031843800,17.26884375,0.08025235682725906,0.004581485874950886,-0.3723984360694885
1711072943050803500,17.287803466796873,0.03962985426187515,-0.013744457624852657,-0.23739732801914215
1711072943069763000,17.30676318359375,-0.00007635809743078426,0.1646280586719513,-0.27374377846717834
1711072943088722700,17.32572265625,-0.10270164161920547,0.15302163362503052,-0.019013166427612305
1711072943107682300,17.344682373046876,0.045738499611616135,-0.003665188793092966,0.15661045908927917
1711072943126642200,17.36364208984375,0.14347685873508453,0.12980876863002777,0.1608865112066269
1711072943145601800,17.382601806640626,0.2320522516965866,0.05497783049941063,0.13797907531261444
1711072943164561400,17.4015615234375,0.17279838025569916,-0.016798781231045723,0.2772562503814697
1711072943183521000,17.42052099609375,0.283975750207901,0.23884813487529755,0.354225218296051
1711072943202480600,17.439480712890624,0.3753000497817993,0.2110537886619568,0.3612501621246338
1711072943221440500,17.4584404296875,0.602847158908844,0.2770271897315979,0.33345580101013184
1711072943240400000,17.47739990234375,0.4489092528820038,0.15760311484336853,0.4058432877063751
1711072943259359700,17.49635986328125,0.4626537263393402,0.3390299379825592,0.4794524908065796
1711072943278319400,17.5153193359375,0.6621010899543762,0.3344484567642212,0.6135373115539551
1711072943297279000,17.534279052734377,0.6529380679130554,0.08949168771505356,0.6801216006278992
1711072943316238800,17.55323876953125,0.5429824590682983,0.12034036219120026,0.8029053807258606
1711072943335198200,17.5721982421875,0.5460367798805237,0.11575887352228165,0.9018654823303223
1711072943354158000,17.591157958984375,0.5359575152397156,0.012217295356094837,1.1178061962127686
1711072943373117700,17.61011767578125,0.4650971591472626,-0.07024945318698883,1.2103521823883057
1711072943392077300,17.629077392578125,0.367053359746933,-0.07269290834665298,1.352072834968567
1711072943411037000,17.648036865234374,0.36430448293685913,0.0015271619195118546,1.5035673379898071
1711072943429996500,17.66699658203125,0.5750528573989868,0.14263692498207092,1.5704569816589355
1711072943448956400,17.685956298828124,0.7170788645744324,-0.21197007596492767,1.5893938541412354
1711072943467916000,17.704916015625,0.6929497122764587,-0.39736753702163696,1.6550617218017578
1711072943486875600,17.723875732421874,0.724409282207489,-0.0030543238390237093,1.665140986442566
1711072943505835300,17.742835205078126,0.8227584958076477,0.03481929376721382,1.5594614744186401
1711072943524795000,17.761794921875,0.8090140223503113,-0.13194678723812103,1.6071088314056396
1711072943543754800,17.780754638671876,0.8261182308197021,-0.14172062277793884,1.6886593103408813
1711072943562714400,17.79971435546875,0.8374192714691162,0.06841685622930527,1.706068992614746
1711072943581674000,17.818674072265626,1.039310097694397,0.09957095980644226,1.71431565284729
1711072943600633600,17.837633544921875,1.1153627634048462,-0.2306014597415924,1.8264093399047852
1711072943619593200,17.85659326171875,0.9024763703346252,-0.2608392536640167,1.8673372268676758
1711072943638553000,17.875552978515625,0.7974076271057129,-0.13500112295150757,1.7915900945663452
1711072943657512700,17.8945126953125,0.8704059720039368,0.21258094906806946,1.8096106052398682
1711072943676472300,17.913472412109375,1.0784053802490234,0.20616686344146729,1.8948261737823486
1711072943695432000,17.932431884765624,1.2271510362625122,0.061391908675432205,1.6129120588302612
1711072943714391600,17.9513916015625,0.9623411297798157,0.043371398001909256,1.5423572063446045
1711072943733351400,17.970351318359373,0.8102357983589172,0.5036579966545105,1.8835251331329346
1711072943752311000,17.98931103515625,1.0512219667434692,0.11178825795650482,1.7842596769332886
1711072943771270700,18.008270751953123,0.8581886291503906,-0.22327107191085815,1.601305603981018
1711072943790230300,18.027230224609376,0.5796343088150024,0.2367101013660431,1.7714314460754395
1711072943809190000,18.04618994140625,0.8685733675956726,0.5696313977241516,1.9354486465454102
1711072943828149800,18.065149658203126,1.184695839881897,-0.11056652665138245,1.7008765935897827
1711072943847109400,18.084109375,0.9055306911468506,-0.30451610684394836,1.5936698913574219
1711072943866069000,18.103069091796876,0.6281980872154236,0.12461641430854797,1.6663627624511719
1711072943885028600,18.122028564453124,0.7464004158973694,0.3594939112663269,1.5921427011489868
1711072943903988200,18.14098828125,0.9727258086204529,0.0870482325553894,1.4931825399398804
1711072943922948000,18.159947998046874,0.8994220495223999,0.11728604137897491,1.43637216091156
1711072943941907700,18.17890771484375,0.6352230310440063,0.36224281787872314,1.5982513427734375
1711072943960867300,18.197867431640624,0.7103593945503235,0.30451610684394836,1.5991675853729248
1711072943979827000,18.216826904296877,1.0044907331466675,-0.21746785938739777,1.2292890548706055
1711072943998786600,18.23578662109375,1.028314471244812,0.2977965772151947,1.2030218839645386
1711072944017746400,18.254746337890627,0.918664276599884,0.9138537049293518,1.15842866897583
1711072944036706000,18.2737060546875,0.8505528569221497,0.8967494964599609,0.9763910174369812
1711072944055665700,18.292665771484376,0.7299070358276367,1.0690133571624756,0.9974658489227295
1711072944074625300,18.311625244140625,0.6993638277053833,1.2186752557754517,1.1898882389068604
1711072944093585000,18.3305849609375,0.9324087500572205,0.46456265449523926,1.1306343078613281
1711072944112544800,18.349544677734375,0.899116575717926,-0.4269944727420807,0.9510400891304016
1711072944131504400,18.36850439453125,0.8099303245544434,-0.07513637095689774,0.9226348996162415
1711072944150464000,18.387464111328125,0.7580068111419678,0.9544762372970581,0.7870228886604309
1711072944169423600,18.406423583984374,0.7610611319541931,1.3930771350860596,0.5286270976066589
1711072944188383200,18.42538330078125,0.8676570653915405,1.469435214996338,0.5765799880027771
1711072944207343000,18.444343017578124,0.7592285871505737,1.018311619758606,0.761366605758667
1711072944226302700,18.463302734375,0.6553815603256226,0.2510654330253601,0.5249619483947754
1711072944245262300,18.482262451171874,0.7158571481704712,0.5393936038017273,0.2894735336303711
1711072944264222000,18.501221923828126,0.8233693838119507,1.4343105554580688,0.09063705801963806
1711072944283181600,18.520181640625,0.666987955570221,1.6249003410339355,-0.04436405375599861
1711072944302141200,18.53914111328125,0.4385245442390442,1.592829942703247,0.10132719576358795
1711072944321101000,18.55810107421875,0.42080947756767273,1.1777472496032715,0.28641921281814575
1711072944340060700,18.577060791015626,0.38140869140625,0.6362156867980957,0.33803731203079224
1711072944359020300,18.596020263671875,0.2222784161567688,0.1798996776342392,0.14194969832897186
1711072944377980000,18.61497998046875,0.058566659688949585,-0.16126830875873566,0.035964664071798325
1711072944396939500,18.633939453125,0.09735657274723053,-0.10323614627122879,0.0781143307685852
1711072944415899400,18.6528994140625,0.19387321174144745,0.06933315098285675,0.043600473552942276
1711072944434859000,18.67185888671875,0.10010546445846558,-0.13713914155960083,-0.03550651669502258
1711072944453818600,18.690818603515623,-0.05627591907978058,-0.12095122784376144,-0.013209951110184193
1711072944472778200,18.7097783203125,0.004505127668380737,-0.2816086709499359,0.07475458085536957
1711072944491737900,18.72873779296875,-0.03917170315980911,-0.6044507026672363,0.09033162891864777
1711072944510697700,18.74769775390625,-0.15554144978523254,-0.639270007610321,-0.10789398849010468
1711072944529657000,18.766656982421875,-0.20777037739753723,-0.462424635887146,-0.1937204897403717
1711072944548617000,18.785616943359376,-0.224569171667099,-0.4218021333217621,-0.23648102581501007
1711072944567576600,18.80457666015625,-0.28412848711013794,-0.6462949514389038,-0.38522660732269287
1711072944586536200,18.8235361328125,-0.46036297082901,-0.9221003651618958,-0.44386962056159973
1711072944605495800,18.842495849609374,-0.5568795800209045,-0.8549052476882935,-0.10025817900896072
1711072944624455400,18.861455322265623,-0.6207149624824524,-1.0018181800842285,-0.08529199659824371
1711072944643415300,18.880415283203124,-0.5776489973068237,-1.196073293685913,-0.28321218490600586
1711072944662375000,18.899375,-0.7673225402832031,-1.0497710704803467,-0.42157304286956787
1711072944681334500,18.91833447265625,-0.8247438073158264,-1.0885610580444336,-0.455781489610672
1711072944700294100,18.937294189453127,-0.7358629703521729,-0.6102539300918579,-0.49884745478630066
1711072944719253800,18.956253662109376,-0.9148463606834412,-0.27427828311920166,-0.47380200028419495
1711072944738213400,18.97521337890625,-1.0480148792266846,-0.5115992426872253,-0.599334716796875
1711072944757173200,18.99417333984375,-1.0150282382965088,-1.1502584218978882,-0.5577958822250366
1711072944776132900,19.0131328125,-0.9905936121940613,-1.1630865335464478,-0.5489383339881897
1711072944795092500,19.032092529296875,-1.1017709970474243,-0.887891948223114,-0.608497679233551
1711072944814052000,19.051052001953124,-1.1298707723617554,-0.795040488243103,-0.7340303659439087
1711072944833011700,19.07001171875,-0.9615775346755981,-0.5143481492996216,-0.913013756275177
1711072944851971600,19.0889716796875,-1.0028108358383179,-0.21258094906806946,-0.9133192300796509
1711072944870931000,19.107930908203127,-1.0944405794143677,-0.4453204274177551,-1.091080904006958
1711072944889890800,19.126890869140624,-1.0538181066513062,-0.5531380772590637,-1.1827105283737183
1711072944908850400,19.145850341796876,-1.0208313465118408,-0.6511818766593933,-1.042211651802063
1711072944927810000,19.16481005859375,-1.1155154705047607,-0.5494728684425354,-1.219362497329712
1711072944946769700,19.183769775390626,-1.0467931032180786,-0.5051851868629456,-1.6039018630981445
1711072944965729300,19.202729248046875,-0.7471640110015869,-0.1899789422750473,-1.7721951007843018
1711072944984689200,19.221689208984376,-0.7694605588912964,0.2254091054201126,-1.8772637844085693
1711072945003648800,19.240648681640625,-1.0064760446548462,0.49510589241981506,-1.8479423522949219
1711072945022608400,19.2596083984375,-1.2639555931091309,0.3756818473339081,-1.4808125495910645
1711072945041568000,19.278568115234375,-1.3812416791915894,-0.26022839546203613,-1.226998209953308
1711072945060527600,19.297527587890624,-1.313130259513855,-1.1154390573501587,-1.330234408378601
1711072945079487200,19.3164873046875,-1.2761728763580322,-1.368947982788086,-1.410868525505066
1711072945098447000,19.335447021484374,-1.033964991569519,-0.8628464937210083,-1.50738525390625
1711072945117406500,19.354406494140626,-0.6982948184013367,-0.45875945687294006,-1.6695698499679565
1711072945136366300,19.373366455078123,-0.7037925720214844,-0.3753764033317566,-1.8598542213439941
1711072945155326000,19.392325927734376,-0.821384072303772,0.14019346237182617,-1.9090287685394287
1711072945174285600,19.41128564453125,-0.7938951253890991,0.49541133642196655,-1.837252140045166
1711072945193245200,19.4302451171875,-0.8378773927688599,0.056199558079242706,-1.7685298919677734
1711072945212204800,19.449204833984375,-1.0022000074386597,-0.3802633285522461,-1.6762893199920654
1711072945231164400,19.468164306640624,-0.9640209674835205,-0.4841103255748749,-1.6582688093185425
1711072945250124300,19.487124267578125,-0.9456950426101685,-0.31123560667037964,-1.6949206590652466
1711072945269083600,19.506083740234374,-0.9313397407531738,-0.23518294095993042,-1.6365830898284912
1711072945288043500,19.52504345703125,-0.9124029278755188,-0.15638138353824615,-1.6210060119628906
1711072945307003100,19.544003173828123,-0.7847321629524231,0.03237583488225937,-1.6744567155838013
1711072945325962800,19.562962646484376,-0.7719039916992188,-0.025350889191031456,-1.7065271139144897
1711072945344922400,19.58192236328125,-0.9487493634223938,-0.2315177470445633,-1.5825215578079224
1711072945363882000,19.600882080078126,-0.9463059306144714,-0.3637699782848358,-1.616119146347046
1711072945382841600,19.619841552734375,-0.8778890371322632,-0.3656025826931,-1.6433025598526
1711072945401801500,19.638801513671876,-0.7117338180541992,-0.08002328872680664,-1.7553962469100952
1711072945420760800,19.6577607421875,-0.6711113452911377,0.0824667438864708,-1.7459279298782349
1711072945439720700,19.676720703125,-0.6237692832946777,-0.0204639695584774,-1.6338342428207397
1711072945458680300,19.695680419921874,-0.49823659658432007,-0.16340632736682892,-1.4575997591018677
1711072945477640000,19.714639892578123,-0.2716057598590851,-0.25992295145988464,-1.4994440078735352
1711072945496599600,19.733599609375,-0.44264790415763855,-0.025961752980947495,-1.479590892791748
1711072945515559200,19.75255908203125,-0.3943895697593689,0.10751219838857651,-1.3342050313949585
1711072945534518800,19.771518798828126,-0.3381900191307068,-0.15760311484336853,-1.2404372692108154
1711072945553478400,19.790478515625,-0.3494910001754761,-0.31123560667037964,-1.2496002912521362
1711072945572438000,19.80943798828125,-0.34582582116127014,0.030543239787220955,-1.2502111196517944
1711072945591397600,19.828397705078125,-0.27985242009162903,0.038789913058280945,-1.1665226221084595
1711072945610357500,19.847357421875,-0.20746494829654694,-0.08857539296150208,-1.1225403547286987
1711072945629317000,19.866317138671874,-0.3113119602203369,-0.18112140893936157,-1.1368956565856934
1711072945648276700,19.88527685546875,-0.37087127566337585,-0.011606430634856224,-1.0217477083206177
1711072945667236400,19.904236328125,-0.2813795804977417,0.04214967042207718,-0.9438624382019043
1711072945686196000,19.923196044921873,-0.05994110554456711,-0.10140355676412582,-0.8601739406585693
1711072945705155600,19.942155517578126,-0.1781434416770935,-0.0054977829568088055,-0.7972549200057983
1711072945724115200,19.961115234375,-0.24900375306606293,0.036651886999607086,-0.6842449307441711
1711072945743074800,19.98007470703125,-0.033368486911058426,-0.0616973415017128,-0.5828413367271423
1711072945762034400,19.999034423828125,-0.02084576152265072,-0.11056652665138245,-0.5538252592086792
1711072945780994000,20.017994140625,-0.017486004158854485,0.1279761642217636,-0.40782859921455383
1711072945799954000,20.036953857421874,0.1089630052447319,0.10323614627122879,-0.23678645491600037
1711072945818913500,20.05591357421875,0.13278673589229584,-0.0513126403093338,-0.05871937796473503
1711072945837873200,20.074873046875,0.124845489859581,0.11575887352228165,0.17432554066181183
1711072945856832800,20.093832763671877,0.053374309092760086,0.13194678723812103,0.26045745611190796
1711072945875792400,20.11279248046875,0.1196531355381012,0.06597339361906052,0.40553784370422363
1711072945894752000,20.131751953125,0.33834272623062134,-0.07055488228797913,0.5634464025497437
1711072945913711600,20.150711669921876,0.4950295388698578,-0.1078176349401474,0.7149408459663391
1711072945932671200,20.169671142578125,0.4889208972454071,-0.11239911615848541,0.8215367794036865
1711072945951630800,20.188630859375,0.4935023784637451,0.015271619893610477,0.9470694661140442
1711072945970590500,20.207590576171874,0.47120583057403564,0.06566796451807022,1.0622174739837646
1711072945989550000,20.226550048828123,0.5451204776763916,0.08277218043804169,1.3587923049926758
1711072946008509700,20.245509765625,0.5946004986763,-0.06963858753442764,1.508759617805481
1711072946027469600,20.264469482421877,0.44982555508613586,-0.29016077518463135,1.6251293420791626
1711072946046429200,20.28342919921875,0.4476875364780426,-0.12553271651268005,1.6721659898757935
1711072946065388800,20.302388916015627,0.6523272395133972,0.3078758418560028,1.750356674194336
1711072946084348400,20.321348388671876,0.7210494875907898,0.24404047429561615,1.9470551013946533
1711072946103308000,20.34030810546875,0.6382773518562317,-0.2816086709499359,2.046320676803589
1711072946122267600,20.359267578125,0.5826886296272278,-0.1847866028547287,2.0594542026519775
1711072946141227300,20.378227294921874,0.5338194370269775,0.20647229254245758,2.12481689453125
1711072946160187000,20.397186767578123,0.5151880979537964,0.24373504519462585,2.2384376525878906
1711072946179146500,20.416146484375,0.500832736492157,-0.09865466505289078,2.315406560897827
1711072946198106000,20.435106201171877,0.6914225816726685,-0.1490510106086731,2.1434481143951416
1711072946217065700,20.454065673828126,0.8456659317016602,-0.3271180987358093,2.139172077178955
1711072946236025300,20.473025390625,0.9467640519142151,-0.11911863088607788,2.1602468490600586
1711072946254985000,20.49198486328125,0.9345467686653137,0.2684750556945801,2.068617105484009
1711072946273944600,20.510944580078124,0.7931315302848816,0.5421425104141235,2.0823616981506348
1711072946292904200,20.529904296875,0.7674752473831177,0.693636953830719,2.234161615371704
1711072946311864000,20.548864013671874,1.0585522651672363,0.29626941680908203,2.1147375106811523
1711072946330823400,20.567823486328123,1.031063437461853,-0.3436114490032196,2.097022533416748
1711072946349783000,20.586782958984376,0.8685733675956726,0.1081230640411377,2.1541383266448975
1711072946368743000,20.605742919921877,1.105283498764038,0.7150171995162964,2.1904847621917725
1711072946387702300,20.624702392578126,1.3154209852218628,0.09651663154363632,1.9565235376358032
1711072946406662100,20.643662109375,1.086957573890686,-0.24342961609363556,1.917122721672058
1711072946425621800,20.662621826171875,1.0704641342163086,0.32162031531333923,2.018831729888916
1711072946444581400,20.681581298828124,1.146822214126587,0.6551524996757507,2.089081287384033
1711072946463541000,20.700541015625,1.1214714050292969,0.9297361969947815,2.013639450073242
1711072946482500600,20.71950048828125,1.2390629053115845,0.37781986594200134,1.575954794883728
1711072946501460200,20.738460205078123,1.2018001079559326,-0.09010255336761475,1.4785218238830566
1711072946520419800,20.757419921875,1.1074215173721313,0.8726203441619873,1.6761366128921509
1711072946539379500,20.77637939453125,1.0677152872085571,1.34237539768219,1.7341687679290771
1711072946558339000,20.795339111328126,1.1141409873962402,0.7806851863861084,1.343826174736023
1711072946577298700,20.814298583984375,1.056414246559143,0.4883863925933838,1.268689751625061
1711072946596258300,20.83325830078125,0.9305761456489563,0.6826413869857788,1.575649380683899
1711072946615218000,20.852218017578124,0.7644209265708923,0.40897396206855774,1.6422336101531982
1711072946634177500,20.871177490234373,0.7112756967544556,-0.2214384824037552,1.3728421926498413
1711072946653137200,20.89013720703125,0.8169552683830261,0.09590577334165573,1.48371422290802
1711072946672096800,20.9090966796875,0.8398627042770386,0.4712821841239929,1.585728645324707
1711072946691056400,20.928056396484376,0.9962440729141235,0.1692095398902893,1.1550689935684204
1711072946710016300,20.947016357421877,1.0631338357925415,0.49632763862609863,0.798323929309845
1711072946728975600,20.9659755859375,0.9302706718444824,1.3613121509552002,0.8728494048118591
1711072946747935500,20.984935546875,1.001436471939087,1.2281436920166016,0.8163444399833679
1711072946766895000,21.00389501953125,1.0863466262817383,0.7730493545532227,0.6700422763824463
1711072946785854700,21.022854736328124,0.9776127338409424,0.9434806704521179,0.6242274641990662
1711072946804814300,21.041814453125,1.0481675863265991,1.331379771232605,0.4318050444126129
1711072946823774000,21.06077392578125,0.9644791483879089,1.8078542947769165,0.20945025980472565
1711072946842733600,21.079733642578127,0.9357684850692749,2.288604974746704,-0.17631085216999054
1711072946861693200,21.098693115234376,0.9430988430976868,2.85854172706604,-0.2242637276649475
1711072946880652800,21.11765283203125,0.7445678114891052,2.467282772064209,-0.2193768173456192
1711072946899612400,21.1366123046875,0.4953349828720093,1.748905897140503,-0.04069886729121208
1711072946918572000,21.155572021484375,0.16821688413619995,0.5583304166793823,0.041157014667987823
1711072946937531600,21.17453173828125,0.24488042294979095,-0.13683371245861053,0.12820523977279663
1711072946956491300,21.1934912109375,0.3099375069141388,-0.5491674542427063,0.07414371520280838
1711072946975451100,21.212451171875,0.23999349772930145,0.004886918235570192,-0.070631243288517
1711072946994410500,21.231410400390626,0.29619306325912476,0.4728093445301056,-0.1472947746515274
1711072947013370000,21.2503701171875,0.21586434543132782,-0.0977383628487587,0.01183550525456667
1711072947032330000,21.269330078125,0.10804671049118042,-0.8772017955780029,0.2329685539007187
1711072947051289600,21.28828955078125,0.0888044685125351,-0.9349285364151001,0.3920988440513611
1711072947070249200,21.307249267578126,0.0781143307685852,-0.7400626540184021,0.3245982825756073
1711072947089208800,21.326208740234375,-0.04864010959863663,-0.8384119272232056,0.07475458085536957
1711072947108168400,21.34516845703125,-0.04344775900244713,-0.7916807532310486,-0.09567669779062271
1711072947127128000,21.364128173828124,-0.10392337292432785,-0.8393282294273376,-0.06727148592472076
1711072947146087700,21.383087646484373,-0.2352592945098877,-1.426369309425354,-0.043142326176166534
1711072947165047300,21.40204736328125,-0.38675376772880554,-1.7864739894866943,0.18226677179336548
1711072947184007000,21.4210068359375,-0.5584067702293396,-1.702785611152649,0.34781113266944885
1711072947202966800,21.439966796875,-0.46952593326568604,-1.359174132347107,0.07903063297271729
1711072947221926100,21.458926025390625,-0.39561131596565247,-0.8206968307495117,-0.4704422354698181
1711072947240886000,21.477885986328126,-0.708984911441803,-0.5674933791160583,-0.5425242781639099
1711072947259845600,21.496845703125,-0.7517454624176025,-0.7302888631820679,-0.3571268320083618
1711072947278805200,21.51580517578125,-0.6307942271232605,-0.9495893120765686,-0.3226129710674286
1711072947297764900,21.534764892578124,-0.8482621312141418,-0.9944878816604614,-0.2859610617160797
1711072947316724500,21.553724365234373,-1.0556507110595703,-1.148120403289795,-0.39255696535110474
1711072947335684000,21.57268408203125,-0.9117920398712158,-1.091004490852356,-0.5880337357521057
1711072947354644000,21.59164404296875,-0.9750165343284607,-0.8274163603782654,-0.45822495222091675
1711072947373603300,21.610603271484376,-1.153999924659729,-0.6899717450141907,-0.46280643343925476
1711072947392563200,21.629563232421877,-1.1240675449371338,-0.9572250843048096,-0.6387354731559753
1711072947411522800,21.648522705078125,-1.0364084243774414,-1.1337649822235107,-0.5819250345230103
1711072947430482400,21.667482421875,-1.1619411706924438,-1.017395257949829,-0.701349139213562
1711072947449442000,21.686442138671875,-1.2218059301376343,-0.9926552772521973,-1.0028108358383179
1711072947468401700,21.705401611328124,-1.0678679943084717,-0.7202095985412598,-0.9548580050468445
1711072947487361300,21.724361328125,-1.1399500370025635,-0.45051276683807373,-0.9261473417282104
1711072947506321200,21.743321044921874,-1.3491712808609009,-0.6881392002105713,-1.0858885049819946
1711072947525280800,21.76228076171875,-1.3222931623458862,-1.092531681060791,-1.2334123849868774
1711072947544240400,21.781240478515624,-1.1109340190887451,-1.4382811784744263,-1.3589450120925903
1711072947563200000,21.800199951171876,-1.116126298904419,-0.5732966065406799,-1.5819107294082642
1711072947582159600,21.81915966796875,-1.3888773918151855,-0.06047561392188072,-1.6130647659301758
1711072947601119200,21.838119140625,-1.34000825881958,-0.30512696504592896,-1.6463569402694702
1711072947620078800,21.857078857421875,-1.2944988012313843,-1.138651967048645,-1.6368885040283203
1711072947639038700,21.876038818359376,-1.236466646194458,-1.0702351331710815,-1.7615050077438354
1711072947657998300,21.894998291015625,-1.1744638681411743,-0.24312418699264526,-1.7605886459350586
1711072947676958000,21.9139580078125,-1.1280381679534912,-0.17226386070251465,-1.84549880027771
1711072947695917600,21.93291748046875,-1.071227788925171,-0.6102539300918579,-1.960036039352417
1711072947714877200,21.951877197265624,-1.0663408041000366,-0.7018836140632629,-1.958814263343811
1711072947733837000,21.970837158203125,-0.9569960236549377,-0.3851502537727356,-2.077627420425415
1711072947752796700,21.989796630859374,-0.9661589860916138,-0.07483093440532684,-2.0119595527648926
1711072947771756300,22.00875634765625,-0.9179006814956665,0.010384701192378998,-2.085874080657959
1711072947790716000,22.0277158203125,-0.9175952672958374,-0.04276053607463837,-2.035172462463379
1711072947809675500,22.046675537109376,-0.8788053393363953,-0.1792888194322586,-2.0586905479431152
1711072947828635100,22.06563525390625,-0.7612138986587524,-0.23212862014770508,-2.1173336505889893
1711072947847595000,22.084594970703126,-0.6995165348052979,-0.324063777923584,-2.211406946182251
1711072947866554600,22.1035546875,-0.5632936954498291,-0.3610210716724396,-2.3155593872070312
1711072947885514200,22.12251416015625,-0.41638070344924927,-0.08521563559770584,-2.35404372215271
1711072947904473900,22.141473876953125,-0.39683303236961365,0.1337793916463852,-2.4413974285125732
1711072947923433500,22.16043359375,-0.49884745478630066,0.3094030022621155,-2.3800055980682373
1711072947942393300,22.179393310546875,-0.5581013560295105,0.42791077494621277,-2.292346477508545
1711072947961353000,22.19835302734375,-0.589560866355896,0.0766635313630104,-2.175060510635376
1711072947980312600,22.2173125,-0.44845110177993774,-0.27427828311920166,-2.144517183303833
1711072947999272200,22.236272216796873,-0.4560869038105011,0.005803215317428112,-2.1011457443237305
1711072948018231800,22.255231689453126,-0.28321218490600586,-0.025045456364750862,-2.2208752632141113
1711072948037191700,22.274191650390627,-0.3470475673675537,-0.04734202101826668,-2.1570398807525635
1711072948056151300,22.2931513671875,-0.224569171667099,0.2715294063091278,-2.0757949352264404
1711072948075111000,22.31211083984375,-0.2554178237915039,0.14294235408306122,-1.9826380014419556
1711072948094070500,22.331070556640626,-0.5040398240089417,-0.18295399844646454,-1.8629084825515747
1711072948113030400,22.350030517578126,-0.4802160859107971,-0.03787361457943916,-1.719966173171997
1711072948131990000,22.368989990234375,-0.3778962194919586,-0.06963858753442764,-1.5764129161834717
1711072948150949600,22.38794970703125,-0.3788125216960907,-0.15027274191379547,-1.5189915895462036
1711072948169909200,22.4069091796875,-0.3684278130531311,-0.002443459117785096,-1.489364743232727
1711072948188868900,22.425868896484374,-0.27801984548568726,-0.002443459117785096,-1.50738525390625
1711072948207828700,22.444828857421875,-0.02848157100379467,-0.29474225640296936,-1.486310362815857
1711072948226788400,22.463788330078124,0.1862373948097229,-0.2315177470445633,-1.4368302822113037
1711072948245748000,22.482748046875,0.06406444311141968,0.09468404203653336,-1.471344232559204
1711072948264707600,22.50170751953125,0.12026400119066238,0.2208276242017746,-1.3980404138565063
1711072948283667200,22.520667236328126,0.2537379562854767,-0.12705987691879272,-1.1304816007614136
1711072948302627000,22.539626953125,0.14133884012699127,-0.08093958348035812,-0.9108757376670837
1711072948321586700,22.558586669921876,0.004199695307761431,0.1594357043504715,-0.7257837057113647
1711072948340546300,22.57754638671875,-0.20257803797721863,0.03390299528837204,-0.46036297082901
1711072948359506000,22.596505859375,-0.18639011681079865,-0.14752385020256042,-0.2929860055446625
1711072948378465500,22.615465576171875,0.013057234697043896,0.12217295914888382,-0.12530364096164703
1711072948397425400,22.63442529296875,0.020387612283229828,0.05894844979047775,0.0057268571108579636
1711072948416385000,22.653385009765625,0.039018988609313965,0.013439024798572063,0.13920080661773682
1711072948435344600,22.6723447265625,0.212504580616951,-0.048563748598098755,0.23877176642417908
1711072948454304300,22.69130419921875,0.34750568866729736,-0.06505709886550903,0.3413970470428467
1711072948473264000,22.71026416015625,0.36827510595321655,0.05222893878817558,0.520991325378418
1711072948492223700,22.7292236328125,0.32612544298171997,0.000610864779446274,0.6529380679130554
1711072948511183400,22.748183349609373,0.3453676700592041,-0.04550942778587341,0.7873283624649048
1711072948530143000,22.76714306640625,0.45532333850860596,-0.015271619893610477,0.8652135729789734
1711072948549102600,22.7861025390625,0.4311941862106323,0.017715077847242355,1.0139591693878174
1711072948568062500,22.8050625,0.3468948304653168,-0.027488915249705315,1.1767545938491821
1711072948587022000,22.82402197265625,0.42508551478385925,-0.10079269111156464,1.1578178405761719
1711072948605981700,22.842981689453126,0.4592939615249634,-0.11117739230394363,1.3025927543640137
1711072948624941300,22.86194140625,0.5558105707168579,-0.16859868168830872,1.5032618045806885
1711072948643901000,22.88090087890625,0.48647743463516235,-0.12400554865598679,1.4678317308425903
1711072948662860800,22.89986083984375,0.4266127049922943,-0.08338304609060287,1.4690533876419067
1711072948681820400,22.9188203125,0.3979020416736603,-0.1493564397096634,1.7106504440307617
1711072948700780000,22.937780029296874,0.32246023416519165,-0.06566796451807022,1.7900629043579102
1711072948719740000,22.956739990234375,0.04176788032054901,-0.10751219838857651,1.9299509525299072
1711072948738699300,22.97569921875,-0.022678354755043983,-0.37232208251953125,2.206061840057373
1711072948757659100,22.9946591796875,0.1804341822862625,-0.25320345163345337,2.174907684326172
1711072948776618800,23.01361865234375,0.1291215419769287,-0.25045454502105713,2.0838887691497803
1711072948795578400,23.032578369140627,0.16424626111984253,-0.210442915558815,2.1153483390808105
1711072948814538200,23.051538330078124,0.5157989263534546,0.08338304609060287,2.10588002204895
1711072948833497900,23.070497802734376,0.5255727767944336,0.0308486707508564,2.0399065017700195
1711072948852457500,23.08945751953125,0.488004595041275,-0.15179990231990814,1.900018572807312
1711072948871417000,23.1084169921875,0.5414552688598633,-0.16249002516269684,1.9659919738769531
1711072948890376700,23.127376708984375,0.7350993752479553,0.1737910360097885,2.020969867706299
1711072948909336600,23.146336669921876,0.7751110196113586,0.2107483446598053,1.8044182062149048
1711072948928296200,23.165296142578125,0.6416370868682861,0.015271619893610477,1.7564653158187866
1711072948947255800,23.184255859375,0.648967444896698,0.13622283935546875,1.8395428657531738
1711072948966215400,23.20321533203125,0.7479275465011597,0.49082985520362854,1.9189553260803223
1711072948985175000,23.222175048828124,0.8215367794036865,0.3894262909889221,1.8193843364715576
1711072949004135000,23.241135009765625,0.936073899269104,0.06994401663541794,1.573205828666687
1711072949023094500,23.260094482421874,0.9895246028900146,0.09712749719619751,1.6321543455123901
1711072949042054100,23.27905419921875,0.9174425601959229,0.5012145638465881,1.5713733434677124
1711072949061013800,23.298013671875,0.6801216006278992,0.6398808360099792,1.6755257844924927
1711072949079973600,23.3169736328125,0.7091376781463623,0.667064368724823,1.665140986442566
1711072949098933200,23.335933349609373,1.0023527145385742,0.18325942754745483,1.4864630699157715
1711072949117892900,23.354892822265626,1.1349103450775146,-0.07269290834665298,1.444924235343933
