time,seconds_elapsed,z,y,x
1711549714535434800,0.047434814453125,5.39607048034668,6.5131659507751465,4.963011741638184
1711549714554392600,0.066392578125,5.351745128631592,6.537134170532227,4.97946834564209
1711549714573350400,0.085350341796875,5.318037033081055,6.55116605758667,4.997107982635498
1711549714592308000,0.104307861328125,5.282949447631836,6.562812328338623,5.0189971923828125
1711549714611265800,0.123265869140625,5.221796035766602,6.604640007019043,5.028117656707764
1711549714630223600,0.1422236328125,5.138858318328857,6.650539875030518,5.053003311157227
1711549714649181400,0.161181396484375,5.017024040222168,6.6630659103393555,5.157848834991455
1711549714668139000,0.180138916015625,4.814606189727783,6.679091453552246,5.327259540557861
1711549714687096800,0.199096923828125,4.543698310852051,6.758499622344971,5.463320732116699
1711549714706054700,0.2180546875,4.274869918823242,6.849860191345215,5.565545558929443
1711549714725012500,0.237012451171875,4.010963439941406,6.931120872497559,5.660575866699219
1711549714743970300,0.25597021484375,3.748706102371216,7.023209571838379,5.726440906524658
1711549714762928000,0.27492822265625,3.5241801738739014,7.096608638763428,5.778294563293457
1711549714781885700,0.2938857421875,3.338263988494873,7.193251609802246,5.769186973571777
1711549714800843500,0.312843505859375,3.158324718475342,7.304162502288818,5.73101806640625
1711549714819801300,0.33180126953125,2.9944028854370117,7.393759250640869,5.7040581703186035
1711549714838759200,0.35075927734375,2.8713786602020264,7.464017868041992,5.67573881149292
1711549714857717000,0.369717041015625,2.754786252975464,7.550009250640869,5.619511127471924
1711549714876674600,0.388674560546875,2.623732566833496,7.6503987312316895,5.545971870422363
1711549714895632400,0.40763232421875,2.509693145751953,7.749143123626709,5.461008548736572
1711549714914590200,0.426590087890625,2.4023654460906982,7.833574295043945,5.388333797454834
1711549714933548000,0.445548095703125,2.3241288661956787,7.913646221160889,5.304999351501465
1711549714952505900,0.464505859375,2.2486464977264404,7.989659309387207,5.222960472106934
1711549714971463700,0.483463623046875,2.1818478107452393,8.048552513122559,5.16049861907959
1711549714990421200,0.502421142578125,2.136141538619995,8.088582992553711,5.116847038269043
1711549715009379000,0.521379150390625,2.120840549468994,8.114895820617676,5.081424713134766
1711549715028337000,0.5403369140625,2.1363229751586914,8.134024620056152,5.044220447540283
1711549715047294700,0.559294677734375,2.1751606464385986,8.135340690612793,5.025464057922363
1711549715066252500,0.57825244140625,2.2555975914001465,8.109469413757324,5.031815528869629
1711549715085210000,0.597210205078125,2.3829307556152344,8.049793243408203,5.068812847137451
1711549715104168000,0.61616796875,2.512064218521118,7.977354049682617,5.120717525482178
1711549715123125800,0.635125732421875,2.6154959201812744,7.893028259277344,5.199007511138916
1711549715142083600,0.65408349609375,2.691800832748413,7.794694900512695,5.307290554046631
1711549715161041400,0.67304150390625,2.735525608062744,7.685213565826416,5.442865371704102
1711549715179999200,0.691999267578125,2.746950149536133,7.566066741943359,5.601722240447998
1711549715198956800,0.710956787109375,2.7420003414154053,7.436431884765625,5.775058269500732
1711549715217914600,0.72991455078125,2.7298498153686523,7.299091339111328,5.953282356262207
1711549715236872400,0.74887255859375,2.710350513458252,7.160088539123535,6.128418922424316
1711549715255830300,0.767830322265625,2.672726631164551,7.02342414855957,6.3006696701049805
1711549715274788000,0.7867880859375,2.6128036975860596,6.891928672790527,6.468769073486328
1711549715293746000,0.805745849609375,2.522756338119507,6.770444393157959,6.630775451660156
1711549715312703500,0.824703369140625,2.396707057952881,6.665495872497559,6.782135009765625
1711549715331661300,0.843661376953125,2.234311580657959,6.565013408660889,6.933891296386719
1711549715350619100,0.862619140625,2.035745620727539,6.460004806518555,7.091860294342041
1711549715369577000,0.881576904296875,1.8242968320846558,6.358190536499023,7.239871978759766
1711549715388534500,0.900534423828125,1.6213747262954712,6.266746520996094,7.366777420043945
1711549715407492400,0.919492431640625,1.4454116821289062,6.179538726806641,7.476261138916016
1711549715426450200,0.9384501953125,1.3042737245559692,6.0842390060424805,7.5796637535095215
1711549715445408000,0.957407958984375,1.2091866731643677,5.986793518066406,7.672454357147217
1711549715464365800,0.97636572265625,1.1535115242004395,5.90323543548584,7.745425224304199
1711549715483323400,0.995323486328125,1.1174671649932861,5.83894681930542,7.799253940582275
1711549715502281200,1.01428125,1.0887315273284912,5.7937140464782715,7.836958885192871
1711549715521239000,1.033239013671875,1.0699756145477295,5.77008056640625,7.8569536209106445
1711549715540196900,1.05219677734375,1.0554847717285156,5.766794204711914,7.861324310302734
1711549715559154700,1.07115478515625,1.038356900215149,5.776949405670166,7.856148719787598
1711549715578112500,1.090112548828125,1.0170611143112183,5.802233695983887,7.8402838706970215
1711549715597070300,1.1090703125,0.9931753277778625,5.845940589904785,7.8108229637146
1711549715616028200,1.128028076171875,0.9358499050140381,5.922884464263916,7.759769439697266
1711549715634985700,1.14698583984375,0.8450266122817993,6.033511161804199,7.684598445892334
1711549715653943600,1.165943603515625,0.7237280011177063,6.1512885093688965,7.60317325592041
1711549715672901400,1.1849013671875,0.6026798486709595,6.27583122253418,7.511397838592529
1711549715691859200,1.203859130859375,0.5249043107032776,6.398276329040527,7.413294315338135
1711549715710817000,1.222817138671875,0.4784388840198517,6.499844074249268,7.327585697174072
1711549715729774800,1.24177490234375,0.45135292410850525,6.595806121826172,7.243064880371094
1711549715748732700,1.260732666015625,0.4379529356956482,6.690479755401611,7.1565399169921875
1711549715767690500,1.2796904296875,0.4404657185077667,6.7778801918029785,7.073662757873535
1711549715786648000,1.29864794921875,0.46565887331962585,6.852548122406006,6.999722957611084
1711549715805606000,1.31760595703125,0.5142006874084473,6.91472053527832,6.934883117675781
1711549715824563700,1.336563720703125,0.5701280832290649,6.97068977355957,6.874215126037598
1711549715843521500,1.355521484375,0.6150686144828796,7.022537708282471,6.81733512878418
1711549715862479400,1.374479248046875,0.6418484449386597,7.064151287078857,6.771719455718994
1711549715881437200,1.393437255859375,0.6565985083580017,7.0858988761901855,6.747539520263672
1711549715900395000,1.41239501953125,0.6585174202919006,7.086674690246582,6.746538162231445
1711549715919352800,1.431352783203125,0.6501632928848267,7.075541973114014,6.759021282196045
1711549715938310700,1.450310546875,0.6363701224327087,7.050951957702637,6.785977363586426
1711549715957268500,1.4692685546875,0.6276934146881104,7.015166282653809,6.823768615722656
1711549715976226300,1.488226318359375,0.6314911842346191,6.981977939605713,6.857375144958496
1711549715995184000,1.50718408203125,0.6393121480941772,6.95792293548584,6.881059169769287
1711549716014142000,1.526141845703125,0.6402216553688049,6.936598777770996,6.902470111846924
1711549716033099800,1.545099853515625,0.6357265114784241,6.90464973449707,6.934844017028809
1711549716052057300,1.564057373046875,0.6349775791168213,6.845283031463623,6.9935173988342285
1711549716071015200,1.58301513671875,0.6531645655632019,6.768810749053955,7.0659003257751465
1711549716089973000,1.601972900390625,0.69004225730896,6.71499490737915,7.113583564758301
1711549716108930800,1.620930908203125,0.7180911898612976,6.6913533210754395,7.133058547973633
1711549716127888600,1.639888671875,0.6995825171470642,6.682624340057373,7.143074035644531
1711549716146846500,1.658846435546875,0.6345828771591187,6.668943405151367,7.161904811859131
1711549716165804300,1.67780419921875,0.5378130078315735,6.650150775909424,7.187254905700684
1711549716184762000,1.69676220703125,0.4447019696235657,6.623124599456787,7.218507289886475
1711549716203720000,1.715719970703125,0.3876969516277313,6.5853657722473145,7.2562408447265625
1711549716222677800,1.734677734375,0.3741317093372345,6.536047458648682,7.301403999328613
1711549716241635600,1.753635498046875,0.40848517417907715,6.472725868225098,7.355769634246826
1711549716260593400,1.772593505859375,0.4780285954475403,6.400905132293701,7.4141950607299805
1711549716279551200,1.79155126953125,0.558246374130249,6.329530715942383,7.469658374786377
1711549716298509000,1.810509033203125,0.6156889796257019,6.25738525390625,7.525718688964844
1711549716317467000,1.829466796875,0.626532256603241,6.181397914886475,7.587368965148926
1711549716336424700,1.8484248046875,0.6033397912979126,6.099276065826416,7.655404090881348
1711549716355382500,1.867382568359375,0.5769150853157043,6.005999565124512,7.7308173179626465
1711549716374340400,1.88634033203125,0.5809086561203003,5.901725769042969,7.8104143142700195
1711549716393298200,1.905298095703125,0.6288242936134338,5.7959136962890625,7.885578632354736
1711549716412256000,1.924256103515625,0.7133983373641968,5.694333076477051,7.952108383178711
1711549716431213800,1.9432138671875,0.8150383830070496,5.5971784591674805,8.011098861694336
1711549716450171600,1.962171630859375,0.9151325821876526,5.50011682510376,8.067319869995117
1711549716469129500,1.98112939453125,0.9988374710083008,5.405973434448242,8.120847702026367
1711549716488087300,2.00008740234375,1.0528749227523804,5.325881481170654,8.1668119430542
1711549716507045000,2.019045166015625,1.0749156475067139,5.263335704803467,8.2044038772583
1711549716526003000,2.0380029296875,1.0684770345687866,5.216151714324951,8.235320091247559
1711549716544961000,2.0569609375,1.0446490049362183,5.180795192718506,8.260656356811523
1711549716563918600,2.075918701171875,1.0162168741226196,5.155765056610107,8.279842376708984
1711549716582876400,2.09487646484375,0.9937120079994202,5.138209342956543,8.293475151062012
1711549716601834200,2.113834228515625,0.9812438488006592,5.125924587249756,8.302556991577148
1711549716620792300,2.132792236328125,0.9803602695465088,5.11454439163208,8.309677124023438
1711549716639750100,2.151750244140625,1.0002331733703613,5.099937915802002,8.316282272338867
1711549716658708000,2.1707080078125,1.0389891862869263,5.085113525390625,8.32060718536377
1711549716677665800,2.189665771484375,1.087764859199524,5.0773210525512695,8.319131851196289
1711549716696623600,2.20862353515625,1.1356121301651,5.081686973571777,8.310067176818848
1711549716715581400,2.22758154296875,1.1786137819290161,5.09408712387085,8.296478271484375
1711549716734539300,2.246539306640625,1.2202696800231934,5.106715679168701,8.282679557800293
1711549716753497000,2.2654970703125,1.2546700239181519,5.114991664886475,8.272427558898926
1711549716772455000,2.284454833984375,1.268290638923645,5.118033409118652,8.26846694946289
1711549716791413000,2.3034130859375,1.2478545904159546,5.118409156799316,8.271343231201172
1711549716810370800,2.322370849609375,1.2006500959396362,5.1080098152160645,8.284749031066895
1711549716829328400,2.341328369140625,1.1534687280654907,5.075531959533691,8.311369895935059
1711549716848286500,2.360286376953125,1.1367285251617432,5.0241007804870605,8.344857215881348
1711549716867244300,2.379244384765625,1.1594051122665405,4.964822769165039,8.377152442932129
1711549716886202000,2.3982021484375,1.1966122388839722,4.892362117767334,8.414469718933105
1711549716905160000,2.417159912109375,1.2350448369979858,4.82440710067749,8.448084831237793
1711549716924117800,2.43611767578125,1.2449867725372314,4.757484436035156,8.48449993133545
1711549716943075600,2.45507568359375,1.218255639076233,4.675682544708252,8.533712387084961
1711549716962033400,2.474033447265625,1.1739798784255981,4.583782196044922,8.589592933654785
1711549716980991500,2.492991455078125,1.1366685628890991,4.4921064376831055,8.642879486083984
1711549716999949300,2.51194921875,1.123374342918396,4.410363674163818,8.686604499816895
1711549717018907100,2.5309072265625,1.1348003149032593,4.347003936767578,8.71700382232666
1711549717037865000,2.549864990234375,1.1560263633728027,4.289870262145996,8.74248218536377
1711549717056822800,2.56882275390625,1.1805927753448486,4.228005886077881,8.769295692443848
1711549717075780600,2.587780517578125,1.2008056640625,4.1536664962768555,8.802017211914062
1711549717094738700,2.60673876953125,1.2166013717651367,4.070224285125732,8.838752746582031
1711549717113696500,2.625696533203125,1.2363002300262451,3.9840712547302246,8.875197410583496
1711549717132654300,2.644654296875,1.2596038579940796,3.8990638256073,8.90960693359375
1711549717151612200,2.663612060546875,1.281028151512146,3.809706449508667,8.945137977600098
1711549717170570000,2.682570068359375,1.2945101261138916,3.715406656265259,8.982782363891602
1711549717189527800,2.70152783203125,1.309820294380188,3.613935708999634,9.021875381469727
1711549717208486000,2.72048583984375,1.3336340188980103,3.5025124549865723,9.062240600585938
1711549717227443700,2.739443603515625,1.3697128295898438,3.396742582321167,9.097054481506348
1711549717246401500,2.758401611328125,1.4051464796066284,3.3147523403167725,9.121862411499023
1711549717265359400,2.777359375,1.4175188541412354,3.2577455043792725,9.140466690063477
1711549717284317200,2.796317138671875,1.3941402435302734,3.211364984512329,9.160452842712402
1711549717303275300,2.815275146484375,1.3553863763809204,3.1756322383880615,9.17870807647705
1711549717322233000,2.834233154296875,1.32290518283844,3.15964937210083,9.188956260681152
1711549717341191000,2.85319091796875,1.2942765951156616,3.1578011512756348,9.193668365478516
1711549717360148700,2.872148681640625,1.2559618949890137,3.157191753387451,9.199189186096191
1711549717379106600,2.8911064453125,1.2059746980667114,3.1535236835479736,9.207132339477539
1711549717398064600,2.910064697265625,1.1556129455566406,3.1456024646759033,9.216296195983887
1711549717417022500,2.9290224609375,1.110966682434082,3.1282424926757812,9.227688789367676
1711549717435980300,2.947980224609375,1.0759389400482178,3.109670877456665,9.238110542297363
1711549717454938000,2.966938232421875,1.0557572841644287,3.0992419719696045,9.243942260742188
1711549717473896200,2.985896240234375,1.0564656257629395,3.0900638103485107,9.246932983398438
1711549717492854000,3.00485400390625,1.0738608837127686,3.0756776332855225,9.249725341796875
1711549717511811800,3.023811767578125,1.1033543348312378,3.064091205596924,9.250100135803223
1711549717530769700,3.042769775390625,1.1483380794525146,3.05529522895813,9.247532844543457
1711549717549727500,3.0617275390625,1.2032357454299927,3.0496015548706055,9.242430686950684
1711549717568685600,3.080685546875,1.2635293006896973,3.050530433654785,9.234074592590332
1711549717587643400,3.099643310546875,1.3187493085861206,3.0607454776763916,9.222967147827148
1711549717606601200,3.118601318359375,1.3655595779418945,3.0722694396972656,9.21231746673584
1711549717625559000,3.13755908203125,1.418187141418457,3.074788808822632,9.203521728515625
1711549717644517000,3.15651708984375,1.4843387603759766,3.0731072425842285,9.193647384643555
1711549717663475000,3.175474853515625,1.557482123374939,3.071011543273926,9.182239532470703
1711549717682432800,3.194432861328125,1.6264902353286743,3.060821533203125,9.173673629760742
1711549717701390600,3.213390625,1.6824592351913452,3.0462679862976074,9.16842269897461
1711549717720348700,3.2323486328125,1.7344814538955688,3.034846782684326,9.162513732910156
1711549717739306500,3.251306396484375,1.7715156078338623,3.0168635845184326,9.16136646270752
1711549717758264300,3.270264404296875,1.7990936040878296,2.9949889183044434,9.16317081451416
1711549717777222100,3.28922216796875,1.8376449346542358,2.978409767150879,9.16092300415039
1711549717796180200,3.30818017578125,1.8738033771514893,2.96757435798645,9.15711498260498
1711549717815138000,3.327137939453125,1.8947893381118774,2.956744432449341,9.156299591064453
1711549717834096000,3.34609619140625,1.9058605432510376,2.9446747303009033,9.157892227172852
1711549717853054000,3.365053955078125,1.9099652767181396,2.936121940612793,9.159783363342285
1711549717872011800,3.38401171875,1.9214308261871338,2.936763048171997,9.157177925109863
1711549717890969600,3.402969482421875,1.951537847518921,2.9415063858032227,9.149285316467285
1711549717909927700,3.421927734375,1.9953477382659912,2.9488449096679688,9.137466430664062
1711549717928885500,3.440885498046875,2.037757635116577,2.962542772293091,9.123665809631348
1711549717947843300,3.45984326171875,2.0641143321990967,2.975959539413452,9.113368034362793
1711549717966801400,3.478801513671875,2.0756471157073975,2.977816343307495,9.11014175415039
1711549717985759200,3.49775927734375,2.084512948989868,2.967751979827881,9.11140251159668
1711549718004717000,3.516717041015625,2.106767416000366,2.9645607471466064,9.107319831848145
1711549718023675000,3.5356748046875,2.1483664512634277,2.972574472427368,9.094983100891113
1711549718042633000,3.554633056640625,2.208904981613159,2.9973864555358887,9.072309494018555
1711549718061590800,3.5735908203125,2.269665002822876,3.056037664413452,9.037678718566895
1711549718080548600,3.592548583984375,2.318307399749756,3.149364709854126,8.993183135986328
1711549718099506700,3.611506591796875,2.3503012657165527,3.2563700675964355,8.946648597717285
1711549718118464500,3.630464599609375,2.3675055503845215,3.367798328399658,8.90074348449707
1711549718137422300,3.64942236328125,2.376891613006592,3.4853594303131104,8.85285472869873
1711549718156380400,3.66838037109375,2.38674259185791,3.6065609455108643,8.801509857177734
1711549718175338200,3.687338134765625,2.4223971366882324,3.738851308822632,8.73632526397705
1711549718194296000,3.706296142578125,2.4926559925079346,3.887976884841919,8.651050567626953
1711549718213254100,3.725254150390625,2.5534579753875732,4.038034915924072,8.564141273498535
1711549718232212000,3.7442119140625,2.5844075679779053,4.157388210296631,8.497490882873535
1711549718251169800,3.763169677734375,2.608372926712036,4.236929893493652,8.450751304626465
1711549718270127900,3.7821279296875,2.6061549186706543,4.2976274490356445,8.420733451843262
1711549718289085700,3.801085693359375,2.573981761932373,4.352970123291016,8.402181625366211
1711549718308043500,3.82004345703125,2.5565719604492188,4.395181179046631,8.385505676269531
1711549718327001600,3.839001708984375,2.585557222366333,4.4234724044799805,8.361708641052246
1711549718345959400,3.85795947265625,2.644444465637207,4.4459428787231445,8.331320762634277
1711549718364917200,3.876917236328125,2.703381061553955,4.467947959899902,8.300576210021973
1711549718383875300,3.895875244140625,2.744213104248047,4.48804235458374,8.276300430297852
1711549718402833200,3.914833251953125,2.774996757507324,4.5010786056518555,8.258938789367676
1711549718421791200,3.933791259765625,2.7975215911865234,4.513911247253418,8.24432373046875
1711549718440749000,3.9527490234375,2.8012704849243164,4.530142784118652,8.23414134979248
1711549718459707000,3.971706787109375,2.788881301879883,4.541264057159424,8.232220649719238
1711549718478665000,3.9906650390625,2.778855562210083,4.53802490234375,8.237396240234375
1711549718497622800,4.009622802734375,2.78448486328125,4.530623435974121,8.239568710327148
1711549718516580600,4.02858056640625,2.7981479167938232,4.535126686096191,8.23245906829834
1711549718535538700,4.04753857421875,2.8100013732910156,4.548795223236084,8.22087287902832
1711549718554496500,4.06649658203125,2.8063457012176514,4.5603814125061035,8.21570110321045
1711549718573454600,4.08545458984375,2.782715320587158,4.562442302703857,8.222590446472168
1711549718592412400,4.104412353515625,2.7449135780334473,4.558783531188965,8.237313270568848
1711549718611370500,4.12337060546875,2.7096261978149414,4.554673194885254,8.25125789642334
1711549718630328300,4.142328369140625,2.6904189586639404,4.554516792297363,8.2576265335083
1711549718649286100,4.1612861328125,2.6841840744018555,4.558694839477539,8.25735092163086
1711549718668244200,4.180244140625,2.6755526065826416,4.558992862701416,8.259986877441406
1711549718687202000,4.1992021484375,2.6585216522216797,4.547110557556152,8.272027969360352
1711549718706159900,4.218159912109375,2.6281800270080566,4.525389671325684,8.293606758117676
1711549718725118000,4.237117919921875,2.585374116897583,4.490532398223877,8.325944900512695
1711549718744075800,4.25607568359375,2.5326390266418457,4.425656318664551,8.37673568725586
1711549718763033600,4.27503369140625,2.4828059673309326,4.332493782043457,8.440115928649902
1711549718781991700,4.29399169921875,2.484065055847168,4.235538005828857,8.488818168640137
1711549718800949800,4.31294970703125,2.5071909427642822,4.157334327697754,8.52061939239502
1711549718819907600,4.331907470703125,2.5108771324157715,4.083081245422363,8.555367469787598
1711549718838865400,4.350865478515625,2.493443012237549,4.014669895172119,8.592761039733887
1711549718857823500,4.369823486328125,2.457942485809326,3.959190607070923,8.628656387329102
1711549718876781300,4.38878125,2.411623001098633,3.9321062564849854,8.654073715209961
1711549718895739100,4.4077392578125,2.356851577758789,3.9391839504241943,8.665936470031738
1711549718914697200,4.426697265625,2.2957980632781982,3.950110912322998,8.67734432220459
1711549718933655300,4.4456552734375,2.241596221923828,3.9509243965148926,8.691134452819824
1711549718952613000,4.464613037109375,2.1970088481903076,3.943080186843872,8.706069946289062
1711549718971571000,4.483571044921875,2.1572511196136475,3.9288671016693115,8.72242259979248
1711549718990529000,4.502529052734375,2.1037373542785645,3.916271924972534,8.741137504577637
1711549719009486800,4.52148681640625,2.033257246017456,3.9135921001434326,8.75899887084961
1711549719028444700,4.540444580078125,1.9522508382797241,3.9271347522735596,8.771357536315918
1711549719047402800,4.55940283203125,1.8733643293380737,3.955050468444824,8.776017189025879
1711549719066360600,4.578360595703125,1.8093879222869873,3.9811384677886963,8.777644157409668
1711549719085318700,4.597318603515625,1.7461707592010498,3.9929518699645996,8.785079002380371
1711549719104276500,4.6162763671875,1.6993013620376587,3.9786269664764404,8.800755500793457
1711549719123234600,4.635234619140625,1.6887003183364868,3.943448781967163,8.818611145019531
1711549719142192400,4.6541923828125,1.6942193508148193,3.901880979537964,8.836023330688477
1711549719161150500,4.673150390625,1.7197749614715576,3.8644795417785645,8.847517013549805
1711549719180108300,4.6921083984375,1.7556294202804565,3.8464016914367676,8.848353385925293
1711549719199066000,4.711066162109375,1.7770603895187378,3.8466742038726807,8.843955039978027
1711549719218024200,4.730024169921875,1.7796313762664795,3.855320453643799,8.839672088623047
1711549719236982300,4.748982177734375,1.7531425952911377,3.8589441776275635,8.843382835388184
1711549719255940000,4.767940185546875,1.6932399272918701,3.851884126663208,8.858120918273926
1711549719274898000,4.78689794921875,1.6057337522506714,3.84415602684021,8.877751350402832
1711549719293856000,4.80585595703125,1.517392635345459,3.846747636795044,8.892155647277832
1711549719312813800,4.824813720703125,1.4477416276931763,3.8593432903289795,8.898308753967285
1711549719331772000,4.84377197265625,1.3888407945632935,3.8784539699554443,8.899389266967773
1711549719350729700,4.862729736328125,1.3422777652740479,3.9010579586029053,8.896653175354004
1711549719369687600,4.8816875,1.2990601062774658,3.922797679901123,8.89350700378418
1711549719388645600,4.900645751953125,1.2567687034606934,3.9416444301605225,8.891251564025879
1711549719407603700,4.919603759765625,1.224014401435852,3.9518237113952637,8.891302108764648
1711549719426561500,4.9385615234375,1.196837067604065,3.95998477935791,8.891371726989746
1711549719445519400,4.957519287109375,1.1697394847869873,3.9764695167541504,8.887619972229004
1711549719464477400,4.9764775390625,1.1406763792037964,3.9957072734832764,8.882767677307129
1711549719483435300,4.995435302734375,1.1153764724731445,4.014155864715576,8.877662658691406
1711549719502393300,5.014393310546875,1.089503288269043,4.038268566131592,8.869935989379883
1711549719521351200,5.03335107421875,1.0623533725738525,4.067703723907471,8.859772682189941
1711549719540309200,5.052309326171875,1.0380626916885376,4.100882053375244,8.847349166870117
1711549719559267000,5.07126708984375,1.0200191736221313,4.139688491821289,8.831360816955566
1711549719578225200,5.09022509765625,1.006669282913208,4.190587997436523,8.808856964111328
1711549719597183000,5.109182861328125,0.9994345903396606,4.251845836639404,8.780280113220215
1711549719616141000,5.12814111328125,1.0016546249389648,4.321311950683594,8.746047019958496
1711549719635099000,5.147098876953125,1.017606496810913,4.395227909088135,8.70728588104248
1711549719654057000,5.166056884765625,1.0543677806854248,4.475029945373535,8.66214656829834
1711549719673014800,5.185014892578125,1.1157341003417969,4.565764904022217,8.606934547424316
1711549719691972900,5.203972900390625,1.1973031759262085,4.664058685302734,8.543033599853516
1711549719710930700,5.2229306640625,1.2666865587234497,4.746676445007324,8.487340927124023
1711549719729888500,5.241888427734375,1.3365134000778198,4.821995735168457,8.43400764465332
1711549719748846600,5.2608466796875,1.4332489967346191,4.885227203369141,8.381572723388672
1711549719767804700,5.2798046875,1.5539950132369995,4.924450397491455,8.336981773376465
1711549719786762500,5.298762451171875,1.6818615198135376,4.938539028167725,8.303768157958984
1711549719805720600,5.317720458984375,1.8513166904449463,4.952228546142578,8.25944709777832
1711549719824678400,5.336678466796875,2.061687707901001,4.9637956619262695,8.202473640441895
1711549719843636200,5.35563623046875,2.3281056880950928,4.9646430015563965,8.130352973937988
1711549719862594300,5.37459423828125,2.6162827014923096,4.951005458831787,8.050651550292969
1711549719881552100,5.39355224609375,2.9145166873931885,4.920109748840332,7.96671199798584
1711549719900510200,5.41251025390625,3.2280519008636475,4.879925727844238,7.869967937469482
1711549719919468000,5.431468017578125,3.5521481037139893,4.840245723724365,7.754008769989014
1711549719938426000,5.450426025390625,3.856748342514038,4.806398391723633,7.62852668762207
1711549719957384000,5.469384033203125,4.115707874298096,4.780549049377441,7.508507251739502
1711549719976342000,5.488342041015625,4.327249050140381,4.755904197692871,7.404504299163818
1711549719995299800,5.5072998046875,4.484277248382568,4.730930328369141,7.32666015625
1711549720014258000,5.5262578125,4.597631454467773,4.705817222595215,7.272377014160156
1711549720033215700,5.5452158203125,4.70267391204834,4.678036689758301,7.222964763641357
1711549720052173800,5.564173828125,4.81102180480957,4.646341323852539,7.171887397766113
1711549720071131600,5.583131591796875,4.929103851318359,4.605741024017334,7.117688179016113
1711549720090089700,5.60208984375,5.059412479400635,4.550899505615234,7.061306476593018
1711549720109047600,5.621047607421875,5.220482349395752,4.448112964630127,7.009368419647217
1711549720128005600,5.640005615234375,5.403275966644287,4.295229911804199,6.966060638427734
1711549720146963500,5.65896337890625,5.584975719451904,4.122778415679932,6.926842212677002
1711549720165921500,5.677921630859375,5.758983612060547,3.946650981903076,6.886831760406494
1711549720184879400,5.69687939453125,5.907495021820068,3.7714028358459473,6.8591837882995605
1711549720203837400,5.71583740234375,6.029139041900635,3.6152524948120117,6.837383270263672
1711549720222795300,5.734795166015625,6.120384693145752,3.492108106613159,6.820297718048096
1711549720241753300,5.75375341796875,6.194037437438965,3.390348196029663,6.80513334274292
1711549720260711200,5.772711181640625,6.264970302581787,3.296830892562866,6.786121845245361
1711549720279669200,5.791669189453125,6.3225836753845215,3.2215042114257812,6.768843173980713
1711549720298627000,5.810626953125,6.359672546386719,3.165693521499634,6.760424613952637
1711549720317585200,5.829585205078125,6.401852607727051,3.1021361351013184,6.750068187713623
1711549720336543000,5.84854296875,6.445667266845703,3.028329849243164,6.74188232421875
1711549720355501000,5.8675009765625,6.476020336151123,2.956815004348755,6.744537830352783
1711549720374459000,5.886458984375,6.498905181884766,2.8835322856903076,6.754247188568115
1711549720393417000,5.9054169921875,6.525732040405273,2.800623655319214,6.763261795043945
1711549720412374800,5.924374755859375,6.559274196624756,2.722485303878784,6.762721061706543
1711549720431332900,5.943332763671875,6.591134548187256,2.660517454147339,6.756402969360352
1711549720450290700,5.962290771484375,6.617531776428223,2.60723614692688,6.751368522644043
1711549720469248800,5.981248779296875,6.638895034790039,2.5558571815490723,6.750040054321289
1711549720488206600,6.00020654296875,6.651888847351074,2.5097365379333496,6.754552841186523
1711549720507164700,6.01916455078125,6.638840675354004,2.467877149581909,6.782754421234131
1711549720526122500,6.03812255859375,6.594017028808594,2.4296648502349854,6.840033054351807
1711549720545080600,6.05708056640625,6.515620708465576,2.4119913578033447,6.920938014984131
1711549720564038400,6.076038330078125,6.401719093322754,2.422929286956787,7.022663116455078
1711549720582996500,6.09499658203125,6.2555060386657715,2.455824851989746,7.141984939575195
1711549720601954600,6.11395458984375,6.087478160858154,2.5055222511291504,7.26879358291626
1711549720620912400,6.132912353515625,5.906333923339844,2.5666918754577637,7.395790100097656
1711549720639870500,6.151870361328125,5.725073337554932,2.622856855392456,7.51761531829834
1711549720658828300,6.170828369140625,5.54629373550415,2.670076370239258,7.634115219116211
1711549720677786400,6.189786376953125,5.358136177062988,2.715369939804077,7.751614570617676
1711549720696744200,6.208744140625,5.154644012451172,2.76895809173584,7.869746685028076
1711549720715702300,6.227702392578125,4.954810619354248,2.8311262130737305,7.975271701812744
1711549720734660000,6.24666015625,4.7715911865234375,2.9079577922821045,8.058913230895996
1711549720753618200,6.2656181640625,4.606320381164551,3.008979320526123,8.117773056030273
1711549720772576000,6.284575927734375,4.474142551422119,3.125515937805176,8.147611618041992
1711549720791534000,6.3035341796875,4.385899543762207,3.2504303455352783,8.14671516418457
1711549720810492200,6.3224921875,4.320300579071045,3.394519567489624,8.122969627380371
1711549720829450000,6.341449951171875,4.257702827453613,3.5649759769439697,8.082901000976562
1711549720848408000,6.360407958984375,4.194470405578613,3.747323513031006,8.033329010009766
1711549720867366000,6.379365966796875,4.136631011962891,3.937066078186035,7.972338676452637
1711549720886324000,6.398323974609375,4.087854862213135,4.147821426391602,7.890209674835205
1711549720905281800,6.41728173828125,4.051760196685791,4.386871337890625,7.778751373291016
1711549720924240000,6.436239990234375,4.02215051651001,4.651242733001709,7.6392822265625
1711549720943198000,6.455197998046875,3.9718925952911377,4.941117286682129,7.481966495513916
1711549720962155800,6.47415576171875,3.882038116455078,5.25314998626709,7.314682960510254
1711549720981113900,6.49311376953125,3.7578067779541016,5.567132472991943,7.145370960235596
1711549721000071700,6.51207177734375,3.621324300765991,5.871694087982178,6.969906806945801
1711549721019029800,6.53102978515625,3.500006675720215,6.158786296844482,6.781569957733154
1711549721037987600,6.549987548828125,3.4084014892578125,6.4196553230285645,6.583405017852783
1711549721056945700,6.568945556640625,3.3507282733917236,6.649454593658447,6.38183069229126
1711549721075903700,6.58790380859375,3.3265891075134277,6.854257106781006,6.174410343170166
1711549721094861600,6.606861572265625,3.3234140872955322,7.042844295501709,5.960171222686768
1711549721113819600,6.625819580078125,3.324328899383545,7.2161478996276855,5.748601913452148
1711549721132777500,6.644777587890625,3.3130714893341064,7.367574691772461,5.5599260330200195
1711549721151735600,6.663735595703125,3.2839951515197754,7.495530605316162,5.403959274291992
1711549721170693600,6.682693603515625,3.2537484169006348,7.60291862487793,5.2705912590026855
1711549721189651500,6.7016513671875,3.2232086658477783,7.695743083953857,5.153335094451904
1711549721208609500,6.720609619140625,3.1834418773651123,7.774900913238525,5.058358192443848
1711549721227567600,6.739567626953125,3.1266117095947266,7.841555595397949,4.990458965301514
1711549721246525400,6.758525390625,3.05556583404541,7.9078688621521,4.9294538497924805
1711549721265483500,6.7774833984375,2.9776220321655273,7.980149269104004,4.860182762145996
1711549721284441600,6.796441650390625,2.8828184604644775,8.064640045166016,4.777167320251465
1711549721303399400,6.8153994140625,2.7582483291625977,8.15692138671875,4.69330358505249
1711549721322357500,6.834357421875,2.620374917984009,8.246267318725586,4.615529537200928
1711549721341315600,6.853315673828125,2.4997172355651855,8.330084800720215,4.531169891357422
1711549721360273400,6.8722734375,2.4027085304260254,8.408341407775879,4.438148498535156
1711549721379231500,6.8912314453125,2.321824073791504,8.482401847839355,4.339168548583984
1711549721398189600,6.910189453125,2.246638774871826,8.554600715637207,4.235777854919434
1711549721417147400,6.9291474609375,2.1732871532440186,8.625162124633789,4.1296234130859375
1711549721436105500,6.94810546875,2.102543592453003,8.68889331817627,4.031478404998779
1711549721455063300,6.967063232421875,2.027761697769165,8.74317455291748,3.95164155960083
1711549721474021400,6.986021484375,1.9474886655807495,8.787483215332031,3.8933041095733643
1711549721492979500,7.0049794921875,1.8642759323120117,8.821513175964355,3.856910228729248
1711549721511937500,7.0239375,1.7767958641052246,8.851165771484375,3.830176830291748
1711549721530895400,7.042895263671875,1.689048409461975,8.878230094909668,3.8071703910827637
1711549721549853400,7.061853515625,1.600050449371338,8.901426315307617,3.791415214538574
1711549721568811500,7.0808115234375,1.5163429975509644,8.915538787841797,3.7926602363586426
1711549721587769300,7.099769287109375,1.4463876485824585,8.920738220214844,3.807725667953491
1711549721606727400,7.1187275390625,1.387068748474121,8.923038482666016,3.8243699073791504
1711549721625685500,7.137685546875,1.3482168912887573,8.922541618347168,3.8393948078155518
1711549721644643600,7.1566435546875,1.339345932006836,8.917949676513672,3.8531441688537598
1711549721663601400,7.175601318359375,1.3466877937316895,8.910338401794434,3.8681628704071045
1711549721682559500,7.1945595703125,1.359215497970581,8.89958381652832,3.888486385345459
1711549721701517600,7.213517578125,1.3777830600738525,8.888145446777344,3.9080650806427
1711549721720475400,7.232475341796875,1.4005627632141113,8.877877235412598,3.923276424407959
1711549721739433500,7.25143359375,1.4251781702041626,8.865900039672852,3.9414548873901367
1711549721758391600,7.2703916015625,1.4440394639968872,8.848520278930664,3.9735159873962402
1711549721777349600,7.289349609375,1.4555554389953613,8.82483959197998,4.021683216094971
1711549721796307500,7.308307373046875,1.4696507453918457,8.794532775878906,4.082488536834717
1711549721815265500,7.327265625,1.503448486328125,8.75421142578125,4.156177043914795
1711549721834223600,7.3462236328125,1.551565170288086,8.709232330322266,4.23229455947876
1711549721853181700,7.365181640625,1.597373604774475,8.66540241241455,4.304600715637207
1711549721872139800,7.384139892578125,1.6339712142944336,8.618602752685547,4.3840861320495605
1711549721891097600,7.40309765625,1.6782251596450806,8.565044403076172,4.471460342407227
1711549721910055700,7.4220556640625,1.7518216371536255,8.507915496826172,4.551578521728516
1711549721929013800,7.441013671875,1.8456060886383057,8.4535551071167,4.615357875823975
1711549721947971800,7.459971923828125,1.9430742263793945,8.39832592010498,4.675786972045898
1711549721966929700,7.4789296875,2.0376644134521484,8.335408210754395,4.747556209564209
1711549721985887700,7.4978876953125,2.1347458362579346,8.268776893615723,4.820847034454346
1711549722004845800,7.516845703125,2.237126350402832,8.204041481018066,4.884604454040527
1711549722023804000,7.535803955078125,2.335249423980713,8.14229965209961,4.941656112670898
1711549722042761700,7.55476171875,2.41982364654541,8.084806442260742,4.995073318481445
1711549722061719800,7.5737197265625,2.480588674545288,8.033062934875488,5.048462867736816
1711549722080678000,7.592677978515625,2.528059959411621,7.985260963439941,5.100480079650879
1711549722099636000,7.611635986328125,2.5779247283935547,7.942373275756836,5.14231538772583
1711549722118594000,7.630593994140625,2.6355667114257812,7.906382083892822,5.168490409851074
1711549722137552000,7.6495517578125,2.6892619132995605,7.882560729980469,5.177210807800293
1711549722156510000,7.668510009765625,2.73225474357605,7.870617389678955,5.172866344451904
1711549722175468000,7.687468017578125,2.778330087661743,7.8616838455200195,5.161898612976074
1711549722194426000,7.706426025390625,2.8510544300079346,7.842284679412842,5.151743412017822
1711549722213384200,7.72538427734375,2.9613161087036133,7.808676242828369,5.140581130981445
1711549722232342300,7.74434228515625,3.091129779815674,7.765438556671143,5.1296467781066895
1711549722251300000,7.763300048828125,3.2070302963256836,7.720835208892822,5.125822067260742
1711549722270258200,7.782258056640625,3.287850856781006,7.683365821838379,5.130917549133301
1711549722289216300,7.80121630859375,3.347315549850464,7.648429870605469,5.144647121429443
1711549722308174300,7.82017431640625,3.390915870666504,7.616750240325928,5.163061141967773
1711549722327132400,7.83913232421875,3.413591146469116,7.593525409698486,5.182291507720947
1711549722346090500,7.858090576171875,3.4263534545898438,7.57647180557251,5.198802947998047
1711549722365048300,7.87704833984375,3.4279849529266357,7.564419746398926,5.215252876281738
1711549722384006400,7.89600634765625,3.42734956741333,7.5511698722839355,5.234835624694824
1711549722402964500,7.914964599609375,3.429215431213379,7.525371074676514,5.270641803741455
1711549722421922600,7.933922607421875,3.4291670322418213,7.486912727355957,5.325160026550293
1711549722440880600,7.952880615234375,3.435575246810913,7.4413018226623535,5.384629726409912
1711549722459838700,7.971838623046875,3.457057476043701,7.398477077484131,5.429702281951904
1711549722478796500,7.990796630859375,3.497755289077759,7.364415168762207,5.449907302856445
1711549722497755000,8.0097548828125,3.5558924674987793,7.332158088684082,5.455773830413818
1711549722516712700,8.028712646484376,3.618572473526001,7.294151782989502,5.465497016906738
1711549722535670800,8.0476708984375,3.6700756549835205,7.254875659942627,5.483401775360107
1711549722554628900,8.06662890625,3.713862657546997,7.223735332489014,5.495021343231201
1711549722573587000,8.0855869140625,3.755552291870117,7.203474998474121,5.493282794952393
1711549722592545000,8.104544921875,3.7874133586883545,7.194187164306641,5.483571529388428
1711549722611503000,8.123503173828125,3.800832748413086,7.18697452545166,5.4837446212768555
1711549722630461200,8.142461181640625,3.8083181381225586,7.174005031585693,5.49552059173584
1711549722649419000,8.1614189453125,3.8242743015289307,7.158619403839111,5.504495620727539
1711549722668377000,8.180377197265624,3.854715347290039,7.1476616859436035,5.497499942779541
1711549722687335200,8.199335205078125,3.8898770809173584,7.143832206726074,5.477672576904297
1711549722706293200,8.218293212890625,3.935046434402466,7.131402969360352,5.461582183837891
1711549722725251300,8.237251220703126,3.9814698696136475,7.111588478088379,5.453767776489258
1711549722744209400,8.25620947265625,4.029294013977051,7.0905985832214355,5.44597053527832
1711549722763167500,8.27516748046875,4.077635765075684,7.0724897384643555,5.433521747589111
1711549722782125600,8.29412548828125,4.11802339553833,7.057188034057617,5.422948837280273
1711549722801083600,8.313083740234376,4.149862766265869,7.042473316192627,5.417805194854736
1711549722820041700,8.332041748046874,4.1783342361450195,7.033091068267822,5.408098220825195
1711549722838999600,8.35099951171875,4.205859184265137,7.02931547164917,5.3916473388671875
1711549722857958000,8.3699580078125,4.222257137298584,7.028945446014404,5.379299163818359
1711549722876915700,8.388915771484376,4.219330310821533,7.038670063018799,5.368869781494141
1711549722895873800,8.407873779296875,4.201647758483887,7.059569358825684,5.355279922485352
1711549722914832000,8.426831787109375,4.180206298828125,7.085516452789307,5.33776330947876
1711549722933790000,8.4457900390625,4.156924247741699,7.110528469085693,5.322664260864258
1711549722952748000,8.464748046875,4.1356072425842285,7.130680084228516,5.312300682067871
1711549722971706000,8.4837060546875,4.116193771362305,7.148619174957275,5.3032612800598145
1711549722990664200,8.502664306640625,4.101748466491699,7.158867835998535,5.300628662109375
1711549723009622300,8.521622314453126,4.095847129821777,7.160236358642578,5.303343296051025
1711549723028580400,8.540580322265624,4.102740287780762,7.156299591064453,5.303328990936279
1711549723047538200,8.5595380859375,4.127516269683838,7.145764350891113,5.298305034637451
1711549723066496500,8.57849658203125,4.168747425079346,7.129973888397217,5.287288665771484
1711549723085454300,8.597454345703126,4.217711925506592,7.115242958068848,5.2682647705078125
1711549723104412700,8.61641259765625,4.268733501434326,7.099096298217773,5.248917102813721
1711549723123370500,8.63537060546875,4.3212809562683105,7.078433513641357,5.233802795410156
1711549723142328600,8.65432861328125,4.3711934089660645,7.060575008392334,5.216447830200195
1711549723161286700,8.67328662109375,4.407233715057373,7.050609111785889,5.1995768547058105
1711549723180244700,8.69224462890625,4.432755470275879,7.043406963348389,5.187626838684082
1711549723199202800,8.711202880859375,4.455925941467285,7.037969589233398,5.175142765045166
1711549723218161000,8.730160888671875,4.475362300872803,7.029374599456787,5.170050144195557
1711549723237119000,8.749118896484376,4.480052471160889,7.0254316329956055,5.171346187591553
1711549723256077000,8.7680771484375,4.482515335083008,7.017948150634766,5.179368019104004
1711549723275035100,8.78703515625,4.495055198669434,7.001101970672607,5.1912841796875
1711549723293993200,8.8059931640625,4.5034661293029785,6.9797563552856445,5.21269416809082
1711549723312951300,8.824951416015624,4.503298759460449,6.961829662322998,5.236756324768066
1711549723331909000,8.8439091796875,4.504238605499268,6.951955795288086,5.249050617218018
1711549723350867500,8.862867431640625,4.504627704620361,6.947498798370361,5.254615306854248
1711549723369825300,8.8818251953125,4.496550559997559,6.944671630859375,5.265259742736816
1711549723388783600,8.90078369140625,4.477909564971924,6.942531108856201,5.283936977386475
1711549723407741400,8.919741455078125,4.447384834289551,6.946570873260498,5.304366588592529
1711549723426699500,8.938699462890625,4.410065174102783,6.960806369781494,5.316849708557129
1711549723445657600,8.95765771484375,4.3768792152404785,6.97957706451416,5.319664478302002
1711549723464615700,8.97661572265625,4.346431255340576,7.001634120941162,5.315642833709717
1711549723483573800,8.99557373046875,4.3181304931640625,7.027083873748779,5.305112838745117
1711549723502531800,9.01453173828125,4.2878875732421875,7.056617259979248,5.290421485900879
1711549723521490000,9.033489990234376,4.257289409637451,7.087219715118408,5.274199962615967
1711549723540448000,9.052447998046874,4.232100009918213,7.1175856590271,5.253541469573975
1711549723559406000,9.071406005859375,4.209133625030518,7.145711898803711,5.233773708343506
1711549723578364200,9.0903642578125,4.194281578063965,7.168853759765625,5.214013576507568
1711549723597322200,9.109322265625,4.195221900939941,7.183052062988281,5.193674564361572
1711549723616280000,9.128280029296874,4.212441444396973,7.184938430786133,5.177102088928223
1711549723635238400,9.14723828125,4.242981910705566,7.175560474395752,5.165154457092285
1711549723654196200,9.1661962890625,4.283581733703613,7.154303550720215,5.161128520965576
1711549723673154600,9.185154541015624,4.338472843170166,7.122082233428955,5.159843444824219
1711549723692112400,9.2041123046875,4.400113105773926,7.078784465789795,5.167223930358887
1711549723711070500,9.223070556640625,4.464343070983887,7.02363920211792,5.187341213226318
1711549723730028500,9.242028564453125,4.53717041015625,6.954554557800293,5.21714973449707
1711549723748986600,9.260986572265624,4.61669397354126,6.877573013305664,5.249334812164307
1711549723767944700,9.27994482421875,4.677584171295166,6.811339378356934,5.28169059753418
1711549723786902800,9.29890283203125,4.7201828956604,6.755417346954346,5.315505504608154
1711549723805860900,9.31786083984375,4.76348352432251,6.717253684997559,5.325234889984131
1711549723824819000,9.33681884765625,4.795986175537109,6.704424858093262,5.312211990356445
1711549723843777000,9.355777099609375,4.813723087310791,6.702756404876709,5.298256874084473
1711549723862734800,9.37473486328125,4.81865119934082,6.702938079833984,5.293543338775635
1711549723881693000,9.39369287109375,4.817968368530273,6.705732822418213,5.29062557220459
1711549723900651000,9.412651123046874,4.821098327636719,6.714993000030518,5.276010036468506
1711549723919609000,9.431609130859375,4.8213300704956055,6.729753494262695,5.256955146789551
1711549723938567200,9.450567138671875,4.813571453094482,6.750732898712158,5.237129211425781
1711549723957525200,9.469525146484376,4.806195259094238,6.762476921081543,5.228745460510254
1711549723976483300,9.4884833984375,4.801719665527344,6.770501613616943,5.222468376159668
1711549723995441400,9.50744140625,4.810708999633789,6.772920608520508,5.211045742034912
1711549724014399500,9.5263994140625,4.828763484954834,6.7582783699035645,5.213357925415039
1711549724033357600,9.545357666015626,4.849468231201172,6.733788013458252,5.225813388824463
1711549724052315400,9.5643154296875,4.869253635406494,6.7081451416015625,5.240375995635986
1711549724071273700,9.583273681640625,4.881378173828125,6.689779758453369,5.252560615539551
1711549724090231600,9.6022314453125,4.881421089172363,6.685022354125977,5.258573532104492
1711549724109189600,9.621189697265624,4.87002420425415,6.694701194763184,5.256826400756836
1711549724128147700,9.640147705078125,4.855630397796631,6.713095664978027,5.246674060821533
1711549724147105800,9.659105712890625,4.840819358825684,6.7362213134765625,5.230693817138672
1711549724166063900,9.67806396484375,4.8298516273498535,6.757850646972656,5.212904453277588
1711549724185022000,9.69702197265625,4.820842266082764,6.776889801025391,5.196502208709717
1711549724203980000,9.71597998046875,4.816812038421631,6.795162200927734,5.176339626312256
1711549724222938000,9.734938232421875,4.822141647338867,6.806890964508057,5.1559271812438965
1711549724241896000,9.75389599609375,4.835911750793457,6.807775497436523,5.14184045791626
1711549724260854000,9.77285400390625,4.845399856567383,6.8036885261535645,5.138316631317139
1711549724279812000,9.79181201171875,4.841434955596924,6.806670188903809,5.138106346130371
1711549724298770200,9.810770263671875,4.8258514404296875,6.821037769317627,5.133711338043213
1711549724317728300,9.829728271484376,4.806155204772949,6.8320441246032715,5.137552261352539
1711549724336686300,9.848686279296874,4.777150630950928,6.838232040405273,5.156337261199951
1711549724355644400,9.86764453125,4.739403247833252,6.841413974761963,5.186858177185059
1711549724374602200,9.886602294921875,4.7041473388671875,6.846858978271484,5.211709499359131
1711549724393560300,9.905560302734376,4.684792995452881,6.845202445983887,5.23128080368042
1711549724412518400,9.924518310546874,4.672752857208252,6.8378448486328125,5.2516326904296875
1711549724431476500,9.9434765625,4.651939392089844,6.83263635635376,5.276830196380615
1711549724450434600,9.9624345703125,4.617936611175537,6.830039024353027,5.309953689575195
1711549724469392000,9.981391845703126,4.585018634796143,6.826602935791016,5.34279727935791
1711549724488350500,10.0003505859375,4.55875301361084,6.8262434005737305,5.365683555603027
1711549724507308800,10.019308837890625,4.524684429168701,6.836719512939453,5.381159782409668
1711549724526266600,10.0382666015625,4.475275993347168,6.855784893035889,5.398195266723633
1711549724545224700,10.057224609375,4.420629978179932,6.874276638031006,5.419662952423096
1711549724564182800,10.076182861328125,4.384583950042725,6.883963584899902,5.436622142791748
1711549724583140900,10.095140869140625,4.366000652313232,6.888095378875732,5.446334362030029
1711549724602099000,10.114098876953125,4.350412368774414,6.894618988037109,5.4505534172058105
1711549724621057000,10.13305712890625,4.343525409698486,6.896900177001953,5.453159332275391
1711549724640014800,10.152014892578125,4.350809097290039,6.887456893920898,5.459285259246826
1711549724658973000,10.170972900390625,4.365657806396484,6.869165897369385,5.47046422958374
1711549724677931000,10.189930908203126,4.3825578689575195,6.8466925621032715,5.485104560852051
1711549724696889000,10.20888916015625,4.404344081878662,6.822116374969482,5.498261451721191
1711549724715847200,10.22784716796875,4.4244890213012695,6.799593448638916,5.509974479675293
1711549724734805200,10.24680517578125,4.442575931549072,6.778564929962158,5.521318435668945
1711549724753763000,10.26576318359375,4.466270446777344,6.758787631988525,5.526444911956787
1711549724772721200,10.28472119140625,4.492856979370117,6.7419819831848145,5.525423049926758
1711549724791679200,10.30367919921875,4.513494491577148,6.732025623321533,5.520741939544678
1711549724810637300,10.32263720703125,4.521589279174805,6.7322001457214355,5.513901233673096
1711549724829595400,10.341595458984376,4.524048805236816,6.740516662597656,5.501710414886475
1711549724848553200,10.36055322265625,4.527421474456787,6.755610942840576,5.480379104614258
1711549724867511300,10.37951123046875,4.5314249992370605,6.77242374420166,5.4562668800354
1711549724886469400,10.398469482421875,4.535336971282959,6.786025524139404,5.4360809326171875
1711549724905427500,10.417427490234376,4.5409626960754395,6.794758319854736,5.42045259475708
1711549724924385500,10.436385498046874,4.545316696166992,6.798582077026367,5.412002086639404
1711549724943343600,10.455343505859375,4.549501895904541,6.7981181144714355,5.409069061279297
1711549724962301400,10.474301513671875,4.553410530090332,6.794339179992676,5.410527229309082
1711549724981259500,10.493259521484376,4.552093505859375,6.790279388427734,5.416727542877197
1711549725000217600,10.512217529296874,4.542129039764404,6.789071559906006,5.4265971183776855
1711549725019175700,10.53117578125,4.5269341468811035,6.787893772125244,5.440749168395996
1711549725038133500,10.550133544921875,4.5113959312438965,6.7861528396606445,5.455807209014893
1711549725057091600,10.569091552734376,4.496710777282715,6.788737773895264,5.464706897735596
1711549725076049700,10.588049560546875,4.480303764343262,6.790417194366455,5.476084232330322
1711549725095007700,10.6070078125,4.456007957458496,6.790482521057129,5.495790958404541
1711549725113965800,10.6259658203125,4.421624660491943,6.795227527618408,5.517653465270996
1711549725132924000,10.644923828125,4.3785552978515625,6.802731513977051,5.542696475982666
1711549725151881700,10.6638818359375,4.337640285491943,6.808984756469727,5.567135334014893
1711549725170839800,10.68283984375,4.307992935180664,6.808522701263428,5.590671062469482
1711549725189798000,10.7017978515625,4.289228916168213,6.8093581199646,5.604065418243408
1711549725208756000,10.720755859375,4.278949737548828,6.813171863555908,5.607285976409912
1711549725227714000,10.739714111328125,4.277760028839111,6.819355487823486,5.600674629211426
1711549725246672000,10.758671875,4.281594276428223,6.826803207397461,5.588656902313232
1711549725265630000,10.7776298828125,4.2997846603393555,6.825892448425293,5.5757904052734375
1711549725284588000,10.796588134765624,4.335783958435059,6.816547393798828,5.559321880340576
1711549725303546000,10.815546142578125,4.3795952796936035,6.802865028381348,5.541711330413818
1711549725322504000,10.83450390625,4.416042804718018,6.783635139465332,5.536356449127197
1711549725341462000,10.8534619140625,4.435462951660156,6.763955593109131,5.5449042320251465
1711549725360420000,10.872420166015624,4.441336631774902,6.74662971496582,5.561286926269531
1711549725379378200,10.891378173828125,4.444788455963135,6.73366117477417,5.574230670928955
1711549725398336000,10.9103359375,4.443905353546143,6.731176853179932,5.577935695648193
1711549725417294000,10.929294189453126,4.44116735458374,6.739409446716309,5.570169448852539
1711549725436252200,10.948252197265624,4.442324638366699,6.757077217102051,5.547794818878174
1711549725455210200,10.967210205078125,4.444103240966797,6.787006855010986,5.509707450866699
1711549725474168300,10.986168212890625,4.439542293548584,6.830990314483643,5.458792209625244
1711549725493126100,11.005126220703126,4.429020404815674,6.867430210113525,5.4214911460876465
1711549725512084200,11.024084228515624,4.4214067459106445,6.890468120574951,5.398425579071045
1711549725531042300,11.043042236328125,4.419347763061523,6.905332088470459,5.381089687347412
1711549725550000400,11.06200048828125,4.419539451599121,6.9147629737854,5.368809223175049
1711549725568958200,11.080958251953126,4.424308776855469,6.921767234802246,5.355839252471924
1711549725587916300,11.099916259765624,4.435118675231934,6.92625093460083,5.34108304977417
1711549725606874400,11.118874267578125,4.450703144073486,6.9300761222839355,5.323125839233398
1711549725625832400,11.13783251953125,4.467750072479248,6.941356182098389,5.294069290161133
1711549725644790300,11.156790283203126,4.492081642150879,6.9573974609375,5.252256870269775
1711549725663748400,11.175748291015625,4.520773410797119,6.967392444610596,5.214254379272461
1711549725682706400,11.19470654296875,4.554142475128174,6.966622352600098,5.186169147491455
1711549725701664500,11.21366455078125,4.591498374938965,6.961495399475098,5.160048961639404
1711549725720622300,11.232622314453126,4.627199172973633,6.95618200302124,5.135265350341797
1711549725739580400,11.251580322265625,4.651942729949951,6.9519429206848145,5.118623733520508
1711549725758538500,11.27053857421875,4.661157131195068,6.951348781585693,5.1110405921936035
1711549725777496300,11.289496337890625,4.660855293273926,6.953875541687012,5.107879161834717
1711549725796454400,11.308454345703124,4.654157638549805,6.964475154876709,5.099539279937744
1711549725815412500,11.32741259765625,4.642544269561768,6.986295700073242,5.080240249633789
1711549725834370600,11.34637060546875,4.626094818115234,7.014298439025879,5.056604862213135
1711549725853328400,11.365328369140625,4.610657215118408,7.041669845581055,5.032605171203613
1711549725872286500,11.384286376953124,4.606475830078125,7.066712379455566,5.00123405456543
1711549725891244500,11.40324462890625,4.612982749938965,7.08289098739624,4.972265720367432
1711549725910202600,11.42220263671875,4.624551773071289,7.090571403503418,4.950525760650635
1711549725929160700,11.44116064453125,4.635655879974365,7.092685699462891,4.937093257904053
1711549725948118500,11.460118408203124,4.640460968017578,7.095637798309326,4.928330898284912
1711549725967076600,11.47907666015625,4.644402980804443,7.101047992706299,4.916810035705566
1711549725986034700,11.49803466796875,4.647250652313232,7.109888076782227,4.901320457458496
1711549726004992800,11.51699267578125,4.647160530090332,7.120896339416504,4.885397911071777
1711549726023950600,11.53595068359375,4.643311500549316,7.128715991973877,4.877647876739502
1711549726042908700,11.55490869140625,4.637119770050049,7.13106632232666,4.880102157592773
1711549726061866800,11.57386669921875,4.633072376251221,7.127673149108887,4.888896465301514
1711549726080824800,11.592824951171876,4.629253387451172,7.125893592834473,4.895103931427002
1711549726099782700,11.61178271484375,4.621640205383301,7.127106666564941,4.900529384613037
1711549726118740700,11.63074072265625,4.61461067199707,7.127378463745117,4.90675163269043
1711549726137698800,11.64969873046875,4.613753318786621,7.12618350982666,4.909294605255127
1711549726156657000,11.668656982421876,4.612689971923828,7.127869129180908,4.907845497131348
1711549726175615000,11.687614990234374,4.602038860321045,7.137307643890381,4.9041266441345215
1711549726194573000,11.706572998046875,4.580329418182373,7.150609493255615,4.9050750732421875
1711549726213531000,11.72553076171875,4.552815914154053,7.161227703094482,4.915188789367676
1711549726232489000,11.744489013671876,4.5183844566345215,7.170031547546387,4.934088706970215
1711549726251447000,11.763447021484374,4.47534704208374,7.1776347160339355,4.962179183959961
1711549726270405000,11.782405029296875,4.435388565063477,7.182656288146973,4.990708351135254
1711549726289363200,11.80136328125,4.387740135192871,7.192594051361084,5.018437385559082
1711549726308321000,11.820321044921876,4.334541320800781,7.201430320739746,5.051884651184082
1711549726327279000,11.839279052734375,4.281705379486084,7.198840618133545,5.100400924682617
1711549726346237200,11.8582373046875,4.240139484405518,7.186012268066406,5.152944087982178
1711549726365195300,11.8771953125,4.208433628082275,7.171631813049316,5.198766708374023
1711549726384153000,11.896153076171874,4.173960208892822,7.16436767578125,5.236437797546387
1711549726403111200,11.915111083984375,4.144969463348389,7.151655673980713,5.276688098907471
1711549726422069200,11.9340693359375,4.124264240264893,7.128726005554199,5.323728084564209
1711549726441027300,11.95302734375,4.105630397796631,7.104565143585205,5.370227336883545
1711549726459985400,11.9719853515625,4.083481788635254,7.092073440551758,5.403522968292236
1711549726478943500,11.990943603515625,4.055499076843262,7.090933799743652,5.426046371459961
1711549726497901300,12.0099013671875,4.029930114746094,7.088932514190674,5.447668552398682
1711549726516859400,12.028859375,4.015060901641846,7.081022262573242,5.468892574310303
1711549726535817500,12.0478173828125,4.003369331359863,7.075464725494385,5.484634876251221
1711549726554775600,12.066775634765625,3.9878602027893066,7.073061943054199,5.4990153312683105
1711549726573733600,12.085733642578125,3.9694576263427734,7.071995258331299,5.513680934906006
1711549726592691700,12.104691650390626,3.948063373565674,7.074182510375977,5.52622127532959
1711549726611649500,12.1236494140625,3.912458896636963,7.077800273895264,5.546872138977051
1711549726630607600,12.142607666015625,3.8727529048919678,7.0792741775512695,5.5727949142456055
1711549726649565700,12.161565673828125,3.836028575897217,7.073116302490234,5.6059160232543945
1711549726668523800,12.180523681640626,3.8146488666534424,7.055306911468506,5.642826080322266
1711549726687481900,12.19948193359375,3.798834800720215,7.043108940124512,5.668673992156982
1711549726706440000,12.21843994140625,3.785696029663086,7.0368146896362305,5.685256481170654
1711549726725397800,12.237397705078125,3.7737815380096436,7.026199817657471,5.706265926361084
1711549726744355800,12.25635595703125,3.7557432651519775,7.0125274658203125,5.734913349151611
1711549726763314000,12.27531396484375,3.739098310470581,6.9918928146362305,5.770873069763184
1711549726782272000,12.29427197265625,3.730973482131958,6.967587471008301,5.805424213409424
1711549726801230000,12.31322998046875,3.725273847579956,6.950139045715332,5.829947471618652
1711549726820188200,12.332188232421874,3.719148874282837,6.937239170074463,5.8491902351379395
1711549726839146000,12.35114599609375,3.7083542346954346,6.930561542510986,5.863941192626953
1711549726858104300,12.370104248046875,3.7012226581573486,6.923474311828613,5.876805782318115
1711549726877062100,12.389062255859375,3.7030420303344727,6.915635108947754,5.884884357452393
1711549726896020200,12.408020263671874,3.715930223464966,6.905075550079346,5.889157772064209
1711549726914978300,12.426978271484375,3.736870765686035,6.898631572723389,5.883456230163574
1711549726933936400,12.445936279296875,3.752885103225708,6.901605129241943,5.869760513305664
1711549726952894500,12.46489453125,3.768129587173462,6.9087371826171875,5.8515753746032715
1711549726971852500,12.4838525390625,3.785607099533081,6.9087910652160645,5.840220928192139
1711549726990810400,12.502810302734375,3.808103322982788,6.896953105926514,5.8395867347717285
1711549727009768700,12.521768798828125,3.8425991535186768,6.882442474365234,5.834108352661133
1711549727028726500,12.5407265625,3.8752729892730713,6.882272720336914,5.812654972076416
1711549727047684600,12.5596845703125,3.8949389457702637,6.8908586502075195,5.789292335510254
1711549727066642700,12.578642578125,3.915757417678833,6.89467716217041,5.770671844482422
1711549727085600800,12.597600830078125,3.9418718814849854,6.885511875152588,5.763831615447998
1711549727104558800,12.616558837890626,3.9722816944122314,6.876407146453857,5.753814697265625
1711549727123517000,12.635516845703124,4.000555992126465,6.876744747161865,5.733788013458252
1711549727142475000,12.65447509765625,4.024271011352539,6.888306617736816,5.7032341957092285
1711549727161433000,12.67343310546875,4.043153762817383,6.907841682434082,5.666127681732178
1711549727180391200,12.69239111328125,4.05584716796875,6.930102348327637,5.629757404327393
1711549727199349200,12.711349365234375,4.065778732299805,6.952278137207031,5.595144271850586
1711549727218307300,12.730307373046875,4.074775218963623,6.973119258880615,5.562572002410889
1711549727237265200,12.74926513671875,4.083158493041992,6.993716239929199,5.530472755432129
1711549727256223200,12.76822314453125,4.086459636688232,7.014815330505371,5.501234531402588
1711549727275181300,12.787181396484375,4.08249044418335,7.038206577301025,5.474241733551025
1711549727294139400,12.806139404296875,4.068884372711182,7.063940525054932,5.451176166534424
1711549727313097500,12.825097412109375,4.0472493171691895,7.08917760848999,5.434493064880371
1711549727332055600,12.8440556640625,4.023999214172363,7.114744186401367,5.418322563171387
1711549727351013600,12.863013671875,3.999793767929077,7.140738487243652,5.402027130126953
1711549727369971700,12.8819716796875,3.9729816913604736,7.169816017150879,5.383264064788818
1711549727388929800,12.9009296875,3.944525718688965,7.197960376739502,5.36660623550415
1711549727407888000,12.919887939453124,3.916238784790039,7.222164154052734,5.354792594909668
1711549727426846000,12.938845947265625,3.889101266860962,7.246347904205322,5.341883182525635
1711549727445804000,12.957803955078125,3.8612494468688965,7.271488189697266,5.327908039093018
1711549727464762000,12.97676220703125,3.8396551609039307,7.291765213012695,5.315788269042969
1711549727483720200,12.99572021484375,3.829765558242798,7.3049540519714355,5.304800987243652
1711549727502678300,13.01467822265625,3.8295555114746094,7.312188148498535,5.29497766494751
1711549727521636000,13.033635986328125,3.834679126739502,7.317311763763428,5.284181118011475
1711549727540594400,13.052594482421876,3.8350467681884766,7.326389789581299,5.271319389343262
1711549727559552300,13.07155224609375,3.830664873123169,7.335127353668213,5.26234769821167
1711549727578510600,13.090510498046875,3.827918291091919,7.341588020324707,5.2553324699401855
1711549727597468400,13.109468505859375,3.8298401832580566,7.347281455993652,5.245966911315918
1711549727616426800,13.1284267578125,3.8372597694396973,7.349091053009033,5.238003730773926
1711549727635384600,13.147384521484375,3.8474154472351074,7.355376720428467,5.221706867218018
1711549727654342700,13.1663427734375,3.8544530868530273,7.362977981567383,5.205778121948242
1711549727673300700,13.18530078125,3.857511520385742,7.365657329559326,5.19972038269043
1711549727692258800,13.2042587890625,3.8638100624084473,7.361279487609863,5.201242923736572
1711549727711217000,13.223216796875,3.8767895698547363,7.35699462890625,5.197644233703613
1711549727730175000,13.242175048828125,3.88808012008667,7.348408222198486,5.201356410980225
1711549727749133000,13.261133056640626,3.8978002071380615,7.338671684265137,5.207824230194092
1711549727768091100,13.280091064453124,3.909935474395752,7.3262434005737305,5.2162184715271
1711549727787049200,13.29904931640625,3.920490026473999,7.307461738586426,5.234610557556152
1711549727806007300,13.31800732421875,3.929537296295166,7.272782802581787,5.275960445404053
1711549727824965400,13.33696533203125,3.9411780834198,7.232903957366943,5.321899890899658
1711549727843923500,13.35592333984375,3.9559834003448486,7.209034442901611,5.343258380889893
1711549727862881500,13.374881591796875,3.9631025791168213,7.20896577835083,5.338074207305908
1711549727881839600,13.393839599609375,3.9689629077911377,7.212444305419922,5.329011917114258
1711549727900797700,13.412797607421876,3.9810943603515625,7.211703777313232,5.320957660675049
1711549727919755800,13.431755859375,4.00224494934082,7.2048869132995605,5.314321994781494
1711549727938713900,13.4507138671875,4.020516395568848,7.190918922424316,5.319448471069336
1711549727957672000,13.469671875,4.035052299499512,7.1802496910095215,5.322852611541748
1711549727976630000,13.488630126953124,4.041368007659912,7.178834438323975,5.319968223571777
1711549727995588000,13.507588134765625,4.056499004364014,7.171470642089844,5.318384647369385
1711549728014546200,13.526546142578125,4.080129146575928,7.17162561416626,5.300066947937012
1711549728033504300,13.545504150390625,4.105178356170654,7.17600679397583,5.274734020233154
1711549728052462300,13.56446240234375,4.13166618347168,7.1664958000183105,5.266978740692139
1711549728071420400,13.58342041015625,4.154116153717041,7.138747692108154,5.286962985992432
1711549728090378500,13.60237841796875,4.176967620849609,7.104301452636719,5.315282344818115
1711549728109336600,13.621336669921876,4.191222667694092,7.082599639892578,5.33299446105957
1711549728128294700,13.640294677734374,4.195859432220459,7.078026294708252,5.335419178009033
1711549728147252700,13.659252685546875,4.203227996826172,7.082667350769043,5.323447227478027
1711549728166210800,13.6782109375,4.204434394836426,7.105172157287598,5.292413711547852
1711549728185169000,13.6971689453125,4.202183723449707,7.141263961791992,5.24541711807251
1711549728204127000,13.716126953125,4.201013565063477,7.170766353607178,5.20595645904541
1711549728223085000,13.7350849609375,4.2070159912109375,7.182409763336182,5.18501615524292
1711549728242043100,13.754043212890625,4.206299304962158,7.189896583557129,5.1752119064331055
1711549728261001200,13.773001220703126,4.189444541931152,7.193424701690674,5.18397331237793
1711549728279959300,13.791959228515625,4.175848007202148,7.186600208282471,5.20436954498291
1711549728298917400,13.81091748046875,4.170701026916504,7.172036170959473,5.228531837463379
1711549728317875700,13.829875732421876,4.171449184417725,7.16189432144165,5.241818428039551
1711549728336833500,13.84883349609375,4.16546106338501,7.167901992797852,5.238368034362793
1711549728355791600,13.86779150390625,4.152993679046631,7.179679870605469,5.232135772705078
1711549728374749700,13.886749755859375,4.144466876983643,7.177967548370361,5.241237163543701
1711549728393707800,13.905707763671876,4.146838665008545,7.165288925170898,5.256685256958008
1711549728412665900,13.924665771484374,4.151075839996338,7.157341957092285,5.264163494110107
1711549728431624000,13.9436240234375,4.153563499450684,7.1536865234375,5.267168998718262
1711549728450582300,13.962582275390625,4.167474269866943,7.145755290985107,5.266946315765381
1711549728469540000,13.9815400390625,4.189994812011719,7.136310577392578,5.261880874633789
1711549728488498200,14.000498291015624,4.211136817932129,7.119076251983643,5.268345355987549
1711549728507456300,14.019456298828125,4.228718280792236,7.099184036254883,5.281088829040527
1711549728526414300,14.038414306640625,4.237878322601318,7.084774494171143,5.293084621429443
1711549728545372400,14.057372314453126,4.243836402893066,7.0681304931640625,5.310534954071045
1711549728564330500,14.07633056640625,4.249589443206787,7.04583740234375,5.335500240325928
1711549728583288800,14.095288818359375,4.252839088439941,7.029621124267578,5.354267120361328
1711549728602246700,14.11424658203125,4.244091033935547,7.022047519683838,5.371120929718018
1711549728621204700,14.133204833984376,4.230766296386719,7.017927646636963,5.386992931365967
1711549728640162800,14.152162841796875,4.215788841247559,7.016826629638672,5.400153636932373
1711549728659121000,14.171120849609375,4.196573257446289,7.022537708282471,5.407691478729248
1711549728678079000,14.190078857421875,4.17263650894165,7.029455661773682,5.417217254638672
1711549728697037000,14.209037109375,4.151416301727295,7.027525901794434,5.435992240905762
1711549728715995100,14.2279951171875,4.13205623626709,7.022951126098633,5.456615924835205
1711549728734953200,14.246953125,4.112322807312012,7.021030426025391,5.4739670753479
1711549728753911300,14.265911376953126,4.098475933074951,7.014399528503418,5.49282169342041
1711549728772869400,14.284869384765624,4.091978073120117,7.008581638336182,5.50507926940918
1711549728791827500,14.303827392578125,4.09100866317749,7.000200271606445,5.516451835632324
1711549728810785500,14.32278564453125,4.102306365966797,6.982845306396484,5.530040264129639
1711549728829743600,14.34174365234375,4.115047931671143,6.965391159057617,5.5425705909729
1711549728848701700,14.36070166015625,4.129785060882568,6.94998025894165,5.550948143005371
1711549728867659800,14.37965966796875,4.141777038574219,6.936058521270752,5.559419631958008
1711549728886617900,14.398617919921875,4.144768714904785,6.9276814460754395,5.567630767822266
1711549728905576000,14.417575927734376,4.140000820159912,6.924195766448975,5.575507164001465
1711549728924534000,14.436533935546874,4.135060787200928,6.91895055770874,5.585676670074463
1711549728943492000,14.4554921875,4.1284966468811035,6.917092800140381,5.592828273773193
1711549728962450200,14.4744501953125,4.121208190917969,6.917469024658203,5.5977373123168945
1711549728981408300,14.493408203125,4.111849308013916,6.924267292022705,5.596212863922119
1711549729000366300,14.512366455078125,4.100354194641113,6.93812894821167,5.587472438812256
1711549729019324400,14.531324462890625,4.093245983123779,6.949775218963623,5.578202247619629
1711549729038282500,14.550282470703126,4.088026523590088,6.957183361053467,5.572793483734131
1711549729057240600,14.569240478515624,4.082962512969971,6.966366291046143,5.565028667449951
1711549729076198700,14.58819873046875,4.077516078948975,6.977799892425537,5.554687976837158
1711549729095156700,14.60715673828125,4.076061248779297,6.989744663238525,5.540720462799072
1711549729114114600,14.626114501953126,4.077345848083496,7.0038676261901855,5.521908760070801
1711549729133073000,14.645072998046874,4.080578327178955,7.019280910491943,5.499905586242676
1711549729152030700,14.66403076171875,4.085612773895264,7.038854122161865,5.471078395843506
1711549729170988800,14.68298876953125,4.091290473937988,7.05628776550293,5.444310665130615
1711549729189947000,14.70194677734375,4.1053948402404785,7.065968036651611,5.421090126037598
1711549729208905000,14.720905029296874,4.1181769371032715,7.075516700744629,5.398894309997559
1711549729227863000,14.739863037109375,4.103399753570557,7.102165699005127,5.375102996826172
1711549729246821000,14.758821044921875,4.091331481933594,7.123849868774414,5.35557222366333
1711549729265779200,14.777779296875,4.085503101348877,7.137594699859619,5.341703414916992
1711549729284737300,14.7967373046875,4.069416046142578,7.154231071472168,5.331717491149902
1711549729303695400,14.8156953125,4.043336868286133,7.169992923736572,5.330385684967041
1711549729322653400,14.8346533203125,4.020150184631348,7.177905559539795,5.337268352508545
1711549729341611500,14.853611572265624,3.9994566440582275,7.184338092803955,5.344158172607422
1711549729360569600,14.872569580078125,3.978473424911499,7.1947550773620605,5.3458051681518555
1711549729379527700,14.891527587890625,3.959697723388672,7.2036285400390625,5.347795009613037
1711549729398485500,14.910485595703125,3.94594669342041,7.199975490570068,5.362857341766357
1711549729417443600,14.929443603515624,3.9371731281280518,7.182837963104248,5.392206192016602
1711549729436401700,14.948401611328125,3.9154140949249268,7.17110013961792,5.423582077026367
1711549729455359700,14.96735986328125,3.8794589042663574,7.170875549316406,5.4496541023254395
1711549729474317800,14.98631787109375,3.8374574184417725,7.174722671508789,5.474272727966309
1711549729493276000,15.00527587890625,3.7942686080932617,7.180112838745117,5.497262954711914
1711549729512234000,15.02423388671875,3.7586669921875,7.1791300773620605,5.52294397354126
1711549729531192000,15.043192138671875,3.731947660446167,7.174428939819336,5.547118186950684
1711549729550150100,15.062150146484376,3.703120231628418,7.1740241050720215,5.566925525665283
1711549729569108000,15.08110791015625,3.6768040657043457,7.180912017822266,5.575481414794922
1711549729588066000,15.100066162109375,3.663111925125122,7.192790985107422,5.569180011749268
1711549729607024000,15.119024169921875,3.666339159011841,7.202339172363281,5.554696559906006
1711549729625982200,15.137982177734376,3.684887409210205,7.207968235015869,5.5350871086120605
1711549729644940300,15.156940185546874,3.7099356651306152,7.208511829376221,5.517619609832764
1711549729663898400,15.1758984375,3.7347896099090576,7.20557165145874,5.504676342010498
1711549729682856200,15.194856201171875,3.7560746669769287,7.203210353851318,5.493273735046387
1711549729701814500,15.213814453125,3.762568235397339,7.2073469161987305,5.483394622802734
1711549729720772400,15.2327724609375,3.7597241401672363,7.218507766723633,5.470648765563965
1711549729739730400,15.25173046875,3.751509189605713,7.239533424377441,5.448460578918457
1711549729758688500,15.2706884765625,3.744629383087158,7.268240928649902,5.4148688316345215
1711549729777646600,15.289646484375,3.7414352893829346,7.301238536834717,5.372520446777344
1711549729796604700,15.308604736328125,3.7427210807800293,7.333804607391357,5.327075958251953
1711549729815562800,15.327562744140625,3.748438596725464,7.3632121086120605,5.28230094909668
1711549729834520600,15.3465205078125,3.7586474418640137,7.3902130126953125,5.237147331237793
1711549729853478700,15.365478759765624,3.7754483222961426,7.411789417266846,5.194396495819092
1711549729872436700,15.384436767578125,3.7992801666259766,7.421736717224121,5.162719249725342
1711549729891394800,15.403394775390625,3.8279452323913574,7.421240329742432,5.142218112945557
1711549729910353000,15.422352783203126,3.860569477081299,7.413083076477051,5.129580020904541
1711549729929311000,15.44131103515625,3.8921515941619873,7.402256488800049,5.12134313583374
1711549729948268800,15.460268798828125,3.9240243434906006,7.393887519836426,5.109095573425293
1711549729967227000,15.479226806640625,3.9520277976989746,7.390517711639404,5.092357158660889
1711549729986185000,15.49818505859375,3.972705364227295,7.389523506164551,5.077690601348877
1711549730005143000,15.51714306640625,3.9844489097595215,7.388859748840332,5.069447040557861
1711549730024101000,15.53610107421875,3.9797523021698,7.389527320861816,5.072163105010986
1711549730043059200,15.55505908203125,3.965877056121826,7.391073226928711,5.080770969390869
1711549730062017000,15.57401708984375,3.9455859661102295,7.394749641418457,5.091209411621094
1711549730080975000,15.59297509765625,3.931718349456787,7.393425464630127,5.103845119476318
1711549730099933200,15.61193310546875,3.933978796005249,7.380197525024414,5.121218681335449
1711549730118891300,15.630891357421875,3.9412806034088135,7.362044811248779,5.141690254211426
1711549730137849300,15.649849365234376,3.9452977180480957,7.350045680999756,5.155758380889893
1711549730156807400,15.668807373046874,3.958138942718506,7.340856075286865,5.159006595611572
1711549730175765500,15.687765625,3.9781405925750732,7.333569526672363,5.153982162475586
1711549730194723300,15.706723388671875,3.9899775981903076,7.335472106933594,5.142111778259277
1711549730213681400,15.725681396484376,3.9728026390075684,7.357422828674316,5.124017715454102
1711549730232639500,15.744639404296874,3.9429259300231934,7.38197135925293,5.111772060394287
1711549730251597600,15.76359765625,3.9141530990600586,7.401281833648682,5.105958461761475
1711549730270555400,15.782555419921875,3.8881757259368896,7.416142463684082,5.104244232177734
1711549730289513500,15.801513427734376,3.8710691928863525,7.4289398193359375,5.0986328125
1711549730308471600,15.820471435546875,3.8602981567382812,7.447303295135498,5.079977035522461
1711549730327429600,15.8394296875,3.851234197616577,7.473101615905762,5.0488739013671875
1711549730346387500,15.858387451171875,3.8510329723358154,7.49429988861084,5.017509460449219
1711549730365345500,15.877345458984376,3.867018699645996,7.506434440612793,4.9869842529296875
1711549730384303600,15.8963037109375,3.8887319564819336,7.514055252075195,4.958541393280029
1711549730403261700,15.91526171875,3.9097604751586914,7.514267921447754,4.941654682159424
1711549730422219800,15.9342197265625,3.9360251426696777,7.5077128410339355,4.9307541847229
1711549730441177600,15.953177490234374,3.956587791442871,7.499162673950195,4.92730712890625
1711549730460135700,15.9721357421875,3.968114137649536,7.493829727172852,4.926151752471924
1711549730479093800,15.99109375,3.9709813594818115,7.48810338973999,4.932545185089111
1711549730498051800,16.0100517578125,3.96968936920166,7.483166217803955,4.941069602966309
1711549730517009700,16.029009765625,3.97359299659729,7.478761196136475,4.944601535797119
1711549730535967700,16.0479677734375,3.9866769313812256,7.469852924346924,4.947534561157227
1711549730554925800,16.06692578125,4.003542423248291,7.461263656616211,4.946874141693115
1711549730573884000,16.0858837890625,4.025341987609863,7.456024646759033,4.937075138092041
1711549730592841700,16.104841796875,4.049727916717529,7.451693534851074,4.9236531257629395
1711549730611799800,16.1237998046875,4.0758256912231445,7.439931869506836,4.91990327835083
1711549730630758000,16.1427578125,4.1021552085876465,7.422416687011719,4.924474239349365
1711549730649716000,16.161716064453124,4.127023696899414,7.402185916900635,4.934136867523193
1711549730668674000,16.180674072265624,4.146611213684082,7.381833553314209,4.948184490203857
1711549730687632000,16.1996318359375,4.152643203735352,7.36879825592041,4.962536334991455
1711549730706590000,16.21858984375,4.143013954162598,7.36221981048584,4.9803147315979
1711549730725548000,16.237548095703126,4.1269731521606445,7.35624361038208,5.002415657043457
1711549730744506000,16.256506103515626,4.109721660614014,7.348361968994141,5.028136253356934
1711549730763464000,16.2754638671875,4.089999675750732,7.341883659362793,5.053616523742676
1711549730782422000,16.294422119140624,4.062732696533203,7.341495037078857,5.076125144958496
1711549730801380000,16.313380126953124,4.035579681396484,7.343967914581299,5.094173908233643
1711549730820338200,16.332338134765624,4.0090227127075195,7.345415115356445,5.11302375793457
1711549730839296000,16.3512958984375,3.986738920211792,7.346112251281738,5.129419803619385
1711549730858254000,16.370254150390625,3.9723684787750244,7.33612585067749,5.154797554016113
1711549730877212200,16.389212158203126,3.9573235511779785,7.321008682250977,5.1877546310424805
1711549730896170200,16.408170166015626,3.9452059268951416,7.30387544631958,5.221028804779053
1711549730915128300,16.42712841796875,3.9398720264434814,7.285380840301514,5.250810146331787
1711549730934086100,16.446086181640624,3.9390487670898438,7.275164604187012,5.2655744552612305
1711549730953044200,16.465044189453124,3.9319849014282227,7.2705559730529785,5.277204990386963
1711549730972002300,16.484002197265625,3.9235939979553223,7.26846981048584,5.286317348480225
1711549730990960400,16.50296044921875,3.916498899459839,7.261951923370361,5.300516128540039
1711549731009918200,16.521918212890625,3.916125535964966,7.250570297241211,5.316351413726807
1711549731028876300,16.540876220703126,3.918159246444702,7.241836071014404,5.326745986938477
1711549731047834400,16.55983447265625,3.9184393882751465,7.2394208908081055,5.329822063446045
1711549731066792400,16.57879248046875,3.91800856590271,7.242007732391357,5.326623439788818
1711549731085750300,16.597750244140624,3.914574146270752,7.247239112854004,5.322032928466797
1711549731104708400,16.616708251953124,3.908643960952759,7.2535858154296875,5.317741870880127
1711549731123666400,16.63566650390625,3.903728723526001,7.259495258331299,5.31328821182251
1711549731142624500,16.65462451171875,3.9044551849365234,7.26348876953125,5.307291507720947
1711549731161582300,16.673582275390626,3.9102771282196045,7.264657020568848,5.301402568817139
1711549731180540400,16.69254052734375,3.9189350605010986,7.263175964355469,5.297039031982422
1711549731199498500,16.71149853515625,3.929826021194458,7.258900165557861,5.294830799102783
1711549731218456600,16.73045654296875,3.9370458126068115,7.258148670196533,5.2904953956604
1711549731237414700,16.74941455078125,3.9362125396728516,7.258622646331787,5.290464401245117
1711549731256372500,16.76837255859375,3.9325263500213623,7.257931709289551,5.294152736663818
1711549731275330600,16.78733056640625,3.9350292682647705,7.249993324279785,5.303163528442383
1711549731294288600,16.80628857421875,3.9345710277557373,7.243308067321777,5.312629699707031
1711549731313246700,16.825246826171874,3.9224772453308105,7.242204666137695,5.323066711425781
1711549731332204500,16.84420458984375,3.9094717502593994,7.241926193237305,5.333003520965576
1711549731351162600,16.86316259765625,3.9038853645324707,7.23687219619751,5.343944072723389
1711549731370120700,16.88212060546875,3.9018702507019043,7.230203151702881,5.354433059692383
1711549731389078800,16.901078857421876,3.898768901824951,7.224011421203613,5.365039348602295
1711549731408036900,16.920036865234376,3.8985326290130615,7.2165608406066895,5.3752288818359375
1711549731426995000,16.938994873046877,3.899392604827881,7.202234745025635,5.393786430358887
1711549731445952800,16.957952880859374,3.91076922416687,7.1856794357299805,5.4076128005981445
1711549731464910800,16.976910888671874,3.9174225330352783,7.172819137573242,5.419857025146484
1711549731483869000,16.995868896484374,3.918282985687256,7.163832187652588,5.4311089515686035
1711549731502827000,17.014826904296875,3.9208621978759766,7.154406547546387,5.4416632652282715
1711549731521785000,17.03378515625,3.9253103733062744,7.146810531616211,5.448432445526123
1711549731540743000,17.052742919921876,3.927631139755249,7.142556190490723,5.452337741851807
1711549731559701000,17.071700927734376,3.9325265884399414,7.136143684387207,5.457202911376953
1711549731578659000,17.0906591796875,3.935218572616577,7.132692337036133,5.459774971008301
1711549731597617200,17.1096171875,3.934008836746216,7.1342549324035645,5.458606243133545
1711549731616575200,17.1285751953125,3.935637950897217,7.132723808288574,5.459433078765869
1711549731635533300,17.147533203125,3.944326877593994,7.129030704498291,5.457984924316406
1711549731654491100,17.1664912109375,3.955463409423828,7.125917911529541,5.453988075256348
1711549731673449200,17.18544921875,3.9610249996185303,7.124998092651367,5.451153755187988
1711549731692407300,17.2044072265625,3.9604434967041016,7.123569488525391,5.453442096710205
1711549731711365400,17.223365478515625,3.9589145183563232,7.123721599578857,5.454353332519531
1711549731730323500,17.242323486328125,3.958669662475586,7.1247453689575195,5.453194618225098
1711549731749281500,17.261281494140626,3.957388401031494,7.127608776092529,5.450380802154541
1711549731768239400,17.2802392578125,3.9566118717193604,7.128624439239502,5.449616432189941
1711549731787197400,17.299197509765627,3.957824230194092,7.13070821762085,5.446009159088135
1711549731806155500,17.318155517578123,3.954401731491089,7.136280536651611,5.4411940574646
1711549731825113600,17.337113525390624,3.951824426651001,7.1411213874816895,5.436713695526123
1711549731844071700,17.35607177734375,3.955122232437134,7.143642902374268,5.43100118637085
1711549731863029800,17.37502978515625,3.957793951034546,7.14826774597168,5.422961711883545
1711549731881987600,17.393987548828125,3.956083059310913,7.155137062072754,5.415146350860596
1711549731900945700,17.412945556640626,3.9517698287963867,7.162043571472168,5.409161567687988
1711549731919903700,17.43190380859375,3.9495391845703125,7.167502403259277,5.403556823730469
1711549731938861800,17.45086181640625,3.949570655822754,7.171633720397949,5.398051738739014
1711549731957820000,17.46981982421875,3.9542582035064697,7.176331043243408,5.388366222381592
1711549731976778000,17.488778076171876,3.964305877685547,7.182165622711182,5.373189449310303
1711549731995735800,17.50773583984375,3.97886323928833,7.187670707702637,5.355038166046143
1711549732014694100,17.526694091796877,3.997870683670044,7.192075729370117,5.334928512573242
1711549732033652000,17.54565185546875,4.019631862640381,7.195330619812012,5.314148902893066
1711549732052610000,17.564610107421874,4.037799835205078,7.199090480804443,5.295247554779053
1711549732071568100,17.583568115234375,4.050833225250244,7.205440998077393,5.27662467956543
1711549732090526200,17.602526123046875,4.057100296020508,7.2161865234375,5.257089138031006
1711549732109484300,17.621484375,4.058829307556152,7.228902339935303,5.2382493019104
1711549732128442400,17.6404423828125,4.058313846588135,7.242194652557373,5.22025728225708
1711549732147400200,17.659400146484376,4.055783271789551,7.254649639129639,5.20490837097168
1711549732166358500,17.678358642578125,4.050414562225342,7.265295505523682,5.194228649139404
1711549732185316400,17.69731640625,4.0440826416015625,7.27476692199707,5.185899257659912
1711549732204274400,17.7162744140625,4.037137985229492,7.284662246704102,5.177412986755371
1711549732223232500,17.735232421875,4.0334649085998535,7.292478084564209,5.169266700744629
1711549732242190600,17.754190673828123,4.030966758728027,7.2957258224487305,5.16663122177124
1711549732261148700,17.773148681640624,4.034235000610352,7.293669700622559,5.166982650756836
1711549732280106800,17.792106689453124,4.040822505950928,7.2911458015441895,5.165398597717285
1711549732299064800,17.81106494140625,4.051129341125488,7.283508777618408,5.168097972869873
1711549732318022700,17.830022705078125,4.061157703399658,7.275510311126709,5.171491622924805
1711549732336980700,17.848980712890626,4.07039213180542,7.265865802764893,5.177789688110352
1711549732355938800,17.867938720703126,4.084287166595459,7.254540920257568,5.182723522186279
1711549732374897000,17.88689697265625,4.093138217926025,7.246657371520996,5.186767578125
1711549732393855000,17.90585498046875,4.100886821746826,7.239668369293213,5.190406799316406
1711549732412813000,17.92481298828125,4.111157417297363,7.232274055480957,5.19258975982666
1711549732431771100,17.943771240234376,4.125159740447998,7.223971843719482,5.193040370941162
1711549732450729200,17.962729248046877,4.144187927246094,7.215264797210693,5.1899943351745605
1711549732469687300,17.981687255859374,4.159130573272705,7.211238384246826,5.183633804321289
1711549732488645400,18.000645263671874,4.166793346405029,7.210835933685303,5.178036212921143
1711549732507603500,18.019603515625,4.170576572418213,7.207810401916504,5.179203033447266
1711549732526561500,18.0385615234375,4.174041271209717,7.203891754150391,5.181863307952881
1711549732545519400,18.057519287109375,4.177129745483398,7.201793193817139,5.182291030883789
1711549732564477400,18.0764775390625,4.179617404937744,7.202773094177246,5.1789231300354
1711549732583435500,18.095435546875,4.181970596313477,7.205611228942871,5.1730732917785645
1711549732602393600,18.1143935546875,4.1841864585876465,7.207058429718018,5.169261932373047
1711549732621351700,18.1333515625,4.18806266784668,7.206212043762207,5.167304039001465
1711549732640309800,18.152309814453126,4.193240165710449,7.205639839172363,5.163900375366211
1711549732659267800,18.171267822265627,4.196630954742432,7.207266330718994,5.158874988555908
1711549732678226000,18.190225830078123,4.201669216156006,7.206600666046143,5.155703544616699
1711549732697184000,18.20918408203125,4.208069324493408,7.204802513122559,5.152995586395264
1711549732716142000,18.22814208984375,4.214323997497559,7.203465461730957,5.14975118637085
1711549732735100200,18.24710009765625,4.2188029289245605,7.203762054443359,5.145669460296631
1711549732754058200,18.266058349609374,4.225552082061768,7.202014923095703,5.142575263977051
1711549732773016300,18.285016357421874,4.2334208488464355,7.202102184295654,5.135977745056152
1711549732791974400,18.303974365234374,4.237199306488037,7.204750061035156,5.1291422843933105
1711549732810932500,18.322932373046875,4.242525577545166,7.206143856048584,5.122776508331299
1711549732829890600,18.341890625,4.247486114501953,7.206173896789551,5.11862325668335
1711549732848848400,18.360848388671876,4.249619007110596,7.20565938949585,5.117578506469727
1711549732867806700,18.379806640625,4.250508785247803,7.206963539123535,5.115002155303955
1711549732886764500,18.3987646484375,4.252349853515625,7.2080888748168945,5.11188268661499
1711549732905723000,18.417722900390626,4.254513263702393,7.207984447479248,5.110232353210449
1711549732924680700,18.4366806640625,4.2537994384765625,7.208327293395996,5.110342502593994
1711549732943639000,18.45563916015625,4.25098991394043,7.210065841674805,5.110226154327393
1711549732962596900,18.474596923828123,4.247082710266113,7.212968826293945,5.109379768371582
1711549732981555000,18.493554931640624,4.244995594024658,7.2148003578186035,5.108527183532715
1711549733000513000,18.512512939453124,4.24092435836792,7.218613147735596,5.106522083282471
1711549733019471000,18.53147119140625,4.233875751495361,7.222268104553223,5.107202529907227
1711549733038429200,18.55042919921875,4.225048065185547,7.224697589874268,5.111076831817627
1711549733057387300,18.56938720703125,4.216300964355469,7.225816249847412,5.116714954376221
1711549733076345300,18.588345458984374,4.21129035949707,7.225752830505371,5.120929718017578
1711549733095303400,18.607303466796875,4.206505298614502,7.227952003479004,5.121758460998535
1711549733114261500,18.626261474609375,4.19932746887207,7.231910705566406,5.1220622062683105
1711549733133219600,18.645219482421876,4.190281391143799,7.2354416847229,5.124481678009033
1711549733152177700,18.664177734375,4.182501316070557,7.237451553344727,5.127998352050781
1711549733171135700,18.6831357421875,4.176240921020508,7.23925256729126,5.130557537078857
1711549733190093800,18.70209375,4.172933101654053,7.239273548126221,5.133218765258789
1711549733209052000,18.721052001953126,4.171459674835205,7.238611698150635,5.135349750518799
1711549733228010000,18.740010009765626,4.171054363250732,7.2372565269470215,5.137587070465088
1711549733246968000,18.758968017578123,4.171573638916016,7.237273693084717,5.137141227722168
1711549733265926100,18.777926025390624,4.167704105377197,7.240671157836914,5.135494709014893
1711549733284884200,18.79688427734375,4.165750980377197,7.242238521575928,5.134868621826172
1711549733303842300,18.81584228515625,4.1627092361450195,7.242105960845947,5.1375226974487305
1711549733322800400,18.83480029296875,4.157665252685547,7.242262840270996,5.141385078430176
1711549733341758500,18.853758544921874,4.152739524841309,7.243555545806885,5.143544673919678
1711549733360716500,18.872716552734374,4.148903846740723,7.246444225311279,5.142571926116943
1711549733379674600,18.891674560546875,4.146201133728027,7.251037120819092,5.138274192810059
1711549733398632400,18.910632568359375,4.141793727874756,7.256875514984131,5.133584976196289
1711549733417590800,18.9295908203125,4.13770866394043,7.261489391326904,5.130353927612305
1711549733436548600,18.948548583984376,4.139965534210205,7.26205587387085,5.12772798538208
1711549733455507000,18.9675068359375,4.145313262939453,7.2617926597595215,5.123782157897949
1711549733474464800,18.98646484375,4.149135112762451,7.263588905334473,5.118138790130615
1711549733493423000,19.005423095703126,4.1488566398620605,7.26708984375,5.113392353057861
1711549733512381000,19.024380859375,4.146197319030762,7.270181179046631,5.1111555099487305
1711549733531339000,19.043339111328127,4.144282817840576,7.271986484527588,5.110139846801758
1711549733550297000,19.062297119140624,4.14185094833374,7.273164749145508,5.110433578491211
1711549733569255200,19.081255126953124,4.136803150177002,7.274747848510742,5.112270355224609
1711549733588213200,19.100213134765625,4.131594181060791,7.277776718139648,5.112168788909912
1711549733607171300,19.11917138671875,4.127110958099365,7.281589984893799,5.110360622406006
1711549733626129400,19.13812939453125,4.123472213745117,7.283859729766846,5.110062599182129
1711549733645087500,19.15708740234375,4.119714736938477,7.285750865936279,5.110397815704346
1711549733664045600,19.176045654296875,4.117743968963623,7.286143779754639,5.111426830291748
1711549733683003600,19.195003662109375,4.116839408874512,7.28717565536499,5.110684871673584
1711549733701961700,19.213961669921876,4.119052410125732,7.2837748527526855,5.113749027252197
1711549733720919800,19.232919921875,4.1241278648376465,7.278641223907471,5.116966724395752
1711549733739878000,19.2518779296875,4.126626491546631,7.274598121643066,5.12069845199585
1711549733758836000,19.2708359375,4.130103588104248,7.272226810455322,5.1212639808654785
1711549733777794000,19.2897939453125,4.132397651672363,7.269619464874268,5.123115539550781
1711549733796752000,19.308751953125,4.134472370147705,7.267570972442627,5.12434720993042
1711549733815710000,19.3277099609375,4.13538932800293,7.267958164215088,5.123058319091797
1711549733834668000,19.34666796875,4.135243892669678,7.2671027183532715,5.124388217926025
1711549733853626000,19.365626220703124,4.1377363204956055,7.263044357299805,5.128129482269287
1711549733872584200,19.384584228515624,4.145871162414551,7.256275653839111,5.131139755249023
1711549733891542300,19.403542236328125,4.151346683502197,7.254659175872803,5.128997802734375
1711549733910500400,19.422500244140625,4.1525797843933105,7.256407737731934,5.125524997711182
1711549733929458400,19.44145849609375,4.153504371643066,7.256069183349609,5.125255584716797
1711549733948416500,19.46041650390625,4.156668663024902,7.253126621246338,5.126855373382568
1711549733967374600,19.47937451171875,4.1585469245910645,7.2499237060546875,5.1298627853393555
1711549733986332700,19.498332763671876,4.157092094421387,7.247013568878174,5.13515043258667
1711549734005290500,19.51729052734375,4.15395450592041,7.247035503387451,5.137657642364502
1711549734024248800,19.536248779296876,4.14902400970459,7.25076150894165,5.136384963989258
1711549734043206700,19.55520654296875,4.145070552825928,7.254359722137451,5.134495735168457
1711549734062164700,19.574164794921874,4.143429279327393,7.2548017501831055,5.135195732116699
1711549734081122800,19.593122802734374,4.14667272567749,7.250961780548096,5.137999057769775
1711549734100081000,19.612080810546875,4.1512346267700195,7.247940540313721,5.138579845428467
1711549734119039000,19.6310390625,4.151778697967529,7.248517990112305,5.13732385635376
1711549734137997000,19.6499970703125,4.149210453033447,7.24983024597168,5.137547969818115
1711549734156955100,19.668955078125,4.149452209472656,7.248223304748535,5.139620780944824
1711549734175913000,19.687912841796877,4.155092716217041,7.241377353668213,5.144710063934326
1711549734194871300,19.706871337890625,4.1650919914245605,7.234169006347656,5.146766185760498
1711549734213829000,19.7258291015625,4.171636581420898,7.2308526039123535,5.146125316619873
1711549734232787200,19.744787109375,4.176415920257568,7.230834007263184,5.142273426055908
1711549734251745300,19.763745361328127,4.179008960723877,7.231900215148926,5.138665676116943
1711549734270703400,19.782703369140624,4.182859420776367,7.230702877044678,5.137217044830322
1711549734289661400,19.801661376953124,4.18861198425293,7.2296366691589355,5.134029865264893
1711549734308619500,19.82061962890625,4.1901679039001465,7.2313385009765625,5.1303629875183105
1711549734327577300,19.839577392578125,4.188874244689941,7.233896732330322,5.127811431884766
1711549734346535700,19.85853564453125,4.188753604888916,7.234982967376709,5.126380443572998
1711549734365493500,19.877493408203126,4.19103479385376,7.234333515167236,5.125429630279541
1711549734384451600,19.89645166015625,4.192168712615967,7.236231803894043,5.121821403503418
1711549734403409700,19.91540966796875,4.187732219696045,7.240896224975586,5.1188578605651855
1711549734422367700,19.93436767578125,4.1827712059021,7.244068622589111,5.118426322937012
1711549734441325800,19.953325927734376,4.178330898284912,7.246024131774902,5.119284152984619
1711549734460284000,19.972283935546876,4.173798084259033,7.247959613800049,5.120241641998291
1711549734479241700,19.99124169921875,4.16807746887207,7.25193452835083,5.119274139404297
1711549734498199800,20.01019970703125,4.16316032409668,7.255215644836426,5.118626594543457
1711549734517158000,20.029157958984374,4.158351421356201,7.258239269256592,5.1182475090026855
1711549734536116000,20.048115966796875,4.155882358551025,7.259832382202148,5.117992877960205
1711549734555074000,20.067073974609375,4.1549859046936035,7.261399269104004,5.116497993469238
1711549734574032100,20.0860322265625,4.150285720825195,7.263704776763916,5.11704158782959
1711549734592990000,20.104989990234376,4.14326286315918,7.265359878540039,5.120381832122803
1711549734611948300,20.1239482421875,4.1385273933410645,7.26378870010376,5.126437664031982
1711549734630906000,20.142906005859373,4.1362080574035645,7.262331962585449,5.130370616912842
1711549734649864200,20.1618642578125,4.134006500244141,7.261662483215332,5.133091449737549
1711549734668822300,20.180822265625,4.133688926696777,7.259746074676514,5.136057376861572
1711549734687780400,20.1997802734375,4.134143352508545,7.260621070861816,5.13445520401001
1711549734706738200,20.21873828125,4.13510274887085,7.263182163238525,5.130058288574219
1711549734725696300,20.2376962890625,4.134706497192383,7.265767574310303,5.126715660095215
1711549734744654300,20.256654296875,4.133596897125244,7.268967628479004,5.123073101043701
1711549734763612400,20.2756123046875,4.13195276260376,7.271648406982422,5.120593547821045
1711549734782570500,20.294570556640625,4.131480693817139,7.272331237792969,5.1200056076049805
1711549734801528600,20.313528564453126,4.133426189422607,7.271255970001221,5.119961261749268
1711549734820486400,20.332486328125,4.139181613922119,7.2696967124938965,5.117525100708008
1711549734839444500,20.351444580078127,4.14814567565918,7.267117500305176,5.1139302253723145
1711549734858402600,20.370402587890624,4.156610488891602,7.265579700469971,5.10923957824707
1711549734877360600,20.389360595703124,4.163347244262695,7.264627933502197,5.105104923248291
1711549734896318700,20.408318603515625,4.172242641448975,7.260862827301025,5.1031999588012695
1711549734915276500,20.427276611328125,4.180866241455078,7.257675647735596,5.100675582885742
1711549734934234600,20.446234619140625,4.188268661499023,7.257354736328125,5.09505558013916
1711549734953192700,20.465192626953126,4.19977331161499,7.257667541503906,5.08513069152832
1711549734972150800,20.48415087890625,4.2135329246521,7.2567315101623535,5.075074195861816
1711549734991108900,20.50310888671875,4.2240824699401855,7.2566962242126465,5.066346168518066
1711549735010067000,20.52206689453125,4.230456352233887,7.254589080810547,5.064047336578369
1711549735029024800,20.541024658203124,4.233367443084717,7.252021312713623,5.0652899742126465
1711549735047982800,20.55998291015625,4.23223352432251,7.249567985534668,5.069749355316162
1711549735066941000,20.57894091796875,4.23004150390625,7.248251914978027,5.073459148406982
1711549735085899000,20.59789892578125,4.227736949920654,7.249098777770996,5.074169635772705
1711549735104856800,20.61685693359375,4.222530364990234,7.253697395324707,5.071931838989258
1711549735123815000,20.63581494140625,4.211626052856445,7.264553546905518,5.065457344055176
1711549735142773000,20.65477294921875,4.197416305541992,7.276503562927246,5.0600972175598145
1711549735161731000,20.67373095703125,4.185603618621826,7.286387920379639,5.055657386779785
1711549735180689200,20.692689208984376,4.174685955047607,7.294418811798096,5.053102493286133
1711549735199647000,20.71164697265625,4.162995338439941,7.303032398223877,5.050304889678955
1711549735218605000,20.73060498046875,4.149460792541504,7.311511516571045,5.049173355102539
1711549735237563100,20.749563232421874,4.137835502624512,7.3172760009765625,5.050364971160889
1711549735256521200,20.768521240234374,4.129227638244629,7.321877956390381,5.050740718841553
1711549735275479000,20.78747900390625,4.119863033294678,7.329441547393799,5.047414779663086
1711549735294437000,20.80643701171875,4.110161781311035,7.337585926055908,5.043489933013916
1711549735313395200,20.825395263671876,4.103582859039307,7.344429969787598,5.038884162902832
1711549735332353000,20.84435302734375,4.100308895111084,7.351385116577148,5.031399726867676
1711549735351311000,20.86331103515625,4.097058296203613,7.357632160186768,5.024913311004639
1711549735370269200,20.882269287109374,4.098748207092285,7.357508659362793,5.023714542388916
1711549735389227300,20.901227294921874,4.100967884063721,7.356496810913086,5.0233845710754395
1711549735408185000,20.92018505859375,4.098494052886963,7.358927249908447,5.021844387054443
1711549735427143200,20.93914306640625,4.09609317779541,7.361080646514893,5.020646572113037
1711549735446101200,20.958101318359375,4.096555709838867,7.361835479736328,5.019162654876709
1711549735465059300,20.977059326171876,4.098349571228027,7.360698699951172,5.019365310668945
1711549735484017200,20.99601708984375,4.097452640533447,7.3600921630859375,5.020987033843994
1711549735502975200,21.014975341796877,4.091370582580566,7.3604607582092285,5.025404453277588
1711549735521933300,21.033933349609374,4.083511829376221,7.363752365112305,5.026973247528076
1711549735540891400,21.052891357421874,4.078975200653076,7.368259429931641,5.024051189422607
1711549735559849200,21.07184912109375,4.075248718261719,7.374747276306152,5.01755428314209
1711549735578807300,21.090807373046875,4.070032596588135,7.382535457611084,5.010329723358154
1711549735597765400,21.109765380859375,4.065914154052734,7.388063430786133,5.005520343780518
1711549735616723200,21.12872314453125,4.065492153167725,7.389974594116211,5.003040790557861
1711549735635681300,21.147681396484376,4.065802097320557,7.390439987182617,5.002103328704834
1711549735654639400,21.166639404296873,4.068078517913818,7.390519618988037,5.000133991241455
1711549735673597400,21.185597412109374,4.069150924682617,7.390986919403076,4.998570442199707
1711549735692555300,21.20455517578125,4.069793701171875,7.39236307144165,4.996011257171631
1711549735711513300,21.223513427734375,4.070817470550537,7.39126443862915,4.99680233001709
1711549735730471400,21.242471435546875,4.070957660675049,7.391132831573486,4.996884822845459
1711549735749429500,21.261429443359376,4.0723090171813965,7.3910064697265625,4.995969772338867
1711549735768387600,21.2803876953125,4.074111461639404,7.3911566734313965,4.994277477264404
1711549735787345400,21.299345458984376,4.077860355377197,7.3901214599609375,4.992749214172363
1711549735806303500,21.318303466796873,4.084331512451172,7.3868608474731445,4.992283821105957
1711549735825261600,21.337261474609374,4.089839935302734,7.382442474365234,4.994311809539795
1711549735844219600,21.3562197265625,4.097389221191406,7.37587833404541,4.997819900512695
1711549735863177500,21.375177490234375,4.105666160583496,7.36754035949707,5.003323078155518
1711549735882135600,21.394135498046875,4.113585472106934,7.360793113708496,5.006748199462891
1711549735901093400,21.41309326171875,4.11514949798584,7.358370780944824,5.009023189544678
1711549735920051500,21.432051513671876,4.116026878356934,7.357199192047119,5.010023593902588
1711549735939009500,21.451009521484377,4.116224765777588,7.357802391052246,5.008974075317383
1711549735957967600,21.469967529296873,4.114597320556641,7.356229782104492,5.012619495391846
1711549735976925700,21.48892578125,4.113868236541748,7.352782249450684,5.018274307250977
1711549735995883500,21.507883544921874,4.115137577056885,7.347929000854492,5.024337291717529
1711549736014841600,21.526841552734375,4.115165710449219,7.343841552734375,5.03028678894043
1711549736033799700,21.545799560546875,4.111977577209473,7.339752674102783,5.038855075836182
1711549736052757800,21.5647578125,4.106656074523926,7.3362650871276855,5.04826545715332
1711549736071715600,21.583715576171876,4.101773738861084,7.337661266326904,5.050204277038574
1711549736090673700,21.602673583984377,4.097074031829834,7.339410781860352,5.051477432250977
1711549736109631700,21.6216318359375,4.09909725189209,7.336075782775879,5.054678916931152
1711549736128589800,21.64058984375,4.101128101348877,7.329740047454834,5.0622172355651855
1711549736147547600,21.659547607421874,4.100113391876221,7.325063228607178,5.069803237915039
1711549736166505700,21.678505615234375,4.1011881828308105,7.323827743530273,5.070718765258789
1711549736185463800,21.6974638671875,4.104889869689941,7.323235034942627,5.06857967376709
1711549736204422000,21.716421875,4.108871936798096,7.3216400146484375,5.067656993865967
1711549736223380000,21.7353798828125,4.11166524887085,7.318280220031738,5.070242404937744
1711549736242337800,21.754337890625,4.115673065185547,7.315138816833496,5.071526050567627
1711549736261295900,21.7732958984375,4.11881685256958,7.314131736755371,5.070425510406494
1711549736280254000,21.79225390625,4.1229329109191895,7.3136396408081055,5.067790508270264
1711549736299212000,21.8112119140625,4.129181861877441,7.312915802001953,5.06374454498291
1711549736318169900,21.830169921875,4.133669853210449,7.312442302703857,5.060764312744141
1711549736337128000,21.8491279296875,4.137879848480225,7.313005447387695,5.0565104484558105
1711549736356086000,21.8680859375,4.143141746520996,7.315012454986572,5.04929256439209
1711549736375044000,21.887044189453125,4.150610446929932,7.316305637359619,5.04127836227417
1711549736394002200,21.906002197265625,4.156569957733154,7.316592216491699,5.035949230194092
1711549736412960300,21.924960205078126,4.158878803253174,7.317341327667236,5.032954216003418
1711549736431918000,21.94391796875,4.159700393676758,7.319730281829834,5.028799533843994
1711549736450876200,21.962876220703127,4.160338401794434,7.322068691253662,5.024865627288818
1711549736469834200,21.981834228515623,4.162221908569336,7.322044372558594,5.023341655731201
1711549736488792300,22.000792236328124,4.16337251663208,7.324021816253662,5.019503593444824
1711549736507750400,22.01975048828125,4.166428089141846,7.324674606323242,5.016014575958252
1711549736526708200,22.038708251953125,4.173092842102051,7.323622703552246,5.012008190155029
1711549736545666300,22.057666259765625,4.1786417961120605,7.322481632232666,5.009051322937012
1711549736564624400,22.076624267578126,4.182505130767822,7.321293354034424,5.00756311416626
1711549736583582500,22.09558251953125,4.189870357513428,7.317934989929199,5.006316661834717
1711549736602540500,22.11454052734375,4.20128059387207,7.312855243682861,5.004176139831543
1711549736621498600,22.13349853515625,4.210038661956787,7.30983829498291,5.001221656799316
1711549736640456400,22.15245654296875,4.214959144592285,7.306642055511475,5.001749038696289
1711549736659414500,22.17141455078125,4.215353965759277,7.304996967315674,5.003818035125732
1711549736678372600,22.19037255859375,4.20975923538208,7.306715488433838,5.006019115447998
1711549736697330700,22.20933056640625,4.198268413543701,7.305870056152344,5.016889572143555
1711549736716288500,22.22828857421875,4.182682037353516,7.304844379425049,5.031383037567139
1711549736735246800,22.247246826171875,4.160528182983398,7.307328224182129,5.0461225509643555
1711549736754204700,22.26620458984375,4.131155014038086,7.31122350692749,5.064579486846924
1711549736773162800,22.285162841796875,4.102046966552734,7.313542366027832,5.084848880767822
1711549736792120800,22.304120849609376,4.0758256912231445,7.316407680511475,5.101784706115723
1711549736811079000,22.323078857421876,4.053972244262695,7.318767070770264,5.115793228149414
1711549736830037000,22.342037109375,4.038658142089844,7.320970058441162,5.1247453689575195
1711549736848995000,22.3609951171875,4.025582790374756,7.3219380378723145,5.13364315032959
1711549736867953000,22.379952880859374,4.011741638183594,7.321303844451904,5.145369052886963
1711549736886911000,22.398910888671875,4.002542972564697,7.319421291351318,5.155200481414795
1711549736905869000,22.417869140625,3.99558687210083,7.316420555114746,5.164849281311035
1711549736924827100,22.4368271484375,3.9884486198425293,7.310238838195801,5.179098129272461
1711549736943785200,22.45578515625,3.9862518310546875,7.303674697875977,5.190040588378906
1711549736962743300,22.474743408203125,3.987294912338257,7.3000712394714355,5.19430685043335
1711549736981701000,22.493701171875,3.9874250888824463,7.299383163452148,5.195174217224121
1711549737000659200,22.5126591796875,3.9865782260894775,7.2987380027771,5.196730136871338
1711549737019617300,22.5316171875,3.986180305480957,7.302273750305176,5.192066192626953
1711549737038575400,22.550575439453127,3.978456974029541,7.314417839050293,5.18088436126709
1711549737057533400,22.569533447265623,3.9675886631011963,7.323820114135742,5.175933837890625
1711549737076491500,22.588491455078124,3.968256950378418,7.316867351531982,5.185245037078857
1711549737095449600,22.60744970703125,3.9833807945251465,7.298645973205566,5.199309349060059
1711549737114407700,22.62640771484375,4.007066249847412,7.27670431137085,5.211849689483643
1711549737133365500,22.645365478515625,4.03758430480957,7.256817817687988,5.216023921966553
1711549737152323600,22.664323486328126,4.073222637176514,7.243264198303223,5.207146644592285
1711549737171281700,22.68328173828125,4.107998847961426,7.2380852699279785,5.186988830566406
1711549737190239700,22.70223974609375,4.136786460876465,7.234323024749756,5.169328689575195
1711549737209197800,22.72119775390625,4.158477306365967,7.226912498474121,5.1622843742370605
1711549737228156000,22.740156005859376,4.17970085144043,7.213593006134033,5.1637725830078125
1711549737247114000,22.759114013671876,4.190270900726318,7.201288223266602,5.172375202178955
1711549737266072000,22.778072021484373,4.18655252456665,7.193350315093994,5.186413764953613
1711549737285030100,22.797030029296874,4.183670997619629,7.201409816741943,5.17754602432251
1711549737303988000,22.815988037109374,4.170351505279541,7.220088958740234,5.162256717681885
1711549737322946000,22.834946044921875,4.156004428863525,7.241625785827637,5.143624305725098
1711549737341904100,22.853904052734375,4.146393299102783,7.261580467224121,5.123208522796631
1711549737360862200,22.8728623046875,4.142349720001221,7.277108669281006,5.104412078857422
1711549737379820300,22.8918203125,4.1458940505981445,7.28624153137207,5.088479995727539
1711549737398778400,22.9107783203125,4.1592020988464355,7.288088798522949,5.07495641708374
1711549737417736400,22.929736328125,4.178612232208252,7.283157825469971,5.066083908081055
1711549737436694500,22.948694580078126,4.198795795440674,7.274742603302002,5.061484336853027
1711549737455652600,22.967652587890626,4.2164998054504395,7.2654314041137695,5.060139179229736
1711549737474610700,22.986610595703127,4.230613708496094,7.25810432434082,5.05887508392334
1711549737493568500,23.005568603515623,4.240940093994141,7.253909587860107,5.056245803833008
1711549737512526800,23.02452685546875,4.246408462524414,7.252559185028076,5.053590297698975
1711549737531484700,23.043484619140624,4.2461371421813965,7.2518744468688965,5.054802417755127
1711549737550442800,23.06244287109375,4.245046615600586,7.24973726272583,5.058781623840332
1711549737569400800,23.08140087890625,4.242560386657715,7.252127647399902,5.0574421882629395
1711549737588359000,23.10035888671875,4.233780860900879,7.257481098175049,5.057119846343994
1711549737607317000,23.11931689453125,4.229080677032471,7.260993957519531,5.056008815765381
1711549737626275000,23.138275146484375,4.231234550476074,7.260694980621338,5.054635047912598
1711549737645233200,23.157233154296875,4.232307434082031,7.258212089538574,5.057304859161377
1711549737664191200,23.176191162109376,4.232865333557129,7.254266262054443,5.06249475479126
1711549737683149300,23.1951494140625,4.237471103668213,7.246377468109131,5.069935321807861
1711549737702107400,23.214107421875,4.24884557723999,7.237814903259277,5.072646141052246
1711549737721065500,23.2330654296875,4.263909816741943,7.228648662567139,5.073074817657471
1711549737740023600,23.2520234375,4.276455879211426,7.221380710601807,5.072866439819336
1711549737758981600,23.270981689453127,4.283332347869873,7.213989734649658,5.077577590942383
1711549737777939700,23.289939697265623,4.2870564460754395,7.206230640411377,5.085446834564209
1711549737796897800,23.308897705078124,4.291885852813721,7.196610927581787,5.094987869262695
1711549737815855900,23.32785595703125,4.299027919769287,7.184019565582275,5.106722831726074
1711549737834813700,23.346813720703125,4.307783603668213,7.172228813171387,5.115907192230225
1711549737853771800,23.365771728515625,4.313975811004639,7.166001796722412,5.119414329528809
1711549737872729900,23.384729736328126,4.3152899742126465,7.164392471313477,5.120560169219971
1711549737891688000,23.40368798828125,4.317575931549072,7.162612438201904,5.121123313903809
1711549737910646000,23.42264599609375,4.320516109466553,7.159716606140137,5.1226935386657715
1711549737929604000,23.44160400390625,4.324339866638184,7.156518936157227,5.123934745788574
1711549737948562200,23.460562255859376,4.325287818908691,7.153923511505127,5.126758098602295
1711549737967520300,23.479520263671876,4.322669982910156,7.151534080505371,5.132296562194824
1711549737986478300,23.498478271484377,4.312936305999756,7.154537677764893,5.136298179626465
1711549738005436400,23.5174365234375,4.294578552246094,7.158864498138428,5.14564323425293
1711549738024394500,23.53639453125,4.274514198303223,7.1610260009765625,5.159323692321777
1711549738043352600,23.5553525390625,4.2598161697387695,7.1627197265625,5.169119358062744
1711549738062310700,23.574310546875,4.247893333435059,7.16948127746582,5.169557571411133
1711549738081268700,23.593268798828124,4.237363815307617,7.180694580078125,5.162631034851074
1711549738100226800,23.612226806640624,4.232409954071045,7.18950891494751,5.154422283172607
1711549738119185000,23.631184814453125,4.2320685386657715,7.19698429107666,5.14425802230835
1711549738138143000,23.65014306640625,4.242120265960693,7.1911420822143555,5.1441497802734375
1711549738157101000,23.66910107421875,4.260112285614014,7.175666809082031,5.150885105133057
1711549738176059100,23.68805908203125,4.269758701324463,7.162459850311279,5.161271095275879
1711549738195017200,23.707017333984375,4.2648701667785645,7.162254333496094,5.165596008300781
1711549738213975300,23.725975341796875,4.254373550415039,7.170814514160156,5.162373065948486
1711549738232933400,23.744933349609376,4.241797924041748,7.182651519775391,5.15626335144043
1711549738251891200,23.76389111328125,4.230772495269775,7.194981098175049,5.148126125335693
1711549738270849500,23.782849609375,4.213811874389648,7.217784404754639,5.130084037780762
1711549738289807600,23.8018076171875,4.193005561828613,7.239965915679932,5.115855693817139
1711549738308765700,23.820765625,4.180761337280273,7.257184028625488,5.101460933685303
1711549738327723500,23.8397236328125,4.183442115783691,7.270421504974365,5.080371856689453
1711549738346681900,23.858681884765623,4.198103904724121,7.277057647705078,5.05872917175293
1711549738365639700,23.8776396484375,4.222928047180176,7.271816730499268,5.04558801651001
1711549738384597800,23.89659765625,4.245998859405518,7.257091999053955,5.04742431640625
1711549738403555800,23.915555908203125,4.2645649909973145,7.234957218170166,5.063523292541504
1711549738422514000,23.934513916015625,4.287421703338623,7.206960201263428,5.084105968475342
1711549738441472000,23.953471923828126,4.318263530731201,7.18247127532959,5.0926513671875
1711549738460430000,23.97243017578125,4.3523454666137695,7.163431167602539,5.0904541015625
1711549738479388200,23.99138818359375,4.374757289886475,7.141510963439941,5.102029800415039
1711549738498346200,24.01034619140625,4.395557880401611,7.116067409515381,5.119670867919922
1711549738517304300,24.02930419921875,4.4237847328186035,7.095660209655762,5.12368106842041
1711549738536262400,24.048262451171876,4.438493728637695,7.085259914398193,5.125354290008545
1711549738555220500,24.067220458984377,4.433218955993652,7.078724384307861,5.1389312744140625
1711549738574178600,24.086178466796873,4.438570022583008,7.070796966552734,5.1452226638793945
1711549738593136600,24.10513671875,4.463345527648926,7.064431667327881,5.132517337799072
1711549738612094700,24.1240947265625,4.475834369659424,7.0623955726623535,5.1244378089904785
1711549738631052800,24.143052734375,4.4643778800964355,7.061267852783203,5.135972499847412
1711549738650011000,24.162010986328124,4.464522838592529,7.05838680267334,5.139806270599365
1711549738668969000,24.180968994140624,4.502133846282959,7.055500030517578,5.110880374908447
1711549738687927000,24.199927001953125,4.547165393829346,7.0528483390808105,5.074545383453369
1711549738706885000,24.218885009765625,4.5682878494262695,7.046814918518066,5.063943386077881
1711549738725843200,24.23784326171875,4.5793890953063965,7.0298051834106445,5.077541828155518
1711549738744801300,24.25680126953125,4.602665901184082,7.005098342895508,5.090623378753662
1711549738763759400,24.27575927734375,4.630855083465576,6.987170219421387,5.08969783782959
1711549738782717400,24.294717529296875,4.6475019454956055,6.981696605682373,5.082030773162842
1711549738801675300,24.31367529296875,4.660217761993408,6.974691390991211,5.080003261566162
1711549738820633600,24.332633544921876,4.68471622467041,6.955695629119873,5.083515644073486
1711549738839591400,24.35159130859375,4.721823692321777,6.937155246734619,5.0745086669921875
1711549738858549800,24.3705498046875,4.742954730987549,6.927163124084473,5.068449020385742
1711549738877507600,24.389507568359374,4.731436729431152,6.920541286468506,5.088222980499268
1711549738896466000,24.4084658203125,4.722233295440674,6.911506175994873,5.109009742736816
1711549738915423700,24.427423828125,4.729966163635254,6.908026695251465,5.106562614440918
1711549738934381800,24.4463818359375,4.727612495422363,6.917031764984131,5.096541404724121
1711549738953340000,24.46533984375,4.703539848327637,6.928616523742676,5.103075981140137
1711549738972298000,24.484298095703124,4.690585136413574,6.925836563110352,5.118748188018799
1711549738991256000,24.503256103515625,4.708959102630615,6.910988807678223,5.121946811676025
1711549739010214100,24.522214111328125,4.724398136138916,6.906308650970459,5.114035129547119
1711549739029172200,24.541172119140626,4.734639644622803,6.908311367034912,5.10184383392334
1711549739048130300,24.56013037109375,4.75424861907959,6.907402038574219,5.084810733795166
1711549739067088400,24.57908837890625,4.783773899078369,6.901156425476074,5.065563678741455
1711549739086046500,24.59804638671875,4.805179595947266,6.901957035064697,5.044168472290039
1711549739105004500,24.617004638671876,4.82174015045166,6.903896808624268,5.025676250457764
1711549739123962600,24.635962646484376,4.838287353515625,6.897006511688232,5.019228458404541
1711549739142920700,24.654920654296873,4.8695454597473145,6.88054895401001,5.011580944061279
1711549739161878800,24.673878662109374,4.914009094238281,6.85886287689209,4.997889041900635
1711549739180836600,24.692836669921874,4.953678607940674,6.83721923828125,4.988375663757324
1711549739199795000,24.711794921875,4.995334625244141,6.809841156005859,4.984284400939941
1711549739218752800,24.730752685546875,5.046619892120361,6.773006439208984,4.982809066772461
1711549739237711000,24.749711181640624,5.099989891052246,6.733633518218994,4.981834411621094
1711549739256669000,24.7686689453125,5.158322811126709,6.694479942321777,4.974538326263428
1711549739275627300,24.787627197265625,5.222939491271973,6.655512809753418,4.959378242492676
