time,seconds_elapsed,z,y,x
1711549714563871200,0.075871337890625,0.003512472379952669,-0.23541201651096344,0.04176788032054901
1711549714582829000,0.0948291015625,0.003512472379952669,-0.3236819803714752,0.049709122627973557
1711549714601787000,0.113786865234375,0.019700389355421066,-0.5066359639167786,0.0527634471654892
1711549714620744700,0.13274462890625,0.05757400393486023,-0.8707113862037659,0.053985174745321274
1711549714639702500,0.15170263671875,0.09086613357067108,-1.324278473854065,0.10193806141614914
1711549714658660400,0.170660400390625,0.07192932814359665,-1.742415428161621,0.2167806327342987
1711549714677618200,0.1896181640625,-0.02000582218170166,-2.1602468490600586,0.3294851779937744
1711549714696575700,0.20857568359375,-0.1104138121008873,-2.3468661308288574,0.3600284159183502
1711549714715533600,0.227533447265625,-0.22434009611606598,-2.3383140563964844,0.3756054937839508
1711549714734491400,0.246491455078125,-0.40515607595443726,-2.157803535461426,0.3820195496082306
1711549714753449200,0.26544921875,-0.503810703754425,-1.8829143047332764,0.33895358443260193
1711549714772407000,0.284406982421875,-0.6424770355224609,-1.6278783082962036,0.22533275187015533
1711549714791364900,0.30336474609375,-0.7832813858985901,-1.5325833559036255,0.08605557680130005
1711549714810322400,0.322322509765625,-0.8074105381965637,-1.676747441291809,0.020998476073145866
1711549714829280300,0.3412802734375,-0.7664825916290283,-1.6312379837036133,-0.16470441222190857
1711549714848238000,0.360238037109375,-0.8972076177597046,-1.5866448879241943,-0.25877758860588074
1711549714867196000,0.37919580078125,-0.9341649413108826,-1.7048472166061401,-0.4154644012451172
1711549714886153700,0.39815380859375,-0.9720385670661926,-1.8215223550796509,-0.6353757381439209
1711549714905111300,0.417111328125,-0.9726494550704956,-2.0954952239990234,-0.8354339599609375
1711549714924069000,0.436069091796875,-0.9445496797561646,-2.2833361625671387,-1.0345758199691772
1711549714943027000,0.45502685546875,-0.9573778510093689,-2.416199207305908,-1.236466646194458
1711549714961984800,0.47398486328125,-0.9998329281806946,-2.5597524642944336,-1.4267510175704956
1711549714980942300,0.4929423828125,-1.0187697410583496,-2.6073999404907227,-1.627725601196289
1711549714999900200,0.511900146484375,-1.057559609413147,-2.6406919956207275,-1.7978514432907104
1711549715018858000,0.53085791015625,-1.0841323137283325,-2.6156466007232666,-1.9456807374954224
1711549715037815800,0.54981591796875,-1.07558012008667,-2.635805130004883,-2.1115305423736572
1711549715056773600,0.568773681640625,-0.9793689846992493,-2.5570034980773926,-2.3604578971862793
1711549715075731200,0.587731201171875,-0.8306233882904053,-2.43452525138855,-2.518977165222168
1711549715094689000,0.60668896484375,-0.6183478832244873,-2.3694682121276855,-2.5391359329223633
1711549715113646800,0.625646728515625,-0.4127918779850006,-2.418337345123291,-2.5348596572875977
1711549715132604700,0.644604736328125,-0.23991714417934418,-2.496833324432373,-2.471329927444458
1711549715151562500,0.6635625,-0.09758564829826355,-2.5594470500946045,-2.361984968185425
1711549715170520000,0.68252001953125,0.04780016839504242,-2.546618938446045,-2.172922372817993
1711549715189478000,0.701477783203125,0.18890993297100067,-2.3719115257263184,-2.0058507919311523
1711549715208435700,0.720435791015625,0.29397866129875183,-2.0982441902160645,-1.8140393495559692
1711549715227393500,0.7393935546875,0.4140135943889618,-1.8135812282562256,-1.5565598011016846
1711549715246351400,0.758351318359375,0.5233584046363831,-1.5512146949768066,-1.2639555931091309
1711549715265309200,0.77730908203125,0.6094903349876404,-1.2751039266586304,-0.9624938368797302
1711549715284266800,0.796266845703125,0.6733257174491882,-1.1071161031723022,-0.5868119597434998
1711549715303224600,0.815224609375,0.7386882305145264,-0.9525672793388367,-0.21846051514148712
1711549715322182400,0.834182373046875,0.7982475757598877,-0.8679624795913696,0.06406444311141968
1711549715341140200,0.85314013671875,0.8590285778045654,-0.9244675040245056,0.3612501621246338
1711549715360098000,0.87209814453125,0.8859066367149353,-0.9226348996162415,0.6010146141052246
1711549715379055900,0.891055908203125,0.8410080671310425,-0.7711403965950012,0.7995456457138062
1711549715398013400,0.910013427734375,0.790611743927002,-0.48739373683929443,0.9724203944206238
1711549715416971300,0.92897119140625,0.8055779337882996,-0.19234605133533478,1.0753511190414429
1711549715435929000,0.94792919921875,0.8312342762947083,0.1427132785320282,1.195996880531311
1711549715454887000,0.966886962890625,0.7820596098899841,0.5138136148452759,1.3737585544586182
1711549715473844700,0.9858447265625,0.6965385675430298,0.7957277297973633,1.5350267887115479
1711549715492802600,1.004802490234375,0.6027708053588867,0.9631046652793884,1.619326114654541
1711549715511760100,1.023760009765625,0.512668251991272,1.0782526731491089,1.647120475769043
1711549715530718000,1.042718017578125,0.40026915073394775,1.1020764112472534,1.6162718534469604
1711549715549675800,1.06167578125,0.29886558651924133,1.0553452968597412,1.5319725275039673
1711549715568633600,1.080633544921875,0.18096868693828583,0.8461240530014038,1.3587923049926758
1711549715587591400,1.09959130859375,0.02458730712532997,0.7676279544830322,1.2561670541763306
1711549715606549200,1.11854931640625,-0.19013166427612305,0.5724566578865051,1.2167662382125854
1711549715625506800,1.1375068359375,-0.46807512640953064,0.2810741662979126,1.1061997413635254
1711549715644464600,1.156464599609375,-0.6284271478652954,0.01626427471637726,1.0585522651672363
1711549715663422500,1.17542236328125,-0.6632464528083801,-0.12759438157081604,0.8820123672485352
1711549715682380300,1.19438037109375,-0.7163916826248169,-0.05978839099407196,0.6431642770767212
1711549715701338000,1.213338134765625,-0.6815723776817322,-0.050319984555244446,0.4382191300392151
1711549715720296000,1.2322958984375,-0.6763800382614136,0.03153589367866516,0.3951531648635864
1711549715739253800,1.251253662109375,-0.6577486395835876,0.12560907006263733,0.3820195496082306
1711549715758211300,1.27021142578125,-0.6134609580039978,0.16623157262802124,0.23083053529262543
1711549715777169200,1.289169189453125,-0.5609265565872192,0.15615230798721313,-0.010155626572668552
1711549715796127000,1.308126953125,-0.5175551772117615,0.2193768173456192,-0.13110685348510742
1711549715815084800,1.327084716796875,-0.4692968726158142,0.2905425727367401,-0.16562071442604065
1711549715834042600,1.346042724609375,-0.41615164279937744,0.2248746007680893,-0.20532692968845367
1711549715853000400,1.36500048828125,-0.32452189922332764,-0.015195261687040329,-0.3061196208000183
1711549715871958300,1.383958251953125,-0.20357069373130798,-0.25129449367523193,-0.4203513264656067
1711549715890916000,1.402916015625,-0.0639880821108818,-0.4232529401779175,-0.4805215001106262
1711549715909874000,1.4218740234375,0.018784092739224434,-0.46601346135139465,-0.43898269534111023
1711549715928831700,1.440831787109375,0.12232567369937897,-0.4855611324310303,-0.43165233731269836
1711549715947789600,1.45978955078125,0.22556181252002716,-0.5264890789985657,-0.4906007647514343
1711549715966747100,1.4787470703125,0.23716825246810913,-0.4849502742290497,-0.5300015807151794
1711549715985705000,1.497705078125,0.16081015765666962,-0.37988153100013733,-0.4805215001106262
1711549716004662800,1.516662841796875,0.11835505068302155,-0.3197113573551178,-0.40110909938812256
1711549716023620600,1.53562060546875,0.1727220118045807,-0.3154352903366089,-0.3788125216960907
1711549716042578400,1.554578369140625,0.33857181668281555,-0.33253952860832214,-0.4255436658859253
1711549716061536300,1.573536376953125,0.5016726851463318,-0.20761767029762268,-0.37148213386535645
1711549716080494000,1.592494140625,0.4189005196094513,0.18119776248931885,-0.0862082913517952
1711549716099452000,1.611451904296875,0.25060728192329407,0.5034289360046387,0.20303617417812347
1711549716118409700,1.63040966796875,0.16661337018013,0.38522660732269287,0.2784779667854309
1711549716137367600,1.649367431640625,0.21945317089557648,-0.04298960790038109,0.23052509129047394
1711549716156325400,1.668325439453125,0.25152358412742615,-0.4650971591472626,0.150196373462677
1711549716175283200,1.687283203125,0.2536616027355194,-0.7069995999336243,0.01030834298580885
1711549716194241000,1.706240966796875,0.28664830327033997,-0.6434696912765503,-0.12530364096164703
1711549716213198800,1.72519873046875,0.33979353308677673,-0.4675406217575073,-0.2755763828754425
1711549716232156700,1.74415673828125,0.4234820008277893,-0.27084216475486755,-0.4392881393432617
1711549716251114500,1.763114501953125,0.49403688311576843,-0.04634936526417732,-0.5177842378616333
1711549716270072300,1.782072265625,0.503810703754425,0.18639011681079865,-0.42859798669815063
1711549716289030100,1.801030029296875,0.5059487819671631,0.256334125995636,-0.28901541233062744
1711549716307988000,1.819988037109375,0.5453495383262634,0.028176138177514076,-0.22609633207321167
1711549716326945800,1.83894580078125,0.5816959738731384,-0.30169084668159485,-0.26702427864074707
1711549716345903600,1.857903564453125,0.6116283535957336,-0.4990001618862152,-0.35559967160224915
1711549716364861400,1.876861328125,0.6354520916938782,-0.45562875270843506,-0.4878518879413605
1711549716383819300,1.8958193359375,0.6140718460083008,-0.2723693251609802,-0.6298779249191284
1711549716402777000,1.914777099609375,0.5813905596733093,-0.08697187155485153,-0.7517454624176025
1711549716421735000,1.93373486328125,0.5557342171669006,0.02542724646627903,-0.8226057887077332
1711549716440692700,1.952692626953125,0.551152765750885,0.04711294546723366,-0.8412371873855591
1711549716459650600,1.971650634765625,0.5471821427345276,0.0019089524867013097,-0.8424589037895203
1711549716478608400,1.9906083984375,0.47143489122390747,-0.12820523977279663,-0.8164971470832825
1711549716497566200,2.009566162109375,0.35873034596443176,-0.2827540338039398,-0.7502183318138123
1711549716516524000,2.02852392578125,0.2536616027355194,-0.40492698550224304,-0.6365974545478821
1711549716535481900,2.04748193359375,0.18432845175266266,-0.4681515097618103,-0.5272526741027832
1711549716554439700,2.066439697265625,0.10919208079576492,-0.4699840843677521,-0.4356229603290558
1711549716573397500,2.0853974609375,0.05482511222362518,-0.41867145895957947,-0.3840048611164093
1711549716592355600,2.10435546875,0.01908952370285988,-0.35330891609191895,-0.39622217416763306
1711549716611313400,2.1233134765625,0.004428769461810589,-0.31268641352653503,-0.4194350242614746
1711549716630271200,2.142271240234375,0.022754713892936707,-0.21525347232818604,-0.46433359384536743
1711549716649229000,2.16122900390625,0.018784092739224434,-0.08544471114873886,-0.4951822757720947
1711549716668187000,2.180186767578125,-0.011759147047996521,-0.014889828860759735,-0.5235874652862549
1711549716687144700,2.199144775390625,-0.07254019379615784,-0.017333287745714188,-0.5635991096496582
1711549716706102500,2.2181025390625,-0.13973531126976013,-0.057955797761678696,-0.5419133901596069
1711549716725060400,2.237060302734375,-0.16386447846889496,-0.03321577236056328,-0.4820486605167389
1711549716744018200,2.25601806640625,-0.14492766559123993,-0.0011453714687377214,-0.409050315618515
1711549716762976000,2.27497607421875,-0.09605848789215088,-0.014278964139521122,-0.2966512143611908
1711549716781933800,2.293933837890625,-0.0639880821108818,-0.10987929999828339,-0.12102758139371872
1711549716800891600,2.3128916015625,-0.0025961752980947495,-0.24640758335590363,0.01183550525456667
1711549716819849700,2.331849609375,0.13332124054431915,-0.3154352903366089,0.024052800610661507
1711549716838807600,2.3508076171875,0.27717989683151245,-0.1807396113872528,0.027717988938093185
1711549716857765400,2.369765380859375,0.3324631452560425,0.10911571979522705,0.10102175921201706
1711549716876723200,2.38872314453125,0.4344775676727295,0.29909467697143555,0.16394083201885223
1711549716895681000,2.407680908203125,0.471129447221756,0.44234246015548706,0.3413970470428467
1711549716914638800,2.426638916015625,0.4543306827545166,0.4304305911064148,0.47639816999435425
1711549716933596700,2.4455966796875,0.5621483325958252,0.1986074149608612,0.5011382102966309
1711549716952554800,2.4645546875,0.641866147518158,0.026343543082475662,0.5035816431045532
1711549716971512600,2.4835126953125,0.6458367705345154,-0.004505127668380737,0.47059494256973267
1711549716990470400,2.502470458984375,0.5905535221099854,0.07643445581197739,0.43913543224334717
1711549717009428200,2.52142822265625,0.46746426820755005,0.18730641901493073,0.3618610203266144
1711549717028386000,2.540385986328125,0.4027126133441925,0.21723878383636475,0.2632063627243042
1711549717047343900,2.55934375,0.4045451879501343,0.2456440031528473,0.24976733326911926
1711549717066301700,2.5783017578125,0.4592176079750061,0.2505309283733368,0.26137375831604004
1711549717085259800,2.597259765625,0.5285507440567017,0.2044106274843216,0.2726747691631317
1711549717104217300,2.61621728515625,0.5581777095794678,0.22090397775173187,0.2934441566467285
1711549717123175400,2.635175537109375,0.5535961985588074,0.26213735342025757,0.31726789474487305
1711549717142133200,2.65413330078125,0.5823068618774414,0.23098324239253998,0.27542364597320557
1711549717161091000,2.673091064453125,0.6110175251960754,0.15615230798721313,0.27542364597320557
1711549717180049200,2.692049072265625,0.6375901103019714,0.18577924370765686,0.3401753306388855
1711549717199006700,2.7110068359375,0.688902735710144,0.22853977978229523,0.3505600392818451
1711549717217964800,2.72996484375,0.6885973215103149,0.30337071418762207,0.33742642402648926
1711549717236922600,2.748922607421875,0.5896372199058533,0.34093889594078064,0.37438374757766724
1711549717255880400,2.76788037109375,0.44638943672180176,0.2590830326080322,0.43424850702285767
1711549717274838300,2.78683837890625,0.36911505460739136,0.05688678100705147,0.38354671001434326
1711549717293796000,2.805796142578125,0.29703301191329956,-0.1037706509232521,0.32337653636932373
1711549717312754200,2.824754150390625,0.16752967238426208,-0.09796743839979172,0.3044397234916687
1711549717331712000,2.8437119140625,0.043829549103975296,-0.056428633630275726,0.303523451089859
1711549717350669800,2.862669921875,0.010842849500477314,-0.10957387089729309,0.24121522903442383
1711549717369627600,2.881627685546875,0.02611446939408779,-0.18868085741996765,0.2213621288537979
1711549717388585500,2.90058544921875,0.0435241162776947,-0.17768529057502747,0.29161158204078674
1711549717407543600,2.91954345703125,0.08659008145332336,-0.13125957548618317,0.3698022663593292
1711549717426501400,2.93850146484375,0.12385283410549164,-0.06711876392364502,0.4021781086921692
1711549717445459200,2.957459228515625,0.08903354406356812,-0.010919207707047462,0.39912378787994385
1711549717464417000,2.9764169921875,0.07498364895582199,0.05933023989200592,0.3053560256958008
1711549717483374800,2.995374755859375,0.09789107739925385,0.12438733875751495,0.20028728246688843
1711549717502333000,3.0143330078125,0.07406735420227051,0.1729510873556137,0.13156500458717346
1711549717521290800,3.033290771484375,0.03436114266514778,0.24197880923748016,0.060093823820352554
1711549717540248600,3.05224853515625,0.006872228812426329,0.2926805913448334,-0.043142326176166534
1711549717559206400,3.071206298828125,-0.030695954337716103,0.3064250349998474,-0.14546217024326324
1711549717578164500,3.09016455078125,-0.09300415962934494,0.26916229724884033,-0.24625486135482788
1711549717597122300,3.109122314453125,-0.13790272176265717,0.1735619604587555,-0.3568213880062103
1711549717616080100,3.128080078125,-0.1107192412018776,0.13965895771980286,-0.46891507506370544
1711549717635038200,3.1470380859375,-0.08170316368341446,0.19738568365573883,-0.49548768997192383
1711549717653996000,3.16599609375,-0.0899498388171196,0.249920055270195,-0.5073995590209961
1711549717672953900,3.184953857421875,-0.06154462695121765,0.2450331300497055,-0.5416079759597778
1711549717691911700,3.20391162109375,-0.017256930470466614,0.18028147518634796,-0.5028180480003357
1711549717710869800,3.222869873046875,-0.021227551624178886,0.1784488707780838,-0.44173160195350647
1711549717729827600,3.24182763671875,0.0025961752980947495,0.10606139898300171,-0.4515054225921631
1711549717748785400,3.260785400390625,0.04657844081521034,0.04864010959863663,-0.4515054225921631
1711549717767743200,3.2797431640625,0.017867794260382652,0.11797326058149338,-0.43195775151252747
1711549717786701300,3.298701416015625,-0.0206166859716177,0.1219438835978508,-0.43745553493499756
1711549717805659100,3.3176591796875,-0.033139415085315704,0.0034361144062131643,-0.4411207437515259
1711549717824617000,3.336616943359375,-0.031001387163996696,-0.07383827865123749,-0.41699156165122986
1711549717843575000,3.355574951171875,-0.007788525894284248,-0.11354449391365051,-0.4457022249698639
1711549717862532900,3.374532958984375,-0.031612250953912735,-0.14714205265045166,-0.5144245028495789
1711549717881490700,3.39349072265625,-0.07742711156606674,-0.1043815165758133,-0.5584067702293396
1711549717900448500,3.412448486328125,-0.12904518842697144,-0.020693045109510422,-0.5858956575393677
1711549717919406600,3.431406494140625,-0.15317434072494507,0.029703300446271896,-0.5920043587684631
1711549717938364400,3.450364501953125,-0.16997312009334564,0.030314164236187935,-0.5495492219924927
1711549717957322200,3.469322265625,-0.1568395346403122,-0.03138317912817001,-0.5529089570045471
1711549717976280300,3.4882802734375,-0.0850629210472107,-0.08300124853849411,-0.5632936954498291
1711549717995238100,3.507238037109375,-0.09697478264570236,0.030314164236187935,-0.5040398240089417
1711549718014196000,3.526196044921875,-0.14706569910049438,0.13965895771980286,-0.4817432463169098
1711549718033154000,3.545154052734375,-0.22586725652217865,0.23373213410377502,-0.4548651874065399
1711549718052112000,3.56411181640625,-0.34956738352775574,0.25266894698143005,-0.4515054225921631
1711549718071069700,3.583069580078125,-0.5410735011100769,0.15401428937911987,-0.4395935535430908
1711549718090027800,3.60202783203125,-0.6748528480529785,0.04069886729121208,-0.43837183713912964
1711549718108985600,3.620985595703125,-0.7359393239021301,-0.04512763395905495,-0.4353175163269043
1711549718127943400,3.639943359375,-0.7869465351104736,-0.10163262486457825,-0.4508945643901825
1711549718146901500,3.658901611328125,-0.8058833479881287,-0.1352301836013794,-0.43715012073516846
1711549718165859300,3.677859375,-0.8532254099845886,-0.0035888305865228176,-0.3644571900367737
1711549718184817200,3.696817138671875,-0.9567669630050659,0.2764926850795746,-0.2505309283733368
1711549718203775000,3.71577490234375,-0.9986112117767334,0.3797288239002228,-0.12927426397800446
1711549718222733000,3.734733154296875,-0.8266527652740479,0.22182027995586395,0.0029779658652842045
1711549718241691000,3.75369091796875,-0.5175551772117615,0.22884522378444672,0.1251509189605713
1711549718260648700,3.772648681640625,-0.33307403326034546,0.11308634281158447,0.12240202724933624
1711549718279606800,3.791606689453125,-0.31841325759887695,-0.16241367161273956,0.08575014024972916
1711549718298564600,3.810564697265625,-0.27840161323547363,-0.20883940160274506,0.00511599238961935
1711549718317522700,3.829522705078125,-0.20021092891693115,0.040088001638650894,-0.06421715766191483
1711549718336480500,3.84848046875,-0.17058399319648743,0.2703840136528015,-0.07918334752321243
1711549718355438300,3.867438232421875,-0.14828743040561676,0.36598435044288635,-0.0025198173243552446
1711549718374396400,3.886396484375,-0.11407899856567383,0.3220020830631256,0.11201732605695724
1711549718393354200,3.905354248046875,-0.04046979174017906,0.2697731554508209,0.15447242558002472
1711549718412312000,3.92431201171875,-0.012370011769235134,0.22823435068130493,0.1404225379228592
1711549718431270100,3.943270263671875,-0.0386371985077858,0.10514509677886963,0.1291215419769287
1711549718450228000,3.96222802734375,-0.03283398225903511,-0.03107774630188942,0.13095413148403168
1711549718469185800,3.981185791015625,0.039248060435056686,-0.043600473552942276,0.1407279670238495
1711549718488144000,4.000143798828125,0.09178243577480316,0.04069886729121208,0.11507165431976318
1711549718507101700,4.019101806640625,0.04993819445371628,0.1534034162759781,0.1804341822862625
1711549718526059800,4.038059814453125,-0.006566796451807022,0.19036073982715607,0.226859912276268
1711549718545017600,4.057017578125,-0.0010690133785828948,0.14393500983715057,0.2641226649284363
1711549718563975400,4.075975341796875,0.06215549260377884,0.014126247726380825,0.2674824297428131
1711549718582933500,4.09493359375,0.10583232343196869,-0.10163262486457825,0.23907721042633057
1711549718601891300,4.113891357421875,0.10094540566205978,-0.1446985900402069,0.20273074507713318
1711549718620849400,4.132849365234375,0.07101303339004517,-0.0683404952287674,0.16821688413619995
1711549718639807200,4.15180712890625,0.02611446939408779,0.02390008419752121,0.15263983607292175
1711549718658765000,4.17076513671875,0.02611446939408779,0.033368486911058426,0.15416699647903442
1711549718677723100,4.18972314453125,0.1049160286784172,0.004657844081521034,0.19540037214756012
1711549718696681000,4.208680908203125,0.18035782873630524,-0.06345357745885849,0.1856265366077423
1711549718715639000,4.22763916015625,0.23075416684150696,-0.17676898837089539,0.12026400119066238
1711549718734596900,4.246596923828125,0.3565923273563385,-0.2876409590244293,0.03168861195445061
1711549718753554700,4.2655546875,0.5364919900894165,-0.35789039731025696,-0.010461059398949146
1711549718772512800,4.2845126953125,0.6394227147102356,-0.03321577236056328,0.1196531355381012
1711549718791470600,4.303470703125,0.6470585465431213,0.43226319551467896,0.5631409883499146
1711549718810428700,4.3224287109375,0.6794343590736389,0.49945831298828125,0.8868992924690247
1711549718829386500,4.341386474609375,0.706923246383667,0.4243219494819641,0.918664276599884
1711549718848344300,4.36034423828125,0.6272054314613342,0.3015381395816803,0.9449314475059509
1711549718867302400,4.379302490234375,0.5065596103668213,0.183030366897583,0.8933134078979492
1711549718886260200,4.39826025390625,0.27809619903564453,0.1521816849708557,0.9708932042121887
1711549718905218300,4.41721826171875,0.18432845175266266,0.08407026529312134,0.9553161859512329
1711549718924176100,4.436176025390625,0.19654574990272522,0.04436405375599861,0.8468876481056213
1711549718943134200,4.45513427734375,0.24113887548446655,0.106366828083992,0.8798743486404419
1711549718962092000,4.474092041015625,0.30253079533576965,0.18547381460666656,0.9327141642570496
1711549718981049900,4.4930498046875,0.301003634929657,0.1066722646355629,0.8856775760650635
1711549719000008000,4.512008056640625,0.24052800238132477,-0.055512335151433945,0.7577013969421387
1711549719018965800,4.5309658203125,0.11896591633558273,-0.18929173052310944,0.6895899772644043
1711549719037923800,4.549923828125,0.009010255336761475,-0.20731224119663239,0.6828704476356506
1711549719056881700,4.568881591796875,-0.0383317656815052,-0.14866921305656433,0.5924624800682068
1711549719075839700,4.58783984375,-0.0001527161948615685,-0.20945025980472565,0.39423686265945435
1711549719094797600,4.606797607421875,0.08903354406356812,-0.25526511669158936,0.2277761995792389
1711549719113755400,4.62575537109375,0.20967933535575867,-0.07903063297271729,0.14592032134532928
1711549719132713500,4.64471337890625,0.268627792596817,0.03825540840625763,0.15447242558002472
1711549719151671300,4.66367138671875,0.26099199056625366,0.14149154722690582,0.05734493210911751
1711549719170629400,4.68262939453125,0.162031888961792,0.23220497369766235,0.02649625949561596
1711549719189587200,4.701587158203125,0.04566214233636856,0.18639011681079865,0.04940368980169296
1711549719208545300,4.720545166015625,-0.026419902220368385,0.10697769373655319,0.12637265026569366
1711549719227503000,4.739503173828125,-0.0025961752980947495,0.01259908638894558,0.27633994817733765
1711549719246461200,4.758461181640625,0.09239330142736435,-0.09735657274723053,0.4800633490085602
1711549719265419000,4.7774189453125,0.15500694513320923,-0.19387321174144745,0.666987955570221
1711549719284376800,4.796376953125,0.11866047978401184,-0.1914297491312027,0.7638100385665894
1711549719303335000,4.8153349609375,0.060322895646095276,-0.10071633011102676,0.7833577394485474
1711549719322293000,4.83429296875,0.013286309316754341,-0.00511599238961935,0.7870228886604309
1711549719341250800,4.853250732421875,-0.03375028073787689,-0.01000291109085083,0.6617956161499023
1711549719360208600,4.872208740234375,-0.0487164668738842,-0.0319940410554409,0.5136609077453613
1711549719379166700,4.891166748046875,-0.060322895646095276,-0.08025235682725906,0.4525744318962097
1711549719398124500,4.91012451171875,-0.03130681812763214,-0.04787652567028999,0.3924042582511902
1711549719417082600,4.92908251953125,-0.005955931730568409,-0.032910339534282684,0.303523451089859
1711549719436040400,4.94804052734375,-0.05696314200758934,-0.04940368980169296,0.23113596439361572
1711549719454998500,4.96699853515625,-0.09666935354471207,-0.09644027799367905,0.1654679924249649
1711549719473956400,4.985956298828125,-0.10155627131462097,-0.09521854668855667,0.11537708342075348
1711549719492914400,5.00491455078125,-0.13454297184944153,-0.10468695312738419,0.0781143307685852
1711549719511872300,5.023872314453125,-0.17883066833019257,-0.13645191490650177,0.0322994738817215
1711549719530830000,5.042830078125,-0.21059563755989075,-0.15844304859638214,-0.013209951110184193
1711549719549788200,5.0617880859375,-0.24174973368644714,-0.14866921305656433,-0.07246383279561996
1711549719568746000,5.08074609375,-0.31719154119491577,-0.1495855152606964,-0.16226094961166382
1711549719587704000,5.0997041015625,-0.3969093859195709,-0.16180281341075897,-0.2447277009487152
1711549719606662100,5.118662109375,-0.4631882309913635,-0.15233440697193146,-0.321391224861145
1711549719625620000,5.137619873046875,-0.5099193453788757,-0.1349247545003891,-0.4350120723247528
1711549719644577800,5.156577880859375,-0.5545125007629395,-0.08025235682725906,-0.5516872406005859
1711549719663535900,5.175535888671875,-0.6299542784690857,0.025732679292559624,-0.6121628880500793
1711549719682493700,5.19449365234375,-0.7032580971717834,0.12927426397800446,-0.6680569648742676
1711549719701451800,5.21345166015625,-0.7374665141105652,0.15676318109035492,-0.7438042163848877
1711549719720409600,5.23240966796875,-0.716697096824646,0.12041672319173813,-0.8000037670135498
1711549719739367700,5.25136767578125,-0.6690496206283569,0.12530364096164703,-0.8500946760177612
1711549719758325500,5.270325439453125,-0.5844448804855347,0.2248746007680893,-0.9288962483406067
1711549719777283600,5.28928369140625,-0.490677148103714,0.3323867917060852,-0.9524145722389221
1711549719796241400,5.308241455078125,-0.476321816444397,0.6424006819725037,-0.9774600267410278
1711549719815199500,5.327199462890625,-0.4857902228832245,0.8931606411933899,-1.080085277557373
1711549719834157300,5.3461572265625,-0.3938550651073456,1.0596213340759277,-1.1045198440551758
1711549719853115400,5.365115478515625,-0.27687445282936096,1.1973713636398315,-1.1020764112472534
1711549719872073200,5.3840732421875,-0.20509785413742065,1.2160027027130127,-1.2047016620635986
1711549719891031300,5.40303125,-0.2023489624261856,1.2505165338516235,-1.3171007633209229
1711549719909989000,5.421989013671875,-0.25060728192329407,1.3091596364974976,-1.3812416791915894
1711549719928947200,5.440947265625,-0.3678933084011078,1.2358558177947998,-1.442022681236267
1711549719947905000,5.459905029296875,-0.4353938698768616,1.0464876890182495,-1.310381293296814
1711549719966863000,5.478863037109375,-0.3605629503726959,0.905377984046936,-0.9847903847694397
1711549719985821000,5.497821044921875,-0.1611155867576599,0.8091667294502258,-0.5865065455436707
1711549720004779000,5.516779052734375,0.020922118797898293,0.6790525317192078,-0.2963457703590393
1711549720023736800,5.53573681640625,0.0795651376247406,0.607581377029419,-0.2667188346385956
1711549720042694700,5.554694580078125,0.06520981341600418,0.5880337357521057,-0.29451319575309753
1711549720061652700,5.57365283203125,0.06826414167881012,0.5959749221801758,-0.3638463318347931
1711549720080610800,5.59261083984375,-0.01359174121171236,0.5675697326660156,-0.5223657488822937
1711549720099568600,5.611568603515625,0.07681624591350555,0.6317105293273926,-0.7667116522789001
1711549720118526700,5.630526611328125,0.25121814012527466,0.6457604169845581,-1.068784236907959
1711549720137484500,5.649484619140625,0.24327689409255981,0.571234941482544,-1.308854103088379
1711549720156442400,5.6684423828125,0.16936226189136505,0.48327040672302246,-1.4349976778030396
1711549720175400400,5.687400390625,0.20570871233940125,0.4102720618247986,-1.3723840713500977
1711549720194358300,5.706358154296875,0.24724751710891724,0.3690386712551117,-1.1530836820602417
1711549720213316400,5.72531640625,0.1876882016658783,0.2920697331428528,-0.9383646845817566
1711549720232274400,5.7442744140625,0.09117157012224197,0.1842520833015442,-0.8369610905647278
1711549720251232300,5.763232177734375,0.08017600327730179,0.20563235878944397,-0.7321978211402893
1711549720270190000,5.782190185546875,0.07254019379615784,0.20288346707820892,-0.5837576389312744
1711549720289148200,5.801148193359375,-0.036193739622831345,0.070631243288517,-0.5052615404129028
1711549720308106000,5.82010595703125,-0.044440411031246185,0.061162836849689484,-0.5507709383964539
1711549720327064000,5.83906396484375,-0.022754713892936707,0.07704532146453857,-0.5981130003929138
1711549720346022100,5.858022216796875,-0.09453132748603821,-0.015806125476956367,-0.6524799466133118
1711549720364980000,5.87697998046875,-0.21639885008335114,-0.1291215419769287,-0.7667116522789001
1711549720383937800,5.895937744140625,-0.2802342176437378,-0.16210824251174927,-0.9258419275283813
1711549720402896000,5.914895751953125,-0.35414886474609375,-0.12576179206371307,-0.9997565746307373
1711549720421853700,5.933853759765625,-0.47357290983200073,-0.11537708342075348,-0.9725731015205383
1711549720440811800,5.952811767578125,-0.5606211423873901,-0.1404225379228592,-0.9634101390838623
1711549720459769900,5.971769775390625,-0.6220130324363708,-0.19234605133533478,-1.014417290687561
1711549720478727700,5.990727783203125,-0.6788234710693359,-0.2570977210998535,-1.0416008234024048
1711549720497685800,6.009685791015625,-0.6864593029022217,-0.40920305252075195,-1.0104466676712036
1711549720516643600,6.0286435546875,-0.5991056561470032,-0.630641520023346,-0.9209550023078918
1711549720535601400,6.047601318359375,-0.5111411213874817,-0.816038966178894,-0.7157044410705566
1711549720554559500,6.0665595703125,-0.48365217447280884,-0.9757801294326782,-0.46860963106155396
1711549720573517600,6.085517578125,-0.5123628377914429,-1.151403784751892,-0.3183369040489197
1711549720592475400,6.104475341796875,-0.5597048401832581,-1.289764642715454,-0.26213735342025757
1711549720611433500,6.12343359375,-0.6091849207878113,-1.370398759841919,-0.20715951919555664
1711549720630391300,6.142391357421875,-0.5658134818077087,-1.3823106288909912,-0.1989128440618515
1711549720649349400,6.161349365234375,-0.5108356475830078,-1.3484076261520386,-0.2505309283733368
1711549720668307200,6.18030712890625,-0.5432115197181702,-1.3905572891235352,-0.32047492265701294
1711549720687265300,6.199265380859375,-0.5847502946853638,-1.4882956743240356,-0.353767067193985
1711549720706223000,6.21822314453125,-0.6632464528083801,-1.4999021291732788,-0.44906195998191833
1711549720725181200,6.23718115234375,-0.771980345249176,-1.418351650238037,-0.5611556768417358
1711549720744139000,6.256138916015625,-0.9592103958129883,-1.317559003829956,-0.5880337357521057
1711549720763097000,6.27509716796875,-1.1107048988342285,-1.16789710521698,-0.6344594359397888
1711549720782055200,6.29405517578125,-1.187673807144165,-0.9085850119590759,-0.7132610082626343
1711549720801013000,6.313012939453125,-1.2915208339691162,-0.7537307739257812,-0.7767909169197083
1711549720819971000,6.33197119140625,-1.4567598104476929,-0.7317396402359009,-0.7502183318138123
1711549720838929200,6.35092919921875,-1.5474731922149658,-0.7457895278930664,-0.7270054221153259
1711549720857887000,6.369886962890625,-1.605505347251892,-0.7482330203056335,-0.774652898311615
1711549720876845000,6.388844970703125,-1.726456642150879,-0.7167734503746033,-0.7887027859687805
1711549720895803000,6.407802978515625,-1.9020801782608032,-0.6187296509742737,-0.6802743077278137
1711549720914761000,6.426760986328125,-2.0349433422088623,-0.4855611324310303,-0.48510298132896423
1711549720933718800,6.44571875,-2.086561441421509,-0.4482983946800232,-0.19646938145160675
1711549720952676900,6.4646767578125,-2.1192426681518555,-0.5264890789985657,0.1300378441810608
1711549720971634700,6.483634765625,-2.1051926612854004,-0.677678108215332,0.2787834107875824
1711549720990592800,6.5025927734375,-2.106109142303467,-0.806876003742218,0.2888626754283905
1711549721009550600,6.521550537109375,-2.1192426681518555,-0.8358920812606812,0.20486877858638763
1711549721028508700,6.5405087890625,-2.0438008308410645,-0.7189114689826965,0.15233440697193146
1711549721047466800,6.559466796875,-1.8788673877716064,-0.5472584962844849,0.07414371520280838
1711549721066424600,6.578424560546875,-1.7921245098114014,-0.4177551567554474,-0.10239620506763458
1711549721085382700,6.597382568359375,-1.7792963981628418,-0.372245728969574,-0.2447277009487152
1711549721104340500,6.616340576171875,-1.7426445484161377,-0.3612501621246338,-0.2557232677936554
1711549721123298600,6.635298583984375,-1.5997021198272705,-0.4272235631942749,-0.22823435068130493
1711549721142256600,6.654256591796875,-1.3907864093780518,-0.5319868922233582,-0.15676318109035492
1711549721161214500,6.67321435546875,-1.2111921310424805,-0.5527562499046326,-0.13904809951782227
1711549721180172500,6.692172607421875,-1.0722204446792603,-0.4876991808414459,-0.10850485414266586
1711549721199130600,6.711130615234375,-0.9112575054168701,-0.4168388545513153,0.011224640533328056
1711549721218088400,6.73008837890625,-0.6861538887023926,-0.3771326541900635,0.17279838025569916
1711549721237046500,6.749046630859375,-0.5163334608078003,-0.19723296165466309,0.38324129581451416
1711549721256004600,6.768004638671875,-0.4751000702381134,-0.041157014667987823,0.5038870573043823
1711549721274962400,6.78696240234375,-0.5569559335708618,-0.050930850207805634,0.5457313060760498
1711549721293920500,6.80592041015625,-0.615293562412262,-0.15294526517391205,0.7164680361747742
1711549721312878600,6.824878662109375,-0.5627591609954834,-0.15172353386878967,0.8624647259712219
1711549721331836400,6.84383642578125,-0.5526798963546753,-0.03840812295675278,0.8261182308197021
1711549721350794500,6.86279443359375,-0.5761982202529907,0.04711294546723366,0.6908116936683655
1711549721369752600,6.881752685546875,-0.5926915407180786,0.07918334752321243,0.5887972712516785
1711549721388710400,6.90071044921875,-0.6180424690246582,0.06360629200935364,0.5335140228271484
1711549721407668500,6.91966845703125,-0.6473639607429504,0.05108356848359108,0.5246564745903015
1711549721426626300,6.938626220703125,-0.615293562412262,0.06268999725580215,0.502359926700592
1711549721445584400,6.95758447265625,-0.5300779342651367,-0.003894262947142124,0.4650971591472626
1711549721464542500,6.97654248046875,-0.434783011674881,-0.12820523977279663,0.4522690176963806
1711549721483500500,6.99550048828125,-0.31261005997657776,-0.22075125575065613,0.4119519293308258
1711549721502458400,7.014458251953125,-0.249690979719162,-0.274812787771225,0.4131736755371094
1711549721521416400,7.03341650390625,-0.22525638341903687,-0.2671769857406616,0.4076758921146393
1711549721540374500,7.05237451171875,-0.1721111536026001,-0.21311545372009277,0.441884309053421
1711549721559332400,7.071332275390625,-0.052076224237680435,-0.1141553521156311,0.46570804715156555
1711549721578290400,7.09029052734375,0.05849030241370201,-0.04512763395905495,0.4131736755371094
1711549721597248500,7.10924853515625,0.09117157012224197,0.0058795735239982605,0.3856847584247589
1711549721616206300,7.128206298828125,0.10583232343196869,0.1265253722667694,0.3603338599205017
1711549721635164400,7.147164306640625,0.12812888622283936,0.18639011681079865,0.17890702188014984
1711549721654122500,7.16612255859375,0.1204930767416954,0.06421715766191483,-0.0009926552884280682
1711549721673080600,7.18508056640625,0.12263110280036926,-0.10804671049118042,-0.09353867173194885
1711549721692038400,7.204038330078125,0.10888664424419403,-0.19509494304656982,-0.16500984132289886
1711549721710996500,7.22299658203125,0.07070759683847427,-0.16668972373008728,-0.18272492289543152
1711549721729954600,7.24195458984375,0.08750637620687485,-0.07750347256660461,-0.16134466230869293
1711549721748912600,7.26091259765625,0.15531237423419952,-0.0423787422478199,-0.12927426397800446
1711549721767870500,7.279870361328125,0.24816381931304932,-0.06986765563488007,-0.0910952091217041
1711549721786828500,7.29882861328125,0.32452189922332764,-0.07017309218645096,-0.08407026529312134
1711549721805786600,7.31778662109375,0.41676250100135803,0.013515383005142212,-0.14698933064937592
1711549721824744400,7.336744384765625,0.4598284661769867,0.06268999725580215,-0.22273656725883484
1711549721843702500,7.35570263671875,0.4503600597381592,0.08834631741046906,-0.21326816082000732
1711549721862660600,7.37466064453125,0.48853909969329834,0.05933023989200592,-0.16042836010456085
1711549721881618700,7.39361865234375,0.5557342171669006,0.04222602769732475,-0.17997603118419647
1711549721900576500,7.412576416015625,0.5566505193710327,0.1476002037525177,-0.30520331859588623
1711549721919534600,7.43153466796875,0.4751000702381134,0.21632249653339386,-0.4362338185310364
1711549721938492700,7.45049267578125,0.42623090744018555,0.18058690428733826,-0.5037343502044678
1711549721957450800,7.46945068359375,0.48762279748916626,0.09292780607938766,-0.5397753715515137
1711549721976408800,7.488408935546875,0.5071704983711243,0.0651334598660469,-0.5697077512741089
1711549721995366700,7.50736669921875,0.4705185890197754,0.1482110619544983,-0.5727620720863342
1711549722014324700,7.52632470703125,0.4430296719074249,0.20838125050067902,-0.5214494466781616
1711549722033282800,7.54528271484375,0.4378373324871063,0.2404516488313675,-0.44295331835746765
1711549722052241000,7.564240966796875,0.4085158109664917,0.17081306874752045,-0.3384954333305359
1711549722071198700,7.58319873046875,0.4072940945625305,0.1729510873556137,-0.2096029818058014
1711549722090157000,7.602156982421875,0.3779725730419159,0.26916229724884033,-0.13416117429733276
1711549722109115000,7.621114990234375,0.33307403326034546,0.42829257249832153,-0.09353867173194885
1711549722128073000,7.640072998046875,0.2533561587333679,0.49548768997192383,-0.04192059487104416
1711549722147031000,7.659031005859375,0.1617264449596405,0.44784024357795715,0.005421424750238657
1711549722165989000,7.677989013671875,0.09269873052835464,0.39652758836746216,-0.030314164236187935
1711549722184947000,7.696947021484375,0.0795651376247406,0.3577376902103424,-0.21815508604049683
1711549722203905000,7.715905029296875,0.07406735420227051,0.34552037715911865,-0.5171734094619751
1711549722222863000,7.734863037109375,0.04810560122132301,0.2923751473426819,-0.7358629703521729
1711549722241821200,7.7538212890625,0.042913250625133514,0.16714787483215332,-0.7786235213279724
1711549722260779300,7.772779296875,0.016035201027989388,-0.007864884100854397,-0.6491202116012573
1711549722279737300,7.7917373046875,0.030085090547800064,-0.07108938694000244,-0.5168679356575012
1711549722298695200,7.810695068359375,0.07254019379615784,-0.0423787422478199,-0.4001927971839905
1711549722317653200,7.8296533203125,0.09636391699314117,-0.035964664071798325,-0.24136795103549957
1711549722336611300,7.848611328125,0.09850194305181503,-0.007254019379615784,-0.12286017835140228
1711549722355569400,7.8675693359375,0.0951421856880188,-0.028328854590654373,-0.07246383279561996
1711549722374527500,7.886527587890625,0.08353576064109802,-0.08972076326608658,-0.06910407543182373
1711549722393485600,7.905485595703125,0.13790272176265717,-0.17340923845767975,-0.12621992826461792
1711549722412443400,7.924443359375,0.24633121490478516,-0.2644280791282654,-0.15554144978523254
1711549722431401500,7.9434013671875,0.3116937577724457,-0.29558220505714417,-0.21296273171901703
1711549722450359600,7.962359619140625,0.25121814012527466,-0.27664539217948914,-0.3073413372039795
1711549722469317600,7.981317626953125,0.09789107739925385,-0.2121991515159607,-0.3995819091796875
1711549722488275700,8.000275634765625,-0.011453714221715927,-0.13156500458717346,-0.4753291606903076
1711549722507233800,8.01923388671875,0.013286309316754341,-0.07903063297271729,-0.49334967136383057
1711549722526191900,8.03819189453125,0.08597921580076218,-0.08941533416509628,-0.44173160195350647
1711549722545150000,8.05714990234375,0.07101303339004517,-0.06650790572166443,-0.35621052980422974
1711549722564107800,8.076107666015625,0.01695149764418602,0.03367391973733902,-0.2819904685020447
1711549722583065900,8.09506591796875,-0.041386090219020844,0.0862082913517952,-0.19249875843524933
1711549722602024000,8.11402392578125,-0.003512472379952669,0.050778135657310486,-0.07521272450685501
1711549722620982000,8.13298193359375,0.08872810751199722,0.03733910992741585,-0.0006872228696011007
1711549722639940000,8.151940185546875,0.12996147572994232,0.06635518372058868,-0.043142326176166534
1711549722658898200,8.170898193359376,0.06368265300989151,0.12072215229272842,-0.11766783148050308
1711549722677856300,8.189856201171875,-0.05146535858511925,0.13141228258609772,-0.1430187225341797
1711549722696814300,8.208814453125,-0.03649916872382164,0.15554144978523254,-0.15981750190258026
1711549722715772200,8.227772216796875,0.05238165333867073,0.20044000446796417,-0.15554144978523254
1711549722734730500,8.24673046875,0.09147699922323227,0.2343430072069168,-0.13996438682079315
1711549722753688300,8.265688232421875,0.06246092543005943,0.25786128640174866,-0.15584687888622284
1711549722772646400,8.284646484375,0.03711003437638283,0.19249875843524933,-0.16500984132289886
1711549722791604500,8.3036044921875,0.03222311660647392,0.08895718306303024,-0.17172935605049133
1711549722810562600,8.3225625,-0.0001527161948615685,0.07002037763595581,-0.16226094961166382
1711549722829520600,8.341520751953125,-0.0487164668738842,0.1170569658279419,-0.13904809951782227
1711549722848478700,8.360478759765625,-0.049632761627435684,0.08651372790336609,-0.10972658544778824
1711549722867436800,8.379436767578126,-0.0798705667257309,-0.015500693581998348,-0.04741837829351425
1711549722886395000,8.398394775390624,-0.13912445306777954,-0.08819360285997391,0.049709122627973557
1711549722905353000,8.41735302734375,-0.16294817626476288,-0.058566659688949585,0.11751510947942734
1711549722924310800,8.436310791015625,-0.13790272176265717,-0.02893971838057041,0.15416699647903442
1711549722943269000,8.45526904296875,-0.09208786487579346,-0.03871355578303337,0.1297324001789093
1711549722962227000,8.47422705078125,-0.11896591633558273,-0.09796743839979172,0.0836121141910553
1711549722981185000,8.49318505859375,-0.09636391699314117,-0.12851068377494812,0.05123628303408623
1711549723000143000,8.51214306640625,-0.036804601550102234,-0.11995857208967209,0.00022907429956831038
1711549723019101200,8.53110107421875,-0.02672533318400383,-0.08239039033651352,-0.06238456442952156
1711549723038059300,8.550059326171874,-0.027030766010284424,-0.007864884100854397,-0.13965895771980286
1711549723057017300,8.569017333984375,-0.02672533318400383,0.05566505342721939,-0.22670719027519226
1711549723075975400,8.587975341796875,-0.060933761298656464,0.11217004805803299,-0.2645808160305023
1711549723094933500,8.60693359375,-0.06490438431501389,0.13049599528312683,-0.27404922246932983
1711549723113891600,8.6258916015625,-0.027030766010284424,0.1268308013677597,-0.28290674090385437
1711549723132849700,8.644849609375,-0.028863361105322838,0.15859577059745789,-0.2853502035140991
1711549723151807700,8.663807861328126,-0.049632761627435684,0.14332415163516998,-0.2099084109067917
1711549723170765800,8.682765869140624,-0.028863361105322838,0.09720385819673538,-0.15645773708820343
1711549723189724000,8.701723876953125,-0.05177079141139984,0.10300707072019577,-0.09537126123905182
1711549723208681700,8.720681640625,-0.006566796451807022,0.09873101860284805,-0.08437569439411163
1711549723227640000,8.73964013671875,0.012675444595515728,0.03520108386874199,-0.0031306820455938578
1711549723246598000,8.758597900390624,0.045967575162649155,0.00679587060585618,0.01824958436191082
1711549723265556000,8.777555908203125,0.08048143237829208,0.024510949850082397,-0.0703258067369461
1711549723284514000,8.79651416015625,0.10980294644832611,-0.07261654734611511,-0.131717711687088
1711549723303472000,8.81547216796875,0.09819651395082474,-0.15722131729125977,-0.10422880202531815
1711549723322430200,8.83443017578125,0.08536835014820099,-0.04909825697541237,0.0011453714687377214
1711549723341388300,8.85338818359375,0.1003345400094986,0.10392337292432785,0.06650790572166443
1711549723360346400,8.872346435546875,0.10949750989675522,0.08284853398799896,0.09552398324012756
1711549723379304400,8.891304443359376,0.09086613357067108,-0.03565923124551773,0.093691386282444
1711549723398262500,8.910262451171874,0.06826414167881012,-0.12820523977279663,0.13553562760353088
1711549723417220600,8.929220703125,0.017256930470466614,-0.14866921305656433,0.1816559135913849
1711549723436178700,8.9481787109375,-0.06368265300989151,-0.1404225379228592,0.14317142963409424
1711549723455136800,8.96713671875,-0.12446369975805283,-0.14378230273723602,0.12087486684322357
1711549723474094800,8.9860947265625,-0.16997312009334564,-0.11995857208967209,0.13339759409427643
1711549723493052700,9.005052734375,-0.1925751268863678,-0.09735657274723053,0.1495855152606964
1711549723512011000,9.024010986328125,-0.19379685819149017,-0.10102175921201706,0.1862373948097229
1711549723530968800,9.04296875,-0.2182314395904541,-0.0631481483578682,0.1550832986831665
1711549723549927000,9.061927001953125,-0.2130390852689743,-0.0732274129986763,0.13217586278915405
1711549723568885000,9.080885009765625,-0.19013166427612305,-0.050930850207805634,0.11140646785497665
1711549723587843000,9.099843017578126,-0.15897755324840546,0.00954476185142994,0.04940368980169296
1711549723606801200,9.11880126953125,-0.08597921580076218,0.08498656004667282,-0.0193185992538929
1711549723625759200,9.13775927734375,-0.03283398225903511,0.08345939964056015,-0.08223766833543777
1711549723644717300,9.15671728515625,0.02519817277789116,0.06727148592472076,-0.13538290560245514
1711549723663675400,9.17567529296875,0.0798705667257309,0.07887791097164154,-0.21815508604049683
1711549723682633500,9.194633544921874,0.1568395346403122,0.07857248187065125,-0.3018435537815094
1711549723701591600,9.213591552734375,0.18646647036075592,0.03520108386874199,-0.39133524894714355
1711549723720549600,9.232549560546875,0.17547090351581573,0.0703258067369461,-0.47929978370666504
1711549723739507500,9.251507568359376,0.19013166427612305,0.09842558950185776,-0.5080104470252991
1711549723758465800,9.2704658203125,0.20204351842403412,0.07826705276966095,-0.4496728479862213
1711549723777423600,9.289423583984375,0.1773035079240799,0.026038112118840218,-0.4001927971839905
1711549723796381700,9.308381591796875,0.10644318908452988,0.03367391973733902,-0.3415497839450836
1711549723815339800,9.32733984375,0.06673697382211685,0.08987347781658173,-0.22120940685272217
1711549723834297900,9.3462978515625,0.06551524996757507,0.13507747650146484,-0.18211406469345093
1711549723853256000,9.365255859375,0.06673697382211685,0.06207913160324097,-0.15157082676887512
1711549723872214000,9.384214111328125,0.028863361105322838,0.022678354755043983,-0.0657443255186081
1711549723891172000,9.403172119140624,0.013897174037992954,0.0907897800207138,0.03810269013047218
1711549723910130200,9.422130126953125,0.04993819445371628,0.12988512217998505,0.09705114364624023
1711549723929088300,9.441088134765625,0.07803797721862793,0.07673988491296768,0.11293362826108932
1711549723948046300,9.46004638671875,0.07559451460838318,0.014126247726380825,0.07444914430379868
1711549723967004200,9.479004150390624,0.04505127668380737,0.03581194952130318,0.11262819170951843
1711549723985962200,9.497962158203125,0.055741410702466965,0.15431971848011017,0.09613484144210815
1711549724004920300,9.51692041015625,0.09758564829826355,0.08804088830947876,-0.07154753804206848
1711549724023878400,9.53587841796875,0.08628465235233307,-0.05001455545425415,-0.2141844630241394
1711549724042836500,9.55483642578125,0.0642935186624527,-0.10682497918605804,-0.2590830326080322
1711549724061794600,9.573794677734375,0.042913250625133514,-0.11018473654985428,-0.2086866796016693
1711549724080752600,9.592752685546875,0.011148282326757908,-0.083306685090065,-0.11125374585390091
1711549724099710700,9.611710693359376,-0.018784092739224434,-0.06467530876398087,0.014889828860759735
1711549724118668800,9.630668701171874,-0.03497200831770897,0.011377356946468353,0.10041090101003647
1711549724137626600,9.649626708984375,-0.06520981341600418,0.04222602769732475,0.1508072465658188
1711549724156585000,9.6685849609375,-0.06673697382211685,0.07643445581197739,0.15752676129341125
1711549724175542800,9.687542724609376,-0.05024362727999687,0.07612902671098709,0.15202897787094116
1711549724194500900,9.7065009765625,-0.044440411031246185,0.09689842909574509,0.14133884012699127
1711549724213459000,9.725458984375,-0.05635227635502815,0.10483966767787933,0.051847148686647415
1711549724232417000,9.7444169921875,-0.0746782198548317,0.06360629200935364,-0.05871937796473503
1711549724251375000,9.763375,-0.050549060106277466,0.004657844081521034,-0.07979421317577362
1711549724270333200,9.782333251953125,-0.023976443335413933,-0.04176788032054901,-0.01870773360133171
1711549724289291000,9.801291015625,-0.039858926087617874,-0.02130390889942646,0.09491311758756638
1711549724308249300,9.820249267578125,-0.0001527161948615685,-0.015806125476956367,0.11507165431976318
1711549724327207200,9.839207275390624,0.04016435891389847,-0.10529781877994537,0.1340084671974182
1711549724346165200,9.858165283203125,0.10338886082172394,-0.19906556606292725,0.1605810821056366
1711549724365123300,9.877123291015625,0.13423752784729004,-0.13187043368816376,0.2430478185415268
1711549724384081400,9.896081298828125,0.16966769099235535,-0.013057234697043896,0.1911243200302124
1711549724403039500,9.91503955078125,0.14278964698314667,-0.0322994738817215,0.050930850207805634
1711549724421997600,9.93399755859375,0.060322895646095276,-0.18959715962409973,-0.025121813639998436
1711549724440955400,9.952955322265625,0.019700389355421066,-0.320933073759079,-0.02237292192876339
1711549724459913700,9.971913818359376,0.029474224895238876,-0.3148244321346283,0.02283107116818428
1711549724478871600,9.99087158203125,0.06123919412493706,-0.15966477990150452,0.08452841639518738
1711549724497829600,10.00982958984375,0.04230238497257233,-0.08941533416509628,0.1556941568851471
1711549724516787700,10.02878759765625,-0.016035201027989388,-0.1816559135913849,0.18898628652095795
1711549724535745800,10.047745849609376,-0.025809036567807198,-0.26564982533454895,0.2118937224149704
1711549724554704000,10.066703857421874,0.021227551624178886,-0.17463096976280212,0.19326233863830566
1711549724573662000,10.085661865234375,0.050549060106277466,-0.04298960790038109,0.12392919510602951
1711549724592619800,10.104619873046875,-0.005345067009329796,-0.0781143307685852,0.07475458085536957
1711549724611577900,10.123577880859376,-0.05299251899123192,-0.10713040828704834,-0.00007635809743078426
1711549724630536000,10.142535888671874,-0.03558287397027016,-0.07475458085536957,-0.09537126123905182
1711549724649494000,10.161493896484375,0.020922118797898293,-0.048792824149131775,-0.15462514758110046
1711549724668452000,10.1804521484375,0.04535670951008797,-0.060704685747623444,-0.1784488707780838
1711549724687410200,10.19941015625,0.04841103404760361,-0.05154171586036682,-0.20135630667209625
1711549724706368000,10.218367919921874,0.057268574833869934,-0.01672242395579815,-0.17234022915363312
1711549724725326000,10.237326171875,0.07712167501449585,-0.005421424750238657,-0.14882193505764008
1711549724744284200,10.2562841796875,0.054214250296354294,0.029397867619991302,-0.17631085216999054
1711549724763242200,10.2752421875,0.008093958720564842,0.04833467677235603,-0.20838125050067902
1711549724782200300,10.294200439453125,-0.03436114266514778,0.034895651042461395,-0.18241949379444122
1711549724801158400,10.313158447265625,-0.06551524996757507,0.025121813639998436,-0.08804088830947876
1711549724820116200,10.3321162109375,-0.08292489498853683,0.05627591907978058,0.018555017188191414
1711549724839074300,10.35107421875,-0.09208786487579346,0.14607304334640503,0.09155336022377014
1711549724858032400,10.370032470703125,-0.10186170041561127,0.17234022915363312,0.09644027799367905
1711549724876990500,10.388990478515625,-0.09728021919727325,0.12621992826461792,0.06131555140018463
1711549724895948300,10.4079482421875,-0.09911280870437622,0.07948877662420273,0.012751801870763302
1711549724914906400,10.42690625,-0.08811724185943604,0.017486004158854485,-0.021151192486286163
1711549724933864400,10.445864501953125,-0.0591011680662632,-0.012140937149524689,-0.03733910992741585
1711549724952822500,10.464822509765625,-0.042913250625133514,-0.03810269013047218,-0.070631243288517
1711549724971780600,10.483780517578126,-0.04535670951008797,-0.09705114364624023,-0.09995274990797043
1711549724990738700,10.50273876953125,-0.05757400393486023,-0.1651625633239746,-0.08743002265691757
1711549725009696500,10.521696533203125,-0.02367101050913334,-0.17157664895057678,-0.03917170315980911
1711549725028654600,10.540654541015625,0.030695954337716103,-0.1291215419769287,0.015500693581998348
1711549725047612700,10.55961279296875,0.02153298258781433,-0.0628427118062973,0.06711876392364502
1711549725066570800,10.57857080078125,0.03588830679655075,0.017486004158854485,0.13217586278915405
1711549725085528800,10.59752880859375,0.06246092543005943,0.03245219215750694,0.16913318634033203
1711549725104486700,10.616486572265625,0.08017600327730179,0.0034361144062131643,0.1251509189605713
1711549725123444700,10.63544482421875,0.06490438431501389,-0.10529781877994537,0.06650790572166443
1711549725142402800,10.65440283203125,0.009926552884280682,-0.18898628652095795,0.03962985426187515
1711549725161361000,10.67336083984375,-0.020922118797898293,-0.16485713422298431,0.024663666263222694
1711549725180318700,10.692318603515625,-0.03711003437638283,-0.09521854668855667,0.04848739132285118
1711549725199276800,10.71127685546875,-0.046883873641490936,-0.01763872057199478,0.08575014024972916
1711549725218235000,10.73023486328125,-0.02214384824037552,0.05841394513845444,0.13889537751674652
1711549725237193000,10.74919287109375,0.02153298258781433,0.11003202199935913,0.17157664895057678
1711549725256150800,10.76815087890625,0.04474584385752678,0.131717711687088,0.12820523977279663
1711549725275108900,10.78710888671875,0.06215549260377884,0.1573740392923355,0.02741255611181259
1711549725294067000,10.80606689453125,0.05849030241370201,0.15615230798721313,-0.08651372790336609
1711549725313025000,10.82502490234375,0.0642935186624527,0.07368556410074234,-0.20074543356895447
1711549725331983000,10.843983154296875,0.06612611562013626,-0.039018988609313965,-0.2951240539550781
1711549725350941200,10.862941162109376,0.03191768378019333,-0.15691588819026947,-0.3388008773326874
1711549725369899000,10.88189892578125,-0.001679878099821508,-0.1758527010679245,-0.3021489977836609
1711549725388857000,10.900857177734375,-0.0435241162776947,-0.14133884012699127,-0.173256516456604
1711549725407815200,10.919815185546875,-0.08842267841100693,-0.03779725730419159,-0.03367391973733902
1711549725426773200,10.938773193359374,-0.0902552679181099,0.06940951198339462,0.0884990319609642
1711549725445731000,10.95773095703125,-0.07742711156606674,0.15951207280158997,0.19387321174144745
1711549725464689200,10.976689208984375,-0.05971203371882439,0.17692171037197113,0.2726747691631317
1711549725483647200,10.995647216796876,-0.051159925758838654,0.15370884537696838,0.25557056069374084
1711549725502605000,11.01460498046875,-0.07192932814359665,0.11980585753917694,0.17340923845767975
1711549725521563100,11.033563232421875,-0.08078686892986298,0.04894553869962692,0.05948295816779137
1711549725540521200,11.052521240234375,-0.0951421856880188,-0.023747367784380913,-0.005268708802759647
1711549725559479300,11.071479248046876,-0.0850629210472107,-0.009392046369612217,-0.01718057133257389
1711549725578437400,11.090437255859374,-0.06215549260377884,0.04589121788740158,-0.018096869811415672
1711549725597395200,11.109395263671875,-0.03252854943275452,0.10819942504167557,-0.029703300446271896
1711549725616353300,11.128353271484375,-0.07834340631961823,0.147905632853508,0.012751801870763302
1711549725635311400,11.147311279296876,-0.12965604662895203,0.23800818622112274,0.03657552972435951
1711549725654269400,11.16626953125,-0.10949750989675522,0.25236350297927856,-0.0016035200096666813
1711549725673227300,11.185227294921875,-0.0694858655333519,0.18730641901493073,-0.09537126123905182
1711549725692185300,11.204185302734375,-0.06826414167881012,0.14362958073616028,-0.16714787483215332
1711549725711143400,11.223143310546876,-0.08048143237829208,0.12560907006263733,-0.18516838550567627
1711549725730101500,11.2421015625,-0.05971203371882439,0.07368556410074234,-0.16226094961166382
1711549725749059300,11.261059326171875,-0.055741410702466965,-0.022220205515623093,-0.12347104400396347
1711549725768017400,11.280017333984375,-0.05024362727999687,-0.07170025259256363,-0.081015944480896
1711549725786975500,11.2989755859375,-0.06765327602624893,-0.0576503649353981,-0.015347977168858051
1711549725805933600,11.31793359375,-0.09758564829826355,0.03061959706246853,0.10224349051713943
1711549725824891600,11.3368916015625,-0.09789107739925385,0.10270164161920547,0.2008981555700302
1711549725843849500,11.355849365234375,-0.0792597085237503,0.1369100660085678,0.23083053529262543
1711549725862807600,11.3748076171875,-0.0746782198548317,0.13874267041683197,0.17799071967601776
1711549725881765600,11.393765625,-0.06856957077980042,0.0862082913517952,0.10224349051713943
1711549725900723700,11.4127236328125,-0.05787943676114082,0.025121813639998436,0.04024071618914604
1711549725919681500,11.431681640625,-0.051159925758838654,-0.023747367784380913,0.00847574882209301
1711549725938639600,11.4506396484375,-0.039248060435056686,-0.06375901401042938,-0.0019089524867013097
1711549725957597700,11.46959765625,-0.016646064817905426,-0.06620246917009354,0.021609341725707054
1711549725976555800,11.4885556640625,0.005955931730568409,-0.004505127668380737,0.0423787422478199
1711549725995513600,11.507513671875,0.013286309316754341,0.0397825688123703,0.05062541738152504
1711549726014471700,11.5264716796875,0.013897174037992954,0.01870773360133171,0.05001455545425415
1711549726033429800,11.5454296875,0.003512472379952669,-0.03871355578303337,0.06681333482265472
1711549726052387800,11.564387939453125,0.001679878099821508,-0.016416991129517555,0.08300124853849411
1711549726071346000,11.583345947265625,0.019394956529140472,0.008323032408952713,0.09521854668855667
1711549726090303700,11.6023037109375,0.036804601550102234,0.016569707542657852,0.08972076326608658
1711549726109261800,11.62126171875,0.02977965772151947,-0.042684175074100494,0.04482220485806465
1711549726128220000,11.640219970703125,-0.0010690133785828948,-0.05978839099407196,0.02283107116818428
1711549726147178000,11.659177978515626,-0.01908952370285988,-0.05612320080399513,0.039018988609313965
1711549726166135800,11.6781357421875,-0.031612250953912735,-0.04024071618914604,0.05826122686266899
1711549726185094000,11.697093994140625,-0.045967575162649155,-0.04451677203178406,0.0628427118062973
1711549726204052000,11.716052001953125,-0.049632761627435684,-0.08483384549617767,0.06375901401042938
1711549726223010000,11.735010009765626,-0.027336198836565018,-0.12545634806156158,0.09918916970491409
1711549726241967900,11.7539677734375,0.018173227086663246,-0.1856265366077423,0.15844304859638214
1711549726260926000,11.772926025390625,0.04718930274248123,-0.1758527010679245,0.17768529057502747
1711549726279884000,11.791884033203125,0.06307178735733032,-0.1911243200302124,0.1807396113872528
1711549726298842000,11.810842041015626,0.06307178735733032,-0.26595523953437805,0.18318307399749756
1711549726317800200,11.82980029296875,0.11621702462434769,-0.3093266487121582,0.11598794907331467
1711549726336758300,11.84875830078125,0.1519526094198227,-0.33223408460617065,0.07658717036247253
1711549726355716000,11.867716064453125,0.13698641955852509,-0.2772562503814697,0.05429060757160187
1711549726374674200,11.886674072265626,0.07681624591350555,-0.22044582664966583,0.0243582334369421
1711549726393632300,11.90563232421875,0.024892739951610565,-0.2170860767364502,0.02130390889942646
1711549726412590300,11.92459033203125,0.042913250625133514,-0.20364704728126526,0.07536543905735016
1711549726431548400,11.94354833984375,0.06887500733137131,-0.11507165431976318,0.12270746380090714
1711549726450506200,11.96250634765625,0.050549060106277466,-0.028328854590654373,0.14256057143211365
1711549726469464300,11.98146435546875,0.022449281066656113,-0.024663666263222694,0.14866921305656433
1711549726488422400,12.00042236328125,0.019700389355421066,-0.03168861195445061,0.1242346242070198
1711549726507380500,12.01938037109375,0.020922118797898293,-0.01030834298580885,0.10804671049118042
1711549726526338600,12.038338623046876,0.02672533318400383,0.011682788841426373,0.08910989761352539
1711549726545296600,12.057296630859375,0.02367101050913334,0.012293653562664986,0.06436987966299057
1711549726564254500,12.07625439453125,0.008704823441803455,-0.0423787422478199,0.049709122627973557
1711549726583212500,12.095212646484375,0.010842849500477314,-0.07231111824512482,0.07414371520280838
1711549726602170600,12.114170654296874,0.005345067009329796,-0.08391755074262619,0.08697187155485153
1711549726621128700,12.133128662109375,0.0007635809597559273,-0.09766200929880142,0.07170025259256363
1711549726640086800,12.152086669921875,0.0154243353754282,-0.13889537751674652,0.08208495378494263
1711549726659044900,12.171044921875,0.060322895646095276,-0.1190422773361206,0.11049016565084457
1711549726678002700,12.190002685546874,0.07254019379615784,-0.0628427118062973,0.12392919510602951
1711549726696960800,12.208960693359375,0.09178243577480316,-0.047265663743019104,0.11476621776819229
1711549726715918800,12.2279189453125,0.10797034949064255,-0.0576503649353981,0.07780890166759491
1711549726734877000,12.246876953125,0.10125083476305008,-0.0781143307685852,0.003283398225903511
1711549726753835000,12.2658349609375,0.10888664424419403,-0.12056943774223328,-0.05199986323714256
1711549726772793000,12.28479296875,0.09422589093446732,-0.10865757614374161,-0.044669486582279205
1711549726791751000,12.3037509765625,0.08261945843696594,-0.05062541738152504,0.008170315995812416
1711549726810709000,12.322708984375,0.07651081681251526,0.0022143847309052944,0.039018988609313965
1711549726829667000,12.3416669921875,0.056657709181308746,0.015347977168858051,0.04512763395905495
1711549726848625200,12.360625244140625,0.036804601550102234,0.014737112447619438,0.02588539570569992
1711549726867583200,12.379583251953125,0.022754713892936707,0.030925029888749123,0.021609341725707054
1711549726886541300,12.398541259765626,0.018173227086663246,0.0651334598660469,0.027107125148177147
1711549726905499400,12.41749951171875,0.025809036567807198,0.1014799103140831,0.03535379841923714
1711549726924457500,12.43645751953125,0.02764163166284561,0.11369720846414566,0.008781181648373604
1711549726943415300,12.455415283203125,0.011148282326757908,0.08895718306303024,-0.025121813639998436
1711549726962373600,12.47437353515625,0.018784092739224434,0.07643445581197739,-0.038560837507247925
1711549726981331500,12.49333154296875,0.0792597085237503,0.07276926934719086,-0.06330086290836334
1711549727000289500,12.51228955078125,0.09086613357067108,0.08254310488700867,-0.07460185885429382
1711549727019247600,12.53124755859375,0.0795651376247406,0.1421024203300476,-0.04344775900244713
1711549727038205700,12.550205810546874,0.04321868345141411,0.17661628127098083,-0.04955640435218811
1711549727057163800,12.569163818359375,0.019700389355421066,0.17539454996585846,-0.10606139898300171
1711549727076121900,12.588121826171875,-0.005650499369949102,0.11461350321769714,-0.14515674114227295
1711549727095080000,12.607079833984375,-0.010842849500477314,0.0862082913517952,-0.14118611812591553
1711549727114037800,12.626037841796874,-0.01908952370285988,0.11980585753917694,-0.1115591824054718
1711549727132995800,12.644995849609375,-0.04780016839504242,0.15951207280158997,-0.09017891436815262
1711549727151954000,12.663953857421875,-0.05849030241370201,0.1836412250995636,-0.0703258067369461
1711549727170912000,12.682912109375,-0.06123919412493706,0.13874267041683197,-0.050778135657310486
1711549727189870000,12.7018701171875,-0.08628465235233307,0.11217004805803299,-0.0006872228696011007
1711549727208828200,12.720828125,-0.09392046183347702,0.1222493126988411,0.043600473552942276
1711549727227786200,12.7397861328125,-0.0948367565870285,0.14668390154838562,0.07475458085536957
1711549727246744300,12.758744384765626,-0.08567378669977188,0.15034909546375275,0.05612320080399513
1711549727265702400,12.777702392578124,-0.06582067906856537,0.07796161621809006,0.042073313146829605
1711549727284660500,12.796660400390625,-0.06062832847237587,-0.012446369975805283,0.057955797761678696
1711549727303618600,12.81561865234375,-0.05299251899123192,-0.062537282705307,0.05306887626647949
1711549727322576600,12.83457666015625,-0.0386371985077858,-0.06711876392364502,0.06375901401042938
1711549727341534700,12.85353466796875,-0.05085449293255806,-0.053374309092760086,0.09918916970491409
1711549727360492500,12.872492431640625,-0.06612611562013626,-0.015806125476956367,0.14347685873508453
1711549727379450600,12.89145068359375,-0.05940660089254379,0.01565340906381607,0.19509494304656982
1711549727398408700,12.91040869140625,-0.04413498193025589,0.021456625312566757,0.2121991515159607
1711549727417366800,12.92936669921875,-0.014202605932950974,0.020540328696370125,0.21525347232818604
1711549727436324900,12.948324951171875,0.006566796451807022,0.006490438245236874,0.2176969349384308
1711549727455283000,12.967282958984375,0.007483093533664942,-0.009697478264570236,0.21372631192207336
1711549727474241000,12.986240966796874,-0.0025961752980947495,-0.01183550525456667,0.17951788008213043
1711549727493199000,13.00519921875,-0.004123337101191282,-0.01000291109085083,0.12270746380090714
1711549727512157200,13.0241572265625,0.014202605932950974,0.015347977168858051,0.0680350661277771
1711549727531115300,13.043115234375,0.0013744457392022014,0.006185005884617567,0.03321577236056328
1711549727550073300,13.0620732421875,-0.007483093533664942,-0.0066431546583771706,-0.00923932995647192
1711549727569031400,13.081031494140625,-0.012980876490473747,-0.03352120518684387,-0.01107192412018776
1711549727587989500,13.099989501953125,-0.02764163166284561,-0.007864884100854397,0.0029779658652842045
1711549727606947600,13.118947509765626,-0.03741546720266342,0.05352702736854553,-0.0006872228696011007
1711549727625905700,13.13790576171875,-0.049021899700164795,0.09262236952781677,0.009392046369612217
1711549727644863700,13.15686376953125,-0.050549060106277466,0.0755181610584259,0.04176788032054901
1711549727663821800,13.17582177734375,-0.009010255336761475,0.08407026529312134,-0.00007635809743078426
1711549727682780000,13.19477978515625,0.02367101050913334,0.06940951198339462,-0.08529199659824371
1711549727701738000,13.213738037109374,0.02519817277789116,-0.013668099418282509,-0.08773545175790787
1711549727720696000,13.232696044921875,0.021838415414094925,-0.05306887626647949,-0.060551971197128296
1711549727739654100,13.251654052734375,0.01847865991294384,0.002825249684974551,-0.08865175396203995
1711549727758612200,13.2706123046875,0.04230238497257233,0.0501672700047493,-0.1274416595697403
1711549727777570300,13.2895703125,0.10338886082172394,0.04528035223484039,-0.10606139898300171
1711549727796528400,13.3085283203125,0.19013166427612305,0.021151192486286163,-0.07857248187065125
1711549727815486500,13.327486572265625,0.27656903862953186,0.05780307948589325,-0.07643445581197739
1711549727834444500,13.346444580078124,0.25121814012527466,0.09048434346914291,0.004810560029000044
1711549727853402600,13.365402587890625,0.15775582194328308,0.12988512217998505,0.10713040828704834
1711549727872360700,13.384360595703125,0.08109229803085327,0.1931096315383911,0.09185878932476044
1711549727891318800,13.40331884765625,0.04627300798892975,0.22365286946296692,0.023747367784380913
1711549727910276600,13.422276611328124,0.045967575162649155,0.2300669401884079,0.017027854919433594
1711549727929235000,13.44123486328125,0.0792597085237503,0.25297439098358154,0.05306887626647949
1711549727948193000,13.460193115234375,0.09330959618091583,0.2047160565853119,0.1245400533080101
1711549727967151000,13.479151123046876,0.10216713696718216,0.08223766833543777,0.18012875318527222
1711549727986109200,13.498109130859374,0.11255183815956116,0.03153589367866516,0.1608865112066269
1711549728005067300,13.5170673828125,0.06979130208492279,0.16684244573116302,0.03871355578303337
1711549728024025300,13.536025390625,-0.0383317656815052,0.11797326058149338,-0.10911571979522705
1711549728042983400,13.5549833984375,-0.05085449293255806,0.037949975579977036,-0.17753258347511292
1711549728061941500,13.57394140625,0.03252854943275452,0.02237292192876339,-0.1430187225341797
1711549728080899600,13.592899658203125,0.10399972647428513,0.059635672718286514,-0.13843722641468048
1711549728099857700,13.611857666015625,0.1055268943309784,0.13385574519634247,-0.043142326176166534
1711549728118815700,13.630815673828126,0.07559451460838318,0.18241949379444122,0.04604393243789673
1711549728137773800,13.64977392578125,0.009621120058000088,0.21815508604049683,0.12087486684322357
1711549728156732000,13.66873193359375,-0.06826414167881012,0.26702427864074707,0.1960112303495407
1711549728175690000,13.68768994140625,-0.14278964698314667,0.2764926850795746,0.26962044835090637
1711549728194648000,13.70664794921875,-0.13332124054431915,0.2612210512161255,0.2589302957057953
1711549728213606100,13.725606201171875,-0.064598947763443,0.19005531072616577,0.19723296165466309
1711549728232564200,13.744564208984375,0.002290742937475443,0.10606139898300171,0.16852232813835144
1711549728251522300,13.763522216796876,0.06276635825634003,-0.03932442143559456,0.1450040340423584
1711549728270480400,13.78248046875,0.10461059212684631,-0.16882775723934174,0.08086322247982025
1711549728289438500,13.8014384765625,0.12354740500450134,-0.2164752036333084,-0.020540328696370125
1711549728308396500,13.820396484375,0.0743727833032608,-0.18440480530261993,-0.0862082913517952
1711549728327354600,13.839354736328126,-0.05177079141139984,-0.12820523977279663,-0.08865175396203995
1711549728346312700,13.858312744140624,-0.1617264449596405,-0.13370302319526672,-0.018402300775051117
1711549728365270800,13.877270751953125,-0.12721258401870728,-0.07903063297271729,0.0066431546583771706
1711549728384228900,13.896228759765625,-0.012370011769235134,0.0009926552884280682,0.01611155830323696
1711549728403187000,13.91518701171875,0.05482511222362518,0.05108356848359108,0.021914774551987648
1711549728422145000,13.93414501953125,0.034666575491428375,0.03550651669502258,-0.008933897130191326
1711549728441103000,13.95310302734375,0.0032070400193333626,0.03153589367866516,-0.05871937796473503
1711549728460061200,13.972061279296875,0.011453714221715927,0.027259841561317444,-0.08743002265691757
1711549728479019300,13.991019287109374,0.0334448479115963,0.010155626572668552,-0.14149154722690582
1711549728497977300,14.009977294921875,0.04780016839504242,-0.016416991129517555,-0.21479532122612
1711549728516935400,14.028935302734375,0.03802633285522461,-0.08208495378494263,-0.21601705253124237
1711549728535893500,14.0478935546875,0.036804601550102234,-0.09705114364624023,-0.183030366897583
1711549728554851600,14.0668515625,0.04535670951008797,-0.08452841639518738,-0.16195552051067352
1711549728573809700,14.0858095703125,0.04993819445371628,-0.06131555140018463,-0.09231694042682648
1711549728592767700,14.104767822265625,0.036193739622831345,-0.044211339205503464,-0.025121813639998436
1711549728611725800,14.123725830078126,0.044440411031246185,-0.009392046369612217,-0.019929463043808937
1711549728630684000,14.142683837890624,0.039248060435056686,-0.03627009689807892,-0.033368486911058426
1711549728649642000,14.16164208984375,0.019700389355421066,-0.08086322247982025,-0.006185005884617567
1711549728668600000,14.18060009765625,0.009621120058000088,-0.09918916970491409,0.017333287745714188
1711549728687558100,14.19955810546875,0.02519817277789116,-0.08972076326608658,-0.0009926552884280682
1711549728706516200,14.21851611328125,0.02916879393160343,-0.09338594973087311,-0.00954476185142994
1711549728725474300,14.237474365234375,0.02764163166284561,-0.07506000995635986,0.023747367784380913
1711549728744432400,14.256432373046875,0.04627300798892975,-0.03474293276667595,0.0475710928440094
1711549728763390500,14.275390380859376,0.0642935186624527,0.008933897130191326,0.046654798090457916
1711549728782348500,14.2943486328125,0.0746782198548317,0.007406735327094793,0.03535379841923714
1711549728801306600,14.313306640625,0.1055268943309784,0.029703300446271896,-0.04069886729121208
1711549728820264700,14.3322646484375,0.1052214577794075,0.02756527252495289,-0.091400645673275
1711549728839222800,14.351222900390624,0.09269873052835464,0.029703300446271896,-0.07735075056552887
1711549728858180900,14.370180908203125,0.09269873052835464,0.059024810791015625,-0.07368556410074234
1711549728877139000,14.389138916015625,0.09575305134057999,0.04069886729121208,-0.08284853398799896
1711549728896097000,14.408096923828126,0.06979130208492279,-0.016416991129517555,-0.06727148592472076
1711549728915054800,14.427054931640624,0.04810560122132301,-0.03627009689807892,-0.02328922040760517
1711549728934013200,14.44601318359375,0.039858926087617874,0.00954476185142994,0.055512335151433945
1711549728952971000,14.464970947265625,0.04321868345141411,0.029703300446271896,0.13217586278915405
1711549728971929300,14.483929443359376,0.06307178735733032,0.05169443041086197,0.1508072465658188
1711549728990887200,14.50288720703125,0.044440411031246185,0.036422811448574066,0.1398116797208786
1711549729009845500,14.521845458984375,0.01847865991294384,0.013209951110184193,0.10529781877994537
1711549729028803300,14.54080322265625,0.01359174121171236,-0.003894262947142124,0.061620984226465225
1711549729047761400,14.559761474609376,0.005039634648710489,-0.041157014667987823,0.04329504072666168
1711549729066719500,14.578719482421874,-0.008093958720564842,-0.0371863916516304,0.03138317912817001
1711549729085677600,14.597677490234375,-0.02825249545276165,0.014737112447619438,0.0011453714687377214
1711549729104635600,14.6166357421875,-0.06582067906856537,0.030925029888749123,-0.004046979360282421
1711549729123593700,14.63559375,-0.11896591633558273,0.05199986323714256,0.012140937149524689
1711549729142551800,14.6545517578125,-0.14798198640346527,0.09170607477426529,0.03474293276667595
1711549729161510000,14.673510009765625,-0.1357647031545639,0.11919499188661575,0.0423787422478199
1711549729180468000,14.692468017578125,-0.10858121514320374,0.10758855938911438,0.03932442143559456
1711549729199426000,14.711426025390624,-0.06246092543005943,0.09842558950185776,0.0576503649353981
1711549729218384100,14.730384033203125,-0.0487164668738842,0.019013166427612305,0.018555017188191414
1711549729237342200,14.74934228515625,-0.06154462695121765,-0.07261654734611511,-0.02328922040760517
1711549729256300300,14.76830029296875,-0.050549060106277466,-0.06223184987902641,-0.030314164236187935
1711549729275258000,14.787258056640624,-0.05604684352874756,-0.0732274129986763,0.016416991129517555
1711549729294216200,14.80621630859375,-0.04718930274248123,-0.10163262486457825,0.07567087560892105
1711549729313174300,14.82517431640625,-0.010842849500477314,-0.10224349051713943,0.11079560220241547
1711549729332132400,14.84413232421875,0.027947064489126205,-0.07017309218645096,0.13217586278915405
1711549729351090400,14.86309033203125,0.04505127668380737,-0.04390590637922287,0.14164426922798157
1711549729370048500,14.882048583984375,0.04566214233636856,-0.04329504072666168,0.12118030339479446
1711549729389006600,14.901006591796875,0.05299251899123192,-0.11018473654985428,0.062537282705307
1711549729407964700,14.919964599609376,0.06215549260377884,-0.16271910071372986,0.02496909722685814
1711549729426922800,14.9389228515625,0.08048143237829208,-0.17463096976280212,0.021609341725707054
1711549729445880600,14.957880615234375,0.08170316368341446,-0.15172353386878967,0.021914774551987648
1711549729464839000,14.9768388671875,0.05299251899123192,-0.14286600053310394,0.035964664071798325
1711549729483796700,14.995796630859376,-0.003512472379952669,-0.19967642426490784,0.1245400533080101
1711549729502754800,15.0147548828125,-0.02306014485657215,-0.16699515283107758,0.21006113290786743
1711549729521713000,15.033712890625,-0.034666575491428375,-0.11171189695596695,0.2430478185415268
1711549729540671000,15.0526708984375,-0.031001387163996696,-0.10835213959217072,0.2369391769170761
1711549729559629000,15.071629150390624,-0.050549060106277466,-0.09430225193500519,0.18471023440361023
1711549729578587100,15.090587158203125,-0.0743727833032608,-0.044211339205503464,0.11507165431976318
1711549729597545200,15.109545166015625,-0.1003345400094986,0.0193185992538929,0.04512763395905495
1711549729616503300,15.12850341796875,-0.12996147572994232,0.05658135190606117,-0.0550541877746582
1711549729635461000,15.147461181640624,-0.12660172581672668,0.041615162044763565,-0.13965895771980286
1711549729654419200,15.166419189453125,-0.10216713696718216,0.024205517023801804,-0.16470441222190857
1711549729673377300,15.185377197265625,-0.11835505068302155,-0.014889828860759735,-0.20746494829654694
1711549729692335400,15.20433544921875,-0.1513417512178421,-0.09063705801963806,-0.1625663936138153
1711549729711293400,15.22329345703125,-0.15073087811470032,-0.07567087560892105,-0.06085740402340889
1711549729730251500,15.24225146484375,-0.1519526094198227,0.022678354755043983,0.06956222653388977
1711549729749209600,15.261209716796875,-0.16600249707698822,0.15004366636276245,0.17157664895057678
1711549729768167700,15.280167724609376,-0.20173808932304382,0.23067781329154968,0.19509494304656982
1711549729787125500,15.29912548828125,-0.22067490220069885,0.25725042819976807,0.18501566350460052
1711549729806083600,15.31808349609375,-0.20204351842403412,0.2618319094181061,0.16241367161273956
1711549729825041700,15.337041748046875,-0.18310672044754028,0.275270938873291,0.14928008615970612
1711549729843999700,15.355999755859376,-0.14889828860759735,0.30489787459373474,0.12759438157081604
1711549729862957800,15.374957763671874,-0.09666935354471207,0.2874882221221924,0.04482220485806465
1711549729881916000,15.393916015625,-0.053603384643793106,0.19708025455474854,-0.05199986323714256
1711549729900873700,15.412873779296875,-0.027030766010284424,0.1372154951095581,-0.12286017835140228
1711549729919831800,15.431831787109376,-0.009315688163042068,0.08895718306303024,-0.1530979871749878
1711549729938790000,15.450789794921874,-0.024892739951610565,0.09231694042682648,-0.15554144978523254
1711549729957748000,15.469748046875,-0.06368265300989151,0.10453423857688904,-0.14332415163516998
1711549729976706000,15.4887060546875,-0.06795870512723923,0.0862082913517952,-0.11033745110034943
1711549729995664100,15.5076640625,-0.040775224566459656,0.05627591907978058,-0.07826705276966095
1711549730014622000,15.5266220703125,-0.009621120058000088,-0.03657552972435951,-0.03886627033352852
1711549730033580000,15.545580078125,0.003512472379952669,-0.12148573249578476,0.004199695307761431
1711549730052538000,15.5645380859375,0.0386371985077858,-0.104076087474823,0.07414371520280838
1711549730071496200,15.58349609375,0.07315105944871902,-0.06375901401042938,0.10132719576358795
1711549730090454300,15.602454345703125,0.09819651395082474,-0.04696023091673851,-0.025732679292559624
1711549730109412400,15.621412353515625,0.09819651395082474,-0.1193477064371109,-0.13904809951782227
1711549730128370200,15.6403701171875,0.050549060106277466,-0.15783219039440155,-0.12133301794528961
1711549730147328300,15.659328369140624,0.011148282326757908,-0.05948295816779137,-0.09934188425540924
1711549730166286300,15.678286376953125,-0.007483093533664942,0.02909243479371071,-0.10575596243143082
1711549730185244400,15.697244384765625,-0.03130681812763214,0.03306305781006813,-0.11339177191257477
1711549730204202200,15.7162021484375,-0.0850629210472107,-0.05734493210911751,-0.09812015295028687
1711549730223160300,15.735160400390624,-0.12140937149524689,-0.13767364621162415,-0.07735075056552887
1711549730242118400,15.754118408203125,-0.1153007298707962,-0.14744748175144196,-0.031841326504945755
1711549730261076500,15.773076416015625,-0.09453132748603821,-0.1303432732820511,0.0319940410554409
1711549730280034600,15.79203466796875,-0.0844520553946495,-0.07017309218645096,0.07872519642114639
1711549730298992400,15.810992431640624,-0.0896444097161293,0.0022143847309052944,0.11293362826108932
1711549730317950500,15.829950439453125,-0.09850194305181503,0.02542724646627903,0.1300378441810608
1711549730336908500,15.848908447265625,-0.08781181275844574,0.044669486582279205,0.06650790572166443
1711549730355866600,15.86786669921875,-0.055741410702466965,0.029703300446271896,-0.03275762498378754
1711549730374824700,15.88682470703125,-0.05329795181751251,-0.017333287745714188,-0.10697769373655319
1711549730393782800,15.90578271484375,-0.08811724185943604,-0.04329504072666168,-0.16378812491893768
1711549730412740600,15.92474072265625,-0.07681624591350555,-0.01611155830323696,-0.2352592945098877
1711549730431698700,15.94369873046875,-0.05635227635502815,-0.026190826669335365,-0.256334125995636
1711549730450656800,15.96265673828125,-0.05238165333867073,-0.05429060757160187,-0.1995237022638321
1711549730469614800,15.98161474609375,-0.046883873641490936,-0.08116865903139114,-0.12927426397800446
1711549730488572700,16.00057275390625,-0.07345648854970932,-0.05520690605044365,-0.08193223923444748
1711549730507530800,16.01953076171875,-0.07773254066705704,0.0009926552884280682,-0.04589121788740158
1711549730526488800,16.03848876953125,-0.0334448479115963,0.021456625312566757,-0.0025198173243552446
1711549730545447000,16.057447021484375,-0.009315688163042068,0.061162836849689484,-0.022678354755043983
1711549730564404700,16.07640478515625,-0.007788525894284248,0.09048434346914291,-0.08559742569923401
1711549730583362800,16.09536279296875,-0.0019853105768561363,0.049861837178468704,-0.12133301794528961
1711549730602321000,16.11432080078125,-0.0013744457392022014,0.013209951110184193,-0.14637847244739532
1711549730621279000,16.133279052734373,-0.004428769461810589,0.019929463043808937,-0.16714787483215332
1711549730640237000,16.152237060546874,0.028863361105322838,0.0345902182161808,-0.18241949379444122
1711549730659195000,16.17119482421875,0.05085449293255806,0.022678354755043983,-0.17753258347511292
1711549730678153000,16.190153076171875,0.03894263133406639,-0.0057268571108579636,-0.12927426397800446
1711549730697111000,16.209111083984375,0.021227551624178886,-0.06650790572166443,-0.08407026529312134
1711549730716068900,16.22806884765625,0.014202605932950974,-0.10835213959217072,-0.04253146052360535
1711549730735027000,16.24702685546875,0.01511890348047018,-0.1092684343457222,0.003894262947142124
1711549730753985000,16.265985107421876,0.03436114266514778,-0.10560324788093567,0.06131555140018463
1711549730772943000,16.284943115234373,0.05635227635502815,-0.09949459880590439,0.10835213959217072
1711549730791901000,16.30390087890625,0.06856957077980042,-0.08483384549617767,0.13309216499328613
1711549730810859000,16.32285888671875,0.05971203371882439,-0.08666644245386124,0.12667807936668396
1711549730829817000,16.341817138671875,0.053603384643793106,-0.12789981067180634,0.12118030339479446
1711549730848775200,16.360775146484375,0.0746782198548317,-0.14592032134532928,0.050930850207805634
1711549730867733000,16.37973291015625,0.0896444097161293,-0.19570580124855042,-0.0058795735239982605
1711549730886691000,16.398691162109376,0.10094540566205978,-0.2329685539007187,-0.033979352563619614
1711549730905649200,16.417649169921877,0.1052214577794075,-0.2118937224149704,-0.018096869811415672
1711549730924607200,16.436607177734373,0.09850194305181503,-0.12026400119066238,-0.00007635809743078426
1711549730943565000,16.45556494140625,0.08933897316455841,-0.10621411353349686,-0.018402300775051117
1711549730962523100,16.474523193359374,0.05299251899123192,-0.13706278800964355,-0.03733910992741585
1711549730981481200,16.493481201171875,0.0206166859716177,-0.14805835485458374,-0.038560837507247925
1711549731000439300,16.512439208984375,0.01847865991294384,-0.10743584483861923,-0.033368486911058426
1711549731019397400,16.5313974609375,0.024281874299049377,-0.05612320080399513,-0.02176205813884735
1711549731038355200,16.550355224609376,0.014813470654189587,-0.03627009689807892,-0.00007635809743078426
1711549731057313300,16.569313232421877,-0.006566796451807022,-0.029856016859412193,0.029856016859412193
1711549731076271400,16.588271240234373,-0.008704823441803455,-0.025274530053138733,0.04604393243789673
1711549731095229400,16.6072294921875,-0.002290742937475443,-0.030161447823047638,0.03932442143559456
1711549731114187300,16.626187255859374,-0.02825249545276165,-0.04024071618914604,0.02893971838057041
1711549731133145300,16.645145263671875,-0.040775224566459656,-0.03657552972435951,0.01030834298580885
1711549731152103400,16.664103515625,-0.027947064489126205,-0.033826638013124466,-0.007101302966475487
1711549731171061500,16.6830615234375,-0.021838415414094925,-0.03352120518684387,-0.018402300775051117
1711549731190019300,16.702019287109376,-0.008704823441803455,-0.03565923124551773,-0.04711294546723366
1711549731208977400,16.720977294921877,-0.0025961752980947495,-0.048792824149131775,-0.055970486253499985
1711549731227935500,16.739935546875,-0.011148282326757908,-0.06467530876398087,-0.0550541877746582
1711549731246893600,16.7588935546875,-0.011148282326757908,-0.06864593178033829,-0.059024810791015625
1711549731265851600,16.7778515625,0.0102319847792387,-0.0680350661277771,-0.07276926934719086
1711549731284809700,16.796809814453123,0.02214384824037552,-0.07444914430379868,-0.03153589367866516
1711549731303767600,16.815767578125,0.031001387163996696,-0.0888044685125351,0.00755945174023509
1711549731322725600,16.8347255859375,0.036804601550102234,-0.07261654734611511,0.026190826669335365
1711549731341683700,16.85368359375,0.04841103404760361,-0.04451677203178406,0.028328854590654373
1711549731360641800,16.872641845703125,0.08353576064109802,-0.04146244749426842,0.013362666592001915
1711549731379600000,16.891599853515626,0.08292489498853683,-0.08636100590229034,-0.010766491293907166
1711549731398557700,16.9105576171875,0.06979130208492279,-0.1089630052447319,-0.01870773360133171
1711549731417515800,16.929515869140626,0.07773254066705704,-0.1196531355381012,-0.037033677101135254
1711549731436473900,16.948473876953123,0.08933897316455841,-0.06681333482265472,-0.0553596206009388
1711549731455432000,16.967431884765624,0.08842267841100693,-0.04176788032054901,-0.05688678100705147
1711549731474389800,16.9863896484375,0.06490438431501389,-0.0576503649353981,-0.046196650713682175
1711549731493347800,17.005347900390625,0.051159925758838654,-0.04085158184170723,-0.04711294546723366
1711549731512306000,17.024305908203125,0.04413498193025589,-0.008170315995812416,-0.03581194952130318
1711549731531264000,17.043263916015626,0.030695954337716103,0.01107192412018776,-0.01718057133257389
1711549731550222000,17.06222216796875,0.028863361105322838,0.013515383005142212,-0.005574141163378954
1711549731569180200,17.08118017578125,0.019394956529140472,0.00954476185142994,-0.008323032408952713
1711549731588138000,17.100137939453123,0.0013744457392022014,-0.003283398225903511,-0.008017600513994694
1711549731607096000,17.119095947265624,0.007177661173045635,-0.000839939049910754,-0.026343543082475662
1711549731626054100,17.13805419921875,0.002290742937475443,-0.000839939049910754,-0.04650207981467247
1711549731645012200,17.15701220703125,-0.013286309316754341,-0.005421424750238657,-0.049250971525907516
1711549731663970300,17.17597021484375,-0.020922118797898293,-0.001450803829357028,-0.03428478538990021
1711549731682928400,17.194928466796874,-0.021227551624178886,0.005574141163378954,-0.036422811448574066
1711549731701886200,17.21388623046875,-0.019700389355421066,-0.01030834298580885,-0.03306305781006813
1711549731720844300,17.23284423828125,-0.023365577682852745,-0.00847574882209301,-0.01107192412018776
1711549731739802400,17.25180224609375,-0.04016435891389847,0.011682788841426373,0.01977674663066864
1711549731758760400,17.270760498046876,-0.0435241162776947,0.025121813639998436,0.025579962879419327
1711549731777718300,17.28971826171875,-0.031001387163996696,0.020540328696370125,0.023136503994464874
1711549731796676600,17.308676513671877,-0.019700389355421066,0.010461059398949146,0.017333287745714188
1711549731815634400,17.327634521484374,-0.03527744114398956,-0.00847574882209301,-0.0019089524867013097
1711549731834592500,17.346592529296874,-0.031001387163996696,-0.008781181648373604,-0.005574141163378954
1711549731853550600,17.365550537109375,-0.03741546720266342,0.00679587060585618,0.01000291109085083
1711549731872508700,17.3845087890625,-0.037720900028944016,0.030314164236187935,0.006337722297757864
1711549731891466800,17.403466796875,-0.03711003437638283,0.010461059398949146,0.003283398225903511
1711549731910424800,17.4224248046875,-0.04169152304530144,0.004963276442140341,0.021914774551987648
1711549731929382700,17.441382568359376,-0.047494735568761826,0.01779143698513508,0.026190826669335365
1711549731948340700,17.4603408203125,-0.057268574833869934,0.03367391973733902,0.020998476073145866
1711549731967298800,17.479298828125,-0.0642935186624527,0.0553596206009388,0.015806125476956367
1711549731986257000,17.4982568359375,-0.06673697382211685,0.0807105079293251,0.004505127668380737
1711549732005215000,17.517215087890627,-0.08170316368341446,0.10545053333044052,-0.014737112447619438
1711549732024173000,17.536173095703123,-0.08597921580076218,0.11430807411670685,-0.0397825688123703
1711549732043131000,17.555130859375,-0.08231402933597565,0.09964732080698013,-0.05169443041086197
1711549732062089200,17.574089111328124,-0.08659008145332336,0.08498656004667282,-0.04222602769732475
1711549732081047000,17.593047119140625,-0.0896444097161293,0.0907897800207138,-0.026343543082475662
1711549732100005000,17.612005126953125,-0.09361502528190613,0.10453423857688904,-0.02176205813884735
1711549732118963200,17.630963134765626,-0.10063996911048889,0.0862082913517952,-0.00954476185142994
1711549732137921300,17.64992138671875,-0.08689551800489426,0.05841394513845444,0.024663666263222694
1711549732156879400,17.66887939453125,-0.06276635825634003,0.03520108386874199,0.058566659688949585
1711549732175837400,17.68783740234375,-0.040775224566459656,0.054443322122097015,0.06345357745885849
1711549732194795500,17.70679541015625,-0.031001387163996696,0.06299543380737305,0.05001455545425415
1711549732213753600,17.725753662109376,-0.024892739951610565,0.04130972921848297,0.05734493210911751
1711549732232711400,17.74471142578125,0.0032070400193333626,0.02328922040760517,0.062537282705307
1711549732251669500,17.76366943359375,0.026419902220368385,0.03672824427485466,0.03932442143559456
1711549732270627600,17.782627685546874,0.022754713892936707,0.05627591907978058,0.013362666592001915
1711549732289585700,17.801585693359375,0.017867794260382652,0.057497646659612656,-0.02023489587008953
1711549732308543700,17.820543701171875,0.039858926087617874,0.041615162044763565,-0.04344775900244713
1711549732327501800,17.839501708984375,0.04657844081521034,0.0022143847309052944,-0.05261072888970375
1711549732346460000,17.8584599609375,0.04413498193025589,0.026343543082475662,-0.0654388889670372
1711549732365418000,17.87741796875,0.041386090219020844,0.04955640435218811,-0.08254310488700867
1711549732384376000,17.8963759765625,0.03711003437638283,0.04558578506112099,-0.08407026529312134
1711549732403334100,17.915334228515626,0.02916879393160343,0.05566505342721939,-0.059635672718286514
1711549732422292000,17.9342919921875,0.02916879393160343,0.08315397053956985,-0.05199986323714256
1711549732441250000,17.95325,0.04413498193025589,0.11888955533504486,-0.05047270283102989
1711549732460208000,17.9722080078125,0.0383317656815052,0.13019055128097534,-0.05230529606342316
1711549732479166200,17.991166259765624,0.025503603741526604,0.09476039558649063,-0.046196650713682175
1711549732498124300,18.010124267578124,0.0154243353754282,0.05627591907978058,-0.04589121788740158
1711549732517082400,18.029082275390625,0.014813470654189587,0.04253146052360535,-0.04436405375599861
1711549732536040400,18.04804052734375,0.018173227086663246,0.04069886729121208,-0.02237292192876339
1711549732554998500,18.06699853515625,0.007483093533664942,0.05352702736854553,0.007254019379615784
1711549732573956600,18.08595654296875,0.0007635809597559273,0.06391172856092453,0.03352120518684387
1711549732592914700,18.104914794921875,0.010537417605519295,0.06727148592472076,0.04146244749426842
1711549732611872800,18.123872802734375,0.019394956529140472,0.0553596206009388,0.030161447823047638
1711549732630830800,18.142830810546876,0.019700389355421066,0.04405862092971802,0.01183550525456667
1711549732649789000,18.161788818359376,0.012675444595515728,0.036422811448574066,-0.004963276442140341
1711549732668747000,18.1807470703125,0.004734201822429895,0.021151192486286163,-0.012904518283903599
1711549732687705000,18.199705078125,0.0025961752980947495,0.030314164236187935,-0.010461059398949146
1711549732706663000,18.218662841796874,0.004428769461810589,0.05352702736854553,-0.00679587060585618
1711549732725621000,18.23762109375,0.004123337101191282,0.06421715766191483,-0.0019089524867013097
1711549732744579000,18.2565791015625,-0.0032070400193333626,0.04955640435218811,0.0066431546583771706
1711549732763537200,18.275537109375,-0.008704823441803455,0.057497646659612656,0.012751801870763302
1711549732782495200,18.2944951171875,-0.004734201822429895,0.06421715766191483,0.0023671009112149477
1711549732801453300,18.313453369140625,-0.009010255336761475,0.0550541877746582,-0.00954476185142994
1711549732820411400,18.332411376953125,-0.0010690133785828948,0.03245219215750694,-0.0077121676877141
1711549732839369500,18.351369384765626,0.009315688163042068,0.017486004158854485,0.0057268571108579636
1711549732858327600,18.37032763671875,0.011148282326757908,0.03214675933122635,0.008170315995812416
1711549732877285600,18.38928564453125,0.002901607658714056,0.04436405375599861,0.00847574882209301
1711549732896243700,18.40824365234375,-0.002901607658714056,0.033368486911058426,0.01030834298580885
1711549732915201800,18.427201904296876,0.001679878099821508,0.01626427471637726,0.01611155830323696
1711549732934160000,18.446159912109376,0.0102319847792387,0.015042545273900032,0.020082179456949234
1711549732953118000,18.465117919921877,0.009010255336761475,0.011682788841426373,0.020693045109510422
1711549732972076000,18.484075927734374,0.007483093533664942,0.008933897130191326,0.028328854590654373
1711549732991034000,18.5030341796875,0.0032070400193333626,0.010155626572668552,0.04024071618914604
1711549733009992200,18.5219921875,0.0062613640911877155,0.0031306820455938578,0.04634936526417732
1711549733028950300,18.5409501953125,0.012370011769235134,-0.002672533504664898,0.041157014667987823
1711549733047908400,18.559908447265624,0.0102319847792387,-0.02802342176437378,0.03871355578303337
1711549733066866400,18.578866455078124,0.0102319847792387,-0.030466880649328232,0.04176788032054901
1711549733085824500,18.597824462890625,0.012980876490473747,-0.01672242395579815,0.05001455545425415
1711549733104782300,18.6167822265625,0.012370011769235134,-0.006948587018996477,0.05306887626647949
1711549733123740700,18.63574072265625,0.01206457894295454,-0.012446369975805283,0.04940368980169296
1711549733142698500,18.654698486328126,0.015729768201708794,-0.020693045109510422,0.039018988609313965
1711549733161656800,18.67365673828125,0.010842849500477314,-0.020998476073145866,0.030161447823047638
1711549733180614700,18.69261474609375,0.003512472379952669,-0.01611155830323696,0.027107125148177147
1711549733199573000,18.711572998046876,0.005345067009329796,-0.005421424750238657,0.0319940410554409
1711549733218530800,18.73053076171875,0.012370011769235134,0.006490438245236874,0.039018988609313965
1711549733237489200,18.7494892578125,0.021838415414094925,0.02023489587008953,0.0243582334369421
1711549733256447000,18.768447021484373,0.015729768201708794,0.006490438245236874,0.009697478264570236
1711549733275405000,18.787405029296874,0.0032070400193333626,-0.006948587018996477,0.004199695307761431
1711549733294363100,18.806363037109374,0.0001527161948615685,-0.0023671009112149477,0.009086613543331623
1711549733313321200,18.8253212890625,-0.0032070400193333626,-0.003894262947142124,0.023747367784380913
1711549733332279300,18.844279296875,0.0001527161948615685,0.008017600513994694,0.03993528336286545
1711549733351237400,18.8632373046875,-0.0019853105768561363,0.02695440873503685,0.046654798090457916
1711549733370195500,18.882195556640625,-0.002290742937475443,0.02909243479371071,0.046654798090457916
1711549733389153500,18.901153564453125,-0.0038179049734026194,0.015347977168858051,0.045738499611616135
1711549733408111600,18.920111572265625,-0.003512472379952669,0.008017600513994694,0.040546149015426636
1711549733427069700,18.939069580078126,-0.0001527161948615685,0.020540328696370125,0.03474293276667595
1711549733446027800,18.95802783203125,-0.0019853105768561363,0.049250971525907516,0.03535379841923714
1711549733464985900,18.97698583984375,-0.0010690133785828948,0.06238456442952156,0.02496909722685814
1711549733483944000,18.99594384765625,0.002290742937475443,0.043142326176166534,0.018860450014472008
1711549733502902000,19.014902099609376,-0.0010690133785828948,0.02176205813884735,0.009697478264570236
1711549733521860000,19.033860107421877,-0.002901607658714056,0.018402300775051117,0.003894262947142124
1711549733540818200,19.052818115234373,-0.0032070400193333626,0.010155626572668552,0.010919207707047462
1711549733559776300,19.0717763671875,0.0013744457392022014,0.0031306820455938578,0.024052800610661507
1711549733578734300,19.090734375,0.002901607658714056,0.011682788841426373,0.035964664071798325
1711549733597692200,19.109692138671875,0.0007635809597559273,0.025732679292559624,0.037491824477910995
1711549733616650500,19.128650390625,0.005650499369949102,0.022067490965127945,0.030466880649328232
1711549733635608300,19.1476083984375,0.01206457894295454,-0.003283398225903511,0.026190826669335365
1711549733654566400,19.16656640625,0.017256930470466614,-0.012140937149524689,0.01611155830323696
1711549733673524500,19.1855244140625,0.01511890348047018,-0.0057268571108579636,0.003283398225903511
1711549733692482600,19.204482666015625,0.008093958720564842,-0.014584396965801716,-0.00679587060585618
1711549733711440600,19.223440673828126,0.024281874299049377,-0.002061668550595641,-0.02756527252495289
1711549733730398700,19.242398681640626,0.020311253145337105,-0.0066431546583771706,-0.02909243479371071
1711549733749356800,19.261356689453127,0.014813470654189587,0.003741546766832471,-0.014126247726380825
1711549733768315000,19.28031494140625,0.01908952370285988,0.017486004158854485,-0.002825249684974551
1711549733787273000,19.29927294921875,0.018784092739224434,0.018402300775051117,-0.0031306820455938578
1711549733806231000,19.31823095703125,0.011453714221715927,0.020540328696370125,-0.004352411720901728
1711549733825189000,19.337189208984373,0.004123337101191282,0.008628465235233307,-0.020540328696370125
1711549733844147200,19.356147216796874,0.004123337101191282,-0.010919207707047462,-0.026343543082475662
1711549733863105300,19.375105224609374,0.012980876490473747,-0.003894262947142124,-0.022067490965127945
1711549733882063400,19.3940634765625,0.009926552884280682,0.01718057133257389,-0.0077121676877141
1711549733901021400,19.413021484375,0.004123337101191282,0.024816380813717842,-0.012904518283903599
1711549733919979300,19.431979248046876,0.0007635809597559273,0.0006872228696011007,-0.03000873140990734
1711549733938937300,19.450937255859376,-0.0019853105768561363,-0.013057234697043896,-0.03672824427485466
1711549733957895400,19.4698955078125,-0.0025961752980947495,-0.011530072428286076,-0.026343543082475662
1711549733976853500,19.488853515625,0.002901607658714056,-0.007254019379615784,-0.0077121676877141
1711549733995811600,19.5078115234375,0.00045814859913662076,-0.001450803829357028,0.007864884100854397
1711549734014769700,19.526769775390626,0.001679878099821508,0.0022143847309052944,0.021609341725707054
1711549734033727700,19.545727783203127,-0.0010690133785828948,0.006490438245236874,0.022525638341903687
1711549734052685800,19.564685791015624,-0.0007635809597559273,-0.003894262947142124,0.014889828860759735
1711549734071644000,19.583643798828124,0.005039634648710489,-0.013973532244563103,0.009697478264570236
1711549734090601700,19.602601806640624,0.012980876490473747,-0.007864884100854397,0.012751801870763302
1711549734109560000,19.62156005859375,0.012980876490473747,-0.0005345066892914474,0.009697478264570236
1711549734128518000,19.640517822265625,0.011453714221715927,-0.006948587018996477,-0.014737112447619438
1711549734147476000,19.65947607421875,0.010537417605519295,-0.02741255611181259,-0.03611737862229347
1711549734166434000,19.67843408203125,0.004123337101191282,-0.03535379841923714,-0.0345902182161808
1711549734185392000,19.69739208984375,0.011453714221715927,-0.0029779658652842045,-0.02848157100379467
1711549734204350200,19.71635009765625,-0.0007635809597559273,0.016875140368938446,-0.008323032408952713
1711549734223308300,19.735308349609376,-0.0062613640911877155,0.038560837507247925,-0.004963276442140341
1711549734242266400,19.754266357421876,-0.0010690133785828948,0.02848157100379467,-0.015958841890096664
1711549734261224400,19.773224365234373,-0.002901607658714056,0.00954476185142994,-0.029703300446271896
1711549734280182300,19.792182373046874,-0.01511890348047018,-0.0005345066892914474,-0.026648975908756256
1711549734299140600,19.811140625,-0.02367101050913334,0.004963276442140341,-0.019013166427612305
1711549734318098400,19.830098388671875,-0.022754713892936707,0.006490438245236874,-0.01565340906381607
1711549734337056500,19.849056396484375,-0.019700389355421066,-0.003283398225903511,-0.012904518283903599
1711549734356014600,19.8680146484375,-0.017867794260382652,-0.00847574882209301,-0.011377356946468353
1711549734374972700,19.88697265625,-0.02367101050913334,-0.0066431546583771706,0.00022907429956831038
1711549734393930800,19.9059306640625,-0.030085090547800064,-0.009392046369612217,0.003894262947142124
1711549734412888800,19.924888916015625,-0.02153298258781433,-0.015500693581998348,-0.0016035200096666813
1711549734431846700,19.9438466796875,-0.013286309316754341,-0.023136503994464874,-0.004352411720901728
1711549734450804700,19.9628046875,-0.014813470654189587,-0.0319940410554409,-0.002825249684974551
1711549734469762800,19.9817626953125,-0.01908952370285988,-0.03779725730419159,0.01183550525456667
1711549734488721000,20.000720947265624,-0.022449281066656113,-0.020082179456949234,0.020693045109510422
1711549734507679000,20.019678955078124,-0.01695149764418602,-0.00603228947147727,0.01672242395579815
1711549734526637000,20.038636962890624,-0.007788525894284248,-0.01763872057199478,0.012751801870763302
1711549734545595000,20.057594970703125,-0.001679878099821508,-0.02496909722685814,0.02130390889942646
1711549734564553200,20.07655322265625,-0.009010255336761475,-0.02741255611181259,0.017944153398275375
1711549734583511000,20.095510986328126,-0.009315688163042068,-0.041157014667987823,-0.002825249684974551
1711549734602469000,20.11446923828125,-0.005039634648710489,-0.04940368980169296,-0.019013166427612305
1711549734621427200,20.13342724609375,-0.0032070400193333626,-0.03871355578303337,-0.024510949850082397
1711549734640385300,20.15238525390625,-0.0102319847792387,-0.02802342176437378,-0.012293653562664986
1711549734659343000,20.171343017578124,-0.014508038759231567,-0.013973532244563103,-0.010155626572668552
1711549734678301400,20.190301513671876,-0.012675444595515728,0.003741546766832471,0.0035888305865228176
1711549734697259300,20.20925927734375,-0.012370011769235134,0.019013166427612305,0.020082179456949234
1711549734716217300,20.22821728515625,-0.014202605932950974,0.024816380813717842,0.010919207707047462
1711549734735175400,20.247175537109374,-0.017867794260382652,0.00679587060585618,-0.00954476185142994
1711549734754133500,20.266133544921875,-0.016340631991624832,-0.018860450014472008,-0.021456625312566757
1711549734773091300,20.28509130859375,-0.013286309316754341,-0.030161447823047638,-0.02084576152265072
1711549734792049400,20.30404931640625,-0.010842849500477314,-0.014584396965801716,-0.028176138177514076
1711549734811007500,20.323007568359376,-0.009926552884280682,-0.00022907429956831038,-0.03245219215750694
1711549734829965600,20.341965576171877,-0.0025961752980947495,0.009850194677710533,-0.028176138177514076
1711549734848923600,20.360923583984373,-0.002290742937475443,0.02237292192876339,-0.015347977168858051
1711549734867881700,20.3798818359375,-0.008704823441803455,0.03061959706246853,-0.017486004158854485
1711549734886839600,20.398839599609374,-0.005345067009329796,0.029397867619991302,-0.03214675933122635
1711549734905797600,20.417797607421875,-0.0062613640911877155,0.02848157100379467,-0.03611737862229347
1711549734924755700,20.436755615234375,-0.0019853105768561363,0.03886627033352852,-0.033368486911058426
1711549734943713800,20.4557138671875,0.003512472379952669,0.061162836849689484,-0.026343543082475662
1711549734962671600,20.474671630859376,0.007177661173045635,0.08407026529312134,-0.026648975908756256
1711549734981629700,20.493629638671877,-0.00045814859913662076,0.07185296714305878,-0.02237292192876339
1711549735000587800,20.512587890625,-0.008093958720564842,0.04222602769732475,-0.024205517023801804
1711549735019545900,20.5315458984375,-0.01695149764418602,0.015347977168858051,-0.038560837507247925
1711549735038504000,20.55050390625,-0.01511890348047018,-0.022525638341903687,-0.04894553869962692
1711549735057461800,20.569461669921875,-0.0206166859716177,-0.04482220485806465,-0.03917170315980911
1711549735076419800,20.588419921875,-0.029474224895238876,-0.039018988609313965,-0.004657844081521034
1711549735095378000,20.6073779296875,-0.029474224895238876,-0.00603228947147727,0.024663666263222694
1711549735114336000,20.6263359375,-0.025809036567807198,0.0025198173243552446,0.050930850207805634
1711549735133293800,20.6452939453125,-0.028557928279042244,-0.008170315995812416,0.072921983897686
1711549735152252000,20.664251953125,-0.03222311660647392,-0.011224640533328056,0.06528617441654205
1711549735171210000,20.6832099609375,-0.028557928279042244,-0.020387612283229828,0.06711876392364502
1711549735190168000,20.70216796875,-0.02977965772151947,-0.021609341725707054,0.07414371520280838
1711549735209126000,20.7211259765625,-0.034666575491428375,-0.01824958436191082,0.07567087560892105
1711549735228084000,20.740083984375,-0.03741546720266342,-0.01672242395579815,0.05429060757160187
1711549735247042000,20.7590419921875,-0.03711003437638283,-0.027107125148177147,0.04543306678533554
1711549735266000100,20.778000244140625,-0.0386371985077858,-0.03168861195445061,0.07261654734611511
1711549735284958200,20.796958251953125,-0.04230238497257233,-0.008781181648373604,0.08819360285997391
1711549735303916000,20.815916015625,-0.04505127668380737,0.008323032408952713,0.07200568914413452
1711549735322874000,20.8348740234375,-0.0383317656815052,0.004657844081521034,0.053985174745321274
1711549735341832200,20.853832275390626,-0.02519817277789116,-0.016416991129517555,0.04390590637922287
1711549735360790300,20.872790283203123,-0.02214384824037552,-0.026801692321896553,0.01611155830323696
1711549735379748000,20.891748046875,-0.01511890348047018,-0.03810269013047218,-0.0009926552884280682
1711549735398706200,20.9107060546875,0.0010690133785828948,-0.04940368980169296,-0.013515383005142212
1711549735417664300,20.929664306640625,0.005955931730568409,-0.0322994738817215,-0.03153589367866516
1711549735436622300,20.948622314453125,-0.014508038759231567,-0.015806125476956367,-0.0501672700047493
1711549735455580200,20.967580078125,-0.02916879393160343,-0.036880962550640106,-0.028176138177514076
1711549735474538200,20.986538330078126,-0.02977965772151947,-0.02893971838057041,0.015195261687040329
1711549735493496300,21.005496337890627,-0.02000582218170166,0.00007635809743078426,0.026801692321896553
1711549735512454100,21.0244541015625,-0.0206166859716177,0.006185005884617567,0.020082179456949234
1711549735531412200,21.043412109375,-0.02153298258781433,-0.0023671009112149477,0.018860450014472008
1711549735550370300,21.062370361328124,-0.02367101050913334,-0.008170315995812416,0.030466880649328232
1711549735569328400,21.081328369140625,-0.024281874299049377,-0.004505127668380737,0.03352120518684387
1711549735588286200,21.1002861328125,-0.027336198836565018,0.0019089524867013097,0.020998476073145866
1711549735607244300,21.119244384765626,-0.020311253145337105,-0.009086613543331623,0.010613775812089443
1711549735626202400,21.138202392578126,-0.014202605932950974,-0.01183550525456667,0.009697478264570236
1711549735645160400,21.157160400390627,-0.010842849500477314,0.0012980876490473747,-0.0019089524867013097
1711549735664118300,21.1761181640625,-0.010537417605519295,0.007406735327094793,-0.01626427471637726
1711549735683076400,21.195076416015624,-0.01908952370285988,-0.011224640533328056,-0.0012980876490473747
1711549735702034400,21.214034423828124,-0.014202605932950974,0.0025198173243552446,0.007864884100854397
1711549735720992500,21.232992431640625,-0.009926552884280682,0.015347977168858051,0.0017562361899763346
1711549735739950300,21.251950439453125,-0.0062613640911877155,0.013515383005142212,-0.007406735327094793
1711549735758908400,21.270908447265626,-0.002901607658714056,0.005574141163378954,-0.02023489587008953
1711549735777866500,21.289866455078126,0.00045814859913662076,-0.004810560029000044,-0.02756527252495289
1711549735796824300,21.30882421875,0.004428769461810589,0.004046979360282421,-0.039477135986089706
1711549735815782400,21.327782470703124,0.0102319847792387,0.0006872228696011007,-0.05780307948589325
1711549735834740500,21.346740478515624,0.012370011769235134,-0.0066431546583771706,-0.0651334598660469
1711549735853698600,21.365698486328125,0.01359174121171236,-0.004505127668380737,-0.06330086290836334
1711549735872656600,21.38465673828125,0.018173227086663246,0.0077121676877141,-0.04589121788740158
1711549735891614500,21.403614501953125,0.026419902220368385,0.014126247726380825,-0.024510949850082397
1711549735910572500,21.422572509765626,0.021227551624178886,0.0193185992538929,-0.015042545273900032
1711549735929530600,21.441530517578126,0.020311253145337105,0.026343543082475662,-0.00923932995647192
1711549735948488700,21.46048876953125,0.030695954337716103,0.01626427471637726,-0.015347977168858051
1711549735967446500,21.479446533203124,0.027030766010284424,-0.01000291109085083,-0.018402300775051117
1711549735986404600,21.498404541015624,0.025503603741526604,-0.017944153398275375,-0.012904518283903599
1711549736005362700,21.51736279296875,0.024892739951610565,-0.00603228947147727,0.011530072428286076
1711549736024320800,21.53632080078125,0.03497200831770897,-0.003894262947142124,0.04176788032054901
1711549736043278600,21.555278564453126,0.041386090219020844,-0.0057268571108579636,0.05215258151292801
1711549736062236700,21.574236572265626,0.0383317656815052,0.015958841890096664,0.04482220485806465
1711549736081194800,21.59319482421875,0.03436114266514778,0.016875140368938446,0.02649625949561596
1711549736100152800,21.61215283203125,0.03802633285522461,-0.001450803829357028,0.020998476073145866
1711549736119111000,21.63111083984375,0.060933761298656464,-0.015195261687040329,0.020693045109510422
1711549736138068700,21.65006884765625,0.0539088174700737,-0.01672242395579815,0.0005345066892914474
1711549736157026800,21.66902685546875,0.03497200831770897,0.011377356946468353,-0.026038112118840218
1711549736175985000,21.68798486328125,0.01359174121171236,0.01565340906381607,-0.027870705351233482
1711549736194943000,21.70694287109375,0.016340631991624832,0.01779143698513508,-0.026038112118840218
1711549736213900800,21.72590087890625,0.016340631991624832,-0.00022907429956831038,-0.02328922040760517
1711549736232859000,21.74485888671875,0.010842849500477314,0.012904518283903599,-0.022067490965127945
1711549736251817000,21.76381689453125,0.009315688163042068,0.023594651371240616,-0.020540328696370125
1711549736270775000,21.782775146484376,-0.0062613640911877155,0.025732679292559624,-0.017486004158854485
1711549736289732900,21.80173291015625,-0.013897174037992954,0.03733910992741585,-0.010766491293907166
1711549736308691000,21.82069091796875,-0.005345067009329796,0.041004300117492676,-0.011682788841426373
1711549736327649000,21.83964892578125,-0.0007635809597559273,0.0345902182161808,-0.02176205813884735
1711549736346607000,21.858607177734374,-0.0102319847792387,0.037033677101135254,-0.026343543082475662
1711549736365565200,21.877565185546874,-0.022754713892936707,0.04344775900244713,-0.019013166427612305
1711549736384523000,21.89652294921875,-0.014508038759231567,0.05261072888970375,-0.010155626572668552
1711549736403481000,21.915481201171875,-0.005650499369949102,0.04589121788740158,-0.008323032408952713
1711549736422439200,21.934439208984376,-0.005039634648710489,0.03611737862229347,-0.0077121676877141
1711549736441397200,21.953397216796876,-0.007788525894284248,0.033368486911058426,-0.00007635809743078426
1711549736460355000,21.97235498046875,-0.002290742937475443,0.024510949850082397,0.0066431546583771706
1711549736479313200,21.991313232421874,0.002290742937475443,0.02909243479371071,0.004505127668380737
1711549736498271200,22.010271240234374,0.0010690133785828948,0.028787001967430115,-0.00038179047987796366
1711549736517229300,22.029229248046875,0.001679878099821508,0.03764454275369644,-0.004352411720901728
1711549736536187400,22.0481875,0.00045814859913662076,0.04130972921848297,-0.008323032408952713
1711549736555145500,22.0671455078125,-0.005650499369949102,0.03428478538990021,-0.02023489587008953
1711549736574103300,22.086103271484376,-0.002290742937475443,0.03153589367866516,-0.025121813639998436
1711549736593061400,22.105061279296876,0.010842849500477314,0.04741837829351425,-0.016569707542657852
1711549736612019500,22.12401953125,0.010537417605519295,0.05474875494837761,-0.0058795735239982605
1711549736630977500,22.1429775390625,0.014202605932950974,0.023594651371240616,-0.015958841890096664
1711549736649935400,22.161935302734374,0.022754713892936707,-0.0066431546583771706,-0.019624030217528343
1711549736668893700,22.180893798828127,0.03283398225903511,-0.02741255611181259,-0.0077121676877141
1711549736687851500,22.1998515625,0.03405570983886719,-0.05367974191904068,0.004810560029000044
1711549736706809600,22.2188095703125,0.02519817277789116,-0.07872519642114639,0.02283107116818428
1711549736725767700,22.237767578125,0.03130681812763214,-0.09491311758756638,0.050930850207805634
1711549736744725800,22.256725830078125,0.03252854943275452,-0.11079560220241547,0.07628174126148224
1711549736763683800,22.275683837890625,0.03711003437638283,-0.13370302319526672,0.10071633011102676
1711549736782642000,22.294641845703126,0.04199695214629173,-0.12759438157081604,0.12179116904735565
1711549736801599700,22.313599853515626,0.040775224566459656,-0.11049016565084457,0.12392919510602951
1711549736820557800,22.332557861328127,0.0435241162776947,-0.09827287495136261,0.13248129189014435
1711549736839516000,22.351515869140623,0.05299251899123192,-0.09796743839979172,0.12118030339479446
1711549736858474000,22.370473876953124,0.0639880821108818,-0.09735657274723053,0.062537282705307
1711549736877432000,22.38943212890625,0.044440411031246185,-0.11049016565084457,0.017027854919433594
1711549736896390100,22.40839013671875,0.027336198836565018,-0.12667807936668396,-0.004352411720901728
1711549736915348000,22.427347900390625,0.026419902220368385,-0.1303432732820511,-0.00923932995647192
1711549736934306000,22.44630615234375,0.04108065739274025,-0.09980003535747528,-0.015042545273900032
1711549736953264000,22.46526416015625,0.036193739622831345,-0.042684175074100494,0.009697478264570236
1711549736972222200,22.48422216796875,0.025809036567807198,0.010461059398949146,0.0475710928440094
1711549736991180300,22.50318017578125,0.020311253145337105,0.010461059398949146,0.08055779337882996
1711549737010138400,22.522138427734376,0.029474224895238876,0.05261072888970375,0.07414371520280838
1711549737029096200,22.54109619140625,0.007483093533664942,0.08162680268287659,0.03321577236056328
1711549737048054300,22.56005419921875,-0.04535670951008797,0.0016035200096666813,-0.006490438245236874
1711549737067012400,22.579012451171874,-0.06307178735733032,-0.07903063297271729,-0.04344775900244713
1711549737085970400,22.597970458984374,-0.025809036567807198,-0.07780890166759491,-0.04222602769732475
1711549737104928500,22.616928466796875,0.024281874299049377,-0.051847148686647415,-0.008017600513994694
1711549737123886600,22.635886474609375,0.060933761298656464,0.004046979360282421,-0.004046979360282421
1711549737142844700,22.6548447265625,0.08567378669977188,0.08193223923444748,-0.037949975579977036
1711549737161802800,22.673802734375,0.08750637620687485,0.11430807411670685,-0.09964732080698013
1711549737180760600,22.692760498046876,0.07895427197217941,0.10300707072019577,-0.20196716487407684
1711549737199719000,22.711718994140625,0.03283398225903511,0.0345902182161808,-0.2764926850795746
1711549737218676700,22.7306767578125,-0.008093958720564842,0.00007635809743078426,-0.28382304310798645
1711549737237634800,22.749634765625,-0.025503603741526604,0.0034361144062131643,-0.22212570905685425
1711549737256593000,22.768593017578127,-0.03894263133406639,0.015042545273900032,-0.1222493126988411
1711549737275551000,22.787551025390623,-0.06001746281981468,0.034895651042461395,0.0066431546583771706
1711549737294509000,22.806509033203124,-0.07895427197217941,0.07918334752321243,0.13706278800964355
1711549737313467100,22.825467041015624,-0.06979130208492279,0.12438733875751495,0.19784383475780487
1711549737332425200,22.84442529296875,-0.06337722390890121,0.15126539766788483,0.18868085741996765
1711549737351383300,22.86338330078125,-0.0539088174700737,0.13538290560245514,0.14408773183822632
1711549737370341400,22.88234130859375,-0.04474584385752678,0.10209077596664429,0.07903063297271729
1711549737389299500,22.901299560546875,-0.04199695214629173,0.08284853398799896,-0.008323032408952713
1711549737408257300,22.92025732421875,-0.03588830679655075,0.04711294546723366,-0.09262236952781677
1711549737427215400,22.93921533203125,-0.026419902220368385,0.015347977168858051,-0.1326340138912201
1711549737446173400,22.95817333984375,-0.016340631991624832,-0.003894262947142124,-0.13568833470344543
1711549737465131500,22.977131591796876,-0.017562363296747208,-0.00511599238961935,-0.11858412623405457
