time,seconds_elapsed,z,y,x
1711552970346740200,0.129740234375,1.6761722564697266,8.703892707824707,2.8007988929748535
1711552970365699800,0.148699951171875,1.7012969255447388,8.827122688293457,2.882154941558838
1711552970384659200,0.1676591796875,1.690529227256775,9.105886459350586,2.963510751724243
1711552970403618600,0.18661865234375,1.7024933099746704,9.290133476257324,2.946761131286621
1711552970422578000,0.205577880859375,1.7216359376907349,9.285347938537598,2.8701908588409424
1711552970441537300,0.224537353515625,1.7407784461975098,9.17886734008789,2.8211379051208496
1711552970460496600,0.24349658203125,1.7694923877716064,9.06999397277832,2.7457640171051025
1711552970479456300,0.262456298828125,1.7467604875564575,9.020941734313965,2.719442844390869
1711552970498415600,0.28141552734375,1.7455641031265259,9.04845905303955,2.6943182945251465
1711552970517375000,0.300375,1.672582983970642,9.175278663635254,2.606980323791504
1711552970536334300,0.319334228515625,1.5876377820968628,9.32722282409668,2.575873613357544
1711552970555294000,0.3382939453125,1.5828521251678467,9.480362892150879,2.6009981632232666
1711552970574253300,0.35725341796875,1.6175481081008911,9.513862609863281,2.6117658615112305
1711552970593212700,0.376212646484375,1.6366907358169556,9.454042434692383,2.6847469806671143
1711552970612172000,0.395172119140625,1.6402798891067505,9.316454887390137,2.717050075531006
1711552970631131600,0.414131591796875,1.659422516822815,9.230313301086426,2.6811578273773193
1711552970650091000,0.433091064453125,1.6869399547576904,9.168100357055664,2.5806591510772705
1711552970669050400,0.45205029296875,1.6666009426116943,9.114261627197266,2.506481647491455
1711552970688010000,0.471010009765625,1.5780665874481201,9.156135559082031,2.465803623199463
1711552970706969300,0.48996923828125,1.4919248819351196,9.273384094238281,2.478964328765869
1711552970725928700,0.5089287109375,1.4727823734283447,9.440881729125977,2.5076780319213867
1711552970744888300,0.527888427734375,1.5014961957931519,9.486345291137695,2.554338216781616
1711552970763847700,0.54684765625,1.5589239597320557,9.438488960266113,2.5220351219177246
1711552970782807000,0.56580712890625,1.561316728591919,9.381061553955078,2.4885356426239014
1711552970801766400,0.584766357421875,1.5326029062271118,9.414560317993164,2.4370899200439453
1711552970820726000,0.60372607421875,1.4967105388641357,9.600004196166992,2.286342144012451
1711552970839685400,0.622685302734375,1.5050854682922363,9.756733894348145,2.0757737159729004
1711552970858644700,0.641644775390625,1.5553346872329712,9.859625816345215,1.8496519327163696
1711552970877604400,0.660604248046875,1.6031911373138428,9.956535339355469,1.6450655460357666
1711552970896563700,0.679563720703125,1.5912270545959473,9.92423152923584,1.5565310716629028
1711552970915523300,0.6985234375,1.5014961957931519,9.77707290649414,1.6007983684539795
1711552970934482700,0.717482666015625,1.4117653369903564,9.56770133972168,1.6378871202468872
1711552970953442300,0.7364423828125,1.3148560523986816,9.45882797241211,1.597209095954895
1711552970972401700,0.755401611328125,1.1892328262329102,9.499505996704102,1.6115660667419434
1711552970991361000,0.774361083984375,1.1306086778640747,9.56650447845459,1.6151553392410278
1711552971010320600,0.793320556640625,1.1353943347930908,9.638289451599121,1.5541383028030396
1711552971029280000,0.812280029296875,1.155733346939087,9.722038269042969,1.5050854682922363
1711552971048239600,0.831239501953125,1.1676974296569824,9.767501831054688,1.5230315923690796
1711552971067199000,0.850198974609375,1.1808580160140991,9.779465675354004,1.6510475873947144
1711552971086158600,0.86915869140625,1.322034478187561,9.7938232421875,1.7599210739135742
1711552971105118000,0.888117919921875,1.3698909282684326,9.830911636352539,1.9070796966552734
1711552971124077600,0.90707763671875,1.373480200767517,9.879964828491211,2.0817556381225586
1711552971143037000,0.926036865234375,1.4991034269332886,9.919445991516113,2.1846470832824707
1711552971161996500,0.94499658203125,1.659422516822815,9.652647018432617,2.073380708694458
1711552971180956000,0.963955810546875,1.5852450132369995,9.275776863098145,1.8532410860061646
1711552971199915500,0.98291552734375,1.322034478187561,9.146564483642578,1.5864413976669312
1711552971218875000,1.001875,0.9367900490760803,9.292527198791504,1.3950155973434448
1711552971237834500,1.02083447265625,0.6005984544754028,9.378668785095215,1.2323036193847656
1711552971256793900,1.0397939453125,0.41156548261642456,9.19561767578125,0.9655039310455322
1711552971275753500,1.05875341796875,0.349352091550827,8.904889106750488,0.7070791125297546
1711552971294712800,1.077712890625,0.39122650027275085,8.70508861541748,0.6305087804794312
1711552971313672400,1.09667236328125,0.4749752879142761,8.725427627563477,0.7597211599349976
1711552971332632000,1.115632080078125,0.5443671345710754,8.870193481445312,1.1222338676452637
1711552971351591400,1.13459130859375,0.7058826684951782,8.988637924194336,1.5337992906570435
1711552971370550800,1.15355078125,1.144965648651123,9.025727272033691,1.9597218036651611
1711552971389510400,1.172510498046875,1.6055840253829956,8.979066848754883,2.3090739250183105
1711552971408470000,1.191469970703125,1.94297194480896,8.940781593322754,2.579462766647339
1711552971427429400,1.210429443359375,2.084148406982422,8.965906143188477,2.6009981632232666
1711552971446389000,1.229388916015625,2.038684844970703,9.06401252746582,2.4011974334716797
1711552971465348600,1.2483486328125,1.8951154947280884,9.212367057800293,2.0614166259765625
1711552971484308000,1.267307861328125,1.7216359376907349,9.471988677978516,1.7324036359786987
1711552971503267600,1.286267578125,1.7766708135604858,9.671789169311523,1.482353687286377
1711552971522227000,1.30522705078125,1.435693621635437,9.736394882202148,1.3304094076156616
1711552971541186600,1.3241865234375,1.404586911201477,9.798608779907227,1.4847464561462402
1711552971560146200,1.343146240234375,1.8592232465744019,10.066604614257812,1.6307085752487183
1711552971579105500,1.36210546875,2.4873390197753906,10.875378608703613,1.5649060010910034
1711552971598065200,1.381065185546875,3.0029923915863037,11.650653839111328,1.5744773149490356
1711552971617024800,1.400024658203125,3.3176486492156982,11.724830627441406,1.7371892929077148
1711552971635984100,1.418984130859375,3.403790235519409,11.101500511169434,1.8759729862213135
1711552971654943700,1.43794384765625,3.207578659057617,9.954142570495605,1.8759729862213135
1711552971673903400,1.4569033203125,2.6524438858032227,8.93958568572998,1.8077775239944458
1711552971692863000,1.475863037109375,2.1403799057006836,8.675178527832031,1.9298114776611328
1711552971711822300,1.494822265625,2.076970100402832,8.673981666564941,1.97407865524292
1711552971730782000,1.513781982421875,2.227717876434326,8.664410591125488,1.8197416067123413
1711552971749741300,1.5327412109375,2.586641311645508,8.773283958435059,1.5720844268798828
1711552971768701000,1.551700927734375,2.9515466690063477,9.140582084655762,1.423729419708252
1711552971787660500,1.57066064453125,3.3966116905212402,9.742377281188965,1.6007983684539795
1711552971806620200,1.5896201171875,3.78544545173645,9.943374633789062,2.1308085918426514
1711552971825579800,1.608579833984375,3.627519130706787,9.546165466308594,2.781656265258789
1711552971844539100,1.6275390625,3.658625841140747,9.324830055236816,2.9623143672943115
1711552971863498800,1.646498779296875,3.8919260501861572,8.975478172302246,2.5639095306396484
1711552971882458400,1.665458251953125,3.9194436073303223,8.683553695678711,1.8640087842941284
1711552971901418000,1.68441796875,3.559323787689209,8.715856552124023,1.1928220987319946
1711552971920377300,1.70337744140625,2.9515466690063477,8.809176445007324,0.9116654396057129
1711552971939337000,1.7223369140625,2.5292134284973145,8.864211082458496,0.776470959186554
1711552971958296600,1.741296630859375,2.5184457302093506,8.858229637145996,0.6616154313087463
1711552971977256200,1.760256103515625,2.7182464599609375,8.730213165283203,0.6915257573127747
1711552971996215800,1.7792158203125,2.9383862018585205,8.614161491394043,1.046859860420227
1711552972015175200,1.798175048828125,3.0412776470184326,8.516056060791016,1.552941918373108
1711552972034134800,1.817134765625,3.3535408973693848,8.538787841796875,1.9920248985290527
1711552972053094400,1.836094482421875,3.700500249862671,8.590232849121094,2.376072883605957
1711552972072054000,1.855053955078125,4.011567115783691,8.644071578979492,2.6057839393615723
1711552972091013600,1.874013671875,4.150351047515869,8.652446746826172,2.589034080505371
1711552972109973000,1.892972900390625,4.1419758796691895,8.665607452392578,2.297109842300415
1711552972128932600,1.9119326171875,4.147958278656006,8.562715530395508,1.8711873292922974
1711552972147892200,1.930892333984375,4.034298896789551,8.407182693481445,1.5445669889450073
1711552972166851800,1.949851806640625,3.730410575866699,8.303094863891602,1.3627125024795532
1711552972185811500,1.9688115234375,3.4815568923950195,8.408378601074219,1.207179069519043
1711552972204771000,1.98777099609375,3.4791641235351562,8.768498420715332,1.1102696657180786
1711552972223730700,2.006730712890625,3.5808591842651367,9.29611587524414,1.0336993932724
1711552972242690000,2.02568994140625,3.4995031356811523,9.596415519714355,1.1042876243591309
1711552972261649700,2.044649658203125,3.3308091163635254,9.29611587524414,1.1928220987319946
1711552972280609500,2.063609619140625,3.273381471633911,8.916853904724121,1.1808580160140991
1711552972299569200,2.082569091796875,3.201596736907959,8.827122688293457,1.2047861814498901
1711552972318528500,2.101528564453125,3.3607194423675537,9.287740707397461,1.3232308626174927
1711552972337488100,2.120488037109375,3.5509488582611084,9.847661972045898,1.3639088869094849
1711552972356447700,2.13944775390625,3.4337005615234375,9.955338478088379,1.4476577043533325
1711552972375407400,2.158407470703125,3.253042459487915,9.649057388305664,1.5038890838623047
1711552972394367000,2.177366943359375,3.2039895057678223,9.487542152404785,1.337587833404541
1711552972413326600,2.19632666015625,3.2889347076416016,9.489934921264648,0.9643075466156006
1711552972432286200,2.2152861328125,3.3068809509277344,9.509077072143555,0.5659025311470032
1711552972451245800,2.234245849609375,3.219542980194092,9.477970123291016,0.27756741642951965
1711552972470205400,2.253205322265625,3.098705291748047,9.448060035705566,0.07417750358581543
1711552972489165000,2.2721650390625,3.0376882553100586,9.346364974975586,-0.037088751792907715
1711552972508124700,2.291124755859375,2.9862427711486816,9.169296264648438,-0.11126625537872314
1711552972527084300,2.310084228515625,3.0520453453063965,9.098708152770996,-0.12442677468061447
1711552972546044000,2.3290439453125,3.170490026473999,9.10229778289795,-0.07417750358581543
1711552972565003500,2.34800341796875,3.297309637069702,9.177671432495117,0.10408778488636017
1711552972583963100,2.366963134765625,3.304488182067871,9.18843936920166,0.3326023519039154
1711552972602922800,2.3859228515625,3.2937204837799072,9.120243072509766,0.5264210104942322
1711552972621882400,2.40488232421875,3.373879909515381,8.981459617614746,0.747757077217102
1711552972640842000,2.423842041015625,3.5090744495391846,8.995817184448242,0.8051848411560059
1711552972659801600,2.442801513671875,3.858426570892334,9.131011009216309,0.7214360237121582
1711552972678761200,2.46176123046875,3.954139471054077,9.128618240356445,0.6759724020957947
1711552972697720800,2.480720947265625,4.024727821350098,8.973084449768066,0.6496513485908508
1711552972716680400,2.499680419921875,3.937389612197876,8.839086532592773,0.5467599630355835
1711552972735640000,2.51864013671875,3.8225340843200684,8.81396198272705,0.5635097622871399
1711552972754599700,2.537599609375,3.867997884750366,8.731410026550293,0.6281159520149231
1711552972773559300,2.556559326171875,3.8009986877441406,8.57468032836914,0.5228317379951477
1711552972792519000,2.575518798828125,3.8333017826080322,8.526823043823242,0.16510476171970367
1711552972811478500,2.594478515625,3.8297126293182373,8.726624488830566,0.12083754688501358
1711552972830438100,2.613438232421875,3.869194269180298,8.926424980163574,0.3326023519039154
1711552972849397800,2.632397705078125,3.906282901763916,8.934800148010254,0.47258245944976807
1711552972868357400,2.651357421875,3.8368911743164062,8.873783111572266,0.4773681163787842
1711552972887317000,2.67031689453125,3.6813576221466064,8.880961418151855,0.4905286431312561
1711552972906276600,2.689276611328125,3.7387852668762207,8.849854469299316,0.49651068449020386
1711552972925236200,2.708236328125,3.7507495880126953,8.819944381713867,0.3768695592880249
1711552972944196000,2.727196044921875,3.4468610286712646,8.746963500976562,0.397208571434021
1711552972963155700,2.74615576171875,3.3415768146514893,8.656036376953125,0.49292147159576416
1711552972982115300,2.765115234375,3.436093330383301,8.714659690856934,0.623330295085907
1711552973001075000,2.784074951171875,3.6610186100006104,8.913264274597168,0.776470959186554
1711552973020034600,2.80303466796875,4.0905303955078125,9.159725189208984,1.0049854516983032
1711552973038994200,2.821994140625,4.5714874267578125,9.281759262084961,1.290927767753601
1711552973057954000,2.8409541015625,4.9052863121032715,9.446864128112793,1.4632110595703125
1711552973076913400,2.859913330078125,4.883750915527344,9.542576789855957,1.5601203441619873
1711552973095873300,2.878873291015625,4.71744966506958,9.415757179260254,1.4608181715011597
1711552973114833000,2.8978330078125,4.5714874267578125,9.129815101623535,1.2430713176727295
1711552973133792500,2.91679248046875,4.3178486824035645,8.725427627563477,1.2287144660949707
1711552973152752000,2.935752197265625,4.36091947555542,8.439485549926758,1.3639088869094849
1711552973171711700,2.954711669921875,4.553541660308838,8.102097511291504,1.592423439025879
1711552973190671400,2.97367138671875,4.5822553634643555,7.739584922790527,1.6761722564697266
1711552973209631200,2.99263134765625,4.514060020446777,7.607979774475098,1.4476577043533325
1711552973228590800,3.0115908203125,4.4614176750183105,7.856832981109619,1.0671988725662231
1711552973247550500,3.030550537109375,4.380061626434326,8.149953842163086,0.8039883971214294
1711552973266510000,3.049510009765625,4.302295207977295,8.444271087646484,0.6640082597732544
1711552973285469700,3.0684697265625,4.392025947570801,8.656036376953125,0.7034898400306702
1711552973304429600,3.0874296875,4.6540398597717285,8.644071578979492,0.9762716293334961
1711552973323389000,3.106388916015625,4.82751989364624,8.459824562072754,1.4691931009292603
1711552973342348800,3.125348876953125,5.119443893432617,8.34855842590332,1.9920248985290527
1711552973361308400,3.144308349609375,5.418546676635742,8.404789924621582,2.414358139038086
1711552973380268000,3.16326806640625,5.501099109649658,8.516056060791016,2.726621389389038
1711552973399227600,3.1822275390625,5.509474277496338,8.505288124084473,2.8761727809906006
1711552973418187500,3.2011875,5.485546112060547,8.409575462341309,2.6811578273773193
1711552973437147100,3.220147216796875,5.309673309326172,8.394021987915039,2.335394859313965
1711552973456106800,3.239106689453125,5.142175674438477,8.517251968383789,1.9597218036651611
1711552973475066400,3.25806640625,5.19960355758667,8.614161491394043,1.534995675086975
1711552973494026000,3.27702587890625,5.306084156036377,8.285148620605469,1.2897313833236694
1711552973512985900,3.29598583984375,4.839483737945557,7.785048484802246,1.3914263248443604
1711552973531945500,3.314945556640625,4.923232555389404,7.701299667358398,1.3316057920455933
1711552973550905000,3.333905029296875,5.193621635437012,7.88913631439209,1.0528420209884644
1711552973569864700,3.35286474609375,5.198407173156738,7.966903209686279,1.168893814086914
1711552973588824300,3.37182421875,5.155336380004883,7.920242786407471,1.3926228284835815
1711552973607784200,3.3907841796875,5.233103275299072,7.89631462097168,1.5158531665802002
1711552973626743800,3.409743896484375,5.173282623291016,7.8388872146606445,1.7635103464126587
1711552973645703400,3.428703369140625,5.282155990600586,7.69531774520874,2.1583259105682373
1711552973664663300,3.447663330078125,5.526223659515381,7.597211837768555,2.392822742462158
1711552973683623000,3.466622802734375,5.956932067871094,7.645068168640137,2.449054002761841
1711552973702582500,3.48558251953125,6.220142364501953,7.859225749969482,2.42512583732605
1711552973721542100,3.504542236328125,6.16271448135376,8.219346046447754,2.5531418323516846
1711552973740502000,3.523501953125,6.056233882904053,8.103293418884277,2.376072883605957
1711552973759461600,3.542461669921875,5.909075736999512,8.033902168273926,2.032702922821045
1711552973778421200,3.561421142578125,6.001199245452881,7.995616912841797,1.6689938306808472
1711552973797381000,3.580381103515625,5.990431308746338,7.886743545532227,1.4416756629943848
1711552973816340700,3.5993408203125,5.974878311157227,7.746763229370117,1.2275179624557495
1711552973835300400,3.61830029296875,6.027520179748535,7.706085205078125,1.1473584175109863
1711552973854260000,3.637260009765625,6.003592014312744,7.59362268447876,1.2083754539489746
1711552973873219800,3.6562197265625,6.01675271987915,7.4847493171691895,1.3052847385406494
1711552973892179500,3.675179443359375,6.1603217124938965,7.499105930328369,1.3471591472625732
1711552973911139000,3.69413916015625,6.270391941070557,7.551748275756836,1.5397813320159912
1711552973930099000,3.713098876953125,6.606583118438721,7.507481098175049,1.7120646238327026
1711552973949058600,3.73205859375,6.831508636474609,7.216753005981445,2.0099709033966064
1711552973968018200,3.75101806640625,6.881757736206055,6.957131862640381,1.8783657550811768
1711552973986978000,3.76997802734375,6.922435760498047,6.690331935882568,1.3495519161224365
1711552974005937700,3.788937744140625,6.215356826782227,6.49770975112915,1.1988041400909424
1711552974024897300,3.807897216796875,5.72123908996582,6.766902446746826,1.1413763761520386
1711552974043857200,3.826857177734375,5.374279499053955,7.076773166656494,1.0504491329193115
1711552974062816800,3.845816650390625,5.602794170379639,6.97986364364624,1.1186445951461792
1711552974081776400,3.8647763671875,6.15553617477417,6.951149940490723,1.3698909282684326
1711552974100736000,3.883736083984375,6.500102519989014,6.695117950439453,1.4321043491363525
1711552974119696000,3.90269580078125,6.660421848297119,6.558726787567139,1.2023934125900269
1711552974138655500,3.921655517578125,6.544369697570801,6.562315940856934,0.989432156085968
1711552974157615400,3.940615478515625,6.439085960388184,6.716653347015381,1.022931694984436
1711552974176575000,3.959574951171875,6.496513366699219,6.702296257019043,1.2538390159606934
1711552974195534600,3.97853466796875,6.563512325286865,6.782455921173096,1.612762451171875
1711552974214494500,3.997494384765625,6.591030120849609,6.999006271362305,1.8089739084243774
1711552974233454000,4.0164541015625,6.649653911590576,7.293323516845703,1.8616160154342651
1711552974252413700,4.03541357421875,6.7070817947387695,7.277770042419434,2.249253273010254
1711552974271373600,4.05437353515625,6.585047721862793,7.045666217803955,2.7864420413970947
1711552974290333200,4.073333251953125,6.315855503082275,7.081558704376221,2.4119651317596436
1711552974309292800,4.092292724609375,6.10169792175293,7.270591735839844,1.6055840253829956
1711552974328252700,4.111252685546875,5.96889591217041,7.202396392822266,1.1162517070770264
1711552974347212300,4.13021240234375,5.97727108001709,7.308876991271973,1.1653046607971191
1711552974366172200,4.149172119140625,6.1675004959106445,7.506284713745117,1.4213366508483887
1711552974385131800,4.1681318359375,6.406782627105713,7.369893550872803,1.28255295753479
1711552974404091400,4.18709130859375,6.278766632080078,7.146164894104004,1.176072359085083
1711552974423051300,4.20605126953125,6.332605361938477,7.733603000640869,1.805384635925293
1711552974442011000,4.225010986328125,6.448657035827637,8.346165657043457,2.396411895751953
1711552974460970500,4.243970458984375,6.064609050750732,8.069794654846191,2.2325034141540527
1711552974479930400,4.262930419921875,5.901896953582764,7.488338470458984,1.5792629718780518
1711552974498890000,4.281889892578125,5.535795211791992,6.81595516204834,0.6281159520149231
1711552974517849900,4.300849853515625,4.612165451049805,6.732206344604492,0.4498506486415863
1711552974536809500,4.3198095703125,4.268795490264893,7.156932353973389,1.1724830865859985
1711552974555769300,4.338769287109375,4.344169616699219,7.470392227172852,1.8843477964401245
1711552974574729000,4.35772900390625,4.789234638214111,7.454838752746582,2.506481647491455
1711552974593688600,4.3766884765625,5.560919761657715,7.307680130004883,2.7278177738189697
1711552974612648400,4.3956484375,5.789434432983398,7.336394309997559,2.778067111968994
1711552974631608000,4.414608154296875,5.347958564758301,7.500302791595459,3.1202406883239746
1711552974650567700,4.433567626953125,4.95912504196167,7.76470947265625,3.862015724182129
1711552974669527600,4.452527587890625,4.8813581466674805,8.151150703430176,4.435096740722656
1711552974688487200,4.471487060546875,4.742574691772461,8.539983749389648,4.681557655334473
1711552974707447000,4.490447021484375,4.652843475341797,8.522037506103516,3.9254255294799805
1711552974726406700,4.50940673828125,4.332205295562744,8.659625053405762,2.825923442840576
1711552974745366500,4.528366455078125,3.6945180892944336,8.873783111572266,2.076970100402832
1711552974764326100,4.547326171875,2.761317253112793,9.084351539611816,1.690529227256775
1711552974783286000,4.5662861328125,2.3856441974639893,9.196813583374023,1.6390835046768188
1711552974802245600,4.58524560546875,2.3916261196136475,9.349954605102539,1.456032633781433
1711552974821205500,4.60420556640625,2.4155545234680176,9.609575271606445,1.6366907358169556
1711552974840165000,4.6231650390625,2.63449764251709,9.783055305480957,2.0757737159729004
1711552974859124700,4.642124755859375,2.9180471897125244,9.647860527038574,2.609373092651367
1711552974878084600,4.661084716796875,2.999403238296509,9.52941608428955,2.8893332481384277
1711552974897044200,4.680044189453125,2.89890456199646,9.67777156829834,3.0484559535980225
1711552974916004000,4.699004150390625,2.641676187515259,9.738788604736328,2.9563324451446533
1711552974934963700,4.717963623046875,2.166700839996338,9.80817985534668,2.6596224308013916
1711552974953923600,4.736923583984375,1.7599210739135742,9.978070259094238,2.324627161026001
1711552974972883200,4.75588330078125,1.5302101373672485,9.91107177734375,2.0518453121185303
1711552974991842800,4.7748427734375,1.3591232299804688,9.698110580444336,1.801795482635498
1711552975010802700,4.793802734375,1.2921242713928223,9.562915802001953,1.5996019840240479
1711552975029762300,4.81276220703125,1.1700903177261353,9.54377269744873,1.5589239597320557
1711552975048722200,4.83172216796875,1.0360921621322632,9.637093544006348,1.7228323221206665
1711552975067681800,4.850681884765625,1.1748759746551514,9.632308006286621,1.9202401638031006
1711552975086641700,4.8696416015625,1.5397813320159912,9.938589096069336,2.1260228157043457
1711552975105601300,4.888601318359375,1.7611174583435059,10.16710376739502,2.447857618331909
1711552975124561200,4.90756103515625,1.9956140518188477,10.101301193237305,2.3856441974639893
1711552975143520800,4.926520751953125,1.9716858863830566,9.767501831054688,2.307877540588379
1711552975162480600,4.945480712890625,1.7802600860595703,9.422935485839844,2.2791635990142822
1711552975181440300,4.964440185546875,1.7312071323394775,9.381061553955078,2.073380708694458
1711552975200400100,4.983400146484375,1.679761528968811,9.515059471130371,1.8197416067123413
1711552975219359700,5.00235986328125,1.534995675086975,9.372686386108398,1.6582261323928833
1711552975238319600,5.021319580078125,1.4919248819351196,9.06401252746582,1.545763373374939
1711552975257279200,5.040279296875,1.5469598770141602,8.790034294128418,1.4967105388641357
1711552975276239000,5.059239013671875,1.542174220085144,8.773283958435059,1.534995675086975
1711552975295198700,5.07819873046875,1.6713865995407104,8.96949577331543,1.5960127115249634
1711552975314158600,5.09715869140625,1.9058831930160522,9.139386177062988,1.6654045581817627
1711552975333118200,5.1161181640625,2.0099709033966064,9.174081802368164,1.6713865995407104
1711552975352078000,5.135078125,1.9202401638031006,8.819944381713867,1.786242127418518
1711552975371037700,5.15403759765625,1.8161523342132568,8.640482902526855,2.2396819591522217
1711552975389997600,5.17299755859375,2.283949136734009,8.9910306930542,2.713460922241211
1711552975408957200,5.191957275390625,3.129812002182007,9.419346809387207,2.7385854721069336
1711552975427917000,5.2109169921875,3.3343982696533203,9.483952522277832,2.427518606185913
1711552975446876700,5.229876708984375,2.864208698272705,9.18843936920166,2.021935224533081
1711552975465836500,5.24883642578125,2.242074728012085,8.863015174865723,1.6510475873947144
1711552975484796200,5.267796142578125,1.5469598770141602,8.863015174865723,1.454836130142212
1711552975503755800,5.286755859375,1.0660024881362915,9.312865257263184,1.6319050788879395
1711552975522715600,5.305715576171875,1.077966570854187,9.742377281188965,1.8735800981521606
1711552975541675300,5.32467529296875,1.3950155973434448,9.876375198364258,1.9130617380142212
1711552975560635100,5.34363525390625,1.612762451171875,9.91825008392334,2.1056840419769287
1711552975579594800,5.3625947265625,1.9800606966018677,9.879964828491211,2.266003131866455
1711552975598554600,5.3815546875,2.063809633255005,9.622735977172852,2.537588357925415
1711552975617514500,5.400514404296875,1.9800606966018677,9.372686386108398,2.946761131286621
1711552975636474000,5.41947412109375,2.1894326210021973,9.158528327941895,3.236292600631714
1711552975655434000,5.43843408203125,2.4993033409118652,8.96231746673584,3.198007345199585
1711552975674393600,5.4573935546875,2.458625316619873,8.83071231842041,2.9970104694366455
1711552975693353500,5.476353515625,2.0961127281188965,8.97787094116211,2.7493531703948975
1711552975712313000,5.49531298828125,1.7850457429885864,9.287740707397461,2.5471596717834473
1711552975731273000,5.51427294921875,1.994417667388916,9.430113792419434,2.2157537937164307
1711552975750232600,5.533232666015625,2.3270199298858643,9.387042999267578,1.7407784461975098
1711552975769192400,5.5521923828125,2.142772674560547,9.452845573425293,1.557727575302124
1711552975788152000,5.571152099609375,1.6402798891067505,9.622735977172852,1.8305093050003052
1711552975807112000,5.59011181640625,1.4021940231323242,9.468399047851562,2.121237277984619
1711552975826071600,5.609071533203125,1.5876377820968628,9.031708717346191,2.2444677352905273
1711552975845031400,5.628031494140625,2.0135602951049805,8.888139724731445,2.4646072387695312
1711552975863991300,5.6469912109375,2.3473589420318604,8.965906143188477,2.6596224308013916
1711552975882951000,5.665950927734375,2.4466612339019775,9.274580955505371,2.8486554622650146
1711552975901910800,5.684910888671875,2.36291241645813,9.473184585571289,2.86061954498291
1711552975920870400,5.703870361328125,2.2911276817321777,9.135796546936035,2.53399920463562
1711552975939830300,5.722830322265625,2.317448616027832,8.732605934143066,2.0482561588287354
1711552975958790000,5.741789794921875,2.11405873298645,8.776873588562012,1.7922241687774658
1711552975977749800,5.760749755859375,1.7252250909805298,9.145368576049805,1.939382791519165
1711552975996709600,5.779709716796875,1.4943177700042725,9.580862045288086,2.1990039348602295
1711552976015669200,5.798669189453125,1.6223337650299072,9.56650447845459,2.352144718170166
1711552976034629000,5.817629150390625,2.0338993072509766,9.159725189208984,2.4837498664855957
1711552976053588700,5.836588623046875,2.4011974334716797,8.833105087280273,2.682354211807251
1711552976072548600,5.855548583984375,2.555534601211548,8.81396198272705,2.9312076568603516
1711552976091508200,5.87450830078125,2.579462766647339,8.963513374328613,2.9599215984344482
1711552976110468000,5.893468017578125,2.2947168350219727,9.07119083404541,2.7936203479766846
1711552976129428000,5.912427978515625,1.903490424156189,9.363115310668945,2.7397818565368652
1711552976148387600,5.9313876953125,1.7982062101364136,9.734002113342285,2.7074787616729736
1711552976167347500,5.950347412109375,1.7718851566314697,9.829715728759766,2.599801778793335
1711552976186307000,5.96930712890625,1.714457392692566,9.722038269042969,2.465803623199463
1711552976205267000,5.988266845703125,1.6187444925308228,9.637093544006348,2.449054002761841
1711552976224226800,6.007226806640625,1.6139588356018066,9.562915802001953,2.6141586303710938
1711552976243186400,6.0261865234375,1.7204394340515137,9.360722541809082,2.702693223953247
1711552976262146300,6.045146240234375,1.8867406845092773,9.115457534790039,2.6727828979492188
1711552976281106000,6.06410595703125,2.0721843242645264,9.10229778289795,2.517249345779419
1711552976300065800,6.083065673828125,2.124826431274414,9.119047164916992,2.3497519493103027
1711552976319025700,6.102025634765625,2.0099709033966064,9.10110092163086,2.2995026111602783
1711552976337985300,6.1209853515625,1.8747764825820923,9.151350021362305,2.194218397140503
1711552976356945200,6.139945068359375,1.8400806188583374,9.183652877807617,2.0925233364105225
1711552976375904800,6.15890478515625,1.8987047672271729,9.129815101623535,2.059023857116699
1711552976394864600,6.17786474609375,2.043470621109009,9.152546882629395,2.122433662414551
1711552976413824500,6.196824462890625,2.2241287231445312,9.164510726928711,2.3030917644500732
1711552976432784100,6.2157841796875,2.3605196475982666,9.248259544372559,2.4741785526275635
1711552976451744000,6.234743896484375,2.3222343921661377,9.399007797241211,2.640479803085327
1711552976470703900,6.253703857421875,2.203789710998535,9.442078590393066,2.6668007373809814
1711552976489663500,6.27266357421875,2.0315065383911133,9.535398483276367,2.599801778793335
1711552976508623400,6.291623291015625,1.950150489807129,9.602396965026855,2.4837498664855957
1711552976527583200,6.310583251953125,1.95852530002594,9.531808853149414,2.344966173171997
1711552976546543000,6.329543212890625,1.908276081085205,9.278169631958008,2.255235433578491
1711552976565502700,6.348502685546875,1.8388842344284058,9.072386741638184,2.262413740158081
1711552976584462600,6.367462646484375,1.892722725868225,8.96231746673584,2.2995026111602783
1711552976603422500,6.38642236328125,1.9800606966018677,8.971888542175293,2.4059832096099854
1711552976622382000,6.405382080078125,2.104487419128418,9.026923179626465,2.42512583732605
1711552976641342000,6.424342041015625,2.097309112548828,9.125029563903809,2.3545374870300293
1711552976660301800,6.4433017578125,1.9824535846710205,9.193224906921387,2.30069899559021
1711552976679261400,6.462261474609375,1.9178473949432373,9.207581520080566,2.1990039348602295
1711552976698221300,6.48122119140625,1.9369899034500122,9.176474571228027,2.032702922821045
1711552976717181200,6.50018115234375,2.0374884605407715,9.105886459350586,1.892722725868225
1711552976736141000,6.51914111328125,1.872383713722229,9.166903495788574,1.7886348962783813
1711552976755100700,6.5381005859375,1.5254244804382324,9.261420249938965,1.9645073413848877
1711552976774060500,6.557060546875,1.337587833404541,9.236295700073242,2.2157537937164307
1711552976793020400,6.5760205078125,1.466800332069397,9.351150512695312,2.3844478130340576
1711552976811980300,6.594980224609375,1.8664016723632812,9.371489524841309,2.4131617546081543
1711552976830940000,6.61393994140625,2.3509483337402344,9.123832702636719,2.2480568885803223
1711552976849899800,6.632899658203125,2.5256242752075195,8.901300430297852,2.0207388401031494
1711552976868859600,6.651859619140625,2.3234307765960693,8.9312105178833,1.8544375896453857
1711552976887819500,6.670819580078125,1.9932212829589844,9.153742790222168,1.7778671979904175
1711552976906779100,6.689779052734375,1.7599210739135742,9.337990760803223,1.6115660667419434
1711552976925739000,6.708739013671875,1.6965112686157227,9.425328254699707,1.5278172492980957
1711552976944699000,6.727698974609375,1.714457392692566,9.469595909118652,1.5278172492980957
1711552976963658800,6.74665869140625,1.7288143634796143,9.588040351867676,1.568495273590088
1711552976982618600,6.76561865234375,1.612762451171875,9.950552940368652,1.7060825824737549
1711552977001578500,6.78457861328125,1.521835207939148,10.445867538452148,1.9417755603790283
1711552977020538000,6.8035380859375,1.6247265338897705,10.583454132080078,2.2468605041503906
1711552977039498000,6.822498046875,1.836491346359253,10.381260871887207,2.36291241645813
1711552977058457900,6.841457763671875,2.00518536567688,10.206584930419922,2.4023938179016113
1711552977077417700,6.860417724609375,2.0063817501068115,9.92423152923584,2.4705893993377686
1711552977096377300,6.87937744140625,1.8903298377990723,9.468399047851562,2.438286304473877
1711552977115337500,6.89833740234375,1.903490424156189,9.030512809753418,2.146361827850342
1711552977134297000,6.917297119140625,1.797009825706482,8.80798053741455,1.892722725868225
1711552977153257000,6.936257080078125,1.7539390325546265,8.730213165283203,1.7766708135604858
1711552977172216800,6.955216796875,1.963310956954956,8.58066177368164,1.4177473783493042
1711552977191176700,6.9741767578125,1.9621145725250244,8.62732219696045,0.9966106414794922
1711552977210136600,6.993136474609375,1.6869399547576904,8.900103569030762,0.6556333899497986
1711552977229096200,7.01209619140625,1.322034478187561,9.479166984558105,0.5982056856155396
1711552977248056300,7.031056396484375,1.1676974296569824,9.881160736083984,0.7082754969596863
1711552977267016000,7.050015869140625,1.3387842178344727,10.1216402053833,0.8470591902732849
1711552977285975800,7.068975830078125,2.1164517402648926,10.829915046691895,1.0241280794143677
1711552977304935700,7.087935791015625,2.338984251022339,9.950552940368652,0.914058268070221
1711552977323895600,7.1068955078125,2.4323041439056396,9.000602722167969,0.5706881880760193
1711552977342855400,7.12585546875,2.4705893993377686,9.245866775512695,0.7668996453285217
1711552977361815300,7.144815185546875,2.328216314315796,9.963713645935059,1.3818551301956177
1711552977380775200,7.163775146484375,2.368894338607788,9.868000984191895,1.7048860788345337
1711552977399735000,7.182735107421875,2.421536445617676,8.840283393859863,1.2993026971817017
1711552977418695000,7.20169482421875,2.139183521270752,8.236095428466797,0.5120640397071838
1711552977437654500,7.220654541015625,1.5481562614440918,8.535198211669922,-0.21415762603282928
1711552977456614700,7.23961474609375,0.9044869542121887,9.150154113769531,-0.3278166949748993
1711552977475574300,7.25857421875,0.6556333899497986,9.506684303283691,-0.04426721855998039
1711552977494534100,7.2775341796875,0.8769695162773132,9.597611427307129,0.23330020904541016
1711552977513494000,7.296493896484375,1.1162517070770264,9.688538551330566,0.5108676552772522
1711552977532454000,7.315453857421875,1.085145115852356,9.806983947753906,0.8949156403541565
1711552977551413800,7.334413818359375,1.3100703954696655,9.93380355834961,1.3818551301956177
1711552977570373600,7.35337353515625,1.947757601737976,9.891928672790527,1.770688772201538
1711552977589333500,7.37233349609375,2.4059832096099854,9.735198974609375,2.1379871368408203
1711552977608293400,7.39129345703125,2.5639095306396484,9.749555587768555,2.3150558471679688
1711552977627253200,7.410253173828125,2.4993033409118652,9.897911071777344,2.2025933265686035
1711552977646213000,7.429213134765625,2.124826431274414,9.90987491607666,1.9920248985290527
1711552977665173000,7.448173095703125,1.7168502807617188,9.820143699645996,1.7778671979904175
1711552977684132900,7.4671328125,1.6402798891067505,9.644271850585938,1.4105689525604248
1711552977703092700,7.4860927734375,1.6055840253829956,9.66819953918457,1.0396814346313477
1711552977722052600,7.505052490234375,1.4093725681304932,9.860821723937988,0.8075776696205139
1711552977741012500,7.524012451171875,1.2849457263946533,9.903892517089844,0.6939185857772827
1711552977759972400,7.542972412109375,1.3471591472625732,9.78544807434082,0.8303094506263733
1711552977778932200,7.56193212890625,1.5625132322311401,9.633503913879395,1.0432707071304321
1711552977797892000,7.58089208984375,1.9381862878799438,9.565308570861816,1.2801600694656372
1711552977816852000,7.59985205078125,2.266003131866455,9.461220741271973,1.5385849475860596
1711552977835811800,7.618811767578125,2.407179594039917,9.43609619140625,1.7204394340515137
1711552977854771700,7.637771728515625,2.417947292327881,9.528220176696777,1.8113667964935303
1711552977873731600,7.656731689453125,2.3533411026000977,9.44447135925293,1.8424733877182007
1711552977892691500,7.67569140625,2.2432711124420166,9.136993408203125,1.7730815410614014
1711552977911651300,7.6946513671875,2.132004976272583,8.885746955871582,1.6187444925308228
1711552977930611200,7.713611083984375,1.950150489807129,8.884550094604492,1.3459627628326416
1711552977949571300,7.7325712890625,1.8089739084243774,9.119047164916992,0.9619147181510925
1711552977968531200,7.75153125,1.7120646238327026,9.401400566101074,0.6281159520149231
1711552977987491000,7.770490966796875,1.6630117893218994,9.577272415161133,0.4426721930503845
1711552978006451000,7.789450927734375,1.6761722564697266,9.645467758178711,0.42831525206565857
1711552978025410800,7.808410888671875,1.7240287065505981,9.704092025756836,0.6340979933738708
1711552978044370700,7.82737060546875,1.812563180923462,9.742377281188965,0.9942178130149841
1711552978063330600,7.84633056640625,2.0410776138305664,9.686145782470703,1.29810631275177
1711552978082290400,7.86529052734375,2.352144718170166,9.603593826293945,1.4644074440002441
1711552978101250300,7.884250244140625,2.5698914527893066,9.603593826293945,1.4967105388641357
1711552978120210200,7.903210205078125,2.6392834186553955,9.640682220458984,1.4189438819885254
1711552978139170000,7.922170166015625,2.572284460067749,9.68375301361084,1.2789636850357056
1711552978158130200,7.941130126953125,2.4191436767578125,9.701699256896973,1.0995019674301147
1711552978177090000,7.960090087890625,2.258824586868286,9.67657470703125,0.7836494445800781
1711552978196050000,7.9790498046875,2.018345832824707,9.471988677978516,0.45942193269729614
1711552978215009800,7.998009765625,1.8855443000793457,9.232706069946289,0.16390834748744965
1711552978233969700,8.0169697265625,1.923829436302185,9.147761344909668,-0.038285162299871445
1711552978252929500,8.035929443359375,1.9022940397262573,9.238688468933105,-0.007178467698395252
1711552978271889700,8.0548896484375,1.6941183805465698,9.285347938537598,0.22971096634864807
1711552978290849500,8.073849609375,1.5242279767990112,9.18843936920166,0.17706887423992157
1711552978309809400,8.092809326171874,1.6666009426116943,9.371489524841309,0.22971096634864807
1711552978328769300,8.111769287109375,1.8831514120101929,9.449256896972656,0.4630111753940582
1711552978347729200,8.130729248046874,1.9669002294540405,9.347561836242676,0.6400800347328186
1711552978366689000,8.14968896484375,1.963310956954956,9.455238342285156,0.97148597240448
1711552978385649200,8.168649169921874,1.9980069398880005,9.701699256896973,1.5242279767990112
1711552978404609000,8.187609130859375,2.2648067474365234,9.711270332336426,2.23848557472229
1711552978423569000,8.20656884765625,2.528017044067383,9.515059471130371,2.819941520690918
1711552978442528800,8.22552880859375,2.561516523361206,9.454042434692383,3.4061830043792725
1711552978461488600,8.244488525390626,2.60339093208313,9.236295700073242,3.8321053981781006
1711552978480448500,8.263448486328125,2.7876384258270264,9.042476654052734,3.5952160358428955
1711552978499408400,8.282408447265626,2.6560330390930176,9.144171714782715,3.153740167617798
1711552978518368500,8.301368408203125,2.1439690589904785,9.44327449798584,2.7984061241149902
1711552978537328400,8.320328369140626,1.7084753513336182,9.726823806762695,2.4370899200439453
1711552978556288300,8.339288330078125,1.5146567821502686,9.650253295898438,2.0685951709747314
1711552978575248100,8.358248046875,1.4679967164993286,9.30449104309082,1.7336000204086304
1711552978594208300,8.377208251953125,1.545763373374939,8.891729354858398,1.690529227256775
1711552978613168000,8.396168212890625,1.8771693706512451,8.562715530395508,1.786242127418518
1711552978632128000,8.4151279296875,2.3473589420318604,8.415556907653809,1.8137595653533936
1711552978651088000,8.434087890625,2.7086751461029053,8.343772888183594,1.6522440910339355
1711552978670048000,8.453048095703124,2.8965117931365967,8.321041107177734,1.4608181715011597
1711552978689007900,8.4720078125,3.0041887760162354,8.630910873413086,1.3040883541107178
1711552978707967700,8.4909677734375,3.1621150970458984,9.279366493225098,1.2502498626708984
1711552978726927600,8.509927734375,3.3104701042175293,9.945767402648926,1.3950155973434448
1711552978745887700,8.5288876953125,3.449253797531128,10.321440696716309,1.7288143634796143
1711552978764847600,8.54784765625,3.6023945808410645,10.307083129882812,1.9692929983139038
1711552978783807500,8.566807373046874,3.5641093254089355,10.103693962097168,1.9669002294540405
1711552978802767400,8.585767333984375,3.280559778213501,9.780662536621094,1.7084753513336182
1711552978821727200,8.604727294921876,2.8522446155548096,9.538987159729004,1.3627125024795532
1711552978840687400,8.623687255859375,2.4646072387695312,9.268598556518555,1.0217353105545044
1711552978859647200,8.642647216796876,2.1882362365722656,9.208778381347656,0.656829833984375
1711552978878607000,8.661607177734375,1.9010975360870361,9.45164966583252,0.5288137793540955
1711552978897567200,8.680567138671876,1.8293129205703735,9.631111145019531,0.6125625967979431
1711552978916527000,8.699527099609375,2.3054845333099365,9.33440113067627,0.8602197170257568
1711552978935487000,8.718487060546876,3.078366279602051,8.612964630126953,1.0671988725662231
1711552978954446800,8.73744677734375,3.7160534858703613,7.957331657409668,1.29810631275177
1711552978973406700,8.75640673828125,3.665804386138916,7.95134973526001,1.7754744291305542
1711552978992366800,8.775366943359375,2.9790642261505127,9.022137641906738,2.6536402702331543
1711552979011326700,8.79432666015625,2.410768747329712,10.15872859954834,3.6502509117126465
1711552979030286800,8.813286865234375,2.3988046646118164,10.41356372833252,4.077369689941406
1711552979049246700,8.832246826171875,2.8414769172668457,9.702896118164062,3.5808591842651367
1711552979068206600,8.85120654296875,3.1764719486236572,8.678768157958984,2.537588357925415
1711552979087166500,8.87016650390625,3.046063184738159,8.128418922424316,1.568495273590088
1711552979106126300,8.889126220703124,2.568695068359375,8.183453559875488,0.9607182741165161
1711552979125086500,8.90808642578125,2.132004976272583,8.663214683532715,0.5324030518531799
1711552979144046300,8.92704638671875,1.8640087842941284,9.074779510498047,0.19142581522464752
1711552979163006200,8.946006103515625,1.8245272636413574,9.186046600341797,-0.05623133108019829
1711552979181966300,8.96496630859375,2.0542383193969727,9.152546882629395,-0.0933200865983963
1711552979200926200,8.98392626953125,2.4059832096099854,9.162117958068848,0.04785645380616188
1711552979219886000,9.002885986328126,2.6392834186553955,9.231510162353516,0.4426721930503845
1711552979238846200,9.02184619140625,2.7146573066711426,9.206384658813477,1.0516455173492432
1711552979257806000,9.04080615234375,2.857030153274536,8.834300994873047,1.4021940231323242
1711552979276766000,9.059765869140625,2.915654420852661,8.507680892944336,1.714457392692566
1711552979295725800,9.078725830078126,2.9144580364227295,8.864211082458496,2.190629243850708
1711552979314686000,9.09768603515625,2.825923442840576,9.704092025756836,2.713460922241211
1711552979333645800,9.116645751953126,2.80558443069458,10.504491806030273,2.9826533794403076
1711552979352605700,9.135605712890625,2.9347970485687256,10.776076316833496,2.854637384414673
1711552979371565600,9.154565673828126,3.0352954864501953,10.569097518920898,2.348555326461792
1711552979390525700,9.173525634765625,2.9934210777282715,10.217352867126465,1.8963119983673096
1711552979409485600,9.192485595703126,2.7529425621032715,10.000802040100098,1.7670994997024536
1711552979428445700,9.21144580078125,2.368894338607788,10.100104331970215,2.14516544342041
1711552979447405600,9.230405517578125,2.093719720840454,10.072587013244629,2.833101987838745
1711552979466365400,9.249365478515625,2.396411895751953,9.757930755615234,3.342773199081421
1711552979485325300,9.2683251953125,2.8654050827026367,9.151350021362305,3.3714871406555176
1711552979504285400,9.287285400390624,2.9790642261505127,8.474181175231934,3.2721848487854004
1711552979523245300,9.306245361328125,2.8450660705566406,7.794619560241699,2.772084951400757
1711552979542205200,9.325205078125,2.3676979541778564,7.402196884155273,1.9800606966018677
1711552979561165000,9.3441650390625,1.552941918373108,7.45364236831665,1.1353943347930908
1711552979580125200,9.363125244140624,0.6436693072319031,7.934599876403809,0.36251261830329895
1711552979599085000,9.3820849609375,-0.004785645287483931,8.524430274963379,-0.137587308883667
1711552979618045200,9.401045166015624,-0.24526432156562805,8.730213165283203,-0.3696911036968231
1711552979637005000,9.420005126953125,0.020338991656899452,8.778069496154785,-0.18065811693668365
1711552979655965000,9.43896484375,0.5730810165405273,9.131011009216309,0.4701896607875824
1711552979674924800,9.4579248046875,1.1676974296569824,9.738788604736328,1.4261223077774048
1711552979693885000,9.476885009765626,1.8388842344284058,10.29751205444336,2.407179594039917
1711552979712844800,9.4958447265625,2.5878376960754395,10.652846336364746,3.184846878051758
1711552979731804700,9.5148046875,3.0975089073181152,10.811968803405762,3.607180118560791
1711552979750764500,9.5337646484375,3.1800613403320312,10.688738822937012,3.5497524738311768
1711552979769724700,9.552724609375,2.775674343109131,10.565508842468262,3.2446675300598145
1711552979788684500,9.5716845703125,2.173879384994507,10.479366302490234,2.861815929412842
1711552979807644700,9.590644775390626,1.6259230375289917,10.482955932617188,2.4526431560516357
1711552979826604500,9.6096044921875,1.3351950645446777,10.468599319458008,2.166700839996338
1711552979845564400,9.628564453125,1.3555340766906738,10.201799392700195,1.9070796966552734
1711552979864524300,9.647524169921875,1.5852450132369995,9.621540069580078,1.6091731786727905
1711552979883484400,9.666484375,1.7623138427734375,9.141778945922852,1.3782658576965332
1711552979902444300,9.6854443359375,1.7467604875564575,8.988637924194336,1.353141188621521
1711552979921404200,9.704404052734375,1.6378871202468872,9.012566566467285,1.4572290182113647
1711552979940364000,9.723364013671874,1.657029628753662,8.950352668762207,1.456032633781433
1711552979959324200,9.74232421875,1.734796404838562,8.72183895111084,1.2215359210968018
1711552979978284000,9.761283935546874,1.7324036359786987,8.420342445373535,0.8207381963729858
1711552979997244000,9.780243896484375,1.6701902151107788,8.276773452758789,0.3852444589138031
1711552980016204000,9.7992041015625,1.6773686408996582,8.312665939331055,0.03469592705368996
1711552980035164000,9.818163818359375,1.7635103464126587,8.640482902526855,-0.12083754688501358
1711552980054123800,9.837123779296874,1.8113667964935303,9.133403778076172,-0.05623133108019829
1711552980073084000,9.856083984375,1.7766708135604858,9.488738059997559,0.2787638306617737
1711552980092043800,9.875043701171874,1.7934205532073975,9.58205795288086,0.763310432434082
1711552980111003600,9.894003662109375,1.8197416067123413,9.56889820098877,1.2191431522369385
1711552980129963500,9.912963623046876,1.892722725868225,9.641879081726074,1.5517455339431763
1711552980148923600,9.931923583984375,1.892722725868225,9.832108497619629,1.817348837852478
1711552980167883500,9.950883544921876,1.8472590446472168,10.052248001098633,2.0338993072509766
1711552980186843400,9.969843505859375,1.7886348962783813,10.235299110412598,2.0673987865448
1711552980205803500,9.988803466796876,1.6247265338897705,10.527223587036133,1.947757601737976
1711552980224763400,10.007763427734375,1.4524433612823486,10.849058151245117,1.633101463317871
1711552980243723500,10.0267236328125,1.333998680114746,10.978270530700684,1.3004990816116333
1711552980262683400,10.045683349609375,1.4368900060653687,10.638489723205566,0.9487541913986206
1711552980281643300,10.064643310546876,1.357926845550537,9.9409818649292,0.7776673436164856
1711552980300603100,10.08360302734375,1.3304094076156616,9.255437850952148,0.7178468108177185
1711552980319563300,10.102563232421875,1.3591232299804688,8.584251403808594,0.8733802437782288
1711552980338523100,10.121523193359375,1.4333007335662842,8.049455642700195,1.1018948554992676
1711552980357483000,10.14048291015625,1.4644074440002441,7.966903209686279,1.3244273662567139
1711552980376443000,10.15944287109375,1.4344971179962158,8.325826644897461,1.5385849475860596
1711552980395403000,10.178403076171875,1.4979069232940674,8.913264274597168,1.6259230375289917
1711552980414363000,10.19736279296875,1.5828521251678467,9.491130828857422,1.4919248819351196
1711552980433322800,10.21632275390625,1.7910277843475342,9.797411918640137,1.262213945388794
1711552980452283000,10.235282958984374,1.9657038450241089,9.988838195800781,0.9655039310455322
1711552980471242800,10.25424267578125,1.9776679277420044,10.193424224853516,0.7872386574745178
1711552980490202600,10.27320263671875,1.9692929983139038,10.206584930419922,0.6364908218383789
1711552980509162800,10.292162841796875,2.142772674560547,10.14317512512207,0.45942193269729614
1711552980528122600,10.31112255859375,2.3748764991760254,10.100104331970215,0.4905286431312561
1711552980547082500,10.33008251953125,2.5220351219177246,10.054640769958496,0.9332008361816406
1711552980566042400,10.34904248046875,2.620140790939331,9.783055305480957,1.5254244804382324
1711552980585002200,10.368002197265625,2.6488547325134277,9.287740707397461,2.1104695796966553
1711552980603962400,10.38696240234375,2.551945447921753,8.879764556884766,2.572284460067749
1711552980622922200,10.405922119140625,2.423929452896118,8.80798053741455,2.9694929122924805
1711552980641882400,10.42488232421875,2.313859462738037,8.855836868286133,3.119044303894043
1711552980660842200,10.44384228515625,2.1164517402648926,8.995817184448242,3.0209386348724365
1711552980679802000,10.462802001953126,1.8592232465744019,9.346364974975586,2.6488547325134277
1711552980698762000,10.481761962890625,1.7216359376907349,9.69212818145752,2.056631088256836
1711552980717722000,10.50072216796875,1.805384635925293,9.853643417358398,1.3710874319076538
1711552980736682000,10.519681884765625,2.0315065383911133,9.717252731323242,0.6867401003837585
1711552980755641900,10.538641845703125,1.9537396430969238,9.389435768127441,0.1698904037475586
1711552980774601700,10.557601806640625,1.588834285736084,9.10827922821045,0.07058826833963394
1711552980793561900,10.576561767578125,1.4691931009292603,9.274580955505371,0.30987054109573364
1711552980812521700,10.595521728515624,1.5960127115249634,9.652647018432617,0.8267202377319336
1711552980831481900,10.61448193359375,1.9836499691009521,9.779465675354004,1.2813565731048584
1711552980850441700,10.633441650390624,2.3784656524658203,9.584450721740723,1.5864413976669312
1711552980869401600,10.652401611328125,2.606980323791504,9.347561836242676,1.8077775239944458
1711552980888361500,10.671361572265624,2.6321048736572266,9.261420249938965,2.0039889812469482
1711552980907321600,10.690321533203125,2.6021945476531982,9.407382011413574,2.0374884605407715
1711552980926281500,10.709281494140624,2.4981069564819336,9.562915802001953,1.908276081085205
1711552980945241300,10.728241455078125,2.146361827850342,9.596415519714355,1.770688772201538
1711552980964201200,10.747201171875,1.7563318014144897,9.468399047851562,1.5493526458740234
1711552980983161300,10.766161376953125,1.573280930519104,9.30329418182373,1.3555340766906738
1711552981002121200,10.785121337890626,1.466800332069397,9.215956687927246,1.3435698747634888
1711552981021081000,10.8040810546875,1.550549030303955,9.263813018798828,1.3627125024795532
1711552981040041200,10.823041259765626,1.7431713342666626,9.385847091674805,1.643869161605835
1711552981059001000,10.8420009765625,2.045863389968872,9.34157943725586,2.0482561588287354
1711552981077961000,10.8609609375,2.249253273010254,9.273384094238281,2.3617160320281982
1711552981096921000,10.879921142578125,2.3880369663238525,9.385847091674805,2.544766902923584
1711552981115881000,10.898880859375,2.4502503871917725,9.321240425109863,2.4849462509155273
1711552981134840800,10.9178408203125,2.537588357925415,9.236295700073242,2.2576282024383545
1711552981153800700,10.93680078125,2.506481647491455,9.177671432495117,2.043470621109009
1711552981172760800,10.9557607421875,2.163111686706543,9.147761344909668,1.9262222051620483
1711552981191720700,10.974720703125,1.8077775239944458,9.156135559082031,1.817348837852478
1711552981210680600,10.9936806640625,1.7156537771224976,9.208778381347656,1.6654045581817627
1711552981229640700,11.012640625,1.8735800981521606,9.139386177062988,1.4895321130752563
1711552981248600600,11.0316005859375,2.179861545562744,9.21715259552002,1.4536397457122803
1711552981267560400,11.050560546875,2.585444927215576,9.515059471130371,1.3663017749786377
1711552981286520600,11.0695205078125,2.5974090099334717,9.835697174072266,1.4404792785644531
1711552981305480400,11.08848046875,2.321038007736206,9.853643417358398,1.7742780447006226
1711552981324440300,11.1074404296875,2.029113531112671,9.483952522277832,1.695314884185791
1711552981343400200,11.126400146484375,1.8735800981521606,9.253045082092285,1.4656038284301758
1711552981362360300,11.1453603515625,1.750349760055542,9.20997428894043,1.6701902151107788
1711552981381320200,11.1643203125,1.6582261323928833,9.158528327941895,2.060220241546631
1711552981400280000,11.183280029296874,1.7934205532073975,9.110671997070312,2.3162522315979004
1711552981419240200,11.202240234375,1.8963119983673096,9.141778945922852,2.572284460067749
1711552981438200000,11.221199951171876,2.025524377822876,9.18843936920166,2.7361927032470703
1711552981457160200,11.24016015625,2.1846470832824707,9.21834945678711,2.878565549850464
1711552981476120000,11.2591201171875,2.2719850540161133,9.239884376525879,2.888136863708496
1711552981495080000,11.278079833984375,2.297109842300415,9.378668785095215,2.678765058517456
1711552981514040000,11.2970400390625,2.159522533416748,9.498309135437012,2.3772692680358887
1711552981533000000,11.316,1.939382791519165,9.554540634155273,2.045863389968872
1711552981551959800,11.334959716796876,1.6893328428268433,9.518648147583008,1.7419748306274414
1711552981570920000,11.353919921875,1.495514154434204,9.393025398254395,1.5206388235092163
1711552981589879800,11.3728798828125,1.3950155973434448,9.175278663635254,1.4488540887832642
1711552981608839700,11.391839599609375,1.3806586265563965,9.06401252746582,1.5098711252212524
1711552981627799800,11.4107998046875,1.4620146751403809,9.147761344909668,1.8005990982055664
1711552981646759700,11.429759765625,1.597209095954895,9.087940216064453,2.276770830154419
1711552981665719600,11.448719482421875,1.9489539861679077,9.127422332763672,2.772084951400757
1711552981684679700,11.4676796875,2.3473589420318604,9.34875774383545,3.0975089073181152
1711552981703639600,11.4866396484375,2.5124638080596924,9.57487964630127,3.159722328186035
1711552981722599400,11.505599365234374,2.4945175647735596,9.641879081726074,2.970689296722412
1711552981741559600,11.5245595703125,2.396411895751953,9.52941608428955,2.671586513519287
1711552981760519400,11.54351953125,2.163111686706543,9.322437286376953,2.3880369663238525
1711552981779479600,11.5624794921875,1.8496519327163696,9.193224906921387,2.166700839996338
1711552981798439400,11.581439453125,1.6522440910339355,9.147761344909668,1.9680966138839722
1711552981817399600,11.600399658203125,1.6773686408996582,9.170493125915527,1.7994025945663452
1711552981836359400,11.619359375,1.8221344947814941,9.245866775512695,1.7515461444854736
1711552981855319300,11.6383193359375,1.9597218036651611,9.278169631958008,1.7838492393493652
1711552981874279400,11.657279541015624,2.094916343688965,9.346364974975586,1.8939191102981567
1711552981893239300,11.6762392578125,2.094916343688965,9.584450721740723,2.091326951980591
1711552981912199400,11.695199462890624,2.108076810836792,9.723235130310059,2.256431818008423
1711552981931159300,11.7141591796875,2.228914260864258,9.469595909118652,1.7276179790496826
1711552981950119200,11.733119140625,2.5698914527893066,9.305686950683594,1.2526426315307617
1711552981969079300,11.752079345703125,2.3054845333099365,9.371489524841309,1.1784651279449463
1711552981988039200,11.7710390625,1.612762451171875,9.573683738708496,1.5050854682922363
1711552982006999300,11.789999267578125,1.526620864868164,9.681360244750977,2.038684844970703
1711552982025959200,11.808959228515626,1.9848463535308838,9.495916366577148,2.4741785526275635
1711552982044919000,11.8279189453125,2.524427890777588,9.402596473693848,2.6763720512390137
1711552982063879200,11.846879150390626,2.8115665912628174,9.233902931213379,2.9012975692749023
1711552982082839000,11.865839111328125,3.0759735107421875,8.922835350036621,2.9036903381347656
1711552982101799200,11.884799072265626,3.25663161277771,8.811569213867188,2.5746772289276123
1711552982120759000,11.903759033203125,3.1621150970458984,8.997013092041016,2.159522533416748
1711552982139719200,11.92271923828125,2.943171739578247,9.184849739074707,1.8472590446472168
1711552982158679000,11.941678955078125,2.53399920463562,8.755337715148926,1.5840486288070679
1711552982177639200,11.96063916015625,2.403590440750122,8.295916557312012,1.3806586265563965
1711552982196599000,11.97959912109375,2.420340061187744,8.234899520874023,1.688136339187622
1711552982215559200,11.99855908203125,2.671586513519287,8.458627700805664,2.2636101245880127
1711552982234519000,12.01751904296875,2.8701908588409424,8.818747520446777,2.9359934329986572
1711552982253479200,12.036479248046875,3.339184045791626,8.810373306274414,3.6358940601348877
1711552982272439000,12.05543896484375,3.291327476501465,8.428717613220215,4.291527271270752
1711552982291399200,12.074399169921875,3.0448668003082275,7.971688747406006,5.045266628265381
1711552982310359000,12.093359130859374,3.2063822746276855,7.560122966766357,5.54177713394165
1711552982329319000,12.11231884765625,3.542573928833008,7.369893550872803,5.528616905212402
1711552982348279000,12.131279052734374,3.706482172012329,7.402196884155273,5.56450891494751
1711552982367239200,12.1502392578125,3.4540395736694336,7.448856830596924,5.6685967445373535
1711552982386199000,12.169198974609374,3.3678979873657227,7.433303356170654,5.645864963531494
1711552982405159200,12.1881591796875,3.2099716663360596,7.280162811279297,5.306084156036377
1711552982424119000,12.207119140625,2.9599215984344482,7.1988067626953125,5.045266628265381
1711552982443079200,12.2260791015625,2.6225335597991943,7.274180889129639,5.045266628265381
1711552982462039000,12.2450390625,2.59621262550354,7.410571575164795,5.307280540466309
1711552982480999200,12.263999267578125,2.7804598808288574,7.479963779449463,5.712863922119141
1711552982499959000,12.282958984375,3.0903303623199463,7.384250640869141,6.062216281890869
1711552982518919200,12.301919189453125,3.3475589752197266,7.251449108123779,6.1914286613464355
1711552982537879000,12.320879150390626,3.397808074951172,7.306483745574951,6.184250354766846
1711552982556839200,12.339839111328125,3.339184045791626,7.534998416900635,6.095715522766113
1711552982575799000,12.358799072265626,3.0376882553100586,7.679764270782471,5.85284423828125
1711552982594759200,12.37775927734375,2.730210542678833,7.582854747772217,5.545366287231445
1711552982613719300,12.39671923828125,2.496910333633423,7.447660446166992,5.340780258178711
1711552982632679200,12.41567919921875,2.4227328300476074,7.433303356170654,5.3312087059021
1711552982651639300,12.434639404296876,2.544766902923584,7.514659404754639,5.574080467224121
1711552982670599200,12.45359912109375,2.7589244842529297,7.64865779876709,5.958128452301025
1711552982689559300,12.472559326171876,2.9898319244384766,7.642675399780273,6.259624004364014
1711552982708519400,12.49151953125,3.1764719486236572,7.454838752746582,6.288337707519531
1711552982727479300,12.510479248046876,3.153740167617798,7.328019142150879,6.174678802490234
1711552982746439400,12.529439453125,3.0245277881622314,7.402196884155273,6.065805435180664
1711552982765399300,12.5483994140625,2.895315408706665,7.534998416900635,5.933003902435303
1711552982784359400,12.567359375,2.7840490341186523,7.634300708770752,5.737988471984863
1711552982803319600,12.586319580078126,2.7146573066711426,7.670193195343018,5.615954875946045
1711552982822279400,12.605279541015625,2.7433712482452393,7.599604606628418,5.529813289642334
1711552982841239600,12.624239501953125,2.8319056034088135,7.495516777038574,5.583651542663574
1711552982860199400,12.643199462890625,2.909672260284424,7.548159122467041,5.680561065673828
1711552982879159600,12.66215966796875,3.005385160446167,7.646264553070068,5.746363639831543
1711552982898119400,12.681119384765625,2.937189817428589,7.566105365753174,5.7786664962768555
1711552982917079600,12.70007958984375,2.7972097396850586,7.317251682281494,5.867201328277588
1711552982936039400,12.719039306640624,2.7314071655273438,7.202396392822266,5.900700569152832
1711552982954999600,12.73799951171875,2.700300455093384,7.2813591957092285,5.8061842918396
1711552982973959700,12.756959716796874,2.6464617252349854,7.406982421875,5.772684574127197
1711552982992919600,12.77591943359375,2.6009981632232666,7.355536937713623,5.873183250427246
1711552983011879700,12.794879638671874,2.6321048736572266,7.312466144561768,5.8995041847229
1711552983030839800,12.81383984375,2.7385854721069336,7.267002582550049,5.86002254486084
1711552983049799700,12.832799560546874,2.830709218978882,7.190432071685791,5.8372907638549805
1711552983068759800,12.851759765625,2.833101987838745,7.191628456115723,5.903093338012695
1711552983087720000,12.870719970703124,2.8283164501190186,7.313662528991699,5.971288681030273
1711552983106680000,12.88968017578125,2.8498518466949463,7.444071292877197,5.937789440155029
1711552983125640000,12.908639892578124,2.8582265377044678,7.4500532150268555,5.79780912399292
1711552983144600000,12.92760009765625,2.8175487518310547,7.3639116287231445,5.696114540100098
1711552983163560200,12.946560302734374,2.812762975692749,7.338787078857422,5.656632900238037
1711552983182520000,12.96552001953125,2.8833513259887695,7.418946743011475,5.5932230949401855
1711552983201480200,12.984480224609374,2.968296527862549,7.539783954620361,5.607579708099365
1711552983220440000,13.003440185546875,3.0352954864501953,7.539783954620361,5.752345561981201
1711552983239400200,13.022400146484374,3.187239646911621,7.464410305023193,5.880361557006836
1711552983258360300,13.0413603515625,3.3894333839416504,7.331608772277832,5.836094379425049
1711552983277320400,13.060320556640624,3.4396824836730957,7.390232563018799,5.651846885681152
1711552983296280300,13.0792802734375,3.4133615493774414,7.517052173614502,5.400600910186768
1711552983315240400,13.098240478515624,3.221935749053955,7.548159122467041,5.210371494293213
1711552983334200600,13.11720068359375,3.0185458660125732,7.540980339050293,5.148158073425293
1711552983353160700,13.13616064453125,2.792423963546753,7.575676441192627,5.154139995574951
1711552983372120600,13.15512060546875,2.6727828979492188,7.674978733062744,5.144568920135498
1711552983391080700,13.174080810546876,2.740978240966797,7.627122402191162,5.016552448272705
1711552983410040600,13.19304052734375,2.774477958679199,7.4572319984436035,4.928018093109131
1711552983429000700,13.212000732421876,2.768495798110962,7.503891944885254,4.980660438537598
1711552983447960800,13.2309609375,2.8893332481384277,7.753942012786865,5.077569484710693
1711552983466921000,13.2499208984375,2.9802606105804443,7.8628153800964355,5.155336380004883
1711552983485880800,13.268880859375,3.008974552154541,7.731209754943848,5.249852657318115
1711552983504841000,13.287841064453126,3.012563705444336,7.605587005615234,5.291727066040039
1711552983523801000,13.306801025390625,3.0065815448760986,7.658228874206543,5.358726501464844
1711552983542761200,13.32576123046875,3.049652576446533,7.7802629470825195,5.326423168182373
1711552983561721000,13.34472119140625,3.0963125228881836,7.8388872146606445,5.290530681610107
1711552983580681200,13.36368115234375,3.0484559535980225,7.793423175811768,5.219942569732666
1711552983599641300,13.382641357421875,2.9754750728607178,7.737192153930664,5.151747226715088
1711552983618601200,13.401601318359376,2.9455647468566895,7.726424217224121,5.102694511413574
1711552983637561300,13.420561279296875,2.871387243270874,7.744370460510254,5.065605640411377
1711552983656521500,13.439521484375,2.8965117931365967,7.852047443389893,5.058426856994629
1711552983675481600,13.458481689453125,3.001796007156372,7.936992645263672,5.084748268127441
1711552983694441700,13.477441650390626,2.99222469329834,7.887939929962158,5.181657314300537
1711552983713401900,13.49640185546875,2.963510751724243,7.891529083251953,5.205585479736328
1711552983732361700,13.51536181640625,2.8701908588409424,7.832904815673828,5.216353416442871
1711552983751321900,13.53432177734375,2.724228620529175,7.7455668449401855,5.166104316711426
1711552983770281700,13.55328173828125,2.700300455093384,7.704888820648193,5.198407173156738
1711552983789241900,13.572241943359375,2.6225335597991943,7.7455668449401855,5.225924491882324
1711552983808202000,13.591201904296875,2.4885356426239014,7.832904815673828,5.326423168182373
1711552983827162000,13.610162109375,2.338984251022339,7.788637638092041,5.315655708312988
1711552983846122200,13.629122314453125,2.372483730316162,7.680960655212402,5.241477966308594
1711552983865082400,13.648082275390625,2.506481647491455,7.6474609375,4.955535888671875
1711552983884042200,13.667042236328125,2.554338216781616,7.793423175811768,4.814359188079834
1711552983903002400,13.68600244140625,2.53399920463562,7.971688747406006,4.844269275665283
1711552983921962500,13.70496240234375,2.5052852630615234,8.037490844726562,4.911268711090088
1711552983940922400,13.72392236328125,2.5076780319213867,8.043473243713379,4.965106964111328
1711552983959882500,13.742882568359375,2.5663022994995117,8.123632431030273,5.00578498840332
1711552983978842600,13.761842529296874,2.5746772289276123,8.225327491760254,4.990231513977051
1711552983997802800,13.780802734375,2.5471596717834473,8.242077827453613,4.975874900817871
1711552984016763000,13.799762939453124,2.4717857837677,8.270791053771973,4.972285270690918
1711552984035722800,13.81872265625,2.4921247959136963,8.281558990478516,4.967499732971191
1711552984054683000,13.837682861328124,2.5160529613494873,8.297112464904785,4.901697158813477
1711552984073643000,13.85664306640625,2.4765713214874268,8.260024070739746,4.907679080963135
1711552984092603100,13.87560302734375,2.4047868251800537,8.199007034301758,4.845465660095215
1711552984111563000,13.89456298828125,2.324627161026001,8.202595710754395,4.746163845062256
1711552984130523100,13.913523193359374,2.2743778228759766,8.394021987915039,4.71744966506958
1711552984149483300,13.932483154296875,2.249253273010254,8.577073097229004,4.649254322052002
1711552984168443400,13.951443359375,2.187039852142334,8.629714965820312,4.486542224884033
1711552984187403500,13.970403564453125,2.183450698852539,8.38564682006836,4.351347923278809
1711552984206363400,13.98936328125,2.1535403728485107,8.01356315612793,4.218546390533447
1711552984225323500,14.008323486328125,2.084148406982422,7.869993686676025,4.077369689941406
1711552984244283600,14.02728369140625,2.093719720840454,8.110472679138184,4.089334011077881
1711552984263243800,14.046243896484375,2.111665964126587,8.374878883361816,4.2281174659729
1711552984282204000,14.065203857421874,2.148754835128784,8.48734188079834,4.309473514556885
1711552984301163800,14.084163818359375,2.1990039348602295,8.47178840637207,4.346562385559082
1711552984320124000,14.1031240234375,2.20737886428833,8.566305160522461,4.384847640991211
1711552984339084000,14.122083984375,2.187039852142334,8.72183895111084,4.459024906158447
1711552984358044200,14.141044189453124,2.1571295261383057,8.752944946289062,4.551148891448975
1711552984377004000,14.160004150390625,2.035095691680908,8.632107734680176,4.590630054473877
1711552984395964200,14.178964111328124,1.7754744291305542,8.72901725769043,4.687539577484131
1711552984414924300,14.19792431640625,1.454836130142212,9.122636795043945,4.9160542488098145
1711552984433884400,14.216884521484374,1.2646067142486572,9.53659439086914,5.212764263153076
1711552984452844500,14.235844482421875,1.3244273662567139,9.858428955078125,5.507081508636475
1711552984471804700,14.2548046875,1.765903115272522,9.847661972045898,5.44845724105835
1711552984490764500,14.2737646484375,2.310270309448242,9.028120040893555,4.979464054107666
1711552984509724700,14.292724609375,2.6452653408050537,7.977670669555664,4.212564468383789
1711552984528684800,14.311684814453125,2.5770699977874756,7.249056339263916,3.55214524269104
1711552984547645000,14.33064501953125,2.135594129562378,7.03489875793457,2.9479575157165527
1711552984566604800,14.349604736328125,1.5134602785110474,7.51585578918457,2.5292134284973145
1711552984585565000,14.36856494140625,0.8111668825149536,8.47298526763916,2.365305185317993
1711552984604525000,14.387525146484375,0.6592226624488831,9.474381446838379,2.4406790733337402
1711552984623485200,14.406485107421876,1.1868400573730469,9.735198974609375,2.4705893993377686
1711552984642445000,14.425445068359375,1.7180466651916504,9.44327449798584,2.7840490341186523
1711552984661405200,14.4444052734375,2.0279171466827393,9.166903495788574,3.414557933807373
1711552984680365300,14.463365234375,2.172683000564575,9.104690551757812,4.417150497436523
1711552984699325400,14.482325439453126,2.3617160320281982,8.967103004455566,5.869594097137451
1711552984718285600,14.50128564453125,3.1142587661743164,8.662017822265625,6.971488952636719
1711552984737245400,14.520245361328126,3.930211305618286,8.458627700805664,7.004988193511963
1711552984756205600,14.53920556640625,3.8536407947540283,8.309076309204102,6.282355785369873
1711552984775165700,14.558165771484376,2.963510751724243,8.139185905456543,5.307280540466309
1711552984794125800,14.577125732421875,1.8747764825820923,7.988438606262207,4.66361141204834
1711552984813085700,14.596085693359376,1.1497513055801392,8.007580757141113,4.24367094039917
1711552984832045800,14.6150458984375,0.9846464991569519,7.970492362976074,3.9900317192077637
1711552984851006000,14.634005859375,1.2610175609588623,7.799405574798584,4.139583110809326
1711552984869966000,14.652966064453125,1.7730815410614014,7.410571575164795,4.528416633605957
1711552984888926200,14.67192626953125,2.2444677352905273,7.052844524383545,5.015356063842773
1711552984907886000,14.690885986328125,2.3437697887420654,6.97986364364624,5.849255084991455
1711552984926846200,14.70984619140625,2.5351955890655518,7.071987152099609,6.653243541717529
1711552984945806300,14.728806396484375,2.9240293502807617,7.043273448944092,7.001399040222168
1711552984964766200,14.74776611328125,2.7768707275390625,6.936792850494385,7.051648139953613
1711552984983726300,14.766726318359375,2.757728099822998,6.949953556060791,7.051648139953613
1711552985002686500,14.7856865234375,2.7625136375427246,6.915257453918457,6.669992923736572
1711552985021646600,14.804646484375,2.338984251022339,6.949953556060791,6.299105644226074
1711552985040606700,14.823606689453126,1.6414763927459717,7.308876991271973,6.0538411140441895
1711552985059566800,14.84256689453125,1.168893814086914,7.606783390045166,6.382854461669922
1711552985078526700,14.861526611328125,1.6917256116867065,6.873383045196533,7.579265594482422
1711552985097486800,14.88048681640625,1.6019947528839111,5.50229549407959,8.469395637512207
1711552985116447000,14.899447021484375,1.2813565731048584,4.737788677215576,8.84506893157959
1711552985135406800,14.91840673828125,1.5649060010910034,4.990231513977051,8.282755851745605
1711552985154367000,14.937366943359375,1.5541383028030396,6.189035892486572,7.60080099105835
1711552985173327000,14.9563271484375,1.4368900060653687,6.843472957611084,7.231110095977783
1711552985192287200,14.975287353515625,1.6295121908187866,6.80877685546875,7.597211837768555
1711552985211247400,14.994247314453125,1.657029628753662,6.434299945831299,7.915457248687744
1711552985230207200,15.013207275390625,1.7252250909805298,5.736792087554932,7.642675399780273
1711552985249167400,15.03216748046875,1.7012969255447388,5.036891460418701,7.418946743011475
1711552985268127500,15.05112744140625,1.4787644147872925,4.823930263519287,7.64865779876709
1711552985287087400,15.07008740234375,1.2478569746017456,5.063212871551514,8.054241180419922
1711552985306047500,15.089047607421875,0.8805587291717529,5.300102233886719,7.859225749969482
1711552985325007600,15.108007568359374,0.6532405614852905,5.355136871337891,7.483552932739258
1711552985343967700,15.1269677734375,0.3720839321613312,5.254638671875,7.0097737312316895
1711552985362927900,15.145927978515624,0.19142581522464752,5.201996326446533,6.868597507476807
1711552985381887700,15.1648876953125,0.2476571500301361,5.19242525100708,6.99541711807251
1711552985400848000,15.183847900390624,0.48574298620224,5.076373100280762,7.296912670135498
1711552985419808000,15.20280810546875,0.867398202419281,4.871787071228027,7.483552932739258
1711552985438767900,15.221767822265624,1.4536397457122803,5.032105922698975,7.722835063934326
1711552985457728000,15.24072802734375,2.0853450298309326,6.052644729614258,7.886743545532227
1711552985476688100,15.259688232421874,2.638087034225464,7.3746795654296875,8.312665939331055
1711552985495648300,15.278648193359375,2.572284460067749,8.539983749389648,8.193024635314941
1711552985514608000,15.297608154296874,2.262413740158081,8.834300994873047,7.189235687255859
1711552985533568300,15.316568359375,3.0628130435943604,7.299305438995361,4.893322467803955
1711552985552528400,15.3355283203125,3.314059257507324,6.051448345184326,2.528017044067383
1711552985571488500,15.354488525390625,1.5194423198699951,5.429314613342285,1.6031911373138428
1711552985590448400,15.373448486328124,-0.9248259663581848,5.741578102111816,2.2612173557281494
1711552985609408500,15.392408447265625,-2.506481647491455,8.009973526000977,3.5736806392669678
1711552985628368600,15.41136865234375,-2.2911276817321777,12.518052101135254,4.918447017669678
1711552985647328500,15.43032861328125,-2.6452653408050537,15.444474220275879,7.793423175811768
1711552985666288600,15.44928857421875,-1.8137595653533936,12.914063453674316,9.671789169311523
1711552985685248800,15.468248779296875,0.10169496387243271,8.95513916015625,8.482556343078613
1711552985704209000,15.487208984375,2.4287149906158447,5.948556900024414,7.635497093200684
1711552985723169000,15.5061689453125,3.3990044593811035,5.643472194671631,6.80877685546875
1711552985742129000,15.52512890625,3.9397823810577393,8.431110382080078,4.125226020812988
1711552985761089000,15.544089111328125,4.135993957519531,11.824132919311523,2.3258235454559326
1711552985780049200,15.563049072265626,4.078566074371338,14.092529296875,0.8997012972831726
1711552985799009000,15.582009033203125,3.6634113788604736,13.689338684082031,-0.016749758273363113
1711552985817969200,15.60096923828125,2.1954147815704346,12.169896125793457,-1.191625714302063
1711552985836929300,15.61992919921875,0.6640082597732544,10.53200912475586,-2.0374884605407715
1711552985855889200,15.63888916015625,-0.2153540402650833,8.650053977966309,-1.6977076530456543
1711552985874849300,15.657849365234375,-0.5706881880760193,7.393822193145752,-0.0323031060397625
1711552985893809400,15.676809326171876,-0.17108681797981262,7.241877555847168,1.506281852722168
1711552985912769500,15.69576953125,0.6843472719192505,7.869993686676025,2.750549554824829
1711552985931729400,15.7147294921875,1.5445669889450073,7.6977105140686035,3.641875982284546
1711552985950689500,15.733689453125,2.035095691680908,7.392625331878662,4.135993957519531
1711552985969649700,15.752649658203126,2.307877540588379,7.310073375701904,3.9349968433380127
1711552985988609500,15.771609619140625,2.170290231704712,7.255038261413574,3.339184045791626
1711552986007569700,15.790569580078126,1.950150489807129,7.64028263092041,2.675175666809082
1711552986026529800,15.80952978515625,2.0745773315429688,8.666803359985352,2.5124638080596924
1711552986045490000,15.828489990234376,2.837887763977051,9.7005033493042,2.8833513259887695
1711552986064449800,15.84744970703125,3.6335012912750244,10.303494453430176,3.631108283996582
1711552986083410000,15.866409912109376,3.555734395980835,10.511670112609863,4.206582069396973
1711552986102370000,15.8853701171875,2.6297121047973633,11.22233772277832,4.390829563140869
1711552986121330200,15.904330078125,2.3545374870300293,11.166107177734375,4.358526229858398
1711552986140290000,15.9232900390625,3.0556344985961914,9.600004196166992,3.5784661769866943
1711552986159250200,15.942250244140626,3.1692936420440674,7.927421569824219,2.7625136375427246
1711552986178210000,15.9612099609375,1.7754744291305542,5.717649936676025,2.0518453121185303
1711552986197170200,15.980170166015625,-0.16510476171970367,3.2554352283477783,1.0863415002822876
1711552986216130300,15.99913037109375,-2.0099709033966064,1.7694923877716064,-0.02512463741004467
1711552986235090400,16.01809033203125,-2.7361927032470703,1.9310078620910645,-1.3196417093276978
1711552986254050600,16.037050537109376,-1.8005990982055664,4.804787635803223,-2.878565549850464
1711552986273010400,16.056010498046874,0.4833501875400543,11.093125343322754,-4.767699241638184
1711552986291970600,16.074970458984374,0.02392822690308094,16.80359649658203,-3.535395383834839
1711552986310930700,16.0939306640625,-4.164707660675049,18.0969181060791,1.3830515146255493
1711552986329890800,16.112890869140625,-7.544569969177246,19.47039794921875,5.258227825164795
1711552986348850700,16.1318505859375,-6.041877269744873,19.621145248413086,7.963313579559326
1711552986367810800,16.150810791015626,-2.933600664138794,17.082361221313477,8.890532493591309
1711552986386771000,16.16977099609375,-1.2897313833236694,15.50788402557373,11.383853912353516
1711552986405730800,16.188730712890624,-1.6869399547576904,16.255640029907227,14.181063652038574
1711552986424691000,16.20769091796875,-1.8508483171463013,17.002201080322266,13.7108736038208
1711552986443651000,16.226651123046874,-1.4883357286453247,16.17308807373047,10.820343971252441
1711552986462611200,16.245611083984375,-1.7479569911956787,14.458630561828613,7.892725467681885
1711552986481571300,16.2645712890625,-2.853440999984741,12.733406066894531,5.071587562561035
1711552986500531200,16.28353125,-3.9278182983398438,11.672188758850098,2.6452653408050537
1711552986519491300,16.3024912109375,-4.187439441680908,10.53081226348877,0.8482556343078613
1711552986538451200,16.321451171875,-3.6430723667144775,7.802994728088379,-2.3270199298858643
1711552986557411300,16.340411376953124,-2.5088746547698975,4.047459602355957,-6.068198204040527
1711552986576371500,16.359371337890625,-1.765903115272522,-0.42831525206565857,-9.29611587524414
1711552986595331600,16.37833154296875,-1.9154545068740845,-2.89890456199646,-9.558130264282227
1711552986614291700,16.397291748046875,-0.9810572862625122,-2.768495798110962,-8.053044319152832
1711552986633251800,16.416251953125,-0.3326023519039154,-0.17108681797981262,-6.55992317199707
1711552986652211700,16.435211669921873,0.2512463629245758,3.0388846397399902,-5.667400360107422
1711552986671171800,16.454171875,0.13280165195465088,5.976074695587158,-3.757927894592285
1711552986690132000,16.473132080078123,-0.2835494875907898,8.861818313598633,-0.5419743061065674
1711552986709091800,16.492091796875,-0.4989035129547119,12.090932846069336,2.2851455211639404
1711552986728052000,16.511052001953125,-1.0648061037063599,15.641881942749023,3.7363924980163574
1711552986747012000,16.53001220703125,-2.4909284114837646,18.161523818969727,4.5714874267578125
1711552986765972200,16.54897216796875,-0.5204389095306396,17.127824783325195,4.974678039550781
1711552986784932400,16.567932373046876,2.6572296619415283,15.845271110534668,3.3056845664978027
1711552986803892500,16.586892578125,2.475374937057495,17.740386962890625,3.6921253204345703
1711552986822852400,16.605852294921874,2.3533411026000977,15.50788402557373,3.8536407947540283
1711552986841812500,16.6248125,4.0833516120910645,14.395220756530762,3.4648072719573975
1711552986860772600,16.643772705078124,5.416153907775879,15.681363105773926,1.6606189012527466
1711552986879732700,16.662732666015625,4.429114818572998,16.624135971069336,0.037088751792907715
1711552986898692900,16.68169287109375,2.258824586868286,16.965112686157227,-0.16749759018421173
1711552986917653000,16.700653076171875,0.4630111753940582,15.896717071533203,0.576670229434967
1711552986936612900,16.71961279296875,0.28594231605529785,13.129417419433594,1.2741780281066895
1711552986955573000,16.738572998046877,0.9631111025810242,10.250852584838867,2.0279171466827393
1711552986974533000,16.757533203125,1.32921302318573,7.99083137512207,2.857030153274536
1711552986993493200,16.7764931640625,1.3088740110397339,5.749952793121338,3.902693748474121
1711552987012453400,16.795453369140624,1.262213945388794,3.4612178802490234,4.944767951965332
1711552987031413500,16.81441357421875,0.0526420995593071,1.8616160154342651,6.323033809661865
1711552987050373400,16.833373291015626,-1.8795621395111084,0.5694918036460876,8.477770805358887
1711552987069333500,16.85233349609375,-2.5914268493652344,-0.381655216217041,8.889336585998535
1711552987088293600,16.871293701171876,-1.659422516822815,-1.6175481081008911,6.4510498046875
1711552987107253800,16.890253662109377,-1.2957134246826172,-1.1234302520751953,3.7986059188842773
1711552987126214000,16.9092138671875,-0.8111668825149536,0.9978070259094238,2.833101987838745
1711552987145174000,16.928174072265627,0.031106693670153618,3.2650065422058105,1.4775680303573608
1711552987164134100,16.947134033203124,0.16869398951530457,5.857629776000977,0.6843472719192505
1711552987183094000,16.966093994140625,-0.8638089895248413,9.332008361816406,1.4177473783493042
1711552987202054100,16.98505419921875,-1.4344971179962158,14.266008377075195,2.7589244842529297
1711552987221014300,17.00401416015625,-0.8386843204498291,19.103099822998047,3.266202926635742
1711552987239974400,17.022974365234376,-0.07058826833963394,21.53061866760254,1.674975872039795
1711552987258934500,17.0419345703125,-0.4821537733078003,22.0283260345459,-0.1902294009923935
1711552987277894700,17.060894775390626,-4.2723846435546875,22.47219467163086,0.39960137009620667
1711552987296854500,17.0798544921875,-7.557730197906494,22.287946701049805,4.2245283126831055
1711552987315814700,17.098814697265624,-5.138586521148682,20.58664894104004,10.364511489868164
1711552987334774800,17.11777490234375,0.22372891008853912,17.57887077331543,11.438888549804688
1711552987353735000,17.13673486328125,3.9290146827697754,15.621542930603027,9.934999465942383
1711552987372695000,17.155695068359375,5.050052165985107,14.824732780456543,10.308279991149902
1711552987391655200,17.1746552734375,4.0666022300720215,14.34736442565918,9.415757179260254
1711552987410615300,17.193615234375,2.455035924911499,13.637892723083496,6.616154670715332
1711552987429575400,17.212575439453126,1.4273186922073364,11.302497863769531,3.3056845664978027
1711552987448535600,17.23153564453125,-0.3122633695602417,8.070990562438965,0.638883650302887
1711552987467495700,17.25049560546875,-3.8596229553222656,4.30588436126709,-2.0793628692626953
1711552987486455800,17.269455810546877,-7.0923261642456055,-0.4821537733078003,-5.654240131378174
1711552987505415700,17.288415771484374,-7.447660446166992,-5.456831932067871,-8.666803359985352
1711552987524375800,17.307375732421875,-4.07258415222168,-7.258627414703369,-9.908679008483887
1711552987543336000,17.3263359375,-2.181057929992676,-3.0795626640319824,-8.831908226013184
1711552987562296300,17.34529638671875,-1.6175481081008911,1.612762451171875,-7.22034215927124
1711552987581256200,17.364256103515626,-0.6065805554389954,5.473581790924072,-5.4281182289123535
1711552987600216300,17.38321630859375,-0.4821537733078003,11.282158851623535,-2.117648124694824
1711552987619176400,17.402176513671876,-0.3242274820804596,20.977876663208008,3.321237802505493
1711552987638136600,17.421136474609376,-0.8027920126914978,22.41835594177246,8.70508861541748
1711552987657096700,17.4400966796875,3.9601213932037354,15.960126876831055,7.840083599090576
1711552987676056800,17.459056884765626,7.280162811279297,18.70110511779785,9.34157943725586
1711552987695017000,17.478016845703124,6.577869415283203,19.808982849121094,8.09252643585205
1711552987713977000,17.49697705078125,5.830112457275391,18.35414695739746,4.5391845703125
1711552987732937200,17.515937255859374,5.960521221160889,16.09053611755371,-1.1736794710159302
1711552987751897300,17.5348974609375,6.064609050750732,13.745569229125977,-5.346762180328369
1711552987770857500,17.553857421875,3.1621150970458984,12.652050018310547,-7.488338470458984
1711552987789817600,17.572817626953125,0.6293123364448547,12.393625259399414,-7.11146879196167
1711552987808777700,17.59177783203125,-1.9154545068740845,11.469995498657227,-5.365904808044434
1711552987827737900,17.61073779296875,-3.304488182067871,10.53918743133545,-2.386840581893921
1711552987846698000,17.629697998046876,-4.310669898986816,9.321240425109863,0.9583254456520081
1711552987865658000,17.648658203125,-3.5294134616851807,6.975078105926514,4.082155227661133
1711552987884618200,17.6676181640625,-0.49651068449020386,3.19441819190979,7.744370460510254
1711552987903578400,17.686578369140626,3.466003656387329,-0.8793623447418213,12.56710433959961
1711552987922538500,17.70553857421875,4.503292083740234,-2.651247501373291,14.840286254882812
1711552987941498600,17.72449853515625,0.6879364848136902,-2.5734808444976807,10.054640769958496
1711552987960458800,17.743458740234374,-2.8175487518310547,-2.4358935356140137,5.392225742340088
1711552987979419000,17.7624189453125,-4.390829563140869,-1.6869399547576904,2.3641088008880615
1711552987998379000,17.78137890625,-4.392025947570801,-0.1663011759519577,1.195214867591858
1711552988017339100,17.800339111328125,-3.1764719486236572,2.647658348083496,0.9930213689804077
1711552988036299300,17.81929931640625,-0.4007977843284607,6.951149940490723,-0.0323031060397625
1711552988055259400,17.83825927734375,1.7467604875564575,11.514262199401855,-0.9152546525001526
1711552988074219500,17.857219482421876,1.3986048698425293,18.113666534423828,-1.2646067142486572
1711552988093179600,17.8761796875,-1.089930772781372,27.236303329467773,0.97148597240448
1711552988112139800,17.895139892578126,-2.9826533794403076,28.997421264648438,-0.11126625537872314
1711552988131100000,17.914099853515626,-0.7022934556007385,25.856842041015625,-0.5886343717575073
1711552988150060000,17.93306005859375,-2.772084951400757,25.063621520996094,-0.33738797903060913
1711552988169020200,17.952020263671876,-3.6430723667144775,24.746572494506836,4.535595417022705
1711552988187980300,17.970980224609374,0.3326023519039154,21.65145492553711,8.14636516571045
1711552988206940400,17.9899404296875,4.584648132324219,16.990236282348633,8.287541389465332
1711552988225900800,18.00890087890625,3.1764719486236572,13.350753784179688,6.8865437507629395
1711552988244860700,18.027860595703125,1.5242279767990112,11.880364418029785,4.260420799255371
1711552988263821000,18.046821044921874,0.8434699773788452,11.308480262756348,1.0755738019943237
1711552988282781200,18.06578125,-0.9726824164390564,8.846264839172363,-3.029313564300537
1711552988301741300,18.0847412109375,-2.919243574142456,4.096512317657471,-6.966702938079834
1711552988320701400,18.103701416015625,-5.4041900634765625,-1.8305093050003052,-10.437492370605469
1711552988339661600,18.12266162109375,-5.662614822387695,-6.483353137969971,-11.132607460021973
1711552988358621700,18.14162158203125,-3.3176486492156982,-6.696314334869385,-8.97667407989502
1711552988377581800,18.160581787109376,-2.3976082801818848,-2.100898265838623,-6.181857109069824
1711552988396542000,18.1795419921875,-2.5256242752075195,2.4131617546081543,-3.9792640209198
1711552988415502000,18.198502197265626,-2.0171494483947754,5.26181697845459,-1.8699909448623657
1711552988434462500,18.21746240234375,0.4175475537776947,7.779066562652588,0.4366901218891144
1711552988453422300,18.23642236328125,2.2612173557281494,16.722240447998047,4.04985237121582
1711552988472382500,18.255382568359376,0.97148597240448,26.27079963684082,9.390632629394531
1711552988491342800,18.2743427734375,4.264009952545166,19.085153579711914,7.751548767089844
1711552988510303000,18.293302978515626,9.080761909484863,15.510276794433594,3.5270206928253174
1711552988529263000,18.31226318359375,6.394818305969238,18.634105682373047,-1.6498512029647827
1711552988548223200,18.33122314453125,2.0135602951049805,21.707687377929688,-4.475774765014648
1711552988567183400,18.350183349609374,0.4977070987224579,20.965911865234375,-3.3332018852233887
1711552988586143500,18.3691435546875,0.7106683254241943,16.88854217529297,-2.0518453121185303
1711552988605103600,18.388103515625,0.3206382393836975,13.4703950881958,-0.2763710021972656
1711552988624063700,18.407063720703125,-0.1339980661869049,10.947163581848145,2.4526431560516357
1711552988643024100,18.426024169921874,-0.12801600992679596,8.979066848754883,5.349154949188232
1711552988661984300,18.444984375,0.3026920557022095,6.909275531768799,7.724031448364258
1711552988680944400,18.4639443359375,0.3720839321613312,4.941178798675537,9.634700775146484
1711552988699904500,18.482904541015625,0.2799602448940277,2.8941190242767334,11.161321640014648
1711552988718864600,18.50186474609375,0.05623133108019829,0.6496513485908508,11.737991333007812
1711552988737824800,18.52082470703125,-0.4342973232269287,-1.490728497505188,9.972088813781738
1711552988756785000,18.539784912109376,-1.9597218036651611,-1.7479569911956787,7.165307521820068
1711552988775745300,18.558745361328125,-3.022135019302368,-0.7046862840652466,4.8813581466674805
1711552988794705200,18.577705078125,-3.541377544403076,0.003589233849197626,3.280559778213501
1711552988813665500,18.59666552734375,-3.871587038040161,0.2476571500301361,2.280359983444214
1711552988832625700,18.615625732421876,-4.048655986785889,0.275174617767334,1.6163517236709595
1711552988851585800,18.634585693359377,-4.132404804229736,0.18783657252788544,1.566102385520935
1711552988870546000,18.6535458984375,-2.6907291412353516,1.3435698747634888,1.28255295753479
1711552988889506000,18.672506103515627,3.2925238609313965,5.391029357910156,-1.3232308626174927
1711552988908466400,18.691466552734376,8.050651550292969,9.19561767578125,-4.887340068817139
1711552988927426300,18.71042626953125,1.1676974296569824,15.393028259277344,-6.472585201263428
1711552988946386700,18.72938671875,-7.361518859863281,28.467411041259766,-2.1092731952667236
1711552988965346800,18.748346923828127,-7.447660446166992,33.304500579833984,4.871787071228027
1711552988984307000,18.767306884765624,3.451646566390991,26.68834686279297,4.211368083953857
1711552989003267000,18.78626708984375,6.610172748565674,20.69791603088379,1.022931694984436
1711552989022227200,18.805227294921874,5.6925249099731445,18.51446533203125,6.75374174118042
1711552989041187600,18.8241875,2.750549554824829,20.711076736450195,13.86521053314209
1711552989060147500,18.8431474609375,2.4777679443359375,18.928422927856445,13.663017272949219
1711552989079107800,18.86210791015625,2.108076810836792,13.667802810668945,6.973881721496582
1711552989098068000,18.88106787109375,2.187039852142334,12.122039794921875,1.0827522277832031
1711552989117028000,18.900028076171875,-1.7324036359786987,11.138589859008789,-2.6488547325134277
1711552989135988200,18.91898828125,-6.3601226806640625,9.18724250793457,-5.391029357910156
1711552989154948400,18.9379482421875,-7.908278942108154,5.044070243835449,-7.929814338684082
1711552989173908500,18.956908447265626,-6.361319065093994,-0.3613162338733673,-8.327022552490234
1711552989192868600,18.97586865234375,-4.358526229858398,-4.459024906158447,-7.514659404754639
1711552989211829000,18.9948291015625,-2.4155545234680176,-5.2390851974487305,-6.562315940856934
1711552989230789000,19.0137890625,-1.1054840087890625,-2.407179594039917,-4.931607246398926
1711552989249749200,19.032749267578126,-0.4139583110809326,1.456032633781433,-2.9970104694366455
1711552989268709400,19.05170947265625,0.7010970115661621,4.353740692138672,-1.5122638940811157
1711552989287669500,19.07066943359375,1.8592232465744019,5.877968788146973,-0.20099709928035736
1711552989306629600,19.089629638671877,2.03629207611084,13.180863380432129,2.551945447921753
1711552989325589800,19.10858984375,-0.42352959513664246,27.493532180786133,9.110671997070312
1711552989344550100,19.127550048828127,1.0492527484893799,24.707090377807617,7.544569969177246
1711552989363510300,19.14651025390625,10.437492370605469,18.12802505493164,0.7537391185760498
1711552989382470400,19.165470458984377,9.499505996704102,19.755144119262695,-3.087937593460083
1711552989401430500,19.184430419921874,3.834498405456543,20.56032943725586,-5.86002254486084
1711552989420390700,19.203390625,0.5778666734695435,19.019350051879883,-4.086941242218018
1711552989439350800,19.222350830078124,-2.1332013607025146,17.406587600708008,-1.5553346872329712
1711552989458311000,19.241310791015625,-3.3858439922332764,16.09053611755371,-0.49651068449020386
1711552989477271300,19.260271240234374,-4.23649263381958,13.74915885925293,-0.05383851006627083
1711552989496231400,19.2792314453125,-4.296313285827637,11.425727844238281,1.6402798891067505
1711552989515191600,19.298191650390624,-3.0233314037323,9.08674430847168,4.652843475341797
1711552989534151700,19.317151611328125,-0.763310432434082,6.597012042999268,7.989634990692139
1711552989553111800,19.33611181640625,2.038684844970703,3.913461446762085,11.503495216369629
1711552989572072000,19.355072021484375,4.210171222686768,0.486939400434494,14.346168518066406
1711552989591032000,19.374031982421876,1.690529227256775,-2.6488547325134277,12.601800918579102
1711552989609992200,19.3929921875,-2.334198474884033,-3.70767879486084,8.335397720336914
1711552989628952600,19.41195263671875,-4.242474555969238,-3.562912940979004,4.152743816375732
1711552989647912400,19.430912353515627,-2.8247270584106445,-2.9180471897125244,1.7312071323394775
1711552989666872800,19.449872802734376,-1.6319050788879395,-2.0099709033966064,1.195214867591858
1711552989685833000,19.4688330078125,-2.0315065383911133,0.04426721855998039,2.0279171466827393
1711552989704793000,19.48779296875,-0.7549355626106262,4.401597023010254,1.9728822708129883
1711552989723753200,19.506753173828123,2.585444927215576,10.723434448242188,0.4295116662979126
1711552989742713300,19.52571337890625,2.197807550430298,17.69611930847168,-0.20458634197711945
1711552989761673700,19.544673828125,-2.4741785526275635,28.70071029663086,3.0376882553100586
1711552989780633600,19.563633544921874,-8.663214683532715,37.6235466003418,4.067798614501953
1711552989799594000,19.582593994140623,-2.719442844390869,31.779077529907227,5.904289722442627
1711552989818554000,19.60155419921875,1.5936198234558105,24.320650100708008,0.5970092415809631
1711552989837514200,19.62051416015625,1.8975083827972412,19.910676956176758,0.18424734473228455
1711552989856474400,19.639474365234374,1.3076776266098022,17.55613899230957,4.627718925476074
1711552989875434500,19.6584345703125,0.9990034699440002,16.278371810913086,6.640082836151123
1711552989894394600,19.67739453125,2.0542383193969727,14.535201072692871,5.375475883483887
1711552989913354800,19.696354736328125,1.3543375730514526,11.529815673828125,1.789831280708313
1711552989932315000,19.71531494140625,-0.30149564146995544,9.013762474060059,-0.6496513485908508
1711552989951275300,19.734275146484375,-2.719442844390869,5.491528034210205,-2.724228620529175
1711552989970235400,19.7532353515625,-5.136193752288818,0.9092726111412048,-5.665007591247559
1711552989989195500,19.772195556640625,-5.394618511199951,-5.073980331420898,-7.677371501922607
1711552990008155600,19.79115576171875,-2.166700839996338,-8.350951194763184,-8.854640007019043
1711552990027115800,19.81011572265625,-1.1617153882980347,-4.390829563140869,-8.524430274963379
1711552990046076000,19.829075927734376,-1.6498512029647827,2.7110681533813477,-7.665407180786133
1711552990065036000,19.8480361328125,-1.9058831930160522,7.494320392608643,-6.5527448654174805
1711552990083996200,19.86699609375,-1.6845471858978271,8.141578674316406,-3.4983067512512207
1711552990102956300,19.885956298828123,-1.171286702156067,7.073183536529541,-0.6675975322723389
1711552990121916400,19.90491650390625,0.6580262184143066,17.637495040893555,2.1786649227142334
1711552990140876500,19.92387646484375,-0.9882357716560364,31.84607696533203,6.573083877563477
1711552990159837000,19.9428369140625,0.6616154313087463,26.117658615112305,8.797212600708008
1711552990178797000,19.961797119140623,9.515059471130371,18.910476684570312,3.5784661769866943
1711552990197757000,19.9807568359375,6.588637351989746,14.694323539733887,-2.4646072387695312
1711552990216717300,19.99971728515625,0.4163511395454407,15.628721237182617,-5.994020938873291
1711552990235677400,20.018677490234374,-2.7589244842529297,16.9124698638916,-4.074976921081543
1711552990254637600,20.037637451171875,-4.456632137298584,15.261423110961914,-1.3100703954696655
1711552990273597700,20.05659765625,-5.601597785949707,11.578868865966797,0.7848458290100098
1711552990292557800,20.075557861328125,-5.210371494293213,8.26241683959961,2.5232315063476562
1711552990311518000,20.09451806640625,-4.3070807456970215,6.64486837387085,4.4997029304504395
1711552990330478000,20.11347802734375,-2.060220241546631,6.709474563598633,7.6977105140686035
1711552990349438200,20.132438232421876,2.7493531703948975,6.412764549255371,13.540983200073242
1711552990368398300,20.1513984375,4.984249591827393,4.749752998352051,18.221343994140625
1711552990387358700,20.170358642578126,1.3076776266098022,1.2502498626708984,15.567704200744629
1711552990406318600,20.189318603515623,-2.495713949203491,-1.0109676122665405,10.29153060913086
1711552990425278700,20.20827880859375,-5.003392219543457,-2.7182464599609375,4.840680122375488
1711552990444239000,20.227239013671873,-4.743771076202393,-3.3176486492156982,0.8207381963729858
1711552990463199200,20.24619921875,-4.260420799255371,-2.417947292327881,-0.7668996453285217
1711552990482159400,20.265159423828123,-4.566701889038086,-0.9068797826766968,-0.09212367236614227
1711552990501119500,20.284119384765624,-3.610769271850586,1.246660590171814,1.7802600860595703
1711552990520079600,20.30307958984375,-0.5682953596115112,5.020142078399658,2.0578274726867676
1711552990539039700,20.322039794921874,2.234896421432495,10.168299674987793,1.184447169303894
1711552990557999900,20.340999755859375,2.4765713214874268,15.059228897094727,0.7489534616470337
1711552990576960000,20.3599599609375,2.3533411026000977,22.925634384155273,1.7120646238327026
1711552990595920100,20.378920166015625,-1.934597134590149,35.2486686706543,2.3617160320281982
1711552990614880300,20.39788037109375,-5.753541946411133,36.294334411621094,1.1258230209350586
1711552990633840400,20.41684033203125,-5.015356063842773,29.429325103759766,0.5000999569892883
1711552990652800500,20.435800537109376,-2.3772692680358887,21.431316375732422,-3.0867412090301514
1711552990671760600,20.4547607421875,1.129412293434143,16.341781616210938,0.01196411345154047
1711552990690720800,20.473720703125,1.200000524520874,15.450455665588379,2.1092731952667236
1711552990709681000,20.492680908203123,1.0612168312072754,14.670395851135254,0.029910283163189888
1711552990728641000,20.51164111328125,1.1198409795761108,13.743176460266113,-1.9597218036651611
1711552990747601200,20.53060107421875,-1.3471591472625732,10.182656288146973,-3.8356947898864746
1711552990766561500,20.5495615234375,-4.403990268707275,2.5591237545013428,-7.594819068908691
1711552990785521400,20.568521484375,-5.85284423828125,-5.651846885681152,-11.039287567138672
1711552990804481500,20.5874814453125,-3.944568157196045,-9.66939640045166,-9.889535903930664
1711552990823441700,20.606441650390625,-1.2562319040298462,-4.392025947570801,-6.122036933898926
1711552990842402000,20.625402099609374,-0.28115665912628174,2.5974090099334717,-5.167300701141357
1711552990861362000,20.64436181640625,-0.8578268885612488,6.174678802490234,-5.723631858825684
1711552990880322000,20.663322021484376,-1.0600204467773438,6.483353137969971,-5.38624382019043
1711552990899282400,20.682282470703125,-0.137587308883667,10.554740905761719,-2.7397818565368652
1711552990918242600,20.70124267578125,-1.058824062347412,20.99941062927246,2.1714866161346436
1711552990937202700,20.72020263671875,-0.8410771489143372,20.805593490600586,4.890929698944092
1711552990956162600,20.73916259765625,8.273183822631836,17.56690788269043,0.3601198196411133
1711552990975123000,20.758123046875,11.598011016845703,18.827924728393555,-3.838087558746338
1711552990994083000,20.7770830078125,6.91765022277832,19.59602165222168,-8.745766639709473
1711552991013043200,20.796043212890623,0.9403793215751648,20.413169860839844,-6.930810928344727
1711552991032003000,20.815003173828124,-1.848455548286438,18.55992889404297,-1.7491533756256104
1711552991050963500,20.83396337890625,-1.8065811395645142,14.630913734436035,0.4618147611618042
1711552991069923600,20.852923583984374,-1.7252250909805298,10.649256706237793,1.0815558433532715
1711552991088883700,20.8718837890625,-2.5124638080596924,8.088936805725098,2.555534601211548
1711552991107843800,20.89084375,-3.221935749053955,7.015756130218506,5.312066078186035
1711552991126804000,20.909803955078125,-2.4765713214874268,5.938985824584961,8.475378036499023
1711552991145764000,20.92876416015625,0.008374879136681557,3.9122650623321533,11.894721031188965
1711552991164724200,20.94772412109375,3.820141315460205,0.729810893535614,14.502898216247559
1711552991183684400,20.966684326171876,5.2354960441589355,-2.2468605041503906,13.692927360534668
1711552991202644500,20.98564453125,1.8149559497833252,-1.9465612173080444,9.889535903930664
1711552991221604600,21.0046044921875,-2.583052158355713,-0.8350951075553894,6.282355785369873
1711552991240564700,21.023564697265623,-5.843272686004639,-0.7429714202880859,3.7459638118743896
1711552991259524900,21.04252490234375,-5.639883041381836,-0.3517449200153351,1.470389485359192
1711552991278485000,21.061485107421873,-3.7423746585845947,0.778863787651062,-0.3194418251514435
1711552991297445000,21.080445068359374,-1.4141582250595093,3.3858439922332764,-1.129412293434143
1711552991316405200,21.0994052734375,2.3617160320281982,8.023134231567383,-3.184846878051758
1711552991335365400,21.118365478515624,3.3858439922332764,11.277373313903809,-6.410371780395508
1711552991354325500,21.137325439453125,0.3720839321613312,16.11924934387207,-6.220142364501953
1711552991373285600,21.15628564453125,-3.2578279972076416,26.475385665893555,-1.970489501953125
1711552991392245800,21.175245849609375,-6.872186660766602,36.00719451904297,0.6628118753433228
1711552991411206000,21.194205810546876,-1.4380863904953003,31.724042892456055,2.6727828979492188
1711552991430166000,21.213166015625,2.1918256282806396,27.12384033203125,1.155733346939087
1711552991449126100,21.232126220703126,7.293323516845703,20.204994201660156,1.2143574953079224
1711552991468086300,21.251086181640623,7.592426300048828,15.66820240020752,6.299105644226074
1711552991487046400,21.27004638671875,2.812762975692749,13.551751136779785,6.57547664642334
1711552991506006500,21.289006591796873,0.8578268885612488,10.211370468139648,0.605384111404419
1711552991524966700,21.307966552734374,-3.1896326541900635,8.981459617614746,-7.310073375701904
1711552991543926800,21.3269267578125,-6.835097789764404,6.2428741455078125,-10.643275260925293
1711552991562887000,21.345886962890624,-5.864808082580566,0.02153540402650833,-12.064611434936523
1711552991581847000,21.364846923828125,-4.275974273681641,-5.1529436111450195,-9.7064847946167
1711552991600807200,21.38380712890625,-3.4372897148132324,-5.6554365158081055,-5.729613780975342
1711552991619767300,21.402767333984375,-1.919043779373169,-1.7766708135604858,-3.218346357345581
1711552991638727700,21.421727783203124,-1.069591760635376,2.8689942359924316,-1.919043779373169
1711552991657687600,21.4406875,-0.5826523303985596,5.2151570320129395,-1.1593226194381714
1711552991676647700,21.459647705078126,0.3158525824546814,4.77248477935791,-0.8841479420661926
1711552991695608000,21.478608154296875,3.157329559326172,7.590033531188965,-1.0480563640594482
1711552991714568200,21.497568115234376,2.4155545234680176,24.68555450439453,1.3818551301956177
1711552991733528300,21.5165283203125,-4.207778453826904,27.937400817871094,9.138189315795898
1711552991752488400,21.535488525390626,3.9050865173339844,18.790836334228516,3.104687452316284
1711552991771448600,21.554448486328123,10.77129077911377,16.575082778930664,-2.7122645378112793
1711552991790408700,21.57340869140625,7.703692436218262,16.291532516479492,-8.920442581176758
1711552991809368800,21.592368896484373,3.2470602989196777,17.70449447631836,-11.101500511169434
1711552991828329000,21.611328857421874,-1.5852450132369995,18.12563133239746,-6.157928943634033
1711552991847289000,21.6302890625,-3.538984775543213,15.580864906311035,-2.6739792823791504
1711552991866249200,21.649249267578124,-4.5547380447387695,12.5683012008667,-1.2299108505249023
1711552991885209300,21.668209228515625,-5.280959606170654,10.169496536254883,0.014356935396790504
1711552991904169500,21.68716943359375,-5.426921844482422,8.051848411560059,2.3569302558898926
1711552991923129600,21.706129638671875,-4.445864677429199,6.222535133361816,5.2941203117370605
1711552991942090000,21.725090087890624,-1.8867406845092773,4.6887359619140625,9.364311218261719
1711552991961049900,21.7440498046875,2.774477958679199,2.6428725719451904,15.615560531616211
1711552991980010200,21.76301025390625,5.254638671875,1.0971091985702515,19.39861297607422
1711552991998970400,21.781970458984375,2.7433712482452393,-1.085145115852356,12.788440704345703
1711552992017930500,21.800930419921876,-1.0325030088424683,-3.4779677391052246,7.507481098175049
1711552992036890600,21.819890625,-4.1144585609436035,-3.8117663860321045,4.092923164367676
1711552992055850800,21.838850830078126,-5.032105922698975,-1.770688772201538,2.6225335597991943
1711552992074811000,21.857810791015623,-4.528416633605957,1.2741780281066895,2.5806591510772705
1711552992093771000,21.87677099609375,-2.50289249420166,4.892126083374023,2.809173822402954
1711552992112731100,21.895731201171873,1.155733346939087,9.840482711791992,1.1210373640060425
1711552992131691500,21.91469140625,0.8374879360198975,16.68036651611328,0.49172505736351013
1711552992150651600,21.933651611328123,-2.9563324451446533,26.30190658569336,2.977867841720581
1711552992169611800,21.95261181640625,-8.411968231201172,40.39921951293945,4.768895626068115
1711552992188572000,21.971572021484373,-9.095118522644043,38.5866584777832,0.8446664214134216
1711552992207532000,21.990531982421874,-3.284149169921875,29.042884826660156,-1.7096717357635498
1711552992226492200,22.0094921875,-2.6021945476531982,22.728225708007812,-4.4482574462890625
1711552992245452300,22.028452392578124,-0.778863787651062,17.32403564453125,-0.1698904037475586
1711552992264412400,22.047412353515625,-1.129412293434143,14.155939102172852,3.579662561416626
1711552992283372500,22.06637255859375,1.9669002294540405,10.461421012878418,3.0412776470184326
1711552992302332700,22.085332763671875,5.032105922698975,8.490931510925293,1.5074782371520996
1711552992321293000,22.10429296875,3.242274761199951,6.977470874786377,0.1579262912273407
1711552992340253200,22.123253173828125,-0.6592226624488831,3.3894333839416504,-2.3437697887420654
1711552992359213300,22.14221337890625,-4.596612453460693,-2.1822543144226074,-7.024130821228027
1711552992378173400,22.16117333984375,-7.210771083831787,-7.229913711547852,-10.785648345947266
1711552992397133600,22.180133544921876,-4.326223373413086,-6.059823513031006,-9.433703422546387
1711552992416093700,22.19909375,-1.3758729696273804,0.5300102233886719,-7.269395351409912
1711552992435053800,22.2180537109375,-1.9022940397262573,5.870790481567383,-6.687939167022705
1711552992454014200,22.23701416015625,-3.2829527854919434,7.179664134979248,-6.713063716888428
1711552992472974300,22.255974365234376,-0.9367900490760803,6.215356826782227,-6.168696880340576
1711552992491934500,22.2749345703125,0.4498506486415863,13.690534591674805,-2.8558337688446045
1711552992510894600,22.29389453125,-1.7539390325546265,29.57050132751465,4.791627407073975
1711552992529855000,22.31285498046875,1.6366907358169556,26.09612464904785,6.461817741394043
1711552992548814800,22.33181494140625,12.41994571685791,20.167905807495117,0.5515456199645996
1711552992567775200,22.350775146484374,8.11525821685791,19.53619956970215,-3.9589250087738037
1711552992586735400,22.3697353515625,2.968296527862549,20.167905807495117,-7.641479015350342
1711552992605695500,22.388695556640624,-0.7932206988334656,20.845073699951172,-4.447061061859131
1711552992624655600,22.407655517578124,-1.6965112686157227,17.32403564453125,-1.2287144660949707
1711552992643615700,22.42661572265625,-2.9599215984344482,12.602996826171875,0.22851456701755524
1711552992662576000,22.445576171875,-3.5473594665527344,9.634700775146484,1.1724830865859985
1711552992681536300,22.464536376953124,-3.9349968433380127,7.77188777923584,2.878565549850464
1711552992700496400,22.483496337890625,-2.5698914527893066,6.368497371673584,5.233103275299072
1711552992719456500,22.50245654296875,1.089930772781372,3.913461446762085,8.081758499145508
1711552992738416600,22.521416748046875,4.194618225097656,0.22971096634864807,12.06221866607666
1711552992757377000,22.540376953125,3.8799619674682617,-2.6979074478149414,14.516058921813965
1711552992776337200,22.559337158203125,0.22612173855304718,-4.4961137771606445,11.185249328613281
1711552992795297300,22.57829736328125,-4.180261135101318,-4.193421840667725,7.286144733428955
1711552992814257400,22.59725732421875,-4.737788677215576,-2.853440999984741,3.5150563716888428
1711552992833217800,22.6162177734375,-3.3571300506591797,-1.0827522277832031,2.3126630783081055
1711552992852177700,22.635177734375,-4.445864677429199,1.2598211765289307,3.047259569168091
1711552992871138000,22.654137939453125,-4.991427898406982,3.6131622791290283,2.991028308868408
1711552992890098200,22.67309814453125,-2.3641088008880615,9.43609619140625,6.209374904632568
1711552992909058300,22.692058349609376,9.798608779907227,23.212772369384766,4.557130813598633
1711552992928018400,22.711018310546876,3.326023578643799,40.061832427978516,9.984052658081055
1711552992946978800,22.729978759765626,-11.948559761047363,33.19682312011719,5.030909538269043
1711552992965939000,22.74893896484375,-8.677571296691895,26.45384979248047,-2.2337000370025635
1711552992984899000,22.767899169921876,-4.169493675231934,23.90669059753418,-2.7122645378112793
1711552993003859500,22.786859375,-0.364905446767807,23.209182739257812,1.6965112686157227
1711552993022819300,22.8058193359375,0.8685946464538574,22.06661033630371,7.500302791595459
1711552993041779700,22.82477978515625,4.796412944793701,17.08355712890625,4.6648077964782715
1711552993060739800,22.84373974609375,3.88594388961792,13.343575477600098,1.6977076530456543
1711552993079700000,22.862699951171876,-0.31465616822242737,10.661221504211426,-2.087737798690796
1711552993098660400,22.881660400390626,-2.5531418323516846,6.297909259796143,-6.052644729614258
1711552993117620500,22.900620361328127,-4.552345275878906,0.2883351147174835,-9.708877563476562
1711552993136580600,22.91958056640625,-6.071787357330322,-5.191228866577148,-10.76530933380127
1711552993155540700,22.938540771484377,-4.150351047515869,-5.163711071014404,-8.366504669189453
1711552993174501000,22.957501220703126,-1.2011969089508057,-0.18424734473228455,-5.587240695953369
1711552993193461200,22.976461181640627,-0.8841479420661926,4.502095699310303,-3.456432342529297
1711552993212421400,22.99542138671875,-2.0829520225524902,7.117451190948486,-1.454836130142212
1711552993231381500,23.014381591796877,-2.5052852630615234,6.064609050750732,0.18544375896453857
1711552993250342000,23.033341796875,-1.867598056793213,3.4205398559570312,0.8386843204498291
1711552993269302000,23.052302001953127,1.9226330518722534,3.157329559326172,0.039481572806835175
1711552993288262100,23.07126220703125,4.750949382781982,17.763118743896484,-0.037088751792907715
1711552993307222500,23.090222412109377,-4.9986066818237305,34.88496017456055,12.433106422424316
1711552993326182700,23.1091826171875,5.274977684020996,24.721446990966797,8.717052459716797
1711552993345142800,23.128142822265627,21.16212272644043,22.33221435546875,-1.0193424224853516
1711552993364103000,23.14710302734375,5.112265586853027,22.127628326416016,-9.249456405639648
1711552993383063300,23.166063232421877,-7.530212879180908,20.09372901916504,-10.817951202392578
1711552993402023400,23.1850234375,-7.946564197540283,15.573686599731445,-6.186643123626709
1711552993420983600,23.203983642578127,-5.485546112060547,10.761719703674316,0.04546362906694412
1711552993439944000,23.22294384765625,-4.016352653503418,7.887939929962158,4.211368083953857
1711552993458904000,23.241904052734377,-2.6703901290893555,6.197410583496094,6.932007312774658
1711552993477864200,23.2608642578125,-2.489732027053833,4.587040901184082,9.628718376159668
1711552993496824300,23.27982421875,-1.2287144660949707,2.5459632873535156,13.490734100341797
1711552993515784700,23.29878466796875,0.4414757788181305,0.9415757060050964,16.25324821472168
1711552993534744800,23.317744873046873,-0.26201409101486206,0.3900300860404968,13.663017272949219
1711552993553705000,23.336705078125,-1.550549030303955,1.0923235416412354,8.427521705627441
1711552993572665300,23.355665283203123,-2.854637384414673,0.22372891008853912,3.8943188190460205
1711552993591625500,23.37462548828125,-3.7507495880126953,-1.2945170402526855,0.7154539823532104
1711552993610585600,23.393585693359373,-3.8009986877441406,-1.6809579133987427,-0.059820566326379776
1711552993629546000,23.4125458984375,-4.144368648529053,-1.4141582250595093,1.7096717357635498
1711552993648506000,23.431506103515623,-3.6155550479888916,-0.5264210104942322,3.8356947898864746
1711552993667466200,23.45046630859375,-0.698704183101654,3.555734395980835,3.8189449310302734
1711552993686426600,23.469426513671873,3.290131092071533,10.565508842468262,2.4634108543395996
1711552993705386800,23.48838671875,4.668396949768066,19.025333404541016,2.342573404312134
1711552993724347000,23.507346923828123,-2.094916343688965,31.54817008972168,5.608776092529297
1711552993743307300,23.526307373046876,-7.777870178222656,34.9914436340332,3.0245277881622314
1711552993762267400,23.545267333984373,-3.174079179763794,30.588647842407227,4.088137626647949
1711552993781227500,23.5642275390625,-2.6775684356689453,25.261028289794922,2.851048231124878
1711552993800187600,23.583187744140623,-1.456032633781433,20.402402877807617,4.887340068817139
1711552993819148000,23.60214794921875,1.2897313833236694,16.95793342590332,7.29093074798584
1711552993838108200,23.621108154296873,3.1130621433258057,15.099906921386719,7.8317084312438965
1711552993857068300,23.640068359375,2.1750757694244385,13.584053993225098,5.789434432983398
1711552993876028700,23.659028564453124,-1.573280930519104,11.279766082763672,1.1485549211502075
1711552993894988800,23.67798876953125,-4.4614176750183105,6.613761901855469,-5.069194793701172
1711552993913949000,23.696948974609374,-6.4941205978393555,0.13519448041915894,-9.957731246948242
1711552993932909300,23.715909423828126,-5.2115678787231445,-5.423332691192627,-10.63250732421875
1711552993951869400,23.734869384765624,-2.3844478130340576,-4.595416069030762,-8.003992080688477
1711552993970829600,23.75382958984375,-1.542174220085144,1.415354609489441,-6.44387149810791
1711552993989790000,23.7727900390625,-1.8041882514953613,5.648257732391357,-5.6590256690979
1711552994008750000,23.79175,-1.8137595653533936,5.416153907775879,-4.071387767791748
1711552994027710200,23.810710205078124,-0.9750752449035645,2.5435705184936523,-1.9956140518188477
1711552994046670600,23.829670654296876,0.605384111404419,0.26560330390930176,-0.6951149702072144
1711552994065630700,23.848630615234374,1.2873386144638062,0.16390834748744965,-0.6783652305603027
1711552994084590800,23.8675908203125,1.9369899034500122,12.096915245056152,-0.7489534616470337
1711552994103551200,23.88655126953125,-3.1860432624816895,47.62913513183594,5.3347978591918945
1711552994122511400,23.905511474609376,-2.1343977451324463,31.785058975219727,13.071990013122559
1711552994141471500,23.924471435546874,15.245869636535645,17.49272918701172,2.344966173171997
1711552994160431600,23.943431640625,11.302497863769531,13.667802810668945,-3.3714871406555176
1711552994179392000,23.96239208984375,5.402993679046631,17.288143157958984,-7.6474609375
1711552994198352100,23.98135205078125,-0.9667003750801086,19.481164932250977,-5.44845724105835
1711552994217312300,24.000312255859374,-6.2297139167785645,16.899309158325195,-3.4995031356811523
1711552994236272600,24.019272705078127,-8.170292854309082,12.598211288452148,-1.7395820617675781
1711552994255232800,24.038232666015624,-8.0291166305542,9.492327690124512,0.9427721500396729
1711552994274193000,24.05719287109375,-6.709474563598633,6.299105644226074,3.528217077255249
1711552994293153300,24.0761533203125,-2.5938198566436768,2.5160529613494873,7.3304123878479
1711552994312113400,24.095113525390627,3.6131622791290283,-0.7908278703689575,14.653645515441895
1711552994331073500,24.114073486328124,4.914857864379883,-0.40797626972198486,20.7900390625
1711552994350034000,24.133033935546877,0.7166503667831421,-0.4426721930503845,13.751551628112793
1711552994368994000,24.151994140625,-3.510270833969116,-2.6177480220794678,6.620940208435059
1711552994387954200,24.1709541015625,-5.236692428588867,-3.610769271850586,2.561516523361206
1711552994406914600,24.18991455078125,-3.817748546600342,-3.4815568923950195,0.39481574296951294
1711552994425874700,24.208874755859377,-2.963510751724243,-1.8077775239944458,-0.3756731450557709
1711552994444834800,24.227834716796874,-3.4540395736694336,-0.5156532526016235,0.9260223507881165
1711552994463795000,24.246794921875,-3.135794162750244,1.0875378847122192,5.058426856994629
1711552994482755300,24.26575537109375,0.34695929288864136,6.729813575744629,6.790830612182617
1711552994501715500,24.284715576171877,7.730013370513916,15.340386390686035,3.9361932277679443
1711552994520675600,24.303675537109374,2.0542383193969727,26.851058959960938,5.282155990600586
1711552994539636000,24.322635986328127,-9.728020668029785,41.449668884277344,10.197013854980469
1711552994558596000,24.34159619140625,-12.075379371643066,41.185264587402344,4.2831525802612305
1711552994577556200,24.36055615234375,-4.689932346343994,30.894929885864258,-2.7768707275390625
1711552994596516600,24.3795166015625,-3.0269205570220947,22.73899269104004,-5.213960647583008
1711552994615476700,24.398476806640623,-1.6689938306808472,18.30509376525879,0.7728816866874695
1711552994634436900,24.417436767578124,-1.9130617380142212,15.129817962646484,5.356333255767822
1711552994653397200,24.436397216796873,-0.5515456199645996,13.036097526550293,6.948757171630859
1711552994672357400,24.455357421875,3.036491870880127,11.84566879272461,4.901697158813477
1711552994691317500,24.4743173828125,5.304887771606445,10.359725952148438,1.4679967164993286
1711552994710278000,24.49327783203125,0.28115665912628174,4.362115859985352,-2.6057839393615723
