time,seconds_elapsed,z,y,x
1710889985730648000,0.09564794921875,-0.01588248461484909,-0.10903936624526978,-0.08429934084415436
1710889985749607700,0.114607666015625,-0.019242240116000175,-0.05253437161445618,-0.07299833744764328
1710889985768567300,0.1335673828125,-0.018325943499803543,-0.011606430634856224,-0.06108647957444191
1710889985787527000,0.15252685546875,-0.02779434807598591,0.009162971749901772,-0.05100720748305321
1710889985806486500,0.171486572265625,-0.029626941308379173,0.008246674202382565,-0.044898562133312225
1710889985825446000,0.19044580078125,-0.020158538594841957,0.0009162971982732415,-0.039706211537122726
1710889985844405500,0.209405517578125,-0.02626718580722809,-0.010690134018659592,-0.03176496922969818
1710889985863365000,0.228365234375,-0.04306596517562866,-0.02779434807598591,-0.023212861269712448
1710889985882324700,0.24732470703125,-0.04764745384454727,-0.0461202897131443,-0.010995565913617611
1710889985901284400,0.266284423828125,-0.05100720748305321,-0.05100720748305321,0.001832594396546483
1710889985920243700,0.28524365234375,-0.05894844979047775,-0.03481929376721382,0.010079269297420979
1710889985939203300,0.304203369140625,-0.06017018109560013,-0.008857538923621178,0.010995565913617611
1710889985958163000,0.323162841796875,-0.05528326332569122,0.010384701192378998,0.006108647678047419
1710889985977122600,0.34212255859375,-0.06322450190782547,0.021380268037319183,0.010384701192378998
1710889985996082200,0.361082275390625,-0.07238747924566269,0.021685699000954628,0.012522728182375431
1710889986015041800,0.380041748046875,-0.06750056147575378,0.001832594396546483,0.010995565913617611
1710889986034001400,0.39900146484375,-0.06322450190782547,-0.024434590712189674,0.008857538923621178
1710889986052961000,0.4179609375,-0.0720820426940918,-0.048563748598098755,0.0021380267571657896
1710889986071920400,0.43692041015625,-0.0766635313630104,-0.07941242307424545,-0.003359756199643016
1710889986090880000,0.4558798828125,-0.0720820426940918,-0.10965022444725037,-0.011300998739898205
1710889986109839600,0.474839599609375,-0.05864302068948746,-0.143553227186203,-0.02107483521103859
1710889986128799200,0.49379931640625,-0.04153880476951599,-0.19425499439239502,-0.038789913058280945
1710889986147758800,0.5127587890625,-0.025350889191031456,-0.27855435013771057,-0.054672397673130035
1710889986166718500,0.531718505859375,-0.021685699000954628,-0.3854556679725647,-0.06780599057674408
1710889986185678000,0.550677978515625,-0.03848448023200035,-0.49480047821998596,-0.06627883017063141
1710889986204637700,0.5696376953125,-0.06902772188186646,-0.5732966065406799,-0.06933315098285675
1710889986223597000,0.58859716796875,-0.08918625861406326,-0.6026180982589722,-0.07635809481143951
1710889986242556700,0.607556640625,-0.09193515032529831,-0.5925388336181641,-0.08277218043804169
1710889986261516300,0.626516357421875,-0.10598503798246384,-0.5729911923408508,-0.0922405794262886
1710889986280476000,0.645475830078125,-0.1383608728647232,-0.5681042671203613,-0.10720676928758621
1710889986299435300,0.664435302734375,-0.17776164412498474,-0.5794052481651306,-0.12522727251052856
1710889986318395000,0.683394775390625,-0.20952661335468292,-0.6093376278877258,-0.13011419773101807
1710889986337354500,0.7023544921875,-0.23182319104671478,-0.6459894776344299,-0.12644900381565094
1710889986356314000,0.721314208984375,-0.2562577724456787,-0.6679806113243103,-0.12675444781780243
1710889986375273700,0.740273681640625,-0.2809978127479553,-0.6835576891899109,-0.1383608728647232
1710889986394233300,0.7592333984375,-0.31093016266822815,-0.6887500286102295,-0.14172062277793884
1710889986413193000,0.77819287109375,-0.34697118401527405,-0.6609556674957275,-0.14599667489528656
1710889986432152600,0.797152587890625,-0.3637699782848358,-0.6038398146629333,-0.15485422313213348
1710889986451112000,0.81611181640625,-0.3582721948623657,-0.5213730931282043,-0.16279546916484833
1710889986470071600,0.835071533203125,-0.35582873225212097,-0.44929105043411255,-0.17806708812713623
1710889986489031200,0.85403125,-0.36774060130119324,-0.41416633129119873,-0.19425499439239502
1710889986507990800,0.87299072265625,-0.3949240744113922,-0.4062250852584839,-0.22815799713134766
1710889986526950400,0.891950439453125,-0.43982264399528503,-0.42974337935447693,-0.25870123505592346
1710889986545910000,0.910909912109375,-0.47372564673423767,-0.46975502371788025,-0.28008151054382324
1710889986564869600,0.92986962890625,-0.4886918365955353,-0.5128209590911865,-0.29626941680908203
1710889986583829200,0.948829345703125,-0.49663305282592773,-0.546113133430481,-0.31062474846839905
1710889986602788900,0.967788818359375,-0.49968740344047546,-0.5751292109489441,-0.3271180987358093
1710889986621748500,0.98674853515625,-0.5009090900421143,-0.5940660238265991,-0.3396408259868622
1710889986640708000,1.0057080078125,-0.49632763862609863,-0.6047561168670654,-0.34788748621940613
1710889986659667500,1.02466748046875,-0.4932733178138733,-0.6081159114837646,-0.3396408259868622
1710889986678627000,1.043626953125,-0.49541133642196655,-0.5955931544303894,-0.34055712819099426
1710889986697586700,1.062586669921875,-0.4831940531730652,-0.5705476999282837,-0.3433060050010681
1710889986716546300,1.08154638671875,-0.4581485986709595,-0.5424479246139526,-0.3436114490032196
1710889986735506000,1.100505859375,-0.42363473773002625,-0.5308414697647095,-0.3384190797805786
1710889986754465500,1.119465576171875,-0.38789913058280945,-0.5574141144752502,-0.3338375985622406
1710889986773425200,1.138425048828125,-0.35705047845840454,-0.6185005903244019,-0.3338375985622406
1710889986792384800,1.157384765625,-0.3335321843624115,-0.6976075768470764,-0.3347539007663727
1710889986811344400,1.176344482421875,-0.3173442482948303,-0.7822123765945435,-0.3399462401866913
1710889986830304000,1.195303955078125,-0.30634868144989014,-0.8622356653213501,-0.3387245237827301
1710889986849263600,1.214263671875,-0.28008151054382324,-0.915075421333313,-0.3271180987358093
1710889986868223200,1.23322314453125,-0.26419901847839355,-0.9447023868560791,-0.3136790692806244
1710889986887182800,1.252182861328125,-0.26358816027641296,-0.9502001404762268,-0.3020726442337036
1710889986906142500,1.271142578125,-0.2675587832927704,-0.9205732345581055,-0.2883281707763672
1710889986925102000,1.29010205078125,-0.2779434621334076,-0.8472694754600525,-0.27030766010284424
1710889986944061700,1.309061767578125,-0.2834412455558777,-0.7330377101898193,-0.23854269087314606
1710889986963021300,1.328021240234375,-0.2788597643375397,-0.5910117030143738,-0.1948658674955368
1710889986981981000,1.34698095703125,-0.26908594369888306,-0.4456258714199066,-0.15088360011577606
1710889987000940500,1.3659404296875,-0.2510654330253601,-0.3185659945011139,-0.11453714966773987
1710889987019900200,1.384900146484375,-0.22174391150474548,-0.21288637816905975,-0.09957095980644226
1710889987038859800,1.40385986328125,-0.1899789422750473,-0.14691297709941864,-0.09315688163042068
1710889987057819400,1.4228193359375,-0.1637117564678192,-0.12522727251052856,-0.0977383628487587
1710889987076779000,1.441779052734375,-0.13011419773101807,-0.14477495849132538,-0.1078176349401474
1710889987095738600,1.460738525390625,-0.0821613147854805,-0.21899501979351044,-0.11881320178508759
1710889987114698200,1.4796982421875,-0.04276053607463837,-0.36254823207855225,-0.13713914155960083
1710889987133657900,1.498657958984375,-0.004581485874950886,-0.536339282989502,-0.16035200655460358
1710889987152617500,1.517617431640625,0.056810423731803894,-0.712573766708374,-0.1737910360097885
1710889987171577000,1.5365771484375,0.16157373785972595,-0.860708475112915,-0.16859868168830872
1710889987190536700,1.55553662109375,0.2660316228866577,-0.9920443892478943,-0.16187916696071625
1710889987209496300,1.574496337890625,0.3069595396518707,-1.203098177909851,-0.1954767256975174
1710889987228456000,1.5934560546875,0.26419901847839355,-1.4831796884536743,-0.27000224590301514
1710889987247415600,1.61241552734375,0.19792018830776215,-1.709810495376587,-0.3231474757194519
1710889987266375200,1.631375244140625,0.18845178186893463,-1.7510439157485962,-0.32009315490722656
1710889987285334800,1.650334716796875,0.26939135789871216,-1.6475023031234741,-0.2974911332130432
1710889987304294400,1.66929443359375,0.3277289569377899,-1.4874557256698608,-0.3243691921234131
1710889987323254000,1.68825390625,0.25992295145988464,-1.3136646747589111,-0.3549124300479889
1710889987342213600,1.707213623046875,0.09498947113752365,-1.1267400979995728,-0.3637699782848358
1710889987361173500,1.726173583984375,-0.013439024798572063,-0.925460159778595,-0.3426951467990875
1710889987380133000,1.745133056640625,-0.01282816007733345,-0.693636953830719,-0.3139844834804535
1710889987399092700,1.7640927734375,0.0824667438864708,-0.46395179629325867,-0.29046618938446045
1710889987418052400,1.78305224609375,0.18417572975158691,-0.31520622968673706,-0.2660316228866577
1710889987437012000,1.802011962890625,0.22357651591300964,-0.2632827162742615,-0.22754712402820587
1710889987455971600,1.8209716796875,0.20127993822097778,-0.2788597643375397,-0.16829325258731842
1710889987474931200,1.83993115234375,0.10842850059270859,-0.2877173125743866,-0.10170898586511612
1710889987493890800,1.858890869140625,-0.002443459117785096,-0.2889390289783478,-0.06475166976451874
1710889987512850700,1.8778505859375,-0.07513637095689774,-0.2981020212173462,-0.06414080411195755
1710889987531810300,1.896810302734375,-0.10690133273601532,-0.3029889166355133,-0.06811141967773438
1710889987550770000,1.91577001953125,-0.1130099818110466,-0.31154105067253113,-0.08124501258134842
1710889987569729500,1.9347294921875,-0.11178825795650482,-0.3182605504989624,-0.07269290834665298
1710889987588689200,1.953689208984375,-0.12522727251052856,-0.3491092324256897,-0.08277218043804169
1710889987607648800,1.972648681640625,-0.13652828335762024,-0.4272999167442322,-0.11911863088607788
1710889987626608400,1.9916083984375,-0.13439024984836578,-0.49082985520362854,-0.15271618962287903
1710889987645568300,2.010568359375,-0.09560033679008484,-0.47983428835868835,-0.1545487940311432
1710889987664528000,2.02952783203125,-0.05406153202056885,-0.39217519760131836,-0.11178825795650482
1710889987683487500,2.048487548828125,-0.03787361457943916,-0.28466299176216125,-0.07269290834665298
1710889987702447000,2.067447021484375,-0.040317077189683914,-0.1795942485332489,-0.056199558079242706
1710889987721406700,2.08640673828125,-0.038789913058280945,-0.09101885557174683,-0.06047561392188072
1710889987740366600,2.10536669921875,-0.026572618633508682,-0.0204639695584774,-0.0717766135931015
1710889987759326200,2.124326171875,-0.009162971749901772,0.0015271619195118546,-0.08521563559770584
1710889987778285800,2.143285888671875,0.0021380267571657896,-0.028099779039621353,-0.10415244847536087
1710889987797245400,2.162245361328125,-0.000610864779446274,-0.08032871782779694,-0.13041962683200836
1710889987816205000,2.181205078125,-0.028099779039621353,-0.14508038759231567,-0.14202606678009033
1710889987835165000,2.2001650390625,-0.05497783049941063,-0.20708316564559937,-0.15179990231990814
1710889987854124500,2.21912451171875,-0.06627883017063141,-0.24953825771808624,-0.1444695144891739
1710889987873084200,2.238084228515625,-0.06261363625526428,-0.26939135789871216,-0.10842850059270859
1710889987892044000,2.2570439453125,-0.05894844979047775,-0.27519458532333374,-0.056810423731803894
1710889987911003600,2.276003662109375,-0.06566796451807022,-0.28588470816612244,-0.013744457624852657
1710889987929963300,2.29496337890625,-0.08460476994514465,-0.29413139820098877,0.03298669680953026
1710889987948923000,2.3139228515625,-0.08888082206249237,-0.26389357447624207,0.08399390429258347
1710889987967882500,2.332882568359375,-0.06780599057674408,-0.2098320573568344,0.1328630894422531
1710889987986842400,2.35184228515625,-0.041844237595796585,-0.15027274191379547,0.16004657745361328
1710889988005802000,2.370802001953125,-0.025045456364750862,-0.056810423731803894,0.18570289015769958
1710889988024761600,2.38976171875,-0.003970621153712273,0.08521563559770584,0.22999058663845062
1710889988043721200,2.40872119140625,0.047036588191986084,0.27030766010284424,0.2632827162742615
1710889988062681000,2.42768115234375,0.08338304609060287,0.46486809849739075,0.27000224590301514
1710889988081640700,2.446640625,0.08918625861406326,0.6359102129936218,0.2525925934314728
1710889988100600300,2.465600341796875,0.08460476994514465,0.7623592615127563,0.2208276242017746
1710889988119560200,2.484560302734375,0.0766635313630104,0.8200859427452087,0.18387030065059662
1710889988138519800,2.503519775390625,0.06841685622930527,0.8167262077331543,0.14263692498207092
1710889988157479400,2.5224794921875,0.06352993845939636,0.7910698652267456,0.09651663154363632
1710889988176439300,2.541439208984375,0.07971785217523575,0.7846558094024658,0.04673115536570549
1710889988195399000,2.56039892578125,0.13500112295150757,0.7614429593086243,0.0021380267571657896
1710889988214358500,2.579358642578125,0.23243404924869537,0.7373138070106506,-0.027488915249705315
1710889988233318400,2.598318359375,0.39675667881965637,0.7797688841819763,-0.027488915249705315
1710889988252278000,2.617278076171875,0.5161807537078857,0.8301652073860168,-0.026878049597144127
1710889988271237600,2.636237548828125,0.5598575472831726,0.8139773011207581,0.010690134018659592
1710889988290197200,2.655197265625,0.7929024696350098,0.8124501705169678,0.1496618688106537
1710889988309157000,2.6741572265625,1.1029163599014282,0.9434806704521179,0.34116798639297485
1710889988328116700,2.69311669921875,1.000596523284912,1.0305289030075073,0.5164861679077148
1710889988347076600,2.71207666015625,0.6487383842468262,0.8967494964599609,0.4874700903892517
1710889988366036200,2.7310361328125,0.3842339515686035,0.7092140316963196,0.33108872175216675
1710889988384995800,2.749995849609375,0.210442915558815,0.6585122346878052,0.143553227186203
1710889988403955700,2.768955810546875,-0.01588248461484909,0.7168498039245605,0.01435532234609127
1710889988422915300,2.787915283203125,-0.2214384824037552,0.7275399565696716,-0.04917461425065994
1710889988441875000,2.806875,-0.3225366175174713,0.7220421433448792,-0.053756099194288254
1710889988460834800,2.825834716796875,-0.3228420317173004,0.8100066781044006,-0.03023780696094036
1710889988479794400,2.84479443359375,-0.22357651591300964,0.9819651246070862,0.00946840364485979
1710889988498754000,2.863754150390625,-0.04367683082818985,1.1676679849624634,0.056810423731803894
1710889988517714000,2.8827138671875,0.13622283935546875,1.2873975038528442,0.10323614627122879
1710889988536673500,2.901673583984375,0.2761108875274658,1.3078614473342896,0.15088360011577606
1710889988555633400,2.92063330078125,0.34605491161346436,1.2513564825057983,0.185092031955719
1710889988574593000,2.939593017578125,0.32039856910705566,1.1142174005508423,0.20127993822097778
1710889988593553000,2.958552978515625,0.24342961609363556,0.8738420605659485,0.2052505612373352
1710889988612512500,2.977512451171875,0.19853104650974274,0.6038398146629333,0.23762640357017517
1710889988631472000,2.99647216796875,0.2153298407793045,0.3808741867542267,0.2809978127479553
1710889988650432000,3.015431884765625,0.2971857190132141,0.22266021370887756,0.33505934476852417
1710889988669391600,3.0343916015625,0.42974337935447693,0.09804379940032959,0.38850998878479004
1710889988688351200,3.053351318359375,0.5488619804382324,-0.031154103577136993,0.4114174246788025
1710889988707311000,3.07231103515625,0.554665207862854,-0.19883649051189423,0.3854556679725647
1710889988726270700,3.091270751953125,0.4780016839504242,-0.41935867071151733,0.3387245237827301
1710889988745230600,3.110230712890625,0.3796524703502655,-0.6524035930633545,0.272751122713089
1710889988764190200,3.129190185546875,0.2822195291519165,-0.8906408548355103,0.18906265497207642
1710889988783150000,3.148150146484375,0.19792018830776215,-1.1410953998565674,0.1127045527100563
1710889988802109700,3.167109619140625,0.0977383628487587,-1.406821608543396,0.023823726922273636
1710889988821069300,3.1860693359375,-0.0717766135931015,-1.6893465518951416,-0.11606431007385254
1710889988840029200,3.205029296875,-0.31520622968673706,-1.9370522499084473,-0.1899789422750473
1710889988858988800,3.22398876953125,-0.4975493550300598,-2.0408992767333984,-0.1536324918270111
1710889988877948400,3.242948486328125,-0.5864301919937134,-1.9428554773330688,-0.03756818547844887
1710889988896908300,3.261908203125,-0.630107045173645,-1.6578869819641113,0.10567960888147354
1710889988915868000,3.280867919921875,-0.6551524996757507,-1.2183698415756226,0.185092031955719
1710889988934827800,3.299827880859375,-0.6786707639694214,-0.6887500286102295,0.21807873249053955
1710889988953787400,3.318787353515625,-0.6863065958023071,-0.1182023361325264,0.20830489695072174
1710889988972747300,3.337747314453125,-0.6667588949203491,0.4269944727420807,0.18264856934547424
1710889988991707000,3.356706787109375,-0.6065887212753296,0.8738420605659485,0.14263692498207092
1710889989010666800,3.375666748046875,-0.46975502371788025,1.2153154611587524,0.1230892539024353
1710889989029626400,3.39462646484375,-0.25381430983543396,1.4868448972702026,0.16187916696071625
1710889989048586200,3.413586181640625,0.0009162971982732415,1.6908737421035767,0.23335035145282745
1710889989067545900,3.4325458984375,0.23335035145282745,1.821598768234253,0.2822195291519165
1710889989086505500,3.45150537109375,0.3643808364868164,1.8588615655899048,0.27488914132118225
1710889989105465300,3.47046533203125,0.4043924808502197,1.8127412796020508,0.2556469142436981
1710889989124425000,3.489425048828125,0.3949240744113922,1.7256929874420166,0.24923282861709595
1710889989143384800,3.508384765625,0.3426951467990875,1.6270383596420288,0.2614501118659973
1710889989162344400,3.527344482421875,0.2874118685722351,1.5063925981521606,0.27855435013771057
1710889989181304300,3.54630419921875,0.2721402645111084,1.3277145624160767,0.2718348205089569
1710889989200264000,3.565263916015625,0.2733619809150696,1.107803225517273,0.2254091054201126
1710889989219223800,3.584223876953125,0.27000224590301514,0.8677334189414978,0.1594357043504715
1710889989238183400,3.603183349609375,0.26419901847839355,0.6053670048713684,0.08124501258134842
1710889989257143300,3.622143310546875,0.25473061203956604,0.2981020212173462,0.017104214057326317
1710889989276103000,3.64110302734375,0.24953825771808624,-0.019853105768561363,-0.004886918235570192
1710889989295062800,3.660062744140625,0.20311254262924194,-0.3384190797805786,-0.018631376326084137
1710889989314022400,3.6790224609375,0.046425722539424896,-0.7089085578918457,-0.12370011955499649
1710889989332982300,3.697982177734375,0.035735588520765305,-1.3286309242248535,-0.10384701192378998
1710889989351942000,3.71694189453125,0.5873464941978455,-1.8359540700912476,-0.03237583488225937
1710889989370901500,3.735901611328125,1.2996147871017456,-1.9443825483322144,-0.03481929376721382
1710889989389861400,3.754861328125,1.690262794494629,-1.8487823009490967,-0.12431098520755768
1710889989408821000,3.773821044921875,1.6841541528701782,-1.775783896446228,-0.13072505593299866
1710889989427780900,3.79278076171875,1.5039490461349487,-1.6618576049804688,0.019242240116000175
1710889989446740500,3.811740478515625,1.324354887008667,-1.2611303329467773,0.23396120965480804
1710889989465700400,3.830700439453125,1.1438442468643188,-0.602007269859314,0.4111120104789734
1710889989484660000,3.849659912109375,1.035110354423523,0.04459312930703163,0.5079340934753418
1710889989503619800,3.868619873046875,1.0009019374847412,0.5354229807853699,0.5641336441040039
1710889989522579500,3.887579345703125,1.0021237134933472,0.8466585874557495,0.6142245531082153
1710889989541539300,3.906539306640625,1.0338886976242065,0.9178243279457092,0.6194168925285339
1710889989560499000,3.9254990234375,1.0543526411056519,0.7345649003982544,0.5317577719688416
1710889989579458800,3.944458740234375,1.043357014656067,0.38331764936447144,0.3756818473339081
1710889989598418400,3.96341845703125,1.0097594261169434,-0.013439024798572063,0.1899789422750473
1710889989617378300,3.98237841796875,0.9547816514968872,-0.38301220536231995,0.11667517572641373
1710889989636338000,4.001337890625,0.6539307236671448,-0.5494728684425354,0.43463030457496643
1710889989655297800,4.0202978515625,0.4465421438217163,-0.5998691916465759,0.8991929292678833
1710889989674257400,4.03925732421875,0.3756818473339081,-0.9947932958602905,0.7623592615127563
1710889989693217300,4.05821728515625,0.047952886670827866,-2.0390665531158447,0.2605338394641876
1710889989712177000,4.077177001953125,-0.34177884459495544,-2.7339253425598145,-0.31673339009284973
1710889989731136500,4.096136474609375,-0.4581485986709595,-2.5137085914611816,-0.34574946761131287
1710889989750096400,4.115096435546875,-0.20158538222312927,-1.9364413022994995,-0.11636973917484283
1710889989769056000,4.134055908203125,0.1798996776342392,-1.2651009559631348,-0.015577051788568497
1710889989788015900,4.153015869140625,0.4630354940891266,-0.6496546864509583,0.0256563201546669
1710889989806975500,4.1719755859375,0.6249146461486816,-0.09376774728298187,0.018325943499803543
1710889989825935400,4.190935302734375,0.7648026943206787,0.34636032581329346,-0.026572618633508682
1710889989844895000,4.20989501953125,0.9453132748603821,0.5244274139404297,-0.08032871782779694
1710889989863854800,4.228854736328125,1.1282672882080078,0.44929105043411255,-0.13988803327083588
1710889989882814500,4.247814453125,1.219591498374939,0.2412915825843811,-0.26022839546203613
1710889989901774300,4.2667744140625,1.0567960739135742,-0.09498947113752365,-0.44348782300949097
1710889989920734000,4.28573388671875,0.7205150127410889,-0.5323686599731445,-0.5974257588386536
1710889989939693800,4.30469384765625,0.5015199780464172,-0.9358448386192322,-0.6743947267532349
1710889989958653400,4.3236533203125,0.4156934916973114,-1.14017915725708,-0.7006618976593018
1710889989977613300,4.34261328125,0.323452889919281,-1.1701115369796753,-0.7333431839942932
1710889989996573000,4.361572998046875,0.2003636509180069,-1.176220178604126,-0.8139773011207581
1710889990015532800,4.38053271484375,0.08918625861406326,-1.3014473915100098,-0.9660826325416565
1710889990034492400,4.399492431640625,0.018631376326084137,-1.638950228691101,-1.1530072689056396
1710889990053452300,4.418452392578125,-0.05864302068948746,-2.13191819190979,-1.3222168684005737
1710889990072412000,4.437411865234375,-0.16768237948417664,-2.691470146179199,-1.50028395652771
1710889990091371800,4.456371826171875,-0.2565632164478302,-3.2232279777526855,-1.6633847951889038
1710889990110331400,4.475331298828125,-0.3173442482948303,-3.6505279541015625,-1.7821979522705078
1710889990129291300,4.494291259765625,-0.33017241954803467,-3.836536169052124,-1.8365650177001953
1710889990148251100,4.513251220703125,-0.27947062253952026,-3.765981435775757,-1.814879298210144
1710889990167210800,4.532210693359375,-0.15118902921676636,-3.5112507343292236,-1.7333288192749023
1710889990186170400,4.55117041015625,-0.004886918235570192,-3.2119269371032715,-1.6187916994094849
1710889990205130200,4.570130126953125,0.11331541836261749,-2.992321014404297,-1.5176935195922852
1710889990224089900,4.58908984375,0.20830489695072174,-2.9156575202941895,-1.4691298007965088
1710889990243049700,4.6080498046875,0.27427828311920166,-2.9486443996429443,-1.468213438987732
1710889990262009300,4.62700927734375,0.3124573230743408,-2.984379768371582,-1.4737112522125244
1710889990280969200,4.64596923828125,0.3197877109050751,-2.9797983169555664,-1.459966778755188
1710889990299928800,4.6649287109375,0.2968802750110626,-2.925126075744629,-1.4639374017715454
1710889990318888700,4.683888671875,0.2868010103702545,-2.872286081314087,-1.4761546850204468
1710889990337848300,4.702848388671875,0.30451610684394836,-2.8967208862304688,-1.4352267980575562
1710889990356808200,4.72180810546875,0.31551164388656616,-2.931540012359619,-1.296255111694336
1710889990375767800,4.740767822265625,0.28588470816612244,-2.930623769760132,-1.155450701713562
1710889990394727700,4.759727783203125,0.3179551064968109,-3.0078980922698975,-1.1523964405059814
1710889990413687300,4.778687255859375,0.4260781705379486,-3.134958028793335,-1.1297943592071533
1710889990432647200,4.797647216796875,0.5995637774467468,-3.1670284271240234,-0.9749401807785034
1710889990451606800,4.816606689453125,0.7806851863861084,-3.085172653198242,-0.9517273306846619
1710889990470566700,4.835566650390625,0.9938769936561584,-3.0198099613189697,-0.9896009564399719
1710889990489526500,4.854526611328125,1.2712095975875854,-2.9910993576049805,-1.018617033958435
1710889990508486100,4.873486083984375,1.5198315382003784,-2.8765623569488525,-1.0134246349334717
1710889990527446000,4.892446044921875,1.746156930923462,-2.7568328380584717,-0.9230166673660278
1710889990546405600,4.911405517578125,2.0018038749694824,-2.6328272819519043,-0.7849612236022949
1710889990565365500,4.930365478515625,2.243400812149048,-2.4520111083984375,-0.6340776681900024
1710889990584325000,4.9493251953125,2.3732097148895264,-2.291353702545166,-0.48655378818511963
1710889990603285000,4.968284912109375,2.3823726177215576,-2.1163411140441895,-0.360410213470459
1710889990622244600,4.98724462890625,2.2959353923797607,-1.9007058143615723,-0.24709481000900269
1710889990641204200,5.006204345703125,2.1392483711242676,-1.635895848274231,-0.17776164412498474
1710889990660164000,5.0251640625,1.870773434638977,-1.375972867012024,-0.11178825795650482
1710889990679123700,5.044123779296875,1.5751148462295532,-1.092531681060791,-0.010690134018659592
1710889990698083600,5.06308349609375,1.303585410118103,-0.7379246354103088,0.11331541836261749
1710889990717043200,5.082043212890625,1.1215476989746094,-0.3552178740501404,0.2260199636220932
1710889990736003000,5.101003173828125,0.9844086170196533,-0.009773836471140385,0.28557929396629333
1710889990754962700,5.119962646484375,0.8185588121414185,0.1951712965965271,0.2556469142436981
1710889990773922600,5.138922607421875,0.6166679859161377,0.3591884970664978,0.28588470816612244
1710889990792882400,5.15788232421875,0.40836310386657715,0.46425724029541016,0.3549124300479889
1710889990811842000,5.176842041015625,0.2712239623069763,0.3042106628417969,0.3637699782848358
1710889990830802000,5.195802001953125,0.22357651591300964,0.006719512399286032,0.2874118685722351
1710889990849761500,5.214761474609375,0.22785256803035736,-0.32039856910705566,0.19394956529140472
1710889990868721400,5.233721435546875,0.2919933497905731,-0.6288852691650391,0.20922118425369263
1710889990887681000,5.252680908203125,0.35124725103378296,-0.794124186038971,0.3811796307563782
1710889990906641000,5.271640869140625,0.3949240744113922,-0.8674280047416687,0.5723803043365479
1710889990925600500,5.2906005859375,0.48105600476264954,-0.9718858599662781,0.5595521330833435
1710889990944560400,5.309560302734375,0.6004800796508789,-0.9844086170196533,0.42821621894836426
1710889990963520000,5.32852001953125,0.7049379348754883,-0.7672461867332458,0.3643808364868164
1710889990982480000,5.34747998046875,0.7269290685653687,-0.39186975359916687,0.46883872151374817
1710889991001439500,5.366439453125,0.6276635527610779,-0.009162971749901772,0.6267472505569458
1710889991020399400,5.3853994140625,0.46395179629325867,0.17256930470466614,0.7376192212104797
1710889991039359000,5.40435888671875,0.32009315490722656,0.05406153202056885,0.7195987105369568
1710889991058318600,5.423318603515625,0.23915356397628784,-0.2977965772151947,0.711046576499939
1710889991077278500,5.442278564453125,0.24526220560073853,-0.7602212429046631,0.9214895367622375
1710889991096238300,5.46123828125,0.38209593296051025,-1.1624757051467896,1.1722495555877686
1710889991115198000,5.480197998046875,0.5418370366096497,-1.1520910263061523,1.2608249187469482
1710889991134157800,5.49915771484375,0.6343830823898315,-0.9211840629577637,1.109330415725708
1710889991153117400,5.518117431640625,0.6374374032020569,-0.5748237371444702,0.8579595685005188
1710889991172077300,5.537077392578125,0.5506945848464966,-0.20433427393436432,0.667064368724823
1710889991191037000,5.556036865234375,0.471587598323822,0.18814635276794434,0.6911935210227966
1710889991209996800,5.574996826171875,0.42363473773002625,0.5232056975364685,0.8216131329536438
1710889991228956400,5.593956298828125,0.4043924808502197,0.8087849617004395,0.962417483329773
1710889991247916300,5.612916259765625,0.41355544328689575,0.9511164426803589,1.0293071269989014
1710889991266876000,5.6318759765625,0.411722868680954,0.953559935092926,1.0207550525665283
1710889991285835800,5.650835693359375,0.3536907136440277,0.7993165850639343,1.0430516004562378
1710889991304795400,5.66979541015625,0.2880227565765381,0.5653553605079651,1.101083755493164
1710889991323755300,5.68875537109375,0.23518294095993042,0.3543015718460083,1.1365139484405518
1710889991342715000,5.70771484375,0.2049451321363449,0.22754712402820587,1.2348631620407104
1710889991361674800,5.7266748046875,0.26542073488235474,0.05406153202056885,1.3451242446899414
1710889991380634400,5.74563427734375,0.3949240744113922,-0.19669845700263977,1.527161955833435
1710889991399594200,5.76459423828125,0.5311469435691833,-0.370184063911438,1.591302752494812
1710889991418553900,5.783553955078125,0.5467239618301392,-0.6017017960548401,1.5741984844207764
1710889991437513700,5.802513671875,0.4413498044013977,-0.8072578310966492,1.6676608324050903
1710889991456473300,5.821473388671875,0.3436114490032196,-0.9642500281333923,1.6881247758865356
1710889991475433200,5.84043310546875,0.29504770040512085,-0.943175196647644,1.7458515167236328
1710889991494392800,5.859392822265625,0.34238970279693604,-0.9920443892478943,1.7348560094833374
1710889991513352700,5.878352783203125,0.35246896743774414,-1.1337649822235107,1.722638726234436
1710889991532312600,5.8973125,0.2880227565765381,-1.1133010387420654,1.777311086654663
1710889991551272200,5.916272216796875,0.3335321843624115,-0.9947932958602905,1.7745622396469116
1710889991570232000,5.935232177734375,0.4364628791809082,-0.9706641435623169,1.628870964050293
1710889991589191700,5.954191650390625,0.37262752652168274,-0.9547816514968872,1.4459168910980225
1710889991608151600,5.973151611328125,0.364991694688797,-1.0009019374847412,1.4120138883590698
1710889991627111200,5.992111083984375,0.40927940607070923,-1.0259474515914917,1.4230095148086548
1710889991646070800,6.01107080078125,0.43463030457496643,-0.9761618971824646,1.3839141130447388
1710889991665030700,6.03003076171875,0.4428769648075104,-0.7959567904472351,1.3078614473342896
1710889991683990500,6.048990478515625,0.416304349899292,-0.648127555847168,1.2596031427383423
1710889991702950100,6.0679501953125,0.281914085149765,-0.6563742160797119,1.1823288202285767
1710889991721910000,6.086909912109375,0.14049890637397766,-0.629496157169342,0.8872811198234558
1710889991740869600,6.10586962890625,-0.007330377586185932,-0.7910698652267456,0.5497782826423645
1710889991759829500,6.12482958984375,-0.07391463965177536,-0.9404263496398926,0.3173442482948303
1710889991778789000,6.1437890625,-0.06933315098285675,-1.173471212387085,0.11239911615848541
1710889991797749000,6.1627490234375,0.019853105768561363,-1.1994329690933228,-0.029626941308379173
1710889991816708600,6.18170849609375,0.10323614627122879,-0.905912458896637,-0.0665842592716217
1710889991835668500,6.20066845703125,0.18325942754745483,-0.5018253922462463,-0.06566796451807022
1710889991854628400,6.21962841796875,0.23854269087314606,-0.08552107214927673,0.010690134018659592
1710889991873588000,6.238587890625,0.3759872615337372,0.35185810923576355,-0.026878049597144127
1710889991892547800,6.2575478515625,0.6695078015327454,0.4676169753074646,-0.1029307171702385
1710889991911507500,6.276507568359375,0.8646790981292725,0.13561198115348816,-0.10109812021255493
1710889991930467300,6.29546728515625,0.7651081085205078,-0.2632827162742615,0.08857539296150208
1710889991949427200,6.31442724609375,0.5647444725036621,-0.6423243284225464,0.33628106117248535
1710889991968386800,6.33338671875,0.4410443603992462,-0.9181297421455383,0.5131264328956604
1710889991987346700,6.3523466796875,0.36285367608070374,-0.9862411618232727,0.6420188546180725
1710889992006306300,6.371306396484375,0.19730933010578156,-1.12765634059906,0.9266818761825562
1710889992025266200,6.39026611328125,-0.04367683082818985,-1.4001020193099976,1.2986985445022583
1710889992044226000,6.40922607421875,-0.24495677649974823,-1.6789618730545044,1.654221773147583
1710889992063185700,6.428185546875,-0.4535670876502991,-1.8698570728302002,1.9850051403045654
1710889992082145500,6.4471455078125,-0.6056724190711975,-1.868940830230713,2.1642940044403076
1710889992101105400,6.46610546875,-0.82436203956604,-1.7266093492507935,1.9443825483322144
1710889992120065000,6.48506494140625,-1.6352850198745728,-1.3576469421386719,1.4367539882659912
1710889992139025000,6.50402490234375,-2.358854293823242,-0.8854485154151917,1.0296125411987305
1710889992157984500,6.522984619140625,-1.9410228729248047,-0.6172788739204407,0.7422007322311401
1710889992176944400,6.5419443359375,-1.0778708457946777,-0.27580544352531433,0.6737838387489319
1710889992195904300,6.560904296875,-0.6710349321365356,0.21166464686393738,0.6017017960548401
1710889992214864000,6.57986376953125,-0.7339540123939514,0.4172206521034241,0.38789913058280945
1710889992233823700,6.59882373046875,-1.015562653541565,0.08460476994514465,0.09162971377372742
1710889992252783600,6.61778369140625,-1.1789690256118774,-0.5537489056587219,-0.13561198115348816
1710889992271743200,6.6367431640625,-1.081230640411377,-1.0754274129867554,-0.23793183267116547
1710889992290703000,6.655703125,-0.8772017955780029,-1.2733476161956787,-0.23273947834968567
1710889992309663000,6.6746630859375,-0.7290670871734619,-1.148120403289795,-0.22327107191085815
1710889992328622600,6.69362255859375,-0.6918043494224548,-0.8210022449493408,-0.19394956529140472
1710889992347582500,6.71258251953125,-0.6979129910469055,-0.47433650493621826,-0.19944734871387482
1710889992366542300,6.731542236328125,-0.6759218573570251,-0.1945604383945465,-0.24770566821098328
1710889992385502000,6.750501953125,-0.6185005903244019,0.09468404203653336,-0.2605338394641876
1710889992404461800,6.7694619140625,-0.5396990180015564,0.3228420317173004,-0.20677772164344788
1710889992423421700,6.788421630859375,-0.4468475878238678,0.40225446224212646,-0.14172062277793884
1710889992442381300,6.80738134765625,-0.3170388340950012,0.3796524703502655,-0.13927717506885529
1710889992461341200,6.826341064453125,-0.18081597983837128,0.2926042377948761,-0.2052505612373352
1710889992480301000,6.845301025390625,-0.11392628401517868,0.0015271619195118546,-0.28008151054382324
1710889992499261000,6.864260986328125,-0.08399390429258347,-0.5662716627120972,-0.29901832342147827
1710889992518220500,6.883220458984375,-0.09040798991918564,-1.0833686590194702,-0.22235478460788727
1710889992537180400,6.902180419921875,-0.09315688163042068,-1.2247838973999023,-0.16554436087608337
1710889992556140300,6.921140380859375,-0.10934479534626007,-1.230587124824524,-0.129197895526886
1710889992575100000,6.940099853515625,-0.16615521907806396,-1.119104266166687,-0.10842850059270859
1710889992594059800,6.959059814453125,-0.27519458532333374,-0.7745765447616577,-0.09590577334165573
1710889992613019600,6.97801953125,-0.3530798554420471,-0.2412915825843811,-0.06414080411195755
1710889992631979300,6.996979248046875,-0.3439168632030487,0.27488914132118225,0.023212861269712448
1710889992650939100,7.015939208984375,-0.2779434621334076,0.6380482912063599,0.13500112295150757
1710889992669899000,7.03489892578125,-0.2205221801996231,0.8338304162025452,0.2110537886619568
1710889992688858600,7.053858642578125,-0.2202167510986328,0.8652899861335754,0.20922118425369263
1710889992707818500,7.072818603515625,-0.21960589289665222,0.7318159937858582,0.05558869615197182
1710889992726778400,7.0917783203125,-0.17531819641590118,0.37751442193984985,-0.11514800786972046
1710889992745738200,7.11073828125,-0.12431098520755768,-0.007330377586185932,-0.2367101013660431
1710889992764698000,7.129697998046875,-0.06505709886550903,-0.34177884459495544,-0.2672533392906189
1710889992783657700,7.14865771484375,-0.015271619893610477,-0.6233875155448914,-0.20341797173023224
1710889992802617600,7.16761767578125,-0.020769402384757996,-0.7812960743904114,-0.09376774728298187
1710889992821577500,7.186577392578125,-0.06841685622930527,-0.7516691088676453,0.026572618633508682
1710889992840537300,7.205537353515625,-0.1383608728647232,-0.5983420610427856,0.14172062277793884
1710889992859497000,7.2244970703125,-0.2507599890232086,-0.35674503445625305,0.28588470816612244
1710889992878456800,7.243456787109375,-0.33139413595199585,-0.11575887352228165,0.3744601011276245
1710889992897416700,7.262416748046875,-0.34116798639297485,0.11453714966773987,0.3530798554420471
1710889992916376600,7.28137646484375,-0.2977965772151947,0.35705047845840454,0.2507599890232086
1710889992935336400,7.30033642578125,-0.23304490745067596,0.5360338687896729,0.16798780858516693
1710889992954296000,7.319296142578125,-0.15729768574237823,0.5458076596260071,0.10170898586511612
1710889992973256000,7.338255859375,-0.05406153202056885,0.4156934916973114,0.04214967042207718
1710889992992215800,7.3572158203125,0.05283980444073677,0.14508038759231567,-0.04673115536570549
1710889993011175700,7.37617578125,0.1331685185432434,-0.1740964651107788,-0.16615521907806396
1710889993030135600,7.395135498046875,0.13011419773101807,-0.5070177912712097,-0.16859868168830872
1710889993049095200,7.41409521484375,0.0922405794262886,-0.703410804271698,0.007024944759905338
1710889993068055000,7.433054931640625,0.09651663154363632,-0.7467821836471558,0.2822195291519165
1710889993087015000,7.452014892578125,0.04367683082818985,-0.7391464114189148,0.5076286196708679
1710889993105974800,7.470974853515625,-0.12217295914888382,-0.6579013466835022,0.5995637774467468
1710889993124934700,7.4899345703125,-0.28924447298049927,-0.535728394985199,0.5308414697647095
1710889993143894500,7.50889453125,-0.3533852696418762,-0.43921178579330444,0.3814850449562073
1710889993162854100,7.527854248046875,-0.3643808364868164,-0.2926042377948761,0.28954991698265076
1710889993181814000,7.54681396484375,-0.37140578031539917,-0.033597562462091446,0.23243404924869537
1710889993200774000,7.56577392578125,-0.33231043815612793,0.2706131041049957,0.14263692498207092
1710889993219733800,7.584733642578125,-0.24220788478851318,0.545502245426178,0.03023780696094036
1710889993238693600,7.603693603515625,-0.1383608728647232,0.7480039000511169,-0.08796452730894089
1710889993257653500,7.622653564453125,-0.01740964688360691,0.8402445316314697,-0.23273947834968567
1710889993276613000,7.641613037109375,0.10140355676412582,0.7113520503044128,-0.3136790692806244
1710889993295573000,7.660572998046875,0.16096286475658417,0.5351175665855408,-0.36193737387657166
1710889993314532900,7.679532958984375,0.16004657745361328,0.35185810923576355,-0.4367683231830597
1710889993333492700,7.69849267578125,0.15485422313213348,0.14599667489528656,-0.5369501113891602
1710889993352452600,7.71745263671875,0.17684535682201385,0.04550942778587341,-0.6438514590263367
1710889993371412500,7.73641259765625,0.23182319104671478,0.10995566099882126,-0.7406735420227051
1710889993390372400,7.755372314453125,0.3133736252784729,0.3090975880622864,-0.8081740736961365
1710889993409332200,7.774332275390625,0.416304349899292,0.5561923980712891,-0.831997811794281
1710889993428291800,7.793291748046875,0.536339282989502,0.7141009569168091,-0.7938187718391418
1710889993447252000,7.812251953125,0.6255255341529846,0.7641918659210205,-0.7137954831123352
1710889993466211600,7.831211669921875,0.629496157169342,0.8155044913291931,-0.6380482912063599
1710889993485171500,7.85017138671875,0.5464185476303101,0.8106175661087036,-0.5589412450790405
1710889993504131300,7.86913134765625,0.46486809849739075,0.6239983439445496,-0.5216785073280334
1710889993523091200,7.88809130859375,0.39797839522361755,0.3347539007663727,-0.49480047821998596
1710889993542051000,7.907051025390625,0.281914085149765,0.21410810947418213,-0.4428769648075104
1710889993561011000,7.926010986328125,0.18600831925868988,0.12980876863002777,-0.3952295184135437
1710889993579970800,7.944970703125,0.11239911615848541,-0.036651886999607086,-0.3081812858581543
1710889993598930700,7.9639306640625,0.040317077189683914,-0.18661919236183167,-0.19730933010578156
1710889993617890600,7.982890625,0.014049889519810677,-0.24495677649974823,-0.11728604137897491
1710889993636850200,8.00185009765625,0.023518294095993042,-0.2003636509180069,-0.09407317638397217
1710889993655810300,8.020810302734375,-0.0021380267571657896,-0.1340848207473755,-0.06933315098285675
1710889993674770200,8.039770263671874,-0.07971785217523575,-0.13011419773101807,0.004581485874950886
1710889993693729800,8.058729736328125,-0.1698204129934311,-0.1905898153781891,0.09040798991918564
1710889993712689700,8.077689697265624,-0.24526220560073853,-0.25931209325790405,0.1484401375055313
1710889993731649500,8.0966494140625,-0.30054548382759094,-0.29565855860710144,0.18295399844646454
1710889993750609400,8.115609375,-0.33567020297050476,-0.30512696504592896,0.22357651591300964
1710889993769569300,8.1345693359375,-0.33597561717033386,-0.33200499415397644,0.23182319104671478
1710889993788529200,8.153529052734376,-0.3039052188396454,-0.3555232882499695,0.22815799713134766
1710889993807489000,8.172489013671875,-0.2605338394641876,-0.3338375985622406,0.258395791053772
1710889993826449000,8.191448974609376,-0.24923282861709595,-0.32070401310920715,0.29901832342147827
1710889993845408800,8.21040869140625,-0.2632827162742615,-0.3484983444213867,0.3191768527030945
1710889993864368600,8.22936865234375,-0.2712239623069763,-0.3686569035053253,0.3454440236091614
1710889993883328500,8.24832861328125,-0.2574795186519623,-0.364991694688797,0.3601047992706299
1710889993902288400,8.267288330078125,-0.23732095956802368,-0.3555232882499695,0.3390299379825592
1710889993921248300,8.286248291015625,-0.22724169492721558,-0.3344484567642212,0.2788597643375397
1710889993940208000,8.3052080078125,-0.21502439677715302,-0.2834412455558777,0.22388194501399994
1710889993959168000,8.32416796875,-0.19211697578430176,-0.18264856934547424,0.1792888194322586
1710889993978128000,8.3431279296875,-0.15668681263923645,-0.07574722915887833,0.14080433547496796
1710889993997087700,8.362087646484374,-0.11698060482740402,0.027488915249705315,0.060781046748161316
1710889994016047600,8.381047607421875,-0.10323614627122879,0.16523891687393188,-0.03481929376721382
1710889994035007500,8.400007568359374,-0.11362084746360779,0.29901832342147827,-0.10537417232990265
1710889994053967400,8.41896728515625,-0.11911863088607788,0.3946186602115631,-0.15729768574237823
1710889994072927200,8.43792724609375,-0.129197895526886,0.45478883385658264,-0.15179990231990814
1710889994091887000,8.45688720703125,-0.16676609218120575,0.45509424805641174,-0.05925388261675835
1710889994110847000,8.475846923828126,-0.19364413619041443,0.37323838472366333,0.07147117704153061
1710889994129806800,8.494806884765625,-0.17745621502399445,0.21899501979351044,0.1737910360097885
1710889994148766700,8.5137666015625,-0.11239911615848541,0.010690134018659592,0.168904110789299
1710889994167726600,8.5327265625,-0.07483093440532684,-0.1233946830034256,0.014660755172371864
1710889994186686500,8.5516865234375,-0.17348559200763702,-0.11026109009981155,-0.1701258420944214
1710889994205646300,8.570646240234375,-0.3338375985622406,-0.05039634555578232,-0.2932150959968567
1710889994224606200,8.589606201171875,-0.467006117105484,-0.03634645417332649,-0.36224281787872314
1710889994243566000,8.608566162109375,-0.5189296007156372,-0.0616973415017128,-0.4172206521034241
1710889994262526000,8.62752587890625,-0.4780016839504242,-0.07605266571044922,-0.4633409380912781
1710889994281485800,8.64648583984375,-0.37110036611557007,-0.14782927930355072,-0.4324922561645508
1710889994300445700,8.66544580078125,-0.20861032605171204,-0.3494146466255188,-0.37323838472366333
1710889994319405600,8.684405517578124,-0.07086031138896942,-0.5995637774467468,-0.2886336147785187
1710889994338365400,8.703365478515625,0.04214967042207718,-0.815199077129364,-0.20952661335468292
1710889994357325300,8.7223251953125,0.15485422313213348,-0.9214895367622375,-0.14049890637397766
1710889994376285200,8.74128515625,0.2409861534833908,-0.8759800791740417,-0.04550942778587341
1710889994395245000,8.7602451171875,0.3326158821582794,-0.7797688841819763,0.03756818547844887
1710889994414205000,8.779204833984375,0.43432486057281494,-0.6319395899772644,0.12156209349632263
1710889994433164800,8.798164794921876,0.5510000586509705,-0.448069304227829,0.24831652641296387
1710889994452124700,8.817124755859375,0.6826413869857788,-0.16676609218120575,0.44440412521362305
1710889994471084500,8.83608447265625,0.7715222239494324,0.18814635276794434,0.7156280875205994
1710889994490044400,8.85504443359375,0.8167262077331543,0.518318772315979,0.970969557762146
1710889994509004300,8.87400439453125,0.8393282294273376,0.7635809779167175,1.0861176252365112
1710889994527964200,8.892964111328125,0.8176425099372864,1.0024291276931763,1.1224640607833862
1710889994546924000,8.911924072265625,0.7431169748306274,1.082452416419983,1.0983349084854126
1710889994565884000,8.9308837890625,0.6710349321365356,0.7904590368270874,0.8894191384315491
1710889994584843800,8.94984375,0.5433642268180847,0.43371400237083435,0.7370083332061768
1710889994603803600,8.9688037109375,0.3090975880622864,0.29962918162345886,0.7751874327659607
1710889994622763500,8.987763427734375,-0.036651886999607086,0.08765909820795059,0.832608699798584
1710889994641723400,9.006723388671874,-0.7425061464309692,0.08338304609060287,0.29016077518463135
1710889994660683300,9.025683349609375,-1.4898991584777832,-0.24312418699264526,0.036651886999607086
1710889994679643100,9.04464306640625,-1.4566071033477783,-1.081230640411377,0.16707152128219604
1710889994698603000,9.06360302734375,-1.2162318229675293,-1.2348631620407104,0.36774060130119324
1710889994717563000,9.08256298828125,-1.138651967048645,-0.8155044913291931,0.3790415823459625
1710889994736522800,9.101522705078125,-0.9230166673660278,-0.6814196705818176,0.04673115536570549
1710889994755482600,9.120482666015626,-0.5543597936630249,-0.8350521326065063,-0.4321868419647217
1710889994774442500,9.1394423828125,-0.30451610684394836,-0.9547816514968872,-0.46608981490135193
1710889994793402400,9.15840234375,-0.24037529528141022,-0.758083164691925,-0.20219624042510986
1710889994812362200,9.1773623046875,-0.01649334840476513,-0.48044514656066895,0.003970621153712273
1710889994831322000,9.196322021484375,0.43432486057281494,-0.2712239623069763,0.11117739230394363
1710889994850282000,9.215281982421875,0.8335250020027161,-0.07941242307424545,0.20311254262924194
1710889994869241900,9.234241943359375,1.0708459615707397,-0.014049889519810677,0.18264856934547424
1710889994888201700,9.25320166015625,1.0885610580444336,0.10598503798246384,0.015577051788568497
1710889994907161600,9.27216162109375,0.8897245526313782,0.4101957082748413,-0.3225366175174713
1710889994926121500,9.29112158203125,0.6078104376792908,0.7128791809082031,-0.572685718536377
1710889994945081300,9.310081298828125,0.36712974309921265,0.823445737361908,-0.6120865345001221
1710889994964041200,9.329041259765624,0.21319180727005005,0.8475748896598816,-0.5204567909240723
1710889994983001000,9.3480009765625,0.1744018942117691,0.8936951756477356,-0.41233372688293457
1710889995001961000,9.3669609375,0.2776380479335785,0.9477567076683044,-0.314289927482605
1710889995020920800,9.3859208984375,0.4303542375564575,0.907439649105072,-0.25045454502105713
1710889995039880700,9.404880615234376,0.45998117327690125,0.6456840634346008,-0.18906265497207642
1710889995058840600,9.423840576171875,0.33505934476852417,0.33628106117248535,-0.16218459606170654
1710889995077800400,9.442800537109376,0.1487455666065216,0.05864302068948746,-0.16523891687393188
1710889995096760300,9.46176025390625,0.032681263983249664,-0.17867794632911682,-0.18875721096992493
1710889995115720200,9.48072021484375,-0.011300998739898205,-0.281914085149765,-0.185092031955719
1710889995134680000,9.49968017578125,-0.03543015569448471,-0.2657261788845062,-0.13530655205249786
1710889995153640000,9.518639892578125,-0.04917461425065994,-0.16859868168830872,-0.07391463965177536
1710889995172599800,9.537599853515625,-0.05864302068948746,-0.04978547990322113,-0.06414080411195755
1710889995191559700,9.5565595703125,-0.07635809481143951,0.05528326332569122,-0.07360920310020447
1710889995210519600,9.57551953125,-0.09834922850131989,0.11972949653863907,-0.09468404203653336
1710889995229479400,9.5944794921875,-0.11484257876873016,0.11178825795650482,-0.12950333952903748
1710889995248439300,9.613439208984374,-0.14049890637397766,0.07422006875276566,-0.15149445831775665
1710889995267399200,9.632399169921875,-0.16187916696071625,0.021380268037319183,-0.14508038759231567
1710889995286359000,9.651359130859374,-0.1585194170475006,-0.012522728182375431,-0.12522727251052856
1710889995305319000,9.67031884765625,-0.12186752259731293,-0.031154103577136993,-0.09896009415388107
1710889995324278800,9.68927880859375,-0.08093958348035812,-0.053145237267017365,-0.07544180005788803
1710889995343238700,9.70823876953125,-0.04825831577181816,-0.04734202101826668,-0.07330377399921417
1710889995362198500,9.727198486328126,-0.029016077518463135,-0.038789913058280945,-0.06352993845939636
1710889995381158400,9.746158447265625,-0.01282816007733345,-0.04153880476951599,-0.04459312930703163
1710889995400118300,9.7651181640625,-0.013439024798572063,0.008552107028663158,-0.02626718580722809
1710889995419078100,9.784078125,-0.0021380267571657896,0.02412915788590908,-0.01954767294228077
1710889995438038000,9.8030380859375,0.018631376326084137,0.047036588191986084,-0.011606430634856224
1710889995456998000,9.821997802734375,0.0409279391169548,0.11698060482740402,0.010079269297420979
1710889995475957800,9.840957763671875,0.050090912729501724,0.2107483446598053,0.022907428443431854
1710889995494917600,9.859917724609375,0.07635809481143951,0.22846342623233795,-0.02779434807598591
1710889995513877500,9.87887744140625,0.10048725455999374,0.22907429933547974,-0.10537417232990265
1710889995532837400,9.89783740234375,0.0977383628487587,0.25381430983543396,-0.12431098520755768
1710889995551797200,9.91679736328125,0.07910698652267456,0.25442516803741455,-0.0766635313630104
1710889995570757000,9.935757080078124,0.057726722210645676,0.23915356397628784,-0.01282816007733345
1710889995589717000,9.954717041015625,0.047952886670827866,0.1997527778148651,0.05497783049941063
1710889995608676900,9.9736767578125,0.025350889191031456,0.14630211889743805,0.12431098520755768
1710889995627636700,9.99263671875,-0.03451386094093323,0.09896009415388107,0.17531819641590118
1710889995646596600,10.0115966796875,-0.12736530601978302,0.05283980444073677,0.1997527778148651
1710889995665556500,10.030556396484375,-0.20861032605171204,0.032681263983249664,0.19853104650974274
1710889995684516400,10.049516357421876,-0.23212862014770508,0.05925388261675835,0.18112140893936157
1710889995703476200,10.068476318359375,-0.22724169492721558,0.10018182545900345,0.1536324918270111
1710889995722436000,10.08743603515625,-0.18784092366695404,0.1490510106086731,0.14049890637397766
1710889995741396000,10.10639599609375,-0.13103049993515015,0.23029601573944092,0.16646064817905426
1710889995760355800,10.12535595703125,-0.12553271651268005,0.3588830530643463,0.24220788478851318
1710889995779315700,10.144315673828125,-0.1233946830034256,0.41386088728904724,0.37293294072151184
1710889995798275600,10.163275634765625,-0.1230892539024353,0.36254823207855225,0.5500837564468384
1710889995817235500,10.1822353515625,-0.0769689604640007,0.11514800786972046,0.6841685771942139
1710889995836195000,10.201195068359375,0.1337793916463852,-0.39309149980545044,0.6273581385612488
1710889995855155200,10.2201552734375,0.42852163314819336,-0.9214895367622375,0.37751442193984985
1710889995874114800,10.23911474609375,0.47922343015670776,-1.0781763792037964,0.0769689604640007
1710889995893074700,10.25807470703125,0.23182319104671478,-0.9550870656967163,-0.12125665694475174
1710889995912034600,10.27703466796875,0.031154103577136993,-0.9144645929336548,-0.2202167510986328
1710889995930994400,10.295994384765624,-0.022907428443431854,-0.7794634699821472,-0.16310089826583862
1710889995949954300,10.314954345703125,-0.03176496922969818,-0.30146175622940063,0.047952886670827866
1710889995968914200,10.3339140625,0.023212861269712448,0.1954767256975174,0.22449280321598053
1710889995987874000,10.3528740234375,0.17592905461788177,0.4453204274177551,0.1750127524137497
1710889996006834000,10.371833984375,0.34605491161346436,0.5513054728507996,-0.003359756199643016
1710889996025793800,10.390793701171875,0.3992001414299011,0.6783653497695923,-0.14110976457595825
1710889996044753700,10.409753662109376,0.3704894781112671,0.6359102129936218,-0.22785256803035736
1710889996063713500,10.428713623046875,0.4169152081012726,0.40255987644195557,-0.4257727563381195
1710889996082673400,10.44767333984375,0.43340855836868286,0.26022839546203613,-0.5137372612953186
1710889996101633300,10.46663330078125,0.4114174246788025,0.2464839369058609,-0.43951719999313354
1710889996120593200,10.48559326171875,0.37690356373786926,0.27550002932548523,-0.2620609998703003
1710889996139552800,10.504552734375,0.37110036611557007,0.33078327775001526,-0.06994401663541794
1710889996158513000,10.523512939453125,0.35735589265823364,0.39889469742774963,0.01802051067352295
1710889996177472500,10.542472412109374,0.2571740746498108,0.5207622051239014,-0.0204639695584774
1710889996196432400,10.561432373046875,0.028099779039621353,0.7562506198883057,-0.07024945318698883
1710889996215392300,10.580392333984374,-0.1698204129934311,0.9923498630523682,0.06261363625526428
1710889996234352000,10.59935205078125,-0.1847866028547287,1.0577123165130615,0.2614501118659973
1710889996253312000,10.61831201171875,-0.06994401663541794,0.7895427346229553,0.31093016266822815
1710889996272272000,10.63727197265625,0.019853105768561363,0.4010327160358429,0.14782927930355072
1710889996291231700,10.656231689453126,0.04062250629067421,0.07941242307424545,-0.036651886999607086
1710889996310191600,10.675191650390625,0.02779434807598591,-0.1585194170475006,-0.11484257876873016
1710889996329151500,10.6941513671875,0.01740964688360691,-0.31642794609069824,-0.10506874322891235
1710889996348111000,10.713111083984375,0.04245510324835777,-0.4248564541339874,-0.08460476994514465
1710889996367071200,10.7320712890625,0.05100720748305321,-0.43340855836868286,-0.08613193035125732
1710889996386031000,10.751031005859375,-0.019853105768561363,-0.2877173125743866,-0.0565049909055233
1710889996404990700,10.76999072265625,-0.13255766034126282,-0.10170898586511612,0.008857538923621178
1710889996423950600,10.78895068359375,-0.18753549456596375,-0.001221729558892548,0.030543239787220955
1710889996442910500,10.807910400390625,-0.14263692498207092,0.006108647678047419,-0.01588248461484909
1710889996461870300,10.826870361328124,-0.020158538594841957,-0.10720676928758621,-0.0821613147854805
1710889996480830200,10.845830322265625,0.10018182545900345,-0.3228420317173004,-0.13041962683200836
1710889996499790000,10.8647900390625,0.16798780858516693,-0.49999281764030457,-0.17287473380565643
1710889996518750000,10.88375,0.21135921776294708,-0.5717694163322449,-0.19364413619041443
1710889996537709800,10.902709716796876,0.22174391150474548,-0.6322450637817383,-0.18173226714134216
1710889996556669700,10.921669677734375,0.1493564397096634,-0.5717694163322449,-0.13194678723812103
1710889996575629600,10.940629638671876,0.07391463965177536,-0.3176496922969818,-0.05497783049941063
1710889996594589400,10.95958935546875,0.018631376326084137,0.06352993845939636,-0.018631376326084137
1710889996613549000,10.978549072265626,-0.05406153202056885,0.4321868419647217,-0.07422006875276566
1710889996632509000,10.997509033203125,-0.1698204129934311,0.7241802215576172,-0.13988803327083588
1710889996651468800,11.01646875,-0.29077163338661194,0.9349285364151001,-0.1640172004699707
1710889996670428700,11.0354287109375,-0.3530798554420471,1.079703450202942,-0.15027274191379547
1710889996689388500,11.054388427734375,-0.2861901521682739,1.0204496383666992,-0.15729768574237823
1710889996708348400,11.073348388671874,-0.13988803327083588,0.7449495792388916,-0.14477495849132538
1710889996727308300,11.092308349609375,-0.0204639695584774,0.37262752652168274,-0.03695731982588768
1710889996746268200,11.11126806640625,0.016798781231045723,-0.0824667438864708,0.09346231073141098
1710889996765228000,11.13022802734375,0.02718348242342472,-0.6185005903244019,0.13011419773101807
1710889996784188000,11.14918798828125,0.1649334877729416,-1.26021409034729,0.03481929376721382
1710889996803147800,11.168147705078125,0.37140578031539917,-1.7037018537521362,-0.08521563559770584
1710889996822107600,11.187107666015624,0.5229002237319946,-1.749211311340332,-0.04306596517562866
1710889996841067500,11.206067626953125,0.5659661889076233,-1.4947861433029175,0.025045456364750862
1710889996860027100,11.225027099609376,0.5210676789283752,-1.061682939529419,-0.07910698652267456
1710889996878987300,11.2439873046875,0.35124725103378296,-0.4169152081012726,-0.2467893660068512
1710889996897947100,11.262947021484376,0.10231985151767731,0.35124725103378296,-0.19211697578430176
1710889996916906800,11.28190673828125,-0.1185077652335167,0.9144645929336548,0.01282816007733345
1710889996935866600,11.30086669921875,-0.189673513174057,1.1820234060287476,0.09560033679008484
1710889996954826800,11.31982666015625,-0.12034036219120026,1.3698642253875732,0.11087195575237274
1710889996973786400,11.338786376953125,0.017715077847242355,1.3851358890533447,0.11667517572641373
1710889996992746200,11.357746337890624,0.12553271651268005,1.0852012634277344,0.05558869615197182
1710889997011706000,11.3767060546875,0.17043127119541168,0.5873464941978455,-0.02932151034474373
1710889997030666000,11.395666015625,0.18417572975158691,0.1692095398902893,-0.06383536756038666
1710889997049625900,11.4146259765625,0.20952661335468292,-0.1331685185432434,-0.04886918142437935
1710889997068585700,11.433585693359374,0.2623664140701294,-0.3090975880622864,-0.006108647678047419
1710889997087545600,11.452545654296875,0.3032943606376648,-0.3707949221134186,0.03848448023200035
1710889997106505500,11.47150537109375,0.3066541254520416,-0.24281874299049377,0.02871064469218254
1710889997125465300,11.49046533203125,0.29077163338661194,-0.056810423731803894,-0.0256563201546669
1710889997144425200,11.50942529296875,0.2672533392906189,0.1698204129934311,-0.057726722210645676
1710889997163385000,11.528385009765625,0.25045454502105713,0.4276053309440613,-0.04276053607463837
1710889997182345000,11.547344970703126,0.2614501118659973,0.5849030017852783,0.003970621153712273
1710889997201304800,11.566304931640625,0.2974911332130432,0.6065887212753296,0.04459312930703163
1710889997220264700,11.5852646484375,0.3292561173439026,0.5088503360748291,0.11514800786972046
1710889997239224600,11.604224609375,0.3500255048274994,0.2315177470445633,0.20677772164344788
1710889997258184400,11.623184326171875,0.3738492429256439,-0.2202167510986328,0.2669478952884674
1710889997277144300,11.642144287109375,0.34605491161346436,-0.7764091491699219,0.3075704276561737
1710889997296104200,11.661104248046875,0.25931209325790405,-1.2999202013015747,0.34788748621940613
1710889997315064000,11.68006396484375,0.1127045527100563,-1.592829942703247,0.3081812858581543
1710889997334024000,11.69902392578125,-0.06750056147575378,-1.7287473678588867,0.25473061203956604
1710889997352983800,11.71798388671875,-0.2614501118659973,-1.6297872066497803,0.22510367631912231
1710889997371943700,11.736943603515625,-0.5338957905769348,-1.232114315032959,0.20433427393436432
1710889997390903600,11.755903564453124,-0.6820304989814758,-0.7935133576393127,0.2809978127479553
1710889997409863400,11.774863525390625,-0.5845975875854492,-0.32620179653167725,0.3454440236091614
1710889997428823300,11.7938232421875,-0.5335903763771057,0.37843072414398193,0.38698282837867737
1710889997447783200,11.812783203125,-0.44501498341560364,0.8381064534187317,0.44837474822998047
1710889997466743000,11.831742919921876,-0.3017672002315521,0.9111047983169556,0.46547895669937134
1710889997485703000,11.850702880859375,-0.13164135813713074,0.8072578310966492,0.39767298102378845
1710889997504662800,11.869662841796876,-0.05192350596189499,0.6643154621124268,0.25381430983543396
1710889997523622700,11.88862255859375,0.02412915788590908,0.33628106117248535,0.07880155742168427
1710889997542582500,11.90758251953125,0.13041962683200836,-0.2715294063091278,-0.1798996776342392
1710889997561542400,11.92654248046875,0.22449280321598053,-0.860708475112915,-0.4456258714199066
1710889997580502300,11.945502197265625,0.2932150959968567,-1.0317505598068237,-0.5681042671203613
1710889997599462100,11.964462158203125,0.2608392536640167,-0.796262264251709,-0.5320632457733154
1710889997618422300,11.98342236328125,0.15760311484336853,-0.3848448097705841,-0.4159989058971405
1710889997637382100,12.002382080078124,0.006414080038666725,0.2706131041049957,-0.3805687427520752
1710889997656342000,12.021342041015625,-0.1594357043504715,1.1624757051467896,-0.44929105043411255
1710889997675302000,12.040302001953124,-0.2626718580722809,1.950185775756836,-0.4923570156097412
1710889997694261800,12.05926171875,-0.15699224174022675,2.297157049179077,-0.41447174549102783
1710889997713221600,12.0782216796875,0.09896009415388107,2.319453477859497,-0.2822195291519165
1710889997732181500,12.097181396484375,0.15271618962287903,2.1609342098236084,-0.16249002516269684
1710889997751141400,12.116141357421874,-0.04214967042207718,1.7229441404342651,-0.04428769648075104
1710889997770101200,12.135101318359375,-0.23945899307727814,1.0965023040771484,0.10842850059270859
1710889997789061000,12.15406103515625,-0.2886336147785187,0.7308996915817261,0.12461641430854797
1710889997808021000,12.17302099609375,-0.30451610684394836,0.49663305282592773,0.08460476994514465
1710889997826980900,12.19198095703125,-0.32528549432754517,0.0766635313630104,0.12217295914888382
1710889997845940700,12.210940673828125,-0.32528549432754517,-0.4043924808502197,0.1847866028547287
1710889997864900600,12.229900634765626,-0.33231043815612793,-0.6737838387489319,0.16584978997707367
1710889997883860500,12.248860595703125,-0.33658650517463684,-0.7748819589614868,0.1389717310667038
1710889997902820600,12.267820556640626,-0.3503309488296509,-0.8494074940681458,0.18417572975158691
1710889997921780500,12.286780517578125,-0.3634645342826843,-0.9120211005210876,0.2467893660068512
1710889997940740400,12.305740234375,-0.31673339009284973,-0.8851430416107178,0.24770566821098328
1710889997959700200,12.3247001953125,-0.17715078592300415,-0.7776308655738831,0.20769402384757996
1710889997978660000,12.34366015625,0.004886918235570192,-0.5882627964019775,0.1853974610567093
1710889997997620000,12.362619873046874,0.0977383628487587,-0.2935205399990082,0.2364046722650528
1710889998016580000,12.381580078125,0.10323614627122879,-0.05833758786320686,0.3582721948623657
1710889998035540000,12.4005400390625,0.12675444781780243,-0.02718348242342472,0.3802633285522461
1710889998054499800,12.419499755859375,0.13683371245861053,-0.06230820715427399,0.2831358313560486
1710889998073459700,12.438459716796874,0.14813470840454102,-0.1951712965965271,0.21777328848838806
1710889998092419600,12.457419677734375,0.19181154668331146,-0.5687150955200195,0.19333870708942413
1710889998111379500,12.47637939453125,0.24465134739875793,-1.0952805280685425,0.08491020649671555
1710889998130339300,12.49533935546875,0.24037529528141022,-1.3112212419509888,-0.11423171311616898
1710889998149299200,12.51429931640625,0.22204934060573578,-1.1380411386489868,-0.16523891687393188
1710889998168259000,12.533259033203125,0.2971857190132141,-1.0024291276931763,-0.02260199747979641
1710889998187219200,12.55221923828125,0.33322674036026,-0.7519745230674744,0.07055488228797913
1710889998206179000,12.571178955078125,0.3139844834804535,-0.48960810899734497,0.11453714966773987
1710889998225139000,12.590138916015626,0.2776380479335785,-0.15760311484336853,0.11209368705749512
1710889998244098800,12.609098876953125,0.2309068888425827,0.14691297709941864,0.12400554865598679
1710889998263058700,12.62805859375,0.16249002516269684,0.25473061203956604,0.08888082206249237
1710889998282018600,12.6470185546875,0.10415244847536087,0.22724169492721558,0.035124726593494415
1710889998300978700,12.665978759765625,0.03940077871084213,0.28466299176216125,-0.037262752652168274
1710889998319938600,12.6849384765625,0.08582650125026703,0.1951712965965271,-0.10903936624526978
1710889998338898400,12.7038984375,0.18081597983837128,0.14691297709941864,-0.09315688163042068
1710889998357858300,12.7228583984375,0.2629773020744324,0.10537417232990265,-0.031154103577136993
1710889998376818200,12.741818115234375,0.2360992431640625,0.06444623321294785,0.08002328872680664
1710889998395778300,12.7607783203125,0.09010255336761475,0.04550942778587341,0.09315688163042068
1710889998414738200,12.77973828125,-0.08582650125026703,-0.0769689604640007,0.1127045527100563
1710889998433698000,12.798697998046874,-0.25992295145988464,-0.22907429933547974,0.18203771114349365
1710889998452658000,12.817657958984375,-0.32681265473365784,-0.4679224193096161,0.3298669755458832
1710889998471617800,12.83661767578125,-0.29443681240081787,-0.46944957971572876,0.4456258714199066
1710889998490577700,12.85557763671875,-0.16035200655460358,-0.40927940607070923,0.5216785073280334
1710889998509537800,12.874537841796876,-0.026878049597144127,-0.3127627670764923,0.6081159114837646
1710889998528497700,12.89349755859375,0.0409279391169548,-0.1533270627260208,0.7095194458961487
1710889998547457500,12.91245751953125,0.08002328872680664,-0.002443459117785096,0.776714563369751
1710889998566417400,12.93141748046875,0.09346231073141098,0.14110976457595825,0.888502836227417
1710889998585377300,12.950377197265626,0.10537417232990265,0.2733619809150696,1.0439679622650146
1710889998604337400,12.96933740234375,0.1701258420944214,0.37812530994415283,1.1053597927093506
1710889998623297300,12.98829736328125,0.2467893660068512,0.4153880476951599,1.2192860841751099
1710889998642257200,13.007257080078125,0.31673339009284973,0.36224281787872314,1.3182462453842163
1710889998661217300,13.02621728515625,0.3946186602115631,0.2565632164478302,1.3362667560577393
1710889998680177200,13.04517724609375,0.38850998878479004,0.2409861534833908,1.3741402626037598
1710889998699137000,13.064136962890625,0.32528549432754517,0.17165300250053406,1.3637555837631226
1710889998718097000,13.083096923828125,0.2214384824037552,0.25381430983543396,1.3851358890533447
1710889998737056800,13.102056884765625,0.11972949653863907,0.324063777923584,1.3820815086364746
1710889998756016600,13.1210166015625,0.06383536756038666,0.45387253165245056,1.3555089235305786
1710889998774976800,13.139976806640625,0.010995565913617611,0.5057960152626038,1.3225222826004028
1710889998793936600,13.1589365234375,-0.031154103577136993,0.4321868419647217,1.28556489944458
1710889998812896500,13.177896484375,-0.03298669680953026,0.3277289569377899,1.2479966878890991
1710889998831856600,13.196856689453124,-0.009162971749901772,0.17776164412498474,1.1618647575378418
1710889998850816500,13.21581640625,-0.023518294095993042,0.08368847519159317,1.0949751138687134
1710889998869776400,13.2347763671875,0.03329212963581085,-0.03145953640341759,1.0067051649093628
1710889998888736300,13.253736328125,0.09651663154363632,-0.06597339361906052,0.9541707634925842
1710889998907696000,13.272696044921876,0.07880155742168427,-0.04306596517562866,0.8408553600311279
1710889998926656300,13.29165625,0.03940077871084213,0.05406153202056885,0.6985238790512085
1710889998945616100,13.3106162109375,0.014660755172371864,0.22479823231697083,0.6490437984466553
1710889998964576000,13.329575927734375,0.08674279600381851,0.3225366175174713,0.5882627964019775
1710889998983536000,13.3485361328125,0.13103049993515015,0.36285367608070374,0.6023126840591431
1710889999002496000,13.36749609375,0.06841685622930527,0.3072649836540222,0.627968966960907
1710889999021456000,13.386455810546876,0.10842850059270859,0.15729768574237823,0.5500837564468384
1710889999040415700,13.405415771484375,0.14752385020256042,-0.030543239787220955,0.516791582107544
1710889999059375900,13.4243759765625,0.14599667489528656,-0.27427828311920166,0.5198459029197693
1710889999078335700,13.443335693359375,0.13927717506885529,-0.3387245237827301,0.4679224193096161
1710889999097295600,13.462295654296875,0.18234314024448395,-0.2889390289783478,0.3808741867542267
1710889999116255500,13.48125537109375,0.15118902921676636,-0.09896009415388107,0.25503605604171753
1710889999135215600,13.500215576171875,0.06261363625526428,0.20280711352825165,0.1649334877729416
1710889999154175500,13.519175537109374,0.07330377399921417,0.36712974309921265,0.11453714966773987
1710889999173135400,13.53813525390625,0.16615521907806396,0.38301220536231995,0.13988803327083588
1710889999192095500,13.557095458984374,0.14263692498207092,0.28466299176216125,0.12278381735086441
1710889999211055400,13.576055419921875,0.035735588520765305,0.09132428467273712,0.07941242307424545
1710889999230015200,13.59501513671875,0.019853105768561363,-0.05742128938436508,0.15210533142089844
1710889999248975000,13.61397509765625,-0.009773836471140385,-0.06933315098285675,0.1230892539024353
1710889999267935200,13.632935302734374,-0.08368847519159317,-0.21716243028640747,0.06719512492418289
1710889999286895000,13.65189501953125,-0.14080433547496796,-0.318871408700943,0.029016077518463135
1710889999305855000,13.67085498046875,-0.10751219838857651,-0.28527384996414185,-0.021380268037319183
1710889999324814800,13.68981494140625,-0.08491020649671555,-0.16768237948417664,-0.02932151034474373
1710889999343775000,13.70877490234375,-0.13225223124027252,-0.05039634555578232,-0.027488915249705315
1710889999362734800,13.72773486328125,-0.21502439677715302,0.032070402055978775,-0.07299833744764328
1710889999381694700,13.74669482421875,-0.1954767256975174,0.061391908675432205,-0.0616973415017128
1710889999400654800,13.76565478515625,-0.11331541836261749,0.15027274191379547,-0.01282816007733345
1710889999419614700,13.78461474609375,-0.08307760953903198,0.1957821547985077,-0.03145953640341759
1710889999438574600,13.80357470703125,-0.12431098520755768,0.13255766034126282,-0.044898562133312225
1710889999457534500,13.822534423828126,-0.12950333952903748,-0.036651886999607086,0.00946840364485979
1710889999476494600,13.84149462890625,-0.057726722210645676,-0.13775001466274261,0.009162971749901772
1710889999495454500,13.860454345703126,0.025350889191031456,-0.17867794632911682,-0.019853105768561363
1710889999514414300,13.879414306640625,0.04367683082818985,-0.21838416159152985,-0.002443459117785096
1710889999533374500,13.89837451171875,0.021685699000954628,-0.20158538222312927,0.06475166976451874
1710889999552334300,13.917334228515625,0.027488915249705315,-0.036651886999607086,0.10354158282279968
1710889999571294200,13.936294189453125,0.02626718580722809,0.05192350596189499,0.04459312930703163
1710889999590254000,13.955254150390624,0.010690134018659592,0.06872228533029556,0.023518294095993042
1710889999609214200,13.974214111328125,0.043982263654470444,0.03329212963581085,0.04734202101826668
1710889999628174000,13.993174072265624,0.0412333719432354,-0.04214967042207718,0.07635809481143951
1710889999647134000,14.012134033203125,0.015271619893610477,-0.10903936624526978,0.07269290834665298
1710889999666093800,14.03109375,0.017104214057326317,-0.17592905461788177,0.0513126403093338
1710889999685053700,14.0500537109375,0.013133592903614044,-0.15057817101478577,0.05833758786320686
1710889999704013800,14.069013916015624,0.007941242307424545,-0.0974329337477684,0.06597339361906052
1710889999722973700,14.0879736328125,0.004581485874950886,-0.02626718580722809,0.04764745384454727
1710889999741933800,14.106933837890624,0.012522728182375431,0.04917461425065994,0.044898562133312225
1710889999760893700,14.125893798828125,-0.018325943499803543,0.08918625861406326,0.059864748269319534
1710889999779853600,14.144853515625,-0.044898562133312225,0.09468404203653336,0.06719512492418289
1710889999798813400,14.1638134765625,-0.010690134018659592,0.053756099194288254,0.05803215503692627
1710889999817773600,14.182773681640626,0.04062250629067421,-0.09651663154363632,0.07635809481143951
1710889999836733400,14.2017333984375,0.06780599057674408,-0.2626718580722809,0.09926552325487137
1710889999855693300,14.220693359375,0.08796452730894089,-0.389120876789093,0.11239911615848541
1710889999874653200,14.239653076171875,0.10323614627122879,-0.49021899700164795,0.10018182545900345
1710889999893613300,14.25861328125,0.11362084746360779,-0.4303542375564575,0.11514800786972046
1710889999912573200,14.2775732421875,0.10506874322891235,-0.314289927482605,0.1389717310667038
1710889999931533000,14.296532958984375,0.08429934084415436,-0.2000582218170166,0.1441640853881836
1710889999950493000,14.315492919921875,0.04459312930703163,-0.07757982611656189,0.12034036219120026
1710889999969453000,14.334453125,-0.014049889519810677,0.041844237595796585,0.07849612087011337
1710889999988413000,14.353412841796874,-0.04214967042207718,0.143553227186203,0.03756818547844887
1710890000007372800,14.372372802734375,-0.07574722915887833,0.21868959069252014,-0.0009162971982732415
1710890000026332700,14.391332763671874,-0.0977383628487587,0.24953825771808624,-0.01740964688360691
1710890000045292800,14.410292724609375,-0.08796452730894089,0.20189081132411957,-0.016798781231045723
1710890000064252700,14.429252685546874,-0.06719512492418289,0.056199558079242706,-0.020769402384757996
1710890000083212500,14.448212646484375,-0.057726722210645676,0.010995565913617611,-0.02107483521103859
1710890000102172700,14.467172607421874,-0.0821613147854805,0.018325943499803543,-0.049480047076940536
1710890000121132500,14.486132568359375,-0.10659590363502502,0.07269290834665298,-0.05253437161445618
1710890000140092400,14.505092529296874,-0.11911863088607788,0.12705987691879272,-0.04062250629067421
1710890000159052300,14.52405224609375,-0.1285870373249054,0.20311254262924194,-0.023823726922273636
1710890000178012200,14.54301220703125,-0.11239911615848541,0.12186752259731293,-0.02932151034474373
1710890000196972300,14.56197216796875,-0.09926552325487137,0.014966187067329884,-0.04153880476951599
1710890000215932200,14.58093212890625,-0.06933315098285675,-0.04276053607463837,-0.016798781231045723
1710890000234892000,14.59989208984375,-0.07269290834665298,-0.04428769648075104,-0.024740023538470268
1710890000253852200,14.61885205078125,-0.08429934084415436,-0.028099779039621353,-0.03329212963581085
1710890000272812000,14.63781201171875,-0.06811141967773438,0.0204639695584774,0.004886918235570192
1710890000291772000,14.65677197265625,-0.0412333719432354,0.09834922850131989,0.03023780696094036
1710890000310731800,14.675731689453125,-0.046425722539424896,0.14508038759231567,0.01649334840476513
1710890000329691600,14.694691650390626,-0.056199558079242706,0.12461641430854797,-0.006108647678047419
1710890000348651500,14.713651611328125,-0.05589412897825241,0.06200277432799339,0.0015271619195118546
1710890000367611600,14.732611572265625,-0.043371398001909256,0.03817904740571976,0.009162971749901772
1710890000386571500,14.751571533203125,-0.021380268037319183,0.013133592903614044,0.018631376326084137
1710890000405531400,14.770531494140625,-0.010384701192378998,-0.044898562133312225,0.002443459117785096
1710890000424491500,14.789491455078124,-0.036651886999607086,-0.06444623321294785,-0.010384701192378998
1710890000443451400,14.808451416015625,-0.06261363625526428,-0.06444623321294785,-0.01649334840476513
1710890000462411300,14.827411376953124,-0.07086031138896942,0.017715077847242355,-0.0021380267571657896
1710890000481371100,14.84637109375,-0.053756099194288254,0.07605266571044922,-0.013133592903614044
1710890000500331000,14.8653310546875,-0.07910698652267456,0.06475166976451874,-0.03451386094093323
1710890000519291100,14.884291015625,-0.09590577334165573,-0.000305432389723137,-0.054672397673130035
1710890000538251000,14.9032509765625,-0.07391463965177536,-0.01893680728971958,-0.04764745384454727
1710890000557211000,14.9222109375,-0.039706211537122726,-0.028405211865901947,-0.04886918142437935
1710890000576170800,14.941170654296876,-0.035124726593494415,-0.060781046748161316,-0.029932374134659767
1710890000595131000,14.960130859375,-0.03695731982588768,-0.07055488228797913,-0.025961752980947495
1710890000614090800,14.9790908203125,-0.03023780696094036,-0.03329212963581085,-0.033597562462091446
1710890000633050600,14.998050537109375,-0.032681263983249664,0.03451386094093323,-0.04276053607463837
1710890000652010500,15.017010498046876,-0.03909534588456154,0.12583814561367035,-0.04825831577181816
1710890000670970400,15.035970458984375,-0.03695731982588768,0.1945604383945465,-0.05558869615197182
1710890000689930500,15.054930419921876,-0.036651886999607086,0.2306014597415924,-0.023212861269712448
1710890000708890400,15.073890380859375,-0.017715077847242355,0.17898337543010712,0.013744457624852657
1710890000727850200,15.092850341796876,0.014966187067329884,0.09437860548496246,0.03298669680953026
1710890000746810000,15.11181005859375,0.037262752652168274,-0.007024944759905338,0.01954767294228077
1710890000765770000,15.13077001953125,0.03451386094093323,-0.07024945318698883,0.01649334840476513
1710890000784729900,15.149729736328124,0.02932151034474373,-0.038789913058280945,0.03481929376721382
1710890000803690000,15.16868994140625,0.02779434807598591,0.025045456364750862,0.03695731982588768
1710890000822649900,15.18764990234375,0.015271619893610477,0.047952886670827866,0.01435532234609127
1710890000841609700,15.206609619140625,0.01588248461484909,0.023823726922273636,0.010079269297420979
1710890000860569600,15.225569580078124,0.001832594396546483,-0.002443459117785096,-0.008246674202382565
1710890000879529500,15.244529541015625,-0.016187917441129684,-0.021685699000954628,-0.02626718580722809
1710890000898489600,15.263489501953124,-0.03237583488225937,0.007024944759905338,-0.016798781231045723
1710890000917449500,15.282449462890625,-0.0360410213470459,0.06200277432799339,-0.013133592903614044
1710890000936409300,15.301409423828124,-0.012217295356094837,0.08399390429258347,0.006719512399286032
1710890000955369200,15.320369140625,-0.019242240116000175,0.0616973415017128,-0.005192350596189499
1710890000974329300,15.339329345703124,-0.032681263983249664,-0.03237583488225937,-0.02412915788590908
1710890000993289200,15.358289306640625,-0.013133592903614044,-0.11698060482740402,0.013133592903614044
1710890001012249000,15.3772490234375,-0.016187917441129684,-0.13927717506885529,0.0027488914784044027
1710890001031209000,15.396208984375,-0.025350889191031456,-0.15241076052188873,-0.016798781231045723
1710890001050168800,15.4151689453125,-0.01893680728971958,-0.20738859474658966,0.043982263654470444
1710890001069128700,15.434128662109375,-0.026572618633508682,-0.291687935590744,0.060781046748161316
1710890001088088800,15.4530888671875,0.014966187067329884,-0.38698282837867737,0.03787361457943916
1710890001107048700,15.472048583984375,0.07330377399921417,-0.3802633285522461,0.05711585655808449
1710890001126008600,15.491008544921876,0.09498947113752365,-0.33200499415397644,0.050090912729501724
1710890001144968400,15.509968505859375,0.051618073135614395,-0.12003492563962936,-0.001221729558892548
1710890001163928300,15.52892822265625,-0.03329212963581085,0.16707152128219604,-0.016187917441129684
1710890001182888200,15.54788818359375,-0.08399390429258347,0.31673339009284973,-0.021991131827235222
1710890001201848300,15.566848388671875,-0.06627883017063141,0.287106454372406,-0.036651886999607086
1710890001220808200,15.58580810546875,-0.003665188793092966,0.17165300250053406,-0.0308486707508564
1710890001239768000,15.60476806640625,0.03909534588456154,-0.03634645417332649,-0.02626718580722809
1710890001258728000,15.62372802734375,0.016187917441129684,-0.1948658674955368,-0.046425722539424896
1710890001277687800,15.642687744140625,-0.023212861269712448,-0.20616686344146729,-0.056199558079242706
1710890001296647700,15.661647705078124,-0.05253437161445618,-0.11148282140493393,-0.060781046748161316
1710890001315607600,15.680607666015625,-0.06872228533029556,0.025961752980947495,-0.06994401663541794
1710890001334567700,15.699567626953124,-0.061391908675432205,0.09040798991918564,-0.08063415437936783
1710890001353527600,15.718527587890625,-0.06414080411195755,0.10109812021255493,-0.05955931544303894
1710890001372487400,15.7374873046875,-0.06200277432799339,0.08918625861406326,-0.03145953640341759
1710890001391447300,15.756447265625,-0.0720820426940918,0.0824667438864708,-0.02932151034474373
1710890001410407200,15.7754072265625,-0.07238747924566269,0.05345066636800766,-0.03848448023200035
1710890001429367000,15.794366943359375,-0.06352993845939636,0.029932374134659767,-0.03329212963581085
1710890001448327200,15.8133271484375,-0.04062250629067421,-0.016798781231045723,-0.026878049597144127
1710890001467287000,15.832287109375,-0.024434590712189674,-0.04245510324835777,-0.0204639695584774
1710890001486247000,15.851246826171876,0.004886918235570192,-0.023212861269712448,-0.015577051788568497
1710890001505206800,15.870206787109375,0.021685699000954628,0.013133592903614044,-0.014966187067329884
1710890001524166700,15.889166748046875,-0.000305432389723137,0.03817904740571976,-0.017104214057326317
1710890001543126500,15.90812646484375,-0.007941242307424545,0.10506874322891235,-0.01954767294228077
1710890001562086400,15.92708642578125,-0.004886918235570192,0.16676609218120575,-0.013133592903614044
1710890001581046500,15.946046630859374,-0.01588248461484909,0.13713914155960083,-0.016187917441129684
1710890001600006400,15.96500634765625,-0.010079269297420979,0.029626941308379173,0.007635809946805239
1710890001618966300,15.98396630859375,-0.00946840364485979,-0.08429934084415436,0.000305432389723137
1710890001637926100,16.002926025390625,-0.012217295356094837,-0.14721840620040894,-0.011911863461136818
1710890001656886000,16.021885986328126,-0.013744457624852657,-0.15577052533626556,-0.003359756199643016
1710890001675846000,16.040845947265623,-0.027488915249705315,-0.09407317638397217,0.014049889519810677
1710890001694805800,16.0598056640625,-0.05192350596189499,-0.032070402055978775,0.000305432389723137
1710890001713765600,16.078765625,-0.05436696484684944,-0.011300998739898205,-0.02626718580722809
1710890001732725800,16.097725830078126,-0.04276053607463837,0.01282816007733345,-0.02779434807598591
1710890001751685600,16.116685546875,-0.04367683082818985,0.04734202101826668,-0.032070402055978775
1710890001770645500,16.1356455078125,-0.05497783049941063,0.0818558782339096,-0.037262752652168274
1710890001789605400,16.15460546875,-0.054672397673130035,0.1029307171702385,-0.031154103577136993
1710890001808565200,16.173565185546874,-0.047036588191986084,0.11239911615848541,-0.03817904740571976
1710890001827525000,16.192525146484375,-0.03451386094093323,0.10079269111156464,-0.04581485688686371
1710890001846485200,16.2114853515625,-0.022907428443431854,0.07849612087011337,-0.04428769648075104
1710890001865445000,16.230445068359376,-0.01954767294228077,0.06750056147575378,-0.03756818547844887
1710890001884405000,16.249405029296874,-0.0204639695584774,0.04367683082818985,-0.01740964688360691
1710890001903364900,16.26836474609375,-0.006108647678047419,0.03390299528837204,0.014660755172371864
1710890001922324700,16.28732470703125,-0.0009162971982732415,0.004581485874950886,0.001221729558892548
1710890001941284900,16.306284912109376,0.005803215317428112,-0.030543239787220955,-0.017715077847242355
1710890001960244700,16.32524462890625,0.004581485874950886,-0.03329212963581085,-0.018325943499803543
1710890001979204600,16.34420458984375,-0.01282816007733345,-0.007330377586185932,-0.007635809946805239
1710890001998164500,16.36316455078125,-0.011606430634856224,-0.004276053514331579,-0.01588248461484909
1710890002017124400,16.382124267578124,-0.007635809946805239,-0.005803215317428112,-0.008857538923621178
1710890002036084200,16.401084228515625,-0.011606430634856224,0.013133592903614044,-0.023518294095993042
1710890002055044400,16.42004443359375,-0.020158538594841957,0.024434590712189674,-0.021685699000954628
1710890002074004200,16.439004150390623,-0.027488915249705315,0.022296564653515816,-0.010995565913617611
1710890002092964000,16.457964111328124,-0.032070402055978775,-0.01282816007733345,0.004276053514331579
1710890002111924000,16.476924072265625,-0.025350889191031456,-0.07269290834665298,-0.004581485874950886
1710890002130883800,16.4958837890625,0.001221729558892548,-0.09315688163042068,-0.004886918235570192
1710890002149843700,16.51484375,-0.001832594396546483,-0.08857539296150208,-0.010384701192378998
1710890002168803800,16.533803955078124,-0.02107483521103859,-0.0409279391169548,0.0021380267571657896
1710890002187763700,16.552763671875,-0.02107483521103859,-0.014049889519810677,0.01435532234609127
1710890002206723600,16.5717236328125,-0.016187917441129684,-0.01893680728971958,0.015577051788568497
1710890002225683500,16.590683349609375,-0.016798781231045723,-0.017715077847242355,-0.01282816007733345
1710890002244643300,16.609643310546875,-0.01802051067352295,0.001221729558892548,-0.020769402384757996
1710890002263603500,16.628603515625,-0.026878049597144127,0.008552107028663158,-0.032070402055978775
1710890002282563300,16.647563232421874,-0.04001164436340332,0.002443459117785096,-0.04581485688686371
1710890002301523200,16.666523193359374,-0.043371398001909256,0.009773836471140385,-0.053756099194288254
1710890002320483000,16.685483154296875,-0.028405211865901947,-0.0009162971982732415,-0.059864748269319534
1710890002339443200,16.704443115234376,-0.032681263983249664,-0.003359756199643016,-0.06566796451807022
1710890002358403000,16.723403076171873,-0.053145237267017365,-0.007635809946805239,-0.0925460159778595
1710890002377363000,16.742363037109374,-0.06566796451807022,0.013744457624852657,-0.0818558782339096
1710890002396322800,16.76132275390625,-0.06200277432799339,0.05192350596189499,-0.053756099194288254
1710890002415282700,16.78028271484375,-0.044898562133312225,0.025045456364750862,-0.031154103577136993
1710890002434242800,16.799242919921873,-0.032681263983249664,-0.015271619893610477,-0.03298669680953026
1710890002453202700,16.81820263671875,-0.029626941308379173,-0.04428769648075104,-0.030543239787220955
1710890002472162600,16.83716259765625,-0.02718348242342472,-0.07849612087011337,-0.049480047076940536
1710890002491122700,16.856122802734376,-0.017715077847242355,-0.0824667438864708,-0.046425722539424896
1710890002510082600,16.87508251953125,0.003359756199643016,-0.07452550530433655,-0.04245510324835777
1710890002529042400,16.89404248046875,0.012217295356094837,-0.06383536756038666,-0.04978547990322113
1710890002548002300,16.913002197265627,-0.001221729558892548,-0.046425722539424896,-0.04978547990322113
1710890002566962200,16.931962158203124,0.007635809946805239,-0.02260199747979641,-0.03481929376721382
1710890002585922300,16.95092236328125,0.026572618633508682,0.03237583488225937,-0.015577051788568497
1710890002604882200,16.969882080078126,0.0360410213470459,0.05742128938436508,-0.007024944759905338
1710890002623842000,16.988842041015626,0.022296564653515816,0.021380268037319183,-0.002443459117785096
1710890002642802200,17.00780224609375,0.021991131827235222,-0.04214967042207718,-0.001832594396546483
1710890002661762000,17.026761962890625,0.01435532234609127,-0.08582650125026703,-0.007941242307424545
1710890002680722000,17.045721923828125,0.013439024798572063,-0.0977383628487587,-0.01954767294228077
1710890002699681800,17.064681884765626,0.011300998739898205,-0.10873392969369888,-0.021685699000954628
1710890002718642000,17.083641845703124,0.0054977829568088055,-0.09834922850131989,-0.024740023538470268
1710890002737601800,17.102601806640624,-0.005192350596189499,-0.06200277432799339,-0.03023780696094036
1710890002756561700,17.121561767578125,-0.011300998739898205,-0.010690134018659592,-0.029932374134659767
1710890002775521500,17.140521484375,-0.01649334840476513,0.01435532234609127,-0.032681263983249664
1710890002794481700,17.159481689453123,-0.014966187067329884,-0.004581485874950886,-0.04459312930703163
1710890002813441500,17.178441650390624,-0.02412915788590908,-0.004581485874950886,-0.050090912729501724
1710890002832401400,17.1974013671875,-0.007024944759905338,0.005192350596189499,-0.04825831577181816
1710890002851361500,17.216361572265626,0.005192350596189499,0.026878049597144127,-0.05406153202056885
1710890002870321400,17.2353212890625,0.004276053514331579,0.02260199747979641,-0.06505709886550903
1710890002889281300,17.25428125,0.003665188793092966,0.07971785217523575,-0.07116574794054031
1710890002908241400,17.273241455078125,0.019242240116000175,0.18325942754745483,-0.07147117704153061
1710890002927201300,17.292201171875,0.0030543238390237093,0.30604326725006104,-0.06719512492418289
1710890002946161200,17.3111611328125,-0.023212861269712448,0.3084867000579834,-0.039706211537122726
1710890002965121000,17.33012109375,-0.037262752652168274,0.2260199636220932,-0.04001164436340332
1710890002984081200,17.3490810546875,-0.01740964688360691,0.08368847519159317,-0.054672397673130035
1710890003003041000,17.368041015625,0.000610864779446274,-0.06017018109560013,-0.06597339361906052
1710890003022001000,17.3870009765625,0.007024944759905338,-0.17073670029640198,-0.06719512492418289
1710890003040961000,17.4059609375,0.00946840364485979,-0.18814635276794434,-0.061391908675432205
1710890003059921000,17.4249208984375,-0.000610864779446274,-0.10506874322891235,-0.04245510324835777
1710890003078881000,17.443881103515626,-0.007330377586185932,-0.014049889519810677,-0.021991131827235222
1710890003097841000,17.4628408203125,-0.011911863461136818,0.044898562133312225,-0.010690134018659592
1710890003116800800,17.48180078125,-0.015271619893610477,0.09071341902017593,0.001832594396546483
1710890003135760600,17.5007607421875,0.0027488914784044027,0.09346231073141098,0.001832594396546483
1710890003154720800,17.519720703125,0.02718348242342472,0.05222893878817558,0.0030543238390237093
1710890003173680600,17.5386806640625,0.0360410213470459,-0.01893680728971958,0.018325943499803543
1710890003192640500,17.557640625,0.026878049597144127,-0.06872228533029556,0.021991131827235222
1710890003211600600,17.5766005859375,0.026572618633508682,-0.09071341902017593,0.010384701192378998
1710890003230560500,17.595560546875,0.025961752980947495,-0.08643736690282822,0.0030543238390237093
1710890003249520400,17.614520263671874,0.02779434807598591,-0.04673115536570549,0.014966187067329884
1710890003268480500,17.63348046875,0.007330377586185932,0.01282816007733345,0.020158538594841957
1710890003287440400,17.6524404296875,0,0.01588248461484909,0.019242240116000175
1710890003306400500,17.671400390625,0.017104214057326317,0.004581485874950886,0.024434590712189674
1710890003325360400,17.6903603515625,0.019853105768561363,-0.0665842592716217,0.014966187067329884
1710890003344320300,17.7093203125,0.014660755172371864,-0.1383608728647232,0.0256563201546669
1710890003363280400,17.7282802734375,0.04001164436340332,-0.15546508133411407,0.0461202897131443
1710890003382240300,17.747240234375,0.0412333719432354,-0.1637117564678192,0.047036588191986084
1710890003401200400,17.766200439453126,0.020158538594841957,-0.19730933010578156,0.07086031138896942
1710890003420160300,17.78516015625,0.007941242307424545,-0.22754712402820587,0.07574722915887833
1710890003439120100,17.8041201171875,0.018325943499803543,-0.24404047429561615,0.08826996386051178
1710890003458080300,17.823080322265625,0.029016077518463135,-0.2415970265865326,0.12278381735086441
1710890003477040000,17.8420400390625,0.035124726593494415,-0.3032943606376648,0.14508038759231567
1710890003496000000,17.861,0.01802051067352295,-0.3191768527030945,0.1597411334514618
1710890003514960100,17.879960205078124,0.036651886999607086,-0.40775224566459656,0.1536324918270111
1710890003533920000,17.898919921875,0.05192350596189499,-0.467006117105484,0.1539379209280014
1710890003552879900,17.9178798828125,0.0513126403093338,-0.5329795479774475,0.14141519367694855
1710890003571840000,17.936840087890626,0.01802051067352295,-0.5647444725036621,0.14080433547496796
1710890003590800000,17.9557998046875,-0.008552107028663158,-0.5500837564468384,0.12278381735086441
1710890003609760000,17.974760009765625,-0.03451386094093323,-0.43340855836868286,0.07483093440532684
1710890003628719900,17.993719970703125,-0.07452550530433655,-0.3246746361255646,0.013133592903614044
1710890003647679700,18.0126796875,-0.10048725455999374,-0.2254091054201126,-0.012217295356094837
1710890003666640000,18.031639892578124,-0.09896009415388107,-0.17256930470466614,-0.032681263983249664
1710890003685599700,18.050599853515624,-0.10598503798246384,-0.22510367631912231,-0.07116574794054031
1710890003704559900,18.069559814453125,-0.09987638890743256,-0.3023780584335327,-0.057726722210645676
1710890003723519700,18.088519775390626,-0.07574722915887833,-0.3491092324256897,-0.05558869615197182
1710890003742480000,18.10747998046875,-0.05833758786320686,-0.3497200906276703,-0.07574722915887833
1710890003761439700,18.126439697265624,-0.050090912729501724,-0.287106454372406,-0.06230820715427399
1710890003780399900,18.14539990234375,-0.043982263654470444,-0.1695149689912796,-0.035124726593494415
1710890003799359700,18.16435986328125,-0.03756818547844887,-0.06017018109560013,0.006108647678047419
1710890003818319600,18.183319580078123,-0.05345066636800766,-0.021991131827235222,0.011911863461136818
1710890003837279700,18.20227978515625,-0.05803215503692627,-0.014966187067329884,-0.037262752652168274
1710890003856239600,18.221239501953125,-0.0409279391169548,-0.0054977829568088055,-0.10048725455999374
1710890003875199700,18.24019970703125,-0.032070402055978775,-0.0054977829568088055,-0.09865466505289078
1710890003894159600,18.25915966796875,-0.011606430634856224,-0.020158538594841957,-0.0513126403093338
1710890003913119700,18.27811962890625,0.0009162971982732415,-0.06811141967773438,-0.05039634555578232
1710890003932079600,18.29707958984375,-0.0204639695584774,-0.08032871782779694,-0.0772743970155716
1710890003951039500,18.31603955078125,-0.017715077847242355,-0.05345066636800766,-0.06017018109560013
1710890003969999600,18.33499951171875,-0.006719512399286032,0.013744457624852657,-0.03451386094093323
1710890003988959500,18.35395947265625,-0.0027488914784044027,0.0565049909055233,-0.03940077871084213
1710890004007919600,18.372919677734377,-0.007635809946805239,0.09651663154363632,-0.025045456364750862
1710890004026879500,18.39187939453125,-0.008552107028663158,0.13713914155960083,-0.008552107028663158
1710890004045839600,18.410839599609375,0.011911863461136818,0.12461641430854797,0.007941242307424545
1710890004064799500,18.429799560546876,0.03451386094093323,0.06017018109560013,0.006719512399286032
1710890004083759400,18.44875927734375,0.0668896958231926,0.04062250629067421,-0.003970621153712273
1710890004102719500,18.467719482421874,0.0821613147854805,0.032681263983249664,-0.020769402384757996
1710890004121679400,18.486679443359375,0.07147117704153061,-0.03451386094093323,-0.02626718580722809
1710890004140639500,18.505639404296875,0.056199558079242706,-0.13469567894935608,0.0009162971982732415
1710890004159599400,18.524599365234376,0.039706211537122726,-0.21930044889450073,-0.007941242307424545
1710890004178559500,18.5435595703125,0.021685699000954628,-0.2202167510986328,-0.04886918142437935
1710890004197519400,18.562519287109374,0.0054977829568088055,-0.16707152128219604,-0.06536252796649933
1710890004216479200,18.581479248046875,-0.007635809946805239,-0.09468404203653336,-0.050090912729501724
1710890004235439400,18.600439453125,-0.014966187067329884,-0.03909534588456154,-0.0021380267571657896
1710890004254399200,18.619399169921873,-0.011911863461136818,0.03145953640341759,-0.0054977829568088055
1710890004273359400,18.638359375,0.009162971749901772,0.09315688163042068,-0.047036588191986084
1710890004292319200,18.6573193359375,0.019242240116000175,0.15179990231990814,-0.06841685622930527
1710890004311279400,18.676279296875,0.047036588191986084,0.1740964651107788,-0.0720820426940918
1710890004330239200,18.6952392578125,0.0925460159778595,0.23212862014770508,-0.03909534588456154
1710890004349199400,18.714199462890626,0.10659590363502502,0.40866854786872864,-0.011606430634856224
1710890004368159200,18.7331591796875,0.06352993845939636,0.5729911923408508,0.020158538594841957
1710890004387119400,18.752119384765624,0.018325943499803543,0.6178897023200989,0.06017018109560013
1710890004406079200,18.771079345703125,0.013744457624852657,0.4972439408302307,0.07147117704153061
1710890004425039400,18.790039306640626,0.04062250629067421,0.33047783374786377,0.06261363625526428
1710890004443999200,18.808999267578123,0.07788526266813278,0.1078176349401474,0.06230820715427399
1710890004462959400,18.82795947265625,0.0821613147854805,-0.1334739476442337,0.04245510324835777
1710890004481919200,18.846919189453125,0.053756099194288254,-0.25809037685394287,0.04214967042207718
1710890004500879400,18.86587939453125,0.018325943499803543,-0.20647229254245758,0.0015271619195118546
1710890004519839200,18.884839111328127,-0.013133592903614044,-0.034208428114652634,-0.06994401663541794
1710890004538799000,18.903799072265624,-0.021991131827235222,0.15027274191379547,-0.13683371245861053
1710890004557759200,18.92275927734375,-0.023823726922273636,0.28008151054382324,-0.1905898153781891
1710890004576719000,18.941718994140626,-0.041844237595796585,0.28069236874580383,-0.17226386070251465
1710890004595679200,18.96067919921875,-0.0360410213470459,0.19181154668331146,-0.12461641430854797
1710890004614639000,18.97963916015625,-0.03298669680953026,0.10903936624526978,-0.10445787757635117
1710890004633599200,18.99859912109375,-0.04001164436340332,0.07116574794054031,-0.08307760953903198
1710890004652559000,19.01755908203125,-0.006108647678047419,0.034208428114652634,-0.02718348242342472
1710890004671519000,19.03651904296875,0.004886918235570192,0.014049889519810677,0.010079269297420979
1710890004690479000,19.05547900390625,-0.014660755172371864,-0.013744457624852657,0.00946840364485979
1710890004709439000,19.07443896484375,-0.0015271619195118546,-0.06627883017063141,0.023518294095993042
1710890004728399000,19.093399169921874,0.02932151034474373,-0.046425722539424896,0.029932374134659767
1710890004747359000,19.11235888671875,0.023518294095993042,-0.008857538923621178,0.017104214057326317
1710890004766319000,19.131319091796875,-0.016187917441129684,0.03451386094093323,-0.019242240116000175
1710890004785279000,19.150279052734376,-0.03237583488225937,0.10231985151767731,-0.0461202897131443
1710890004804238800,19.16923876953125,-0.032070402055978775,0.20341797173023224,-0.037262752652168274
1710890004823199000,19.188198974609374,-0.043982263654470444,0.2208276242017746,-0.032070402055978775
1710890004842158800,19.207158935546875,-0.0766635313630104,0.09132428467273712,-0.07269290834665298
1710890004861119000,19.226118896484376,-0.07422006875276566,-0.03481929376721382,-0.09132428467273712
1710890004880078800,19.245078857421873,-0.04367683082818985,-0.11239911615848541,-0.07513637095689774
1710890004899038700,19.264038818359374,-0.03909534588456154,-0.12034036219120026,-0.057726722210645676
1710890004917998800,19.282998779296875,-0.04581485688686371,-0.07788526266813278,-0.0616973415017128
1710890004936958700,19.301958740234376,-0.06261363625526428,-0.0030543238390237093,-0.08063415437936783
1710890004955918800,19.3209189453125,-0.0821613147854805,0.046425722539424896,-0.09437860548496246
1710890004974878700,19.339878662109374,-0.06505709886550903,0.13744457066059113,-0.10934479534626007
1710890004993838600,19.358838623046875,-0.05070177838206291,0.21441353857517242,-0.10170898586511612
1710890005012798700,19.377798828125,-0.05222893878817558,0.22449280321598053,-0.07941242307424545
1710890005031758600,19.396758544921877,-0.057726722210645676,0.18112140893936157,-0.06261363625526428
1710890005050718700,19.41571875,-0.05283980444073677,0.1127045527100563,-0.05894844979047775
1710890005069678600,19.4346787109375,-0.03329212963581085,0.044898562133312225,-0.051618073135614395
1710890005088638700,19.453638671875,-0.04581485688686371,0.003970621153712273,-0.03451386094093323
1710890005107598600,19.4725986328125,-0.07452550530433655,0.008246674202382565,-0.000305432389723137
1710890005126558700,19.491558837890626,-0.06017018109560013,0.032681263983249664,0.023518294095993042
1710890005145518600,19.5105185546875,-0.04214967042207718,0.05345066636800766,0.009773836471140385
1710890005164478500,19.529478515625,-0.039706211537122726,0.08949168771505356,0.015271619893610477
1710890005183438600,19.5484384765625,-0.01282816007733345,0.10140355676412582,0.02626718580722809
1710890005202398500,19.5673984375,-0.019853105768561363,0.06230820715427399,0.021685699000954628
1710890005221358600,19.586358642578126,-0.04917461425065994,-0.027488915249705315,0.04825831577181816
1710890005240318500,19.605318359375,-0.04428769648075104,-0.12095122784376144,0.0766635313630104
1710890005259278300,19.6242783203125,-0.018325943499803543,-0.1441640853881836,0.06414080411195755
1710890005278238500,19.643238525390625,-0.021991131827235222,-0.13255766034126282,0.013133592903614044
1710890005297198300,19.6621982421875,-0.029932374134659767,-0.0668896958231926,0.0030543238390237093
1710890005316158500,19.681158447265624,-0.01588248461484909,0.06444623321294785,-0.009773836471140385
1710890005335118300,19.700118408203124,-0.026878049597144127,0.13255766034126282,-0.03848448023200035
1710890005354078200,19.719078125,-0.04917461425065994,0.08765909820795059,-0.03634645417332649
1710890005373038300,19.738038330078126,-0.051618073135614395,0.048563748598098755,-0.021991131827235222
1710890005391998200,19.756998291015623,-0.0360410213470459,-0.00946840364485979,-0.032070402055978775
1710890005410958000,19.7759580078125,-0.025961752980947495,-0.11575887352228165,-0.05039634555578232
1710890005429918200,19.794918212890625,-0.021685699000954628,-0.15179990231990814,-0.047036588191986084
1710890005448878000,19.813878173828126,-0.023212861269712448,-0.1533270627260208,-0.06841685622930527
1710890005467838200,19.832838134765623,-0.026878049597144127,-0.12705987691879272,-0.06017018109560013
1710890005486798000,19.851798095703124,-0.03451386094093323,-0.0308486707508564,-0.040317077189683914
1710890005505758200,19.87075830078125,-0.04062250629067421,0.0665842592716217,-0.04214967042207718
1710890005524718000,19.889718017578126,-0.04978547990322113,0.11453714966773987,-0.03298669680953026
1710890005543678000,19.908677978515627,-0.050090912729501724,0.09621120244264603,-0.03298669680953026
1710890005562638000,19.92763818359375,-0.04367683082818985,0.04062250629067421,-0.04153880476951599
1710890005581598000,19.946597900390625,-0.023518294095993042,0.020158538594841957,-0.029932374134659767
1710890005600557800,19.965557861328126,-0.02871064469218254,0.010384701192378998,-0.024740023538470268
1710890005619518000,19.98451806640625,-0.03390299528837204,-0.024740023538470268,-0.008552107028663158
1710890005638477800,20.003477783203124,-0.016798781231045723,-0.029626941308379173,-0.003665188793092966
1710890005657437700,20.022437744140625,-0.001832594396546483,-0.006719512399286032,-0.0256563201546669
1710890005676397800,20.041397705078126,-0.0009162971982732415,0.007330377586185932,-0.0308486707508564
1710890005695357700,20.060357666015626,0.003359756199643016,0.021685699000954628,0.004581485874950886
1710890005714317600,20.079317626953124,-0.008857538923621178,0.06414080411195755,0.007635809946805239
1710890005733277700,20.098277587890625,-0.03817904740571976,0.041844237595796585,-0.024740023538470268
1710890005752237600,20.117237548828125,-0.03940077871084213,-0.014049889519810677,-0.013133592903614044
1710890005771197700,20.13619775390625,-0.023212861269712448,-0.011300998739898205,-0.000305432389723137
1710890005790157600,20.155157470703124,-0.005803215317428112,-0.05345066636800766,0.014966187067329884
1710890005809117400,20.174117431640624,-0.022907428443431854,-0.06383536756038666,0.025961752980947495
1710890005828077600,20.19307763671875,-0.0412333719432354,-0.11423171311616898,0.0308486707508564
1710890005847037400,20.212037353515626,-0.03848448023200035,-0.16829325258731842,0.05833758786320686
1710890005865997300,20.230997314453123,-0.036651886999607086,-0.26511532068252563,0.12095122784376144
1710890005884957400,20.24995751953125,-0.13255766034126282,-0.7293725609779358,0.22754712402820587
1710890005903917300,20.268917236328125,-0.21258094906806946,-1.191797137260437,0.036651886999607086
1710890005922877200,20.287877197265626,-0.23884813487529755,-1.1783581972122192,-0.13133592903614044
1710890005941837300,20.30683740234375,-0.28924447298049927,-1.4303399324417114,-0.21135921776294708
1710890005960797200,20.325797119140624,-0.42363473773002625,-1.721111536026001,-0.3347539007663727
1710890005979757000,20.344757080078125,-0.6246092319488525,-1.4269801378250122,-0.5045742988586426
1710890005998717000,20.363717041015626,-0.7977893948554993,-0.9831868410110474,-0.6808087825775146
1710890006017677000,20.382677001953127,-0.9001092314720154,-0.8677334189414978,-0.8148936033248901
1710890006036637000,20.401636962890624,-0.9590576887130737,-0.516791582107544,-0.7977893948554993
1710890006055597000,20.42059716796875,-0.9126319885253906,-0.2507599890232086,-0.9385937452316284
1710890006074557000,20.439556884765626,-0.8842267394065857,-0.17165300250053406,-1.0952805280685425
1710890006093516800,20.458516845703127,-0.9550870656967163,-0.18295399844646454,-1.2318087816238403
1710890006112477000,20.477476806640624,-0.9932661056518555,-0.3582721948623657,-1.3420698642730713
1710890006131436800,20.496436767578125,-0.980743408203125,-0.36743515729904175,-1.2623521089553833
1710890006150396700,20.515396728515626,-0.898276686668396,-0.29901832342147827,-1.2809834480285645
1710890006169356500,20.5343564453125,-0.8139773011207581,-0.3133736252784729,-1.2806780338287354
1710890006188316700,20.553316650390624,-0.8619301915168762,-0.15485422313213348,-1.1337649822235107
1710890006207276500,20.572276611328125,-0.8848376274108887,-0.2663370370864868,-1.0870338678359985
1710890006226236400,20.591236328125,-0.9382883310317993,-0.39400777220726013,-1.148425817489624
1710890006245196500,20.610196533203126,-0.9880737662315369,-0.4566214084625244,-1.045189619064331
1710890006264156400,20.629156494140624,-1.0439679622650146,-0.34086254239082336,-1.0555742979049683
1710890006283116300,20.6481162109375,-1.117577075958252,-0.3656025826931,-1.147204041481018
1710890006302076400,20.667076416015625,-1.1496474742889404,-0.3341430425643921,-0.9489784240722656
1710890006321036300,20.686036376953126,-1.074205756187439,-0.36224281787872314,-1.0787872076034546
1710890006339996200,20.70499609375,-1.0650427341461182,-0.43921178579330444,-1.0622938871383667
1710890006358956000,20.7239560546875,-1.0048725605010986,-0.37171122431755066,-0.9117156863212585
1710890006377916200,20.742916259765625,-0.934623122215271,-0.33108872175216675,-0.9712749719619751
1710890006396876000,20.7618759765625,-0.8710931539535522,-0.526870846748352,-0.962722897529602
1710890006415836000,20.7808359375,-0.8277217745780945,-0.3860665261745453,-0.9169080257415771
1710890006434796000,20.799796142578124,-0.8194751143455505,-0.29046618938446045,-1.0222822427749634
1710890006453756000,20.818755859375,-0.7641918659210205,-0.47036588191986084,-1.005788803100586
1710890006472715800,20.8377158203125,-0.6829468011856079,-0.40927940607070923,-0.926376461982727
1710890006491676000,20.856676025390627,-0.6331613659858704,-0.3686569035053253,-1.1001675128936768
1710890006510635800,20.8756357421875,-0.6062833070755005,-0.2724456787109375,-1.1062761545181274
1710890006529595600,20.894595703125,-0.5494728684425354,-0.1389717310667038,-1.1157444715499878
1710890006548555500,20.913555419921874,-0.565049946308136,-0.06994401663541794,-1.2250893115997314
1710890006567515600,20.932515625,-0.620333194732666,0.006414080038666725,-1.219896912574768
1710890006586475500,20.9514755859375,-0.5674933791160583,0.03909534588456154,-1.1337649822235107
1710890006605435400,20.970435302734376,-0.535728394985199,0.05345066636800766,-1.1447606086730957
1710890006624395300,20.989395263671874,-0.5992583632469177,0.08857539296150208,-1.128878116607666
1710890006643355400,21.00835546875,-0.5696313977241516,-0.12003492563962936,-1.1297943592071533
1710890006662315300,21.027315185546875,-0.5152644515037537,-0.22876885533332825,-1.092531681060791
1710890006681275400,21.046275390625,-0.5415316224098206,-0.20708316564559937,-1.010064959526062
1710890006700235300,21.0652353515625,-0.5467239618301392,-0.370184063911438,-1.0192278623580933
1710890006719195100,21.084195068359374,-0.573602020740509,-0.41935867071151733,-1.0012073516845703
1710890006738155000,21.103155029296875,-0.6627882719039917,-0.3347539007663727,-0.9312633275985718
1710890006757115100,21.122115234375,-0.6624828577041626,-0.43340855836868286,-0.9037744402885437
1710890006776075000,21.141074951171873,-0.593149721622467,-0.5870410799980164,-0.9202677607536316
1710890006795035000,21.160034912109374,-0.5925388336181641,-0.4428769648075104,-0.8561269640922546
1710890006813994800,21.178994873046875,-0.5467239618301392,-0.4312705397605896,-0.9117156863212585
1710890006832955000,21.197954833984376,-0.4831940531730652,-0.40866854786872864,-0.9630283117294312
1710890006851914800,21.216914794921873,-0.46456265449523926,-0.4004218578338623,-0.8973603844642639
1710890006870875000,21.235875,-0.49021899700164795,-0.2516762912273407,-0.842382550239563
1710890006889834800,21.254834716796875,-0.4419606626033783,-0.12095122784376144,-0.8494074940681458
1710890006908794600,21.273794677734376,-0.37140578031539917,-0.2003636509180069,-0.9944878816604614
1710890006927754500,21.29275439453125,-0.37293294072151184,-0.1588248461484909,-0.9886846542358398
1710890006946714600,21.311714599609374,-0.3139844834804535,-0.12583814561367035,-0.8964440822601318
1710890006965674500,21.330674560546875,-0.2782489061355591,-0.15577052533626556,-0.8991929292678833
1710890006984634400,21.34963427734375,-0.24281874299049377,-0.18173226714134216,-0.9599739909172058
1710890007003594200,21.36859423828125,-0.1542433500289917,-0.03543015569448471,-0.9117156863212585
1710890007022554400,21.387554443359374,-0.2211330533027649,-0.05192350596189499,-0.96180659532547
1710890007041514200,21.40651416015625,-0.29443681240081787,-0.002443459117785096,-0.9556979537010193
1710890007060474000,21.42547412109375,-0.23884813487529755,-0.001832594396546483,-0.8616247773170471
1710890007079434200,21.444434326171876,-0.24831652641296387,-0.010384701192378998,-0.8191696405410767
1710890007098394000,21.46339404296875,-0.2101374864578247,0.061391908675432205,-0.8191696405410767
1710890007117354200,21.482354248046875,-0.23732095956802368,-0.09407317638397217,-0.8619301915168762
1710890007136314000,21.501314208984375,-0.33139413595199585,-0.3078758418560028,-0.8985821008682251
1710890007155274000,21.52027392578125,-0.3026835024356842,-0.34177884459495544,-0.8439096808433533
1710890007174234000,21.539234130859374,-0.235793799161911,-0.36132651567459106,-0.7574723362922668
1710890007193194000,21.558194091796874,-0.23396120965480804,-0.46975502371788025,-0.7422007322311401
1710890007212153900,21.57715380859375,-0.18814635276794434,-0.41935867071151733,-0.7070759534835815
1710890007231113700,21.59611376953125,-0.13561198115348816,-0.2932150959968567,-0.6603448390960693
1710890007250073900,21.615073974609373,-0.15302163362503052,-0.2519817352294922,-0.5409207344055176
1710890007269033700,21.63403369140625,-0.1844811588525772,-0.21135921776294708,-0.3857611119747162
1710890007287993600,21.65299365234375,-0.15088360011577606,0.030543239787220955,-0.14477495849132538
1710890007306953700,21.67195361328125,-0.09682206809520721,0.14538581669330597,-0.03817904740571976
1710890007325913600,21.69091357421875,-0.06963858753442764,0.2568686306476593,0.1805105358362198
1710890007344873700,21.709873779296874,0.10506874322891235,0.3500255048274994,0.4834994673728943
1710890007363833600,21.72883349609375,0.2809978127479553,0.36193737387657166,0.6261364221572876
1710890007382793500,21.74779345703125,0.36224281787872314,0.3387245237827301,0.7922916412353516
1710890007401753600,21.766753662109377,0.4410443603992462,0.3790415823459625,0.9453132748603821
1710890007420713500,21.78571337890625,0.5873464941978455,0.49663305282592773,1.0867284536361694
1710890007439673300,21.80467333984375,0.7596103549003601,0.5797106623649597,1.1404845714569092
1710890007458633500,21.823633544921876,0.878728985786438,0.6114756464958191,1.2724313735961914
1710890007477593300,21.84259326171875,0.942258894443512,0.5962040424346924,1.331379771232605
1710890007496553200,21.86155322265625,1.0598503351211548,0.5079340934753418,1.3765838146209717
1710890007515513300,21.880513427734375,1.2290599346160889,0.457843154668808,1.4404191970825195
1710890007534473200,21.89947314453125,1.3115266561508179,0.45478883385658264,1.4535527229309082
1710890007553433000,21.91843310546875,1.3353503942489624,0.4364628791809082,1.451720118522644
1710890007572393200,21.937393310546874,1.3487894535064697,0.4004218578338623,1.4214823246002197
1710890007591353000,21.95635302734375,1.3713914155960083,0.41355544328689575,1.4275909662246704
1710890007610313200,21.975313232421875,1.4217877388000488,0.401949018239975,1.4917317628860474
1710890007629273000,21.994273193359376,1.4489712715148926,0.3912588953971863,1.5008947849273682
1710890007648233200,22.013233154296874,1.4410300254821777,0.41935867071151733,1.499367594718933
1710890007667193000,22.032193115234374,1.3698642253875732,0.5137372612953186,1.45294189453125
1710890007686153200,22.0511533203125,1.266933560371399,0.5674933791160583,1.416290044784546
1710890007705113000,22.070113037109376,1.1872156858444214,0.5204567909240723,1.387273907661438
1710890007724073000,22.089072998046873,1.1850776672363281,0.4978547990322113,1.4034618139266968
1710890007743033000,22.108033203125,1.1881320476531982,0.5360338687896729,1.4370594024658203
1710890007761993000,22.126992919921875,1.166751742362976,0.5030471682548523,1.3994911909103394
1710890007780952800,22.145952880859376,1.1646137237548828,0.44501498341560364,1.2870920896530151
1710890007799913000,22.164912841796873,1.173471212387085,0.370184063911438,1.2544108629226685
1710890007818872800,22.183872802734374,1.1432334184646606,0.35185810923576355,1.2534945011138916
1710890007837833000,22.2028330078125,1.0763437747955322,0.4108065664768219,1.2889246940612793
1710890007856792800,22.221792724609376,1.0308343172073364,0.3026835024356842,1.285259485244751
1710890007875752700,22.240752685546877,0.9566142559051514,0.26389357447624207,1.3225222826004028
1710890007894712800,22.259712890625,0.8805615901947021,0.22449280321598053,1.2913681268692017
1710890007913672700,22.278672607421875,0.8020654320716858,0.1798996776342392,1.2568542957305908
1710890007932632800,22.2976328125,0.7932079434394836,0.07269290834665298,1.1710277795791626
1710890007951592700,22.3165927734375,0.8167262077331543,0.03909534588456154,1.0867284536361694
1710890007970552600,22.335552490234374,0.8393282294273376,0.0256563201546669,1.0638209581375122
1710890007989512700,22.3545126953125,0.8723149299621582,-0.010079269297420979,1.0396918058395386
1710890008008472600,22.37347265625,0.8219185471534729,0.015577051788568497,1.0916153192520142
1710890008027432700,22.3924326171875,0.7672461867332458,-0.0204639695584774,1.0968077182769775
1710890008046392600,22.411392578125,0.7287616729736328,0.03848448023200035,0.9883792400360107
1710890008065352700,22.430352783203126,0.7241802215576172,0.13439024984836578,0.9856303334236145
1710890008084312600,22.4493125,0.768467903137207,0.282524973154068,1.0131192207336426
1710890008103272400,22.4682724609375,0.8222240209579468,0.4468475878238678,1.0290017127990723
1710890008122232600,22.487232666015625,0.8017600178718567,0.4871646761894226,0.9798271059989929
1710890008141192400,22.5061923828125,0.7287616729736328,0.5904008150100708,0.9428697824478149
1710890008160152600,22.525152587890624,0.7168498039245605,0.6722567081451416,0.9657772183418274
1710890008179112400,22.544112548828124,0.8103121519088745,0.6982184648513794,0.9502001404762268
1710890008198072600,22.563072509765625,0.8005383014678955,0.8353576064109802,1.0378592014312744
1710890008217032400,22.582032470703126,0.7504473924636841,0.6801979541778564,1.0497710704803467
1710890008235992600,22.60099267578125,0.7229584455490112,0.4001164436340332,0.9770781993865967
1710890008254952400,22.619952392578124,0.729983389377594,0.28527384996414185,0.9379828572273254
1710890008273912600,22.63891259765625,0.7195987105369568,0.050090912729501724,0.8222240209579468
1710890008292872400,22.65787255859375,0.5803215503692627,-0.1288924664258957,0.7431169748306274
1710890008311832600,22.67683251953125,0.4831940531730652,-0.16310089826583862,0.7330377101898193
1710890008330792400,22.69579248046875,0.5943714380264282,-0.2464839369058609,0.6588176488876343
1710890008349752600,22.714752685546873,0.6249146461486816,-0.18906265497207642,0.5317577719688416
1710890008368712400,22.73371240234375,0.425467312335968,-0.250149130821228,0.5006036758422852
1710890008387672600,22.752672607421875,0.35063639283180237,-0.43310311436653137,0.5140427350997925
1710890008406632400,22.771632568359376,0.3695732057094574,-0.47952884435653687,0.5836812853813171
1710890008425592600,22.790592529296877,0.45051276683807373,-0.6795870661735535,0.7629700899124146
1710890008444552400,22.809552490234374,0.6243038177490234,-0.7156280875205994,0.7602212429046631
1710890008463512600,22.8285126953125,0.5626064538955688,-0.5974257588386536,0.5158752799034119
1710890008482472400,22.847472412109376,0.318871408700943,-0.5525271892547607,0.3136790692806244
1710890008501432600,22.8664326171875,0.12736530601978302,-0.28496840596199036,0.0204639695584774
1710890008520392400,22.885392333984374,0.07391463965177536,-0.09834922850131989,-0.05589412897825241
1710890008539352600,22.9043525390625,0.07391463965177536,0.029626941308379173,0.032070402055978775
1710890008558312400,22.9233125,0.04428769648075104,-0.03848448023200035,-0.04153880476951599
1710890008577272600,22.9422724609375,0.029016077518463135,-0.1945604383945465,-0.23854269087314606
1710890008596232400,22.961232421875,-0.004276053514331579,-0.19181154668331146,-0.2205221801996231
1710890008615192600,22.980192626953126,-0.07147117704153061,0.12461641430854797,-0.2562577724456787
1710890008634152400,22.99915234375,-0.14263692498207092,0.2684750556945801,-0.32070401310920715
1710890008653112600,23.018112548828125,-0.1594357043504715,0.2605338394641876,-0.258395791053772
1710890008672072400,23.037072509765625,-0.1750127524137497,0.15638138353824615,-0.17867794632911682
1710890008691032600,23.056032470703126,-0.14538581669330597,0.02932151034474373,-0.18753549456596375
1710890008709992400,23.074992431640624,-0.0409279391169548,-0.07635809481143951,-0.11087195575237274
1710890008728952600,23.09395263671875,-0.01435532234609127,0.06108647957444191,-0.07941242307424545
1710890008747912400,23.112912353515625,-0.08307760953903198,0.14782927930355072,-0.1185077652335167
1710890008766872600,23.13187255859375,-0.17348559200763702,0.19303326308727264,-0.10445787757635117
1710890008785832400,23.15083251953125,-0.16126830875873566,0.2764163017272949,-0.07452550530433655
1710890008804792600,23.16979248046875,-0.04734202101826668,0.2968802750110626,-0.03481929376721382
1710890008823752400,23.18875244140625,-0.024434590712189674,0.10659590363502502,-0.05711585655808449
