time,seconds_elapsed,z,y,x
1707006065845264600,0.1192646484375,6.68435001373291,7.125825881958008,1.6031911373138428
1707006065864223000,0.138222900390625,6.673582553863525,7.112665176391602,1.604387640953064
1707006065883181000,0.15718115234375,6.652047157287598,7.113861560821533,1.6079767942428589
1707006065902139400,0.176139404296875,6.665207386016846,7.077969551086426,1.5912270545959473
1707006065921097700,0.19509765625,6.64486837387085,7.09711217880249,1.5792629718780518
1707006065940056000,0.21405615234375,6.669992923736572,7.080362319946289,1.597209095954895
1707006065959014400,0.233014404296875,6.716653347015381,7.067201614379883,1.5984054803848267
1707006065977972700,0.25197265625,6.705885410308838,7.062416076660156,1.5780665874481201
1707006065996931000,0.27093115234375,6.662814617156982,7.134200572967529,1.6654045581817627
1707006066015889400,0.289889404296875,6.661618232727051,7.129415035247803,1.7383856773376465
1707006066034847700,0.30884765625,6.748956203460693,7.109076023101807,1.7180466651916504
1707006066053806000,0.32780615234375,6.692724704742432,7.062416076660156,1.6713865995407104
1707006066072764400,0.346764404296875,6.634100914001465,7.052844524383545,1.674975872039795
1707006066091722800,0.36572265625,6.608976364135742,7.109076023101807,1.6319050788879395
1707006066110680800,0.384680908203125,6.656832695007324,7.133004188537598,1.5708880424499512
1707006066129639200,0.40363916015625,6.618547439575195,7.070790767669678,1.561316728591919
1707006066148597500,0.422597412109375,6.580262184143066,7.087540626525879,1.561316728591919
1707006066167555800,0.441555908203125,6.626922130584717,7.082755088806152,1.5780665874481201
1707006066186514200,0.46051416015625,6.612565517425537,6.9822564125061035,1.6235301494598389
1707006066205472500,0.479472412109375,6.592226505279541,7.001399040222168,1.6821542978286743
1707006066224430800,0.498430908203125,6.616154670715332,6.996613502502441,1.6534404754638672
1707006066243389200,0.51738916015625,6.641279220581055,6.97268533706665,1.6845471858978271
1707006066262347500,0.536347412109375,6.6245293617248535,6.973881721496582,1.6917256116867065
1707006066281305600,0.5553056640625,6.6113691329956055,6.98704195022583,1.6378871202468872
1707006066300264000,0.574263916015625,6.680760860443115,7.031309127807617,1.588834285736084
1707006066319222300,0.59322216796875,6.722635269165039,6.943971157073975,1.6785650253295898
1707006066338180600,0.6121806640625,6.695117950439453,6.881757736206055,1.7383856773376465
1707006066357139000,0.631138916015625,6.6352972984313965,6.983452796936035,1.6510475873947144
1707006066376097300,0.65009716796875,6.631708145141602,7.079165935516357,1.5804593563079834
1707006066395055600,0.6690556640625,6.641279220581055,7.04207706451416,1.6498512029647827
1707006066414014000,0.688013916015625,6.618547439575195,7.052844524383545,1.7060825824737549
1707006066432972300,0.70697216796875,6.640082836151123,7.05763053894043,1.6067804098129272
1707006066451930600,0.7259306640625,6.640082836151123,7.050451755523682,1.5720844268798828
1707006066470889000,0.744888916015625,6.608976364135742,7.070790767669678,1.597209095954895
1707006066489847000,0.763846923828125,6.583851337432861,7.054041385650635,1.5804593563079834
1707006066508805400,0.782805419921875,6.533602237701416,7.060023307800293,1.5565310716629028
1707006066527763700,0.801763671875,6.5874409675598145,7.050451755523682,1.5637096166610718
1707006066546722000,0.82072216796875,6.599404811859131,6.977470874786377,1.561316728591919
1707006066565680400,0.839680419921875,6.51326322555542,6.952346324920654,1.588834285736084
1707006066584638700,0.858638671875,6.507281303405762,7.060023307800293,1.5601203441619873
1707006066603597000,0.87759716796875,6.516852378845215,7.113861560821533,1.5409778356552124
1707006066622555400,0.896555419921875,6.449853420257568,7.012166976928711,1.4763715267181396
1707006066641513500,0.915513427734375,6.390032768249512,6.955935478210449,1.4452649354934692
1707006066660471800,0.934471923828125,6.468996047973633,7.013363361358643,1.5074782371520996
1707006066679430100,0.95343017578125,6.3122663497924805,6.949953556060791,1.7766708135604858
1707006066698388500,0.972388427734375,6.281159400939941,7.031309127807617,1.9657038450241089
1707006066717346800,0.991346923828125,6.263213157653809,7.153343200683594,1.8807586431503296
1707006066736305200,1.01030517578125,6.307480335235596,7.149754047393799,1.8029918670654297
1707006066755263500,1.029263427734375,6.419943332672119,7.100701332092285,1.7228323221206665
1707006066774221800,1.048221923828125,6.508477687835693,7.122236728668213,1.789831280708313
1707006066793180000,1.067179931640625,6.460621356964111,7.112665176391602,1.94297194480896
1707006066812138200,1.08613818359375,6.293123722076416,7.156932353973389,1.9465612173080444
1707006066831096600,1.1050966796875,6.204588890075684,7.278966426849365,1.817348837852478
1707006066850055000,1.124054931640625,6.232106685638428,7.383054256439209,1.7742780447006226
1707006066869013200,1.14301318359375,6.235695838928223,7.295716285705566,1.801795482635498
1707006066887971600,1.1619716796875,6.044270038604736,7.269395351409912,1.7670994997024536
1707006066906930000,1.180929931640625,6.032305717468262,7.3746795654296875,1.6965112686157227
1707006066925888300,1.19988818359375,6.114858150482178,7.427321434020996,1.8005990982055664
1707006066944846600,1.2188466796875,6.094519138336182,7.357929706573486,2.0781664848327637
1707006066963805000,1.237804931640625,5.912664890289307,7.369893550872803,2.242074728012085
1707006066982763300,1.25676318359375,5.893522262573242,7.540980339050293,2.0997018814086914
1707006067001721600,1.2757216796875,6.03110933303833,7.572087287902832,1.9908283948898315
1707006067020680000,1.294679931640625,6.135197162628174,7.523034572601318,1.9669002294540405
1707006067039638300,1.31363818359375,6.15553617477417,7.4979095458984375,2.045863389968872
1707006067058596400,1.332596435546875,5.976074695587158,7.5086774826049805,2.2025933265686035
1707006067077554700,1.3515546875,5.8683977127075195,7.739584922790527,2.3569302558898926
1707006067096513000,1.370512939453125,5.759523868560791,7.88913631439209,2.307877540588379
1707006067115471400,1.389471435546875,5.577669620513916,7.861618995666504,2.1379871368408203
1707006067134429700,1.4084296875,5.483152866363525,7.797012805938721,1.8795621395111084
1707006067153388000,1.427387939453125,5.382654666900635,7.793423175811768,1.6713865995407104
1707006067172346400,1.446346435546875,5.3216376304626465,7.852047443389893,1.643869161605835
1707006067191304700,1.4653046875,5.266602516174316,8.033902168273926,1.6809579133987427
1707006067210263000,1.484262939453125,5.258227825164795,8.23968505859375,1.7958134412765503
1707006067229221400,1.503221435546875,5.406582832336426,8.24566650390625,1.856830358505249
1707006067248179700,1.5221796875,5.565705299377441,8.294719696044922,1.8161523342132568
1707006067267138000,1.541137939453125,5.5142598152160645,8.287541389465332,1.908276081085205
1707006067286096400,1.560096435546875,5.371886730194092,8.179863929748535,1.970489501953125
1707006067305054700,1.5790546875,5.227120876312256,8.219346046447754,1.8532410860061646
1707006067324013000,1.598012939453125,5.217549800872803,8.267202377319336,1.726421594619751
1707006067342971400,1.616971435546875,5.240281581878662,8.117650985717773,1.5517455339431763
1707006067361929700,1.6359296875,5.026124000549316,8.014759063720703,1.4464613199234009
1707006067380888000,1.65488818359375,4.862215518951416,8.12961483001709,1.454836130142212
1707006067399846400,1.673846435546875,4.807180881500244,8.327022552490234,1.4979069232940674
1707006067418804700,1.6928046875,4.756931304931641,8.526823043823242,1.6606189012527466
1707006067437763000,1.71176318359375,4.750949382781982,8.557929992675781,1.7120646238327026
1707006067456721400,1.730721435546875,4.761716842651367,8.490931510925293,1.688136339187622
1707006067475679700,1.7496796875,4.83469820022583,8.402397155761719,1.6247265338897705
1707006067494638000,1.76863818359375,4.868197441101074,8.373682975769043,1.5553346872329712
1707006067513596400,1.787596435546875,4.937589645385742,8.449056625366211,1.6199408769607544
1707006067532554800,1.8065546875,4.980660438537598,8.511270523071289,1.765903115272522
1707006067551513000,1.82551318359375,4.913661479949951,8.516056060791016,1.978864312171936
1707006067570471400,1.844471435546875,4.722235679626465,8.542376518249512,1.9621145725250244
1707006067589430000,1.863429931640625,4.491328239440918,8.561519622802734,1.7910277843475342
1707006067608388400,1.882388427734375,4.420739650726318,8.641678810119629,1.511067509651184
1707006067627346400,1.901346435546875,4.3896331787109375,8.797212600708008,1.4225330352783203
1707006067646304800,1.9203046875,4.353740692138672,8.773283958435059,1.4093725681304932
1707006067665263000,1.93926318359375,4.293920040130615,8.730213165283203,1.2813565731048584
1707006067684221400,1.958221435546875,4.320241451263428,8.738588333129883,1.2035897970199585
1707006067703179800,1.9771796875,4.301098823547363,8.685946464538574,1.0325030088424683
1707006067722138400,1.996138427734375,4.18863582611084,8.806783676147461,1.0289137363433838
1707006067741096700,2.0150966796875,4.167100429534912,9.030512809753418,1.191625714302063
1707006067760055000,2.034054931640625,4.249652862548828,9.016156196594238,1.3052847385406494
1707006067779013400,2.053013427734375,4.265206336975098,8.944371223449707,1.1928220987319946
1707006067797971700,2.0719716796875,4.161118507385254,8.910871505737305,1.1018948554992676
1707006067816930000,2.090929931640625,4.0905303955078125,8.831908226013184,1.1198409795761108
1707006067835888400,2.109888427734375,4.054637908935547,8.796015739440918,1.0803594589233398
1707006067854846700,2.1288466796875,4.001996040344238,8.773283958435059,1.0205388069152832
1707006067873805000,2.14780517578125,3.957728624343872,8.754141807556152,0.9678967595100403
1707006067892763400,2.166763427734375,3.8739798069000244,8.745766639709473,0.9020941257476807
1707006067911722000,2.185721923828125,3.8703906536102295,8.801998138427734,0.9224331378936768
1707006067930680300,2.204680419921875,3.9397823810577393,9.083154678344727,0.8745766878128052
1707006067949638700,2.223638671875,3.978067636489868,9.053244590759277,0.8662018179893494
1707006067968597000,2.242596923828125,3.9768712520599365,9.065208435058594,0.8937192559242249
1707006067987555300,2.261555419921875,4.058227062225342,9.036494255065918,0.9547362327575684
1707006068006513700,2.280513671875,4.086941242218018,9.078369140625,0.9954141974449158
1707006068025472000,2.299471923828125,4.0797624588012695,9.103493690490723,0.9678967595100403
1707006068044430300,2.318430419921875,4.133601188659668,9.060422897338867,0.8183453679084778
1707006068063388700,2.337388671875,4.124029636383057,8.886942863464355,0.6556333899497986
1707006068082347000,2.356346923828125,3.985246181488037,8.714659690856934,0.48454657196998596
1707006068101305300,2.375305419921875,3.704089403152466,8.70508861541748,0.3086741268634796
1707006068120264000,2.394263916015625,3.445664644241333,8.801998138427734,0.10648060590028763
1707006068139222300,2.41322216796875,3.1992039680480957,9.006584167480469,-0.07537391036748886
1707006068158180600,2.4321806640625,3.0005996227264404,9.244669914245605,-0.2763710021972656
1707006068177139000,2.451138916015625,2.861815929412842,9.339186668395996,-0.3170489966869354
1707006068196097300,2.47009716796875,2.8390841484069824,9.509077072143555,-0.3361915946006775
1707006068215055600,2.4890556640625,2.874976396560669,9.647860527038574,-0.34217363595962524
1707006068234014000,2.508013916015625,2.9419753551483154,9.674181938171387,-0.3840480446815491
1707006068252972300,2.52697216796875,3.0065815448760986,9.519845008850098,-0.4462614357471466
1707006068271930600,2.5459306640625,3.0939197540283203,9.45045280456543,-0.4259224236011505
1707006068290889200,2.56488916015625,3.1405797004699707,9.658628463745117,-0.21774685382843018
1707006068309847600,2.58384765625,3.236292600631714,9.698110580444336,0.07537391036748886
1707006068328806000,2.602805908203125,3.3714871406555176,9.613164901733398,0.2883351147174835
1707006068347764200,2.62176416015625,3.562912940979004,9.343972206115723,0.26081767678260803
1707006068366722600,2.64072265625,3.535395383834839,8.9910306930542,0.2632105052471161
1707006068385681000,2.659680908203125,3.4743785858154297,8.82951545715332,0.2871387302875519
1707006068404639500,2.678639404296875,3.3415768146514893,8.781659126281738,0.397208571434021
1707006068423597800,2.697597900390625,3.2207393646240234,8.82114028930664,0.4366901218891144
1707006068442556200,2.71655615234375,3.2159535884857178,8.894122123718262,0.4450650215148926
1707006068461514500,2.735514404296875,3.2135608196258545,8.979066848754883,0.4654040038585663
1707006068480472800,2.754472900390625,3.181257724761963,9.04845905303955,0.5659025311470032
1707006068499431200,2.77343115234375,3.212364435195923,9.089137077331543,0.7106683254241943
1707006068518389500,2.792389404296875,3.2829527854919434,8.999405860900879,0.7920243144035339
1707006068537348000,2.81134814453125,3.3403804302215576,9.012566566467285,0.8398807644844055
1707006068556306400,2.830306396484375,3.379862070083618,9.041280746459961,0.9128618240356445
1707006068575264800,2.8492646484375,3.3439695835113525,9.012566566467285,0.9200403094291687
1707006068594223000,2.86822314453125,3.3104701042175293,9.111868858337402,0.916451096534729
1707006068613181400,2.887181396484375,3.3415768146514893,9.121439933776855,0.9427721500396729
1707006068632139800,2.906139892578125,3.3571300506591797,9.074779510498047,0.9499505758285522
1707006068651098000,2.92509814453125,3.4085757732391357,8.965906143188477,0.9547362327575684
1707006068670056700,2.944056640625,3.387040376663208,9.007781028747559,1.0193424224853516
1707006068689015000,2.96301513671875,3.3690943717956543,9.110671997070312,1.098305583000183
1707006068707973400,2.981973388671875,3.3894333839416504,9.241081237792969,1.0612168312072754
1707006068726931700,3.000931640625,3.482753276824951,9.44327449798584,1.1617153882980347
1707006068745890300,3.019890380859375,3.4097721576690674,9.410971641540527,1.1976077556610107
1707006068764848600,3.0388486328125,3.370290756225586,9.419346809387207,1.0480563640594482
1707006068783807000,3.057806884765625,3.315255880355835,9.379864692687988,0.8315058946609497
1707006068802765300,3.076765380859375,3.2626137733459473,9.474381446838379,0.7094719409942627
1707006068821723600,3.0957236328125,3.2231321334838867,9.494720458984375,0.6364908218383789
1707006068840682200,3.11468212890625,3.091526746749878,9.394221305847168,0.5539384484291077
1707006068859640600,3.133640625,2.937189817428589,9.364311218261719,0.38285163044929504
1707006068878599000,3.152598876953125,2.8725836277008057,9.449256896972656,0.2763710021972656
1707006068897557200,3.17155712890625,2.8905298709869385,9.385847091674805,0.3158525824546814
1707006068916515800,3.190515869140625,2.8869404792785645,9.248259544372559,0.2512463629245758
1707006068935474200,3.20947412109375,2.8390841484069824,9.329615592956543,0.16749759018421173
1707006068954432500,3.2284326171875,2.86061954498291,9.456435203552246,0.19142581522464752
1707006068973390800,3.247390869140625,3.0173492431640625,9.455238342285156,0.26560330390930176
1707006068992349400,3.266349365234375,3.2027931213378906,9.385847091674805,0.41515472531318665
1707006069011307800,3.285307861328125,3.332005500793457,9.516255378723145,0.5790630578994751
1707006069030266000,3.30426611328125,3.579662561416626,9.592825889587402,0.8327022790908813
1707006069049224700,3.323224609375,3.9218363761901855,9.422935485839844,0.9559326171875
1707006069068183000,3.34218310546875,4.126422882080078,9.255437850952148,1.038485050201416
1707006069087141400,3.361141357421875,4.110869407653809,9.09392261505127,1.2275179624557495
1707006069106099700,3.380099609375,3.9696927070617676,9.059226989746094,1.357926845550537
1707006069125058000,3.39905810546875,3.81655216217041,8.9850492477417,1.466800332069397
1707006069144016600,3.4180166015625,3.565305709838867,8.95394229888916,1.4213366508483887
1707006069162975000,3.43697509765625,3.370290756225586,8.986245155334473,1.293320655822754
1707006069181933300,3.455933349609375,3.348755359649658,8.94676399230957,1.1665010452270508
1707006069200891600,3.4748916015625,3.4779677391052246,8.761320114135742,1.0767701864242554
1707006069219850200,3.493850341796875,3.6263227462768555,8.701499938964844,1.0612168312072754
1707006069238808600,3.51280859375,3.6406795978546143,8.784051895141602,1.0707881450653076
1707006069257767200,3.53176708984375,3.6406795978546143,8.846264839172363,1.1868400573730469
1707006069276725500,3.5507255859375,3.689732551574707,8.83071231842041,1.2658032178878784
1707006069295683800,3.569683837890625,3.7902309894561768,8.855836868286133,1.2873386144638062
1707006069314642200,3.58864208984375,3.7088751792907715,8.922835350036621,1.25144624710083
1707006069333600800,3.607600830078125,3.6430723667144775,8.94556713104248,1.1676974296569824
1707006069352559000,3.62655908203125,3.594019651412964,8.762516975402832,1.0193424224853516
1707006069371517700,3.645517578125,3.5772697925567627,8.804390907287598,0.9942178130149841
1707006069390476000,3.66447607421875,3.601198196411133,8.888139724731445,1.1772687435150146
1707006069409434400,3.683434326171875,3.678964853286743,8.965906143188477,1.3591232299804688
1707006069428392700,3.702392822265625,3.827319860458374,9.06281566619873,1.4991034269332886
1707006069447351300,3.721351318359375,3.902693748474121,8.975478172302246,1.6007983684539795
1707006069466309600,3.7403095703125,4.07258415222168,8.902496337890625,1.726421594619751
1707006069485268200,3.759268310546875,4.249652862548828,8.85224723815918,1.832902193069458
1707006069504226600,3.7782265625,4.225724697113037,8.766105651855469,1.812563180923462
1707006069523185000,3.797184814453125,4.168296813964844,8.754141807556152,1.7072789669036865
1707006069542143500,3.8161435546875,4.216153621673584,8.924032211303711,1.6761722564697266
1707006069561101800,3.835101806640625,4.254438877105713,8.846264839172363,1.5792629718780518
1707006069580060400,3.854060302734375,4.107280254364014,8.569893836975098,1.4069796800613403
1707006069599018800,3.873018798828125,4.022335052490234,8.294719696044922,1.0600204467773438
1707006069617977000,3.89197705078125,3.950550079345703,8.350951194763184,0.885344386100769
1707006069636935700,3.910935791015625,3.7148571014404297,8.591429710388184,0.973878800868988
1707006069655894000,3.92989404296875,3.62153697013855,8.786444664001465,1.2059825658798218
1707006069674852600,3.9488525390625,3.603590965270996,8.873783111572266,1.211964726448059
1707006069693811000,3.96781103515625,3.6849467754364014,8.84506893157959,1.1724830865859985
1707006069712769300,3.986769287109375,3.7842490673065186,8.794819831848145,1.2945170402526855
1707006069731728000,4.005727783203125,3.8632121086120605,8.69791030883789,1.4763715267181396
1707006069750686200,4.024686279296875,3.7986059188842773,8.786444664001465,1.4943177700042725
1707006069769644800,4.043644775390625,3.6370904445648193,8.989834785461426,1.435693621635437
1707006069788603100,4.06260302734375,3.617947816848755,9.056833267211914,1.3663017749786377
1707006069807561700,4.081561767578125,3.596412420272827,8.986245155334473,1.2861422300338745
1707006069826520000,4.10052001953125,3.473181962966919,8.980263710021973,1.0875378847122192
1707006069845478700,4.119478759765625,3.236292600631714,9.232706069946289,0.8578268885612488
1707006069864437000,4.13843701171875,2.9072794914245605,9.477970123291016,0.6951149702072144
1707006069883395300,4.157395263671875,2.717050075531006,9.835697174072266,0.6544370055198669
1707006069902354000,4.17635400390625,2.489732027053833,10.063015937805176,0.49651068449020386
1707006069921312300,4.195312255859375,2.3844478130340576,10.003194808959961,0.24646073579788208
1707006069940270800,4.214270751953125,2.4155545234680176,9.748359680175781,0.13280165195465088
1707006069959229200,4.233229248046875,2.5363919734954834,9.664610862731934,0.11605189740657806
1707006069978187800,4.252187744140625,2.528017044067383,9.708877563476562,0.2727817893028259
1707006069997146000,4.27114599609375,2.344966173171997,9.651450157165527,0.4654040038585663
1707006070016104700,4.290104736328125,2.228914260864258,9.620343208312988,0.7310073375701904
1707006070035063000,4.30906298828125,2.204986095428467,9.481559753417969,0.9403793215751648
1707006070054021600,4.328021728515625,2.1894326210021973,9.384650230407715,1.0193424224853516
1707006070072980000,4.34697998046875,2.163111686706543,9.305686950683594,1.0217353105545044
1707006070091938600,4.3659384765625,2.076970100402832,9.232706069946289,1.057627558708191
1707006070110897000,4.38489697265625,1.9896320104599,9.322437286376953,1.1198409795761108
1707006070129855500,4.40385546875,2.0614166259765625,9.452845573425293,1.277767300605774
1707006070148813800,4.422813720703125,2.2085752487182617,9.376275062561035,1.428515076637268
1707006070167772200,4.441772216796875,2.2995026111602783,9.175278663635254,1.545763373374939
1707006070186730800,4.460730712890625,2.3030917644500732,9.175278663635254,1.6977076530456543
1707006070205689300,4.479689453125,2.276770830154419,9.33440113067627,1.8496519327163696
1707006070224647700,4.498647705078125,2.2648067474365234,9.414560317993164,1.8652052879333496
1707006070243606300,4.517606201171875,2.2408783435821533,9.343972206115723,1.7742780447006226
1707006070262564600,4.536564697265625,2.2133610248565674,9.268598556518555,1.6462619304656982
1707006070281523200,4.555523193359375,2.142772674560547,9.31166934967041,1.545763373374939
1707006070300481500,4.5744814453125,2.152343988418579,9.385847091674805,1.5445669889450073
1707006070319440100,4.593440185546875,2.2337000370025635,9.407382011413574,1.592423439025879
1707006070338398500,4.6123984375,2.2205393314361572,9.45164966583252,1.506281852722168
1707006070357357000,4.631357177734375,2.104487419128418,9.585647583007812,1.4404792785644531
1707006070376315400,4.6503154296875,2.0470597743988037,9.562915802001953,1.4297115802764893
1707006070395274000,4.66927392578125,2.0159530639648438,9.527023315429688,1.3986048698425293
1707006070414232600,4.688232666015625,1.9298114776611328,9.503094673156738,1.2693923711776733
1707006070433191000,4.70719091796875,1.8915263414382935,9.41336441040039,1.1832507848739624
1707006070452149200,4.726149169921875,1.9094724655151367,9.286544799804688,1.144965648651123
1707006070471107800,4.74510791015625,1.9405791759490967,9.493523597717285,1.164108157157898
1707006070490066400,4.76406640625,2.018345832824707,9.625128746032715,1.1856436729431152
1707006070509024800,4.783024658203125,2.0757737159729004,9.506684303283691,1.01814603805542
1707006070527983400,4.8019833984375,2.1607189178466797,9.960124015808105,0.8638089895248413
1707006070546941700,4.820941650390625,2.531606435775757,10.334601402282715,1.3435698747634888
1707006070565900300,4.839900390625,3.266202926635742,9.900303840637207,2.001596212387085
1707006070584858600,4.858858642578125,3.7435710430145264,9.632308006286621,2.4717857837677
1707006070603817200,4.877817138671875,4.009174346923828,9.827322959899902,2.853440999984741
1707006070622775800,4.89677587890625,4.155136585235596,10.095318794250488,3.276970624923706
1707006070641734100,4.915734130859375,4.393222332000732,10.092926025390625,3.4648072719573975
1707006070660692700,4.934692626953125,4.557130813598633,9.915857315063477,3.5641093254089355
1707006070679651000,4.953651123046875,4.53200626373291,9.707681655883789,3.724428415298462
1707006070698609700,4.972609619140625,4.4721856117248535,9.664610862731934,3.8775691986083984
1707006070717568000,4.991568115234375,4.364508628845215,9.395418167114258,3.930211305618286
1707006070736526600,5.010526611328125,4.155136585235596,9.117850303649902,3.865604877471924
1707006070755485200,5.029485107421875,3.9661035537719727,8.839086532592773,3.6909289360046387
1707006070774443500,5.048443603515625,3.8368911743164062,8.597412109375,3.3966116905212402
1707006070793401900,5.06740185546875,3.7986059188842773,8.353343963623047,3.266202926635742
1707006070812360400,5.0863603515625,3.704089403152466,8.026723861694336,3.142972469329834
1707006070831319000,5.105319091796875,3.744767427444458,7.898707389831543,3.119044303894043
1707006070850277400,5.12427734375,3.889533281326294,7.730013370513916,3.0592236518859863
1707006070869236000,5.143236083984375,4.012763500213623,7.496713161468506,3.0687949657440186
1707006070888194600,5.162194580078125,4.135993957519531,7.478767395019531,3.2853455543518066
1707006070907153000,5.18115283203125,4.29033088684082,7.380661487579346,3.456432342529297
1707006070926111200,5.200111328125,4.299902439117432,7.325626373291016,3.597608804702759
1707006070945069800,5.21906982421875,4.241278171539307,7.251449108123779,3.8261234760284424
1707006070964028400,5.2380283203125,4.552345275878906,7.1856465339660645,4.060619831085205
1707006070982986800,5.25698681640625,4.767699241638184,6.9068827629089355,4.366901397705078
1707006071001945300,5.2759453125,4.962714195251465,6.58265495300293,4.485345840454102
1707006071020903700,5.294903564453125,5.008177757263184,6.429514408111572,4.695914268493652
1707006071039862300,5.3138623046875,5.058426856994629,6.430710792541504,5.06082010269165
1707006071058820600,5.332820556640625,5.119443893432617,6.364908218383789,5.280959606170654
1707006071077779200,5.351779296875,5.126622676849365,6.120840549468994,5.357530117034912
1707006071096737800,5.37073779296875,5.173282623291016,5.839683532714844,5.373083114624023
1707006071115696000,5.389696044921875,4.985445976257324,4.528416633605957,4.863411903381348
1707006071134654700,5.40865478515625,5.115854740142822,4.809573650360107,3.9732820987701416
1707006071153613000,5.427613037109375,3.768695592880249,7.201199531555176,5.392225742340088
1707006071172571600,5.446571533203125,4.277170658111572,7.2681989669799805,6.032305717468262
1707006071191530000,5.465530029296875,4.508078098297119,6.631708145141602,6.606583118438721
1707006071210488600,5.484488525390625,4.9363932609558105,5.989234924316406,7.054041385650635
1707006071229447200,5.503447265625,5.002195835113525,5.893522262573242,7.007380962371826
1707006071248405500,5.522405517578125,6.174678802490234,6.849454879760742,6.723831653594971
1707006071267363800,5.54136376953125,5.8612189292907715,6.8171515464782715,5.442475318908691
1707006071286322400,5.560322509765625,5.288137912750244,6.914061069488525,4.802394866943359
1707006071305281000,5.579281005859375,5.243870735168457,7.306483745574951,4.930410861968994
1707006071324239400,5.5982392578125,5.548955917358398,7.270591735839844,4.887340068817139
1707006071343198000,5.617197998046875,5.724828243255615,7.153343200683594,4.852644443511963
1707006071362156300,5.63615625,5.974878311157227,7.194021224975586,5.157729148864746
1707006071381115000,5.655114990234375,6.16271448135376,7.076773166656494,5.551348686218262
1707006071400073200,5.6740732421875,6.159125328063965,6.738188743591309,5.662614822387695
1707006071419031800,5.69303173828125,6.005984783172607,6.897311210632324,5.517848968505859
1707006071437990400,5.711990478515625,5.948556900024414,7.445267677307129,5.407779216766357
1707006071456948700,5.73094873046875,5.979663848876953,7.727620601654053,5.394618511199951
1707006071475907000,5.749906982421875,6.165107727050781,7.859225749969482,5.430510997772217
1707006071494865700,5.76886572265625,6.893722057342529,7.517052173614502,5.338387489318848
1707006071513824300,5.78782421875,7.434499740600586,6.3529438972473145,4.844269275665283
1707006071532782600,5.806782470703125,7.558926582336426,5.247459888458252,4.6061835289001465
1707006071551741200,5.8257412109375,7.438089370727539,5.006981372833252,4.698307037353516
1707006071570699500,5.844699462890625,7.3052873611450195,5.749952793121338,5.064409255981445
1707006071589658000,5.863658203125,7.270591735839844,6.351747512817383,5.328815937042236
1707006071608616400,5.882616455078125,7.18086051940918,5.857629776000977,5.036891460418701
1707006071627575000,5.901574951171875,6.91765022277832,5.450850009918213,4.47697114944458
1707006071646533400,5.920533447265625,6.9068827629089355,5.855237007141113,3.9421753883361816
1707006071665492000,5.939491943359375,6.92482852935791,6.3493547439575195,3.5784661769866943
1707006071684450300,5.9584501953125,7.074379920959473,6.2297139167785645,3.6538400650024414
1707006071703409000,5.977408935546875,6.81595516204834,6.114858150482178,3.8775691986083984
1707006071722367200,5.9963671875,6.613761901855469,6.409175395965576,3.954139471054077
1707006071741325800,6.015325927734375,6.344569206237793,6.184250354766846,3.820141315460205
1707006071760284200,6.0342841796875,6.346961975097656,5.460421085357666,3.4995031356811523
1707006071779242800,6.05324267578125,6.356533527374268,4.792823791503906,3.322434186935425
1707006071798201000,6.072201171875,6.333801746368408,4.494917392730713,3.201596736907959
1707006071817159700,6.09115966796875,6.216553211212158,4.667200565338135,3.019742250442505
1707006071836118000,6.110117919921875,5.946164131164551,4.948357105255127,2.812762975692749
1707006071855076600,6.12907666015625,5.891129493713379,5.26899528503418,2.874976396560669
1707006071874035000,6.148034912109375,5.72123908996582,5.667400360107422,2.878565549850464
1707006071892993500,6.16699365234375,5.474778175354004,6.0741801261901855,2.675175666809082
1707006071911952000,6.185951904296875,5.6099724769592285,6.248856544494629,2.651247501373291
1707006071930910200,6.20491015625,5.643472194671631,5.979663848876953,2.8797619342803955
1707006071949868800,6.223868896484375,5.55733060836792,5.819344520568848,3.1202406883239746
1707006071968827400,6.242827392578125,5.866004943847656,6.276373863220215,3.1920254230499268
1707006071987785700,6.26178564453125,5.996413707733154,6.692724704742432,3.1585259437561035
1707006072006744000,6.280744140625,6.126822471618652,6.973881721496582,2.864208698272705
1707006072025702700,6.29970263671875,5.960521221160889,7.11146879196167,2.5363919734954834
1707006072044661000,6.318660888671875,6.076572895050049,7.2335028648376465,2.3820550441741943
1707006072063619600,6.33761962890625,6.256034851074219,6.976274490356445,2.5184457302093506
1707006072082578000,6.356577880859375,6.476174354553223,6.772884368896484,2.9479575157165527
1707006072101536500,6.37553662109375,6.768098831176758,6.893722057342529,3.2793633937835693
1707006072120494800,6.394494873046875,6.605386734008789,7.082755088806152,3.3643085956573486
1707006072139453400,6.413453369140625,6.2297139167785645,7.420143127441406,3.3571300506591797
1707006072158411800,6.432411865234375,5.699703693389893,7.590033531188965,3.3236305713653564
1707006072177370000,6.4513701171875,5.416153907775879,7.660621643066406,3.2626137733459473
1707006072196328700,6.47032861328125,5.313262462615967,7.502695560455322,2.8450660705566406
1707006072215287300,6.489287353515625,5.326423168182373,7.122236728668213,2.2025933265686035
1707006072234245600,6.50824560546875,5.179264545440674,7.091129779815674,1.8580267429351807
1707006072253204000,6.527203857421875,5.004588603973389,7.41416072845459,1.8628123998641968
1707006072272162600,6.54616259765625,4.901697158813477,7.366304397583008,2.0829520225524902
1707006072291121000,6.565120849609375,5.038087844848633,7.217949390411377,2.2468605041503906
1707006072310079500,6.58407958984375,5.008177757263184,7.211967468261719,2.228914260864258
1707006072329037800,6.603037841796875,4.972285270690918,7.299305438995361,1.9884356260299683
1707006072347996200,6.62199609375,4.89691162109375,7.428517818450928,1.719243049621582
1707006072366954800,6.640954833984375,4.957928657531738,7.550551891326904,1.643869161605835
1707006072385913000,6.6599130859375,5.146961688995361,7.753942012786865,1.9166508913040161
1707006072404871700,6.67887158203125,5.392225742340088,7.659425258636475,2.3461625576019287
1707006072423830000,6.697830078125,5.4173502922058105,7.587640762329102,2.638087034225464
1707006072442788400,6.716788330078125,5.337191104888916,7.356733322143555,2.630908489227295
1707006072461747000,6.735746826171875,5.2115678787231445,7.317251682281494,2.6536402702331543
1707006072480705300,6.754705322265625,5.197210788726807,7.665407180786133,2.7984061241149902
1707006072499664000,6.773663818359375,5.222335338592529,7.774280548095703,2.882154941558838
1707006072518622200,6.792622314453125,5.109872817993164,7.7252278327941895,2.6261229515075684
1707006072537580500,6.81158056640625,4.8813581466674805,8.13798999786377,2.620140790939331
1707006072556539100,6.8305390625,4.7952165603637695,8.556734085083008,2.827120065689087
1707006072575497500,6.84949755859375,4.886143684387207,8.617751121520996,3.2937204837799072
1707006072594455800,6.868455810546875,4.957928657531738,8.85942554473877,3.7842490673065186
1707006072613414400,6.887414306640625,4.934000492095947,8.993423461914062,4.297509670257568
1707006072632372700,6.906372802734375,4.869394302368164,8.757730484008789,4.468596458435059
1707006072651331300,6.925331298828125,4.895715236663818,8.420342445373535,4.615755081176758
1707006072670289700,6.94428955078125,4.9292144775390625,8.085348129272461,4.961517810821533
1707006072689248000,6.963248046875,4.954339504241943,7.8424763679504395,4.97348165512085
1707006072708206600,6.98220654296875,4.686343193054199,7.788637638092041,4.5822553634643555
1707006072727165000,7.0011650390625,4.456632137298584,7.787441253662109,4.058227062225342
1707006072746123300,7.020123291015625,4.275974273681641,7.653443336486816,3.741178274154663
1707006072765081900,7.039081787109375,4.4482574462890625,7.730013370513916,3.473181962966919
1707006072784040200,7.058040283203125,4.363312244415283,7.917850017547607,3.129812002182007
1707006072802998500,7.07699853515625,4.043870449066162,8.09970474243164,2.9515466690063477
1707006072821957000,7.09595703125,3.9326040744781494,8.09850788116455,2.999403238296509
1707006072840915500,7.11491552734375,3.862015724182129,7.898707389831543,3.0927233695983887
1707006072859873800,7.133873779296875,3.9589250087738037,8.112865447998047,2.9874391555786133
1707006072878832400,7.152832275390625,3.926621913909912,8.404789924621582,2.8414769172668457
1707006072897790700,7.171790771484375,3.9900317192077637,8.372486114501953,2.7146573066711426
1707006072916749000,7.1907490234375,4.171886444091797,8.39282512664795,2.4993033409118652
1707006072935707600,7.209707763671875,4.155136585235596,8.516056060791016,2.4287149906158447
1707006072954666000,7.228666015625,4.358526229858398,8.511270523071289,2.4394826889038086
1707006072973624300,7.247624267578125,4.607379913330078,8.484949111938477,2.3844478130340576
1707006072992583000,7.2665830078125,4.808377265930176,8.532805442810059,2.3401806354522705
1707006073011541200,7.285541259765625,4.960321426391602,8.493324279785156,2.39401912689209
1707006073030499600,7.30449951171875,5.292923450469971,8.447860717773438,2.3030917644500732
1707006073049458200,7.323458251953125,5.307280540466309,8.350951194763184,2.4263222217559814
1707006073068416500,7.34241650390625,5.274977684020996,7.920242786407471,2.827120065689087
1707006073087374800,7.361374755859375,5.054837703704834,7.8041911125183105,2.950350284576416
1707006073106333400,7.38033349609375,4.894518852233887,7.975277900695801,2.8175487518310547
1707006073125291800,7.399291748046875,5.474778175354004,8.25523853302002,3.0891339778900146
1707006073144250000,7.41825,4.8813581466674805,7.9860453605651855,3.432504177093506
1707006073163208400,7.43720849609375,4.786841869354248,7.878368377685547,3.6299118995666504
1707006073182167000,7.4561669921875,4.766502857208252,7.808976650238037,3.122633457183838
1707006073201125400,7.47512548828125,4.563112735748291,7.440482139587402,2.775674343109131
1707006073220083700,7.494083740234375,3.6191442012786865,7.152146816253662,2.9934210777282715
1707006073239042300,7.513042236328125,4.327419757843018,7.573283672332764,2.0985054969787598
1707006073258000600,7.532000732421875,4.902893543243408,8.81515884399414,2.5076780319213867
1707006073276959000,7.550958984375,4.146761417388916,8.60459041595459,2.5591237545013428
1707006073295917300,7.569917236328125,4.029513359069824,8.160721778869629,1.8747764825820923
1707006073314876000,7.5888759765625,3.946960926055908,8.366504669189453,1.337587833404541
1707006073333834200,7.607834228515625,4.125226020812988,7.154539585113525,1.0552347898483276
1707006073352792600,7.62679248046875,5.877968788146973,7.9728851318359375,3.482753276824951
1707006073371751000,7.6457509765625,5.330012321472168,8.22293472290039,3.647858142852783
1707006073390709200,7.664709228515625,4.895715236663818,8.432307243347168,4.040280818939209
1707006073409667800,7.683667724609375,5.143372058868408,8.104490280151367,4.095315933227539
1707006073428626200,7.702626220703125,5.330012321472168,7.485945701599121,3.8883368968963623
1707006073447584500,7.72158447265625,5.605186939239502,7.624729156494141,3.562912940979004
1707006073466543000,7.740543212890625,5.038087844848633,8.161917686462402,3.321237802505493
1707006073485501400,7.75950146484375,4.843072891235352,8.189435958862305,3.4205398559570312
1707006073504459800,7.778459716796875,5.034498691558838,7.99083137512207,3.3894333839416504
1707006073523418000,7.797418212890625,5.119443893432617,7.886743545532227,3.3690943717956543
1707006073542376400,7.81637646484375,4.767699241638184,7.92861795425415,2.994617462158203
1707006073561335000,7.8353349609375,4.675575256347656,7.976474285125732,2.4681966304779053
1707006073580293400,7.85429345703125,5.079962253570557,7.689335346221924,2.530410051345825
1707006073599251700,7.873251708984375,5.24626350402832,7.499105930328369,2.2755744457244873
1707006073618210000,7.8922099609375,4.9986066818237305,7.775477409362793,2.0398812294006348
1707006073637168600,7.911168701171875,4.728217601776123,7.995616912841797,1.7395820617675781
1707006073656127000,7.930126953125,4.843072891235352,7.905886173248291,1.353141188621521
1707006073675085300,7.949085205078125,4.817948341369629,7.856832981109619,1.1928220987319946
1707006073694043600,7.968043701171875,4.931607246398926,8.181060791015625,1.373480200767517
1707006073713002000,7.987001953125,4.968696117401123,8.530412673950195,1.8305093050003052
1707006073731960600,8.005960693359375,5.212764263153076,8.334200859069824,1.9226330518722534
1707006073750919000,8.0249189453125,5.92223596572876,8.011170387268066,1.7024933099746704
1707006073769877200,8.043877197265624,6.124429702758789,7.884350776672363,1.5876377820968628
1707006073788835600,8.062835693359375,5.965306758880615,7.652246952056885,1.4105689525604248
1707006073807794200,8.081794189453126,5.733202934265137,7.585247993469238,1.2335001230239868
1707006073826752500,8.10075244140625,5.635097503662109,7.652246952056885,0.9702895879745483
1707006073845710800,8.1197109375,5.56450891494751,7.643871784210205,0.7357929348945618
1707006073864669200,8.138669189453125,5.436492919921875,7.460821151733398,0.6005984544754028
1707006073883627500,8.15762744140625,5.362315654754639,7.53858757019043,0.49651068449020386
1707006073902585900,8.1765859375,5.447260856628418,7.732406139373779,0.6795616149902344
1707006073921544200,8.195544189453125,5.322834014892578,7.825726509094238,0.898504912853241
1707006073940502800,8.214502685546876,5.592026710510254,8.031509399414062,1.0600204467773438
1707006073959461000,8.233461181640624,5.623133182525635,7.642675399780273,1.1653046607971191
1707006073978419500,8.25241943359375,5.737988471984863,7.311269760131836,1.2275179624557495
1707006073997377800,8.271377685546875,5.937789440155029,7.384250640869141,1.3423734903335571
1707006074016336100,8.290336181640624,5.958128452301025,7.4811601638793945,1.588834285736084
1707006074035294500,8.30929443359375,5.937789440155029,7.3160552978515625,1.7790635824203491
1707006074054252800,8.328252685546875,6.125626087188721,6.929614543914795,1.7359927892684937
1707006074073211400,8.34721142578125,6.038288116455078,6.63769006729126,1.7276179790496826
1707006074092169700,8.366169677734375,5.826523303985596,6.738188743591309,1.6941183805465698
1707006074111128000,8.385128173828125,6.043073654174805,6.803991317749023,1.542174220085144
1707006074130086400,8.40408642578125,6.209374904632568,6.307480335235596,1.384247899055481
1707006074149044700,8.423044677734374,6.070590972900391,5.68893575668335,1.2813565731048584
1707006074168003300,8.44200341796875,6.0023956298828125,5.693721294403076,1.2299108505249023
1707006074186961700,8.460961669921875,6.058627128601074,6.1603217124938965,1.3004990816116333
1707006074205920000,8.479919921875,6.008377552032471,5.952146530151367,1.3316057920455933
1707006074224878300,8.49887841796875,5.869594097137451,5.314459323883057,1.1880364418029785
1707006074243836700,8.517836669921875,5.776273727416992,5.066802024841309,1.031306505203247
1707006074262795000,8.536794921875,5.918646812438965,5.161318302154541,0.9128618240356445
1707006074281753300,8.55575341796875,6.157928943634033,5.193621635437012,0.8458628058433533
1707006074300711700,8.574711669921875,6.415157318115234,4.899304389953613,0.7824530005455017
1707006074319670000,8.593669921875,6.50608491897583,4.675575256347656,0.8315058946609497
1707006074338628400,8.61262841796875,6.735795974731445,4.752145767211914,1.00259268283844
1707006074357587000,8.6315869140625,6.838686943054199,5.709274768829346,1.0456634759902954
1707006074376545300,8.650545166015625,6.903293132781982,7.3052873611450195,1.1736794710159302
1707006074395503600,8.669503662109374,7.134200572967529,7.278966426849365,1.3555340766906738
1707006074414462000,8.6884619140625,7.429714202880859,7.196413993835449,1.5601203441619873
1707006074433420300,8.707420166015625,7.77188777923584,8.032705307006836,2.0099709033966064
1707006074452378600,8.726378662109376,8.060222625732422,8.276773452758789,2.5160529613494873
1707006074471337000,8.7453369140625,8.088936805725098,7.814958572387695,2.9599215984344482
1707006074490295300,8.76429541015625,7.887939929962158,8.053044319152832,3.183650493621826
1707006074509253600,8.783253662109376,7.637889862060547,9.352347373962402,3.379862070083618
1707006074528212000,8.8022119140625,7.719245910644531,10.218548774719238,3.6394832134246826
1707006074547170300,8.82117041015625,8.133204460144043,9.481559753417969,3.875176191329956
1707006074566128600,8.840128662109375,8.330612182617188,8.462217330932617,3.589233875274658
1707006074585087200,8.859087158203126,8.200202941894531,8.301898002624512,3.3379876613616943
1707006074604045600,8.878045654296875,8.237292289733887,8.128418922424316,3.5294134616851807
1707006074623004000,8.89700390625,8.312665939331055,7.733603000640869,3.4444682598114014
1707006074641962200,8.915962158203126,7.954938888549805,7.51585578918457,3.040081262588501
1707006074660920600,8.934920654296874,7.479963779449463,7.546962738037109,2.4777679443359375
1707006074679879000,8.95387890625,7.028916358947754,7.440482139587402,2.066202402114868
1707006074698837200,8.972837158203125,6.540780544281006,7.302894592285156,1.6773686408996582
1707006074717795600,8.991795654296874,6.047859191894531,7.355536937713623,1.4273186922073364
1707006074736754000,9.01075390625,5.863611698150635,7.549355506896973,1.3280165195465088
1707006074755712300,9.029712158203125,5.947360515594482,7.456035137176514,1.3244273662567139
1707006074774670600,9.048670654296876,6.141179084777832,6.951149940490723,1.5696916580200195
1707006074793629000,9.06762890625,6.623332977294922,6.463014125823975,1.7431713342666626
1707006074812587300,9.086587158203125,6.579065799713135,6.4701924324035645,1.5696916580200195
1707006074831545600,9.105545654296876,6.787241458892822,6.975078105926514,2.1296122074127197
1707006074850504000,9.12450390625,6.49770975112915,6.921239376068115,2.17627215385437
1707006074869462300,9.143462158203125,7.204789161682129,6.86381196975708,2.2061824798583984
1707006074888420600,9.162420654296875,6.8243303298950195,6.665207386016846,1.5038890838623047
1707006074907379000,9.18137890625,6.736992359161377,7.192824840545654,1.2921242713928223
1707006074926337300,9.200337158203125,6.926024913787842,7.09711217880249,1.4967105388641357
1707006074945295600,9.219295654296875,7.024130821228027,6.605386734008789,2.011167526245117
1707006074964254000,9.23825390625,7.019345283508301,6.735795974731445,1.755135416984558
1707006074983212300,9.25721240234375,7.103094100952148,7.537391185760498,1.5385849475860596
1707006075002170600,9.276170654296875,7.201199531555176,7.575676441192627,1.657029628753662
1707006075021129000,9.29512890625,7.234699249267578,7.121040344238281,2.1343977451324463
1707006075040087300,9.31408740234375,7.024130821228027,6.5288166999816895,2.293520450592041
1707006075059045600,9.333045654296875,7.475177764892578,6.290730953216553,1.7527425289154053
1707006075078004000,9.35200390625,7.3052873611450195,6.183053493499756,1.5864413976669312
1707006075096962600,9.370962646484376,7.322037220001221,6.08614444732666,1.9752750396728516
1707006075115921000,9.3899208984375,7.210771083831787,6.052644729614258,2.155933141708374
1707006075134879200,9.408879150390625,7.432106971740723,6.177071571350098,1.672582983970642
1707006075153837600,9.427837646484376,6.921239376068115,5.994020938873291,1.0432707071304321
1707006075172796000,9.4467958984375,6.853044033050537,5.931807518005371,0.8961120843887329
1707006075191754200,9.465754150390625,7.341179847717285,6.313462734222412,0.7357929348945618
1707006075210712600,9.484712646484375,6.617351055145264,6.758527755737305,0.672383189201355
1707006075229671000,9.5036708984375,6.80159854888916,6.57547664642334,0.745364248752594
1707006075248629200,9.522629150390625,7.037291526794434,6.1088762283325195,0.6005984544754028
1707006075267587600,9.541587646484375,7.506284713745117,5.989234924316406,0.3936193287372589
1707006075286546000,9.5605458984375,7.368697166442871,6.1710896492004395,0.8398807644844055
1707006075305504300,9.579504150390624,7.499105930328369,6.592226505279541,1.2083754539489746
1707006075324462300,9.59846240234375,7.430910587310791,6.607779502868652,1.690529227256775
1707006075343420700,9.617420654296875,7.421339511871338,6.535995006561279,1.8699909448623657
1707006075362379000,9.63637890625,7.506284713745117,6.573083877563477,1.7886348962783813
1707006075381337300,9.65533740234375,7.458428382873535,6.628118515014648,1.633101463317871
1707006075400295700,9.674295654296875,7.3914289474487305,6.634100914001465,1.4775680303573608
1707006075419254000,9.69325390625,7.293323516845703,6.653243541717529,1.153340458869934
1707006075438212400,9.71221240234375,7.296912670135498,6.653243541717529,0.9882357716560364
1707006075457170700,9.731170654296875,7.103094100952148,6.778866767883301,0.8255237936973572
1707006075476129000,9.75012890625,7.277770042419434,6.628118515014648,0.8709874153137207
1707006075495087400,9.76908740234375,7.087540626525879,6.3014984130859375,1.1042876243591309
1707006075514045700,9.788045654296875,7.417750358581543,6.727420806884766,1.140179991722107
1707006075533004000,9.807004150390625,7.080362319946289,6.729813575744629,1.0205388069152832
1707006075551962400,9.82596240234375,6.946363925933838,6.2775702476501465,0.7214360237121582
1707006075570920700,9.844920654296875,7.142575740814209,6.059823513031006,0.42711883783340454
1707006075589879000,9.863879150390625,6.936792850494385,6.472585201263428,0.5383850932121277
1707006075608837400,9.88283740234375,6.900900363922119,6.705885410308838,0.7692924737930298
1707006075627795700,9.901795654296874,7.080362319946289,6.865008354187012,1.1353943347930908
1707006075646754000,9.920754150390625,6.873383045196533,6.531209468841553,1.5744773149490356
1707006075665712400,9.93971240234375,6.866204738616943,6.376872539520264,1.592423439025879
1707006075684670700,9.958670654296874,7.566105365753174,6.501298904418945,1.7850457429885864
1707006075703628800,9.97762890625,7.513463020324707,6.332605361938477,1.8975083827972412
1707006075722587100,9.996587158203125,7.765905857086182,6.452246189117432,1.6342978477478027
1707006075741545500,10.01554541015625,7.435696601867676,6.857829570770264,1.683350682258606
1707006075760503800,10.03450390625,6.777669906616211,6.885347366333008,1.5038890838623047
1707006075779462100,10.053462158203125,7.311269760131836,7.188039302825928,2.1571295261383057
1707006075798420500,10.07242041015625,6.856633186340332,7.278966426849365,1.8376877307891846
1707006075817378800,10.09137890625,6.904489517211914,6.984649181365967,1.5050854682922363
1707006075836337200,10.110337158203125,10.140782356262207,6.674778938293457,1.8711873292922974
1707006075855295500,10.12929541015625,7.296912670135498,7.357929706573486,1.1030912399291992
1707006075874253800,10.14825390625,7.296912670135498,7.501499176025391,1.2490534782409668
1707006075893212200,10.167212158203125,6.574280261993408,6.623332977294922,1.124626636505127
1707006075912170200,10.186170166015625,6.9475603103637695,6.321837425231934,0.6879364848136902
1707006075931128600,10.205128662109376,6.248856544494629,6.461817741394043,0.07776673883199692
1707006075950087000,10.2240869140625,6.501298904418945,6.295516490936279,-0.9810572862625122
1707006075969045200,10.243045166015625,6.695117950439453,6.221338748931885,-1.5876377820968628
1707006075988003600,10.262003662109375,6.625725746154785,6.427121639251709,-1.2562319040298462
1707006076006962000,10.2809619140625,6.711867332458496,6.960721015930176,-0.7740781307220459
1707006076025920300,10.299920166015625,6.544369697570801,7.10429048538208,0.27756741642951965
1707006076044878600,10.318878662109375,6.9930243492126465,7.196413993835449,0.6424728631973267
1707006076063837000,10.3378369140625,7.345965385437012,7.026523590087891,1.057627558708191
1707006076082795000,10.356794921875,7.441678524017334,6.80877685546875,1.1258230209350586
1707006076101753300,10.37575341796875,7.23589563369751,6.599404811859131,1.4859428405761719
1707006076120711700,10.394711669921875,6.477370738983154,6.465406894683838,1.4476577043533325
1707006076139670000,10.413669921875,7.904689788818359,6.329015731811523,0.017946170642971992
1707006076158628400,10.43262841796875,7.007380962371826,7.225128173828125,-0.18065811693668365
1707006076177586700,10.451586669921875,6.380461692810059,8.049455642700195,-0.6197410821914673
1707006076196545000,10.470544921875,5.665007591247559,7.782655715942383,-0.5204389095306396
1707006076215503000,10.489503173828124,6.309873104095459,6.7657060623168945,-0.2476571500301361
1707006076234461400,10.50846142578125,7.320840835571289,7.758727550506592,1.566102385520935
1707006076253419800,10.527419677734375,6.433103561401367,8.301898002624512,2.190629243850708
1707006076272378000,10.546378173828124,6.507281303405762,7.263412952423096,1.6558332443237305
1707006076291336400,10.56533642578125,7.264609336853027,7.046862602233887,2.6321048736572266
1707006076310294800,10.584294677734375,7.0755767822265625,6.641279220581055,2.3952155113220215
1707006076329253000,10.603253173828126,7.5708909034729,6.6939215660095215,1.789831280708313
1707006076348211500,10.62221142578125,6.472585201263428,6.565905570983887,0.9296116232872009
1707006076367169800,10.641169677734375,6.704689025878906,6.0777692794799805,0.07417750358581543
1707006076386128100,10.660128173828125,7.190432071685791,6.809973239898682,-0.016749758273363113
1707006076405086200,10.679086181640624,6.856633186340332,7.408178806304932,0.20937198400497437
1707006076424044500,10.69804443359375,6.63051176071167,7.402196884155273,0.9260223507881165
1707006076443003000,10.7170029296875,6.959524631500244,7.676175117492676,1.9178473949432373
1707006076461961200,10.735961181640626,7.21316385269165,7.4847493171691895,1.7623138427734375
1707006076480919600,10.75491943359375,7.452445983886719,6.908079147338867,1.5014961957931519
1707006076499878000,10.7738779296875,7.28255558013916,6.959524631500244,1.8664016723632812
1707006076518836000,10.7928359375,4.832305431365967,11.996416091918945,2.5603201389312744
1707006076537794300,10.811794189453124,7.401000499725342,7.7491559982299805,2.0817556381225586
1707006076556752600,10.830752685546875,7.536194801330566,4.790431022644043,-0.058624155819416046
1707006076575711000,10.8497109375,6.68435001373291,6.599404811859131,-0.8626125454902649
1707006076594669300,10.86866943359375,6.1435723304748535,6.465406894683838,-0.7441678643226624
1707006076613627400,10.88762744140625,6.3732829093933105,6.535995006561279,-0.12083754688501358
1707006076632585700,10.906585693359375,7.646264553070068,6.849454879760742,0.914058268070221
1707006076651544000,10.9255439453125,8.13081169128418,6.954739093780518,0.8638089895248413
1707006076670502400,10.94450244140625,8.210970878601074,7.696514129638672,1.275374412536621
1707006076689460700,10.963460693359375,7.88913631439209,7.256234645843506,1.7934205532073975
1707006076708419000,10.982419189453125,7.424928665161133,5.552545070648193,2.012363910675049
1707006076727377400,11.00137744140625,7.805387496948242,5.7164530754089355,1.4835500717163086
1707006076746335700,11.020335693359375,7.609176158905029,5.7750773429870605,0.6963114142417908
1707006076765294000,11.039294189453125,8.11406135559082,4.780859470367432,1.6007983684539795
1707006076784252200,11.058252197265626,7.946564197540283,4.332205295562744,1.4452649354934692
1707006076803210500,11.07721044921875,8.140382766723633,5.389832973480225,0.6915257573127747
1707006076822168800,11.0961689453125,7.121040344238281,6.300302028656006,0.4713860750198364
1707006076841127200,11.115127197265625,6.33499813079834,4.581058979034424,0.4737788736820221
1707006076860085500,11.13408544921875,7.05763053894043,3.988835334777832,0.6293123364448547
1707006076879043800,11.1530439453125,7.841279983520508,3.9218363761901855,0.9212366938591003
1707006076898002000,11.172001953125,7.974081516265869,3.875176191329956,1.0193424224853516
1707006076916960300,11.190960205078126,7.672585964202881,4.342973232269287,1.4488540887832642
1707006076935918600,11.209918701171874,7.366304397583008,6.656832695007324,1.8807586431503296
1707006076954877000,11.228876953125,7.1270222663879395,7.992027759552002,1.1892328262329102
1707006076973835300,11.247835205078125,6.701099872589111,8.13679313659668,1.6091731786727905
1707006076992793600,11.266793701171874,7.371089935302734,8.109275817871094,1.7826528549194336
1707006077011752000,11.285751953125,7.3746795654296875,6.422336101531982,1.9800606966018677
1707006077030710000,11.3047099609375,7.867600917816162,5.480760097503662,2.1272194385528564
1707006077049668400,11.32366845703125,8.033902168273926,5.582455158233643,2.9551360607147217
1707006077068626700,11.342626708984374,7.869993686676025,5.696114540100098,2.9754750728607178
1707006077087585000,11.3615849609375,7.575676441192627,6.457031726837158,2.2755744457244873
1707006077106543400,11.38054345703125,7.479963779449463,6.546762943267822,1.5649060010910034
1707006077125501700,11.399501708984374,8.10807991027832,6.1950178146362305,1.3196417093276978
1707006077144460000,11.4184599609375,7.805387496948242,6.117250919342041,1.451246976852417
1707006077163418000,11.437418212890625,7.079165935516357,6.284748554229736,1.0648061037063599
1707006077182376400,11.45637646484375,6.929614543914795,6.33499813079834,0.22013968229293823
1707006077201334800,11.475334716796874,7.048058986663818,6.398407936096191,-0.46420758962631226
1707006077220293000,11.494293212890625,7.401000499725342,6.251249313354492,-0.2763710021972656
1707006077239251500,11.51325146484375,7.408178806304932,6.297909259796143,0.25722843408584595
1707006077258209800,11.532209716796874,7.664210796356201,6.044270038604736,0.1746760457754135
1707006077277168000,11.551168212890625,7.470392227172852,5.955735683441162,0.36251261830329895
1707006077296126500,11.57012646484375,7.494320392608643,6.278766632080078,0.8506484627723694
1707006077315084800,11.589084716796876,7.60080099105835,5.815755367279053,1.155733346939087
1707006077334043100,11.608043212890625,7.714460372924805,5.447260856628418,1.423729419708252
1707006077353001500,11.62700146484375,7.539783954620361,5.643472194671631,1.3782658576965332
1707006077371959800,11.645959716796876,7.239484786987305,5.68175745010376,0.9702895879745483
1707006077390918100,11.664918212890624,6.9583282470703125,6.571887493133545,0.5383850932121277
1707006077409876200,11.683876220703125,7.217949390411377,6.854240417480469,0.25722843408584595
1707006077428834600,11.70283447265625,7.377072334289551,6.464210510253906,0.05503492057323456
1707006077447793000,11.72179296875,7.4261250495910645,6.477370738983154,0.2512463629245758
1707006077466751200,11.740751220703125,7.744370460510254,6.299105644226074,0.31345975399017334
1707006077485709600,11.75970947265625,7.554141044616699,7.301698207855225,0.9308080077171326
1707006077504668000,11.77866796875,6.926024913787842,7.585247993469238,1.3543375730514526
1707006077523626200,11.797626220703124,7.138986587524414,7.031309127807617,1.046859860420227
1707006077542584600,11.81658447265625,7.489534854888916,6.338587284088135,-0.21296121180057526
1707006077561543000,11.83554296875,7.2059855461120605,6.763313293457031,-0.6963114142417908
1707006077580501200,11.854501220703124,6.69990348815918,7.146164894104004,0.1543370634317398
1707006077599459600,11.87345947265625,6.708278179168701,7.136593341827393,1.648654818534851
1707006077618418000,11.89241796875,7.270591735839844,6.697510719299316,1.7443677186965942
1707006077637376300,11.911376220703126,7.331608772277832,6.569494724273682,1.5014961957931519
1707006077656334600,11.93033447265625,7.261020183563232,6.647261142730713,1.3698909282684326
1707006077675292700,11.949292724609375,7.214360237121582,6.736992359161377,1.3208380937576294
1707006077694251000,11.9682509765625,7.208378314971924,7.028916358947754,1.3722838163375854
1707006077713209300,11.987209228515624,7.293323516845703,7.244270324707031,1.3471591472625732
1707006077732167700,12.006167724609375,7.252645492553711,7.176074981689453,1.397408366203308
1707006077751126000,12.0251259765625,7.183253765106201,6.963113784790039,1.4105689525604248
1707006077770084400,12.04408447265625,7.09711217880249,6.759724140167236,1.444068431854248
1707006077789042700,12.063042724609375,7.152146816253662,6.665207386016846,1.4177473783493042
1707006077808001000,12.0820009765625,7.124629497528076,6.617351055145264,1.2813565731048584
1707006077826959400,12.10095947265625,6.564708709716797,6.318248271942139,1.4524433612823486
1707006077845917700,12.119917724609374,6.500102519989014,5.904289722442627,2.2157537937164307
1707006077864876000,12.1388759765625,6.770491600036621,5.946164131164551,1.4584254026412964
1707006077883834400,12.15783447265625,6.946363925933838,7.311269760131836,1.2945170402526855
1707006077902792700,12.176792724609374,5.746363639831543,7.201199531555176,1.6510475873947144
1707006077921751000,12.1957509765625,7.133004188537598,7.18086051940918,0.2667997181415558
1707006077940709400,12.21470947265625,6.689135551452637,6.902096748352051,0.4307080805301666
1707006077959667700,12.233667724609376,7.434499740600586,6.45822811126709,0.36729827523231506
1707006077978626000,12.2526259765625,6.9583282470703125,6.544369697570801,0.8291130661964417
1707006077997584400,12.27158447265625,6.514459609985352,6.649653911590576,-0.14715859293937683
1707006078016542700,12.290542724609375,6.247660160064697,6.984649181365967,-1.7336000204086304
1707006078035501000,12.3095009765625,5.952146530151367,7.2681989669799805,-0.38644084334373474
1707006078054459400,12.32845947265625,6.7106709480285645,7.3914289474487305,0.9032905697822571
1707006078073417700,12.347417724609375,7.680960655212402,7.148557662963867,1.6474584341049194
1707006078092376000,12.3663759765625,7.763513088226318,6.679564476013184,1.3124631643295288
1707006078111334400,12.38533447265625,7.028916358947754,6.738188743591309,1.7132610082626343
1707006078130292700,12.404292724609375,6.97268533706665,6.701099872589111,0.8446664214134216
1707006078149251000,12.4232509765625,6.915257453918457,6.64486837387085,0.6927221417427063
1707006078168209400,12.44220947265625,7.149754047393799,7.070790767669678,2.6045875549316406
1707006078187167700,12.461167724609375,7.454838752746582,6.893722057342529,2.1583259105682373
1707006078206126000,12.4801259765625,7.136593341827393,7.136593341827393,0.8614161610603333
1707006078225084400,12.49908447265625,6.729813575744629,6.581458568572998,0.6424728631973267
1707006078244042800,12.518042724609375,6.7896342277526855,6.668796539306641,1.604387640953064
1707006078263001000,12.5370009765625,7.4261250495910645,5.949753284454346,1.4859428405761719
1707006078281959400,12.55595947265625,7.536194801330566,6.265605926513672,1.373480200767517
1707006078300917800,12.574917724609374,7.795815944671631,6.6352972984313965,2.9958138465881348
1707006078319876000,12.5938759765625,7.53140926361084,6.530013084411621,2.715853691101074
1707006078338834400,12.61283447265625,7.0061845779418945,6.526423931121826,-0.19621145725250244
1707006078357792800,12.631792724609374,6.124429702758789,8.356932640075684,-0.2069791555404663
1707006078376751000,12.650751220703125,8.71226692199707,6.276373863220215,3.2159535884857178
1707006078395709400,12.66970947265625,8.547162055969238,6.503692150115967,3.1345977783203125
1707006078414667800,12.688667724609376,7.606783390045166,6.5491557121276855,2.076970100402832
1707006078433626000,12.707626220703125,7.434499740600586,6.331408500671387,1.5182459354400635
1707006078452584400,12.72658447265625,7.0995049476623535,7.008577346801758,0.2763710021972656
1707006078471542800,12.745542724609376,6.8482584953308105,6.697510719299316,0.6664010882377625
1707006078490501000,12.764501220703124,6.6939215660095215,6.850651264190674,1.5984054803848267
1707006078509459500,12.78345947265625,6.744170665740967,7.215556621551514,1.124626636505127
1707006078528417800,12.802417724609375,6.437889099121094,7.061219692230225,0.062213387340307236
1707006078547376000,12.821376220703126,6.6484575271606445,5.912664890289307,-0.576670229434967
1707006078566334500,12.84033447265625,6.391229152679443,6.131608009338379,0.49292147159576416
1707006078585292800,12.859292724609375,6.8171515464782715,6.483353137969971,0.607776939868927
1707006078604251100,12.878251220703126,7.29810905456543,6.705885410308838,0.8470591902732849
1707006078623209500,12.89720947265625,7.410571575164795,6.814758777618408,1.5601203441619873
1707006078642167800,12.916167724609375,7.440482139587402,7.2813591957092285,2.7637102603912354
1707006078661126100,12.935126220703125,8.34736156463623,6.955935478210449,3.276970624923706
1707006078680084500,12.95408447265625,8.109275817871094,6.781259536743164,2.6452653408050537
1707006078699042800,12.973042724609375,7.155735969543457,6.674778938293457,1.950150489807129
1707006078718001200,12.992001220703125,6.351747512817383,6.87816858291626,1.155733346939087
1707006078736959500,13.01095947265625,6.473781585693359,6.975078105926514,0.3900300860404968
1707006078755917800,13.029917724609374,6.697510719299316,7.125825881958008,1.0516455173492432
1707006078774876200,13.048876220703125,6.788437843322754,6.73938512802124,1.557727575302124
1707006078793834500,13.06783447265625,6.859025955200195,6.220142364501953,0.7884350419044495
1707006078812792800,13.086792724609374,6.580262184143066,6.612565517425537,-0.5970092415809631
1707006078831751000,13.1057509765625,6.50608491897583,7.0408806800842285,-1.093519926071167
1707006078850709200,13.124709228515625,6.379265308380127,6.798008918762207,-0.3122633695602417
1707006078869667600,13.14366748046875,6.935596466064453,6.701099872589111,-0.5108676552772522
1707006078888626000,13.1626259765625,5.9437713623046875,7.031309127807617,-1.6462619304656982
1707006078907584300,13.181584228515625,6.0610198974609375,7.29810905456543,-1.1581261157989502
1707006078926542600,13.20054248046875,6.251249313354492,6.994220733642578,-0.7573283910751343
1707006078945501000,13.2195009765625,6.788437843322754,6.955935478210449,-0.44745782017707825
1707006078964459300,13.238459228515625,6.422336101531982,7.618747234344482,-1.1198409795761108
1707006078983417600,13.25741748046875,6.662814617156982,7.271788120269775,-0.794417142868042
1707006079002376000,13.2763759765625,6.496513366699219,7.159325122833252,-1.3507484197616577
1707006079021334300,13.295334228515625,6.232106685638428,7.4847493171691895,-1.0863415002822876
1707006079040292600,13.314292724609375,6.784848690032959,7.901100158691406,-0.43908295035362244
1707006079059251000,13.3332509765625,6.976274490356445,7.60080099105835,0.2189432680606842
1707006079078209300,13.352209228515624,7.014559745788574,7.4261250495910645,0.11126625537872314
1707006079097167600,13.371167724609375,6.728617191314697,7.36032247543335,-0.4821537733078003
1707006079116126000,13.3901259765625,6.489335060119629,7.306483745574951,-0.5659025311470032
1707006079135084300,13.409084228515624,6.285944938659668,7.659425258636475,-0.6484549641609192
1707006079154042600,13.428042724609375,6.531209468841553,7.76470947265625,-0.13280165195465088
1707006079173001000,13.4470009765625,6.835097789764404,7.569694519042969,0.1866401731967926
1707006079191959300,13.465959228515626,6.964310169219971,7.488338470458984,-0.2787638306617737
1707006079210917600,13.484917724609375,7.3986077308654785,8.054241180419922,-0.36729827523231506
1707006079229876000,13.5038759765625,7.9860453605651855,8.512466430664062,0.23688943684101105
1707006079248834300,13.522834228515626,8.01356315612793,7.636693477630615,0.22133609652519226
1707006079267792600,13.541792724609374,7.077969551086426,6.654439926147461,1.1018948554992676
1707006079286751000,13.5607509765625,6.835097789764404,6.772884368896484,0.5659025311470032
1707006079305709300,13.579709228515625,7.164111137390137,7.170093059539795,0.14835500717163086
1707006079324667600,13.598667724609374,7.117451190948486,7.133004188537598,0.5515456199645996
1707006079343626000,13.6176259765625,7.568498134613037,7.274180889129639,0.8171489238739014
1707006079362584300,13.636584228515625,7.782655715942383,7.359126091003418,1.2945170402526855
1707006079381542700,13.655542724609376,7.8388872146606445,7.136593341827393,0.714257538318634
1707006079400501000,13.6745009765625,7.813762187957764,6.830312252044678,-0.09092725813388824
1707006079419459000,13.693458984375,6.685546398162842,6.838686943054199,-0.3206382393836975
1707006079438417400,13.71241748046875,5.898307800292969,6.955935478210449,-0.6855437159538269
1707006079457375700,13.731375732421874,6.007181167602539,6.709474563598633,-1.2346965074539185
1707006079476334000,13.750333984375,6.446264266967773,6.483353137969971,-1.6630117893218994
1707006079495292400,13.76929248046875,6.008377552032471,6.056233882904053,-1.0923235416412354
1707006079514250800,13.788250732421876,5.114658355712891,5.887540340423584,-1.8963119983673096
1707006079533209000,13.807208984375,5.003392219543457,6.220142364501953,-1.9070796966552734
1707006079552167400,13.82616748046875,4.968696117401123,5.741578102111816,-1.9764715433120728
1707006079571125800,13.845125732421875,4.54636287689209,5.210371494293213,-2.7349963188171387
1707006079590084000,13.864083984375,4.588237285614014,5.849255084991455,-2.5734808444976807
1707006079609042400,13.88304248046875,5.314459323883057,6.538387775421143,-1.171286702156067
1707006079628000800,13.902000732421875,6.519245147705078,6.893722057342529,0.4701896607875824
1707006079646959000,13.920958984375,7.680960655212402,7.061219692230225,1.0336993932724
1707006079665917200,13.939917236328125,9.090332984924316,6.471388816833496,2.1236300468444824
1707006079684875500,13.95887548828125,9.822537422180176,6.169893264770508,3.087937593460083
1707006079703833900,13.977833740234376,11.383853912353516,7.052844524383545,3.139383316040039
1707006079722792200,13.996792236328124,11.23190975189209,7.428517818450928,3.680161237716675
1707006079741750500,14.01575048828125,9.645467758178711,7.232306480407715,2.5112674236297607
1707006079760708900,14.034708984375,6.854240417480469,6.9475603103637695,-0.20937198400497437
1707006079779667200,14.053667236328126,5.493920803070068,7.3399834632873535,-1.444068431854248
1707006079798625500,14.07262548828125,3.3655049800872803,6.350551128387451,-3.0029923915863037
1707006079817583900,14.091583984375,1.3603196144104004,5.779862880706787,-4.280759811401367
1707006079836542200,14.110542236328126,2.5782663822174072,5.998806476593018,-3.8775691986083984
1707006079855500300,14.129500244140624,3.6191442012786865,5.7786664962768555,-3.4061830043792725
1707006079874458600,14.148458740234375,4.24367094039917,6.227321147918701,-1.7575281858444214
1707006079893417000,14.1674169921875,5.685346603393555,6.1363935470581055,-0.017946170642971992
1707006079912375300,14.186375244140624,6.526423931121826,6.254838466644287,1.399801254272461
1707006079931333600,14.205333740234375,7.178467750549316,6.467799663543701,2.0781664848327637
1707006079950292000,14.2242919921875,8.090133666992188,7.152146816253662,2.9515466690063477
1707006079969250300,14.243250244140626,8.336593627929688,7.70249605178833,3.8572301864624023
1707006079988208600,14.262208740234374,8.986245155334473,7.65583610534668,4.171886444091797
1707006080007167000,14.2811669921875,8.94676399230957,7.366304397583008,3.9433717727661133
1707006080026125300,14.300125244140625,8.062616348266602,7.390232563018799,3.2709884643554688
1707006080045083600,14.319083740234374,7.112665176391602,7.46919584274292,2.3844478130340576
1707006080064042000,14.3380419921875,6.4187469482421875,7.574480056762695,1.428515076637268
1707006080083000000,14.357,5.869594097137451,7.4572319984436035,0.7130611538887024
1707006080101958400,14.37595849609375,5.2977094650268555,7.324429988861084,0.3026920557022095
1707006080120916700,14.394916748046874,4.932804107666016,7.381857872009277,0.18783657252788544
1707006080139875000,14.413875,4.90408992767334,7.51585578918457,0.1052841991186142
1707006080158833400,14.43283349609375,5.040481090545654,7.448856830596924,0.11724831163883209
1707006080177791700,14.451791748046874,5.034498691558838,7.190432071685791,0.5635097622871399
1707006080196749800,14.470749755859375,4.843072891235352,7.274180889129639,1.2406785488128662
1707006080215708200,14.489708251953125,4.749752998352051,7.652246952056885,1.8269200325012207
1707006080234666500,14.50866650390625,4.972285270690918,7.877171993255615,2.26959228515625
1707006080253624800,14.527624755859375,5.154139995574951,7.767102241516113,2.396411895751953
1707006080272583200,14.546583251953125,4.989035129547119,7.69531774520874,2.3617160320281982
1707006080291541500,14.56554150390625,4.8538408279418945,8.062616348266602,2.392822742462158
1707006080310499600,14.58449951171875,5.063212871551514,8.657232284545898,2.8043880462646484
1707006080329458000,14.6034580078125,5.240281581878662,8.551948547363281,2.9036903381347656
1707006080348416300,14.622416259765625,5.085944652557373,8.608179092407227,2.768495798110962
1707006080367374600,14.64137451171875,4.965106964111328,9.058030128479004,2.66560435295105
1707006080386333000,14.6603330078125,5.02851676940918,9.220742225646973,2.526820659637451
1707006080405291300,14.679291259765625,5.062016487121582,9.050851821899414,2.447857618331909
1707006080424249600,14.69824951171875,4.682754039764404,8.95394229888916,2.414358139038086
1707006080443207700,14.717207763671874,4.153940200805664,9.05563735961914,2.4119651317596436
1707006080462166000,14.736166015625,3.7016966342926025,9.154939651489258,2.359323024749756
1707006080481124400,14.755124267578125,3.463610887527466,9.10110092163086,2.204986095428467
1707006080500082700,14.774082763671874,3.28773832321167,8.986245155334473,1.9908283948898315
1707006080519041000,14.793041015625,3.0484559535980225,9.030512809753418,1.8735800981521606
1707006080537999400,14.811999267578125,2.754138946533203,9.128618240356445,1.7419748306274414
1707006080556957400,14.83095751953125,2.554338216781616,9.19561767578125,1.6630117893218994
1707006080575915800,14.849915771484374,2.5423741340637207,9.239884376525879,1.5182459354400635
1707006080594874000,14.8688740234375,2.4610180854797363,9.145368576049805,1.4009976387023926
1707006080613832400,14.88783251953125,2.4047868251800537,9.08554744720459,1.5074782371520996
1707006080632790500,14.90679052734375,2.2540390491485596,9.117850303649902,1.7539390325546265
1707006080651748900,14.925748779296875,2.227717876434326,9.404989242553711,2.001596212387085
1707006080670707200,14.944707275390625,2.3126630783081055,9.760323524475098,2.1882362365722656
1707006080689665500,14.96366552734375,2.4131617546081543,9.812965393066406,2.342573404312134
1707006080708624000,14.982623779296874,2.3605196475982666,9.906285285949707,2.5387847423553467
1707006080727582000,15.00158203125,2.163111686706543,10.189835548400879,2.7182464599609375
1707006080746540300,15.020540283203125,2.090130567550659,10.321440696716309,2.7732813358306885
1707006080765498600,15.03949853515625,2.163111686706543,10.012765884399414,2.6428725719451904
1707006080784457000,15.05845703125,2.163111686706543,9.652647018432617,2.3700907230377197
1707006080803415300,15.077415283203125,1.9537396430969238,9.732806205749512,2.155933141708374
1707006080822373600,15.09637353515625,1.820937991142273,9.952945709228516,2.135594129562378
1707006080841331700,15.115331787109374,1.7838492393493652,9.996016502380371,2.0757737159729004
1707006080860290000,15.1342900390625,1.8987047672271729,9.739984512329102,1.9357935190200806
1707006080879248400,15.153248291015625,1.8939191102981567,9.548559188842773,1.7168502807617188
1707006080898206700,15.172206787109374,1.7240287065505981,9.572486877441406,1.5565310716629028
1707006080917164800,15.191164794921875,1.4009976387023926,9.796216011047363,1.4883357286453247
1707006080936123100,15.210123046875,1.2837493419647217,9.878767967224121,1.5086746215820312
1707006080955081500,15.22908154296875,1.4871392250061035,9.739984512329102,1.412961721420288
1707006080974039800,15.248039794921874,1.5840486288070679,9.604789733886719,1.2969099283218384
1707006080992998000,15.266997802734375,1.6103696823120117,9.620343208312988,1.3399807214736938
1707006081011956200,15.285956298828125,1.6761722564697266,9.519845008850098,1.4620146751403809
1707006081030914600,15.30491455078125,1.7539390325546265,9.360722541809082,1.5493526458740234
1707006081049873000,15.323872802734375,1.7060825824737549,9.390632629394531,1.5625132322311401
1707006081068831200,15.342831298828125,1.6713865995407104,9.549755096435547,1.6426727771759033
1707006081087789300,15.361789306640626,1.7371892929077148,9.542576789855957,1.7024933099746704
1707006081106747600,15.38074755859375,1.9154545068740845,9.410971641540527,1.7336000204086304
1707006081125706000,15.3997060546875,2.049452543258667,9.501898765563965,1.8448662757873535
1707006081144664000,15.4186640625,2.1894326210021973,9.80817985534668,2.0985054969787598
1707006081163622400,15.437622314453124,2.2947168350219727,10.005587577819824,2.376072883605957
1707006081182580700,15.456580810546875,2.4023938179016113,10.095318794250488,2.5124638080596924
1707006081201539000,15.4755390625,2.2995026111602783,10.472187995910645,2.5663022994995117
1707006081220497400,15.494497314453126,2.3784656524658203,11.030912399291992,2.8103702068328857
1707006081239455500,15.51345556640625,2.6799614429473877,11.3718900680542,2.581855535507202
1707006081258413800,15.532413818359375,3.0269205570220947,11.294122695922852,2.2265214920043945
1707006081277372200,15.5513720703125,3.232703447341919,11.304890632629395,1.7156537771224976
1707006081296330200,15.570330322265624,3.239881753921509,11.826525688171387,1.3459627628326416
1707006081315288600,15.58928857421875,2.9970104694366455,12.477374076843262,1.2035897970199585
1707006081334247000,15.608246826171875,2.772084951400757,12.496516227722168,1.1676974296569824
1707006081353205000,15.627205078125,2.8677978515625,11.905488967895508,0.9846464991569519
1707006081372163300,15.646163330078124,3.1764719486236572,11.2247314453125,0.8303094506263733
1707006081391121700,15.66512158203125,3.3475589752197266,10.553544044494629,0.47617170214653015
1707006081410080000,15.684080078125,3.2709884643554688,10.01156997680664,0.13878370821475983
1707006081429038300,15.703038330078124,3.1645078659057617,9.486345291137695,-0.031106693670153618
1707006081447996400,15.721996337890625,3.3655049800872803,8.93838882446289,-0.06340979784727097
1707006081466954800,15.740954833984375,3.7770705223083496,8.525627136230469,-0.19262222945690155
1707006081485913000,15.7599130859375,4.130012035369873,8.4562349319458,-0.14715859293937683
1707006081504871200,15.77887109375,4.193421840667725,8.535198211669922,0.07776673883199692
1707006081523829500,15.79782958984375,4.068994998931885,8.828319549560547,0.4211367964744568
1707006081542787600,15.81678759765625,3.94097900390625,9.192028045654297,0.9332008361816406
1707006081561746000,15.835745849609374,3.992424488067627,9.066405296325684,1.3878371715545654
1707006081580704300,15.854704345703125,4.170690059661865,8.605786323547363,1.5565310716629028
1707006081599662600,15.87366259765625,4.291527271270752,8.315058708190918,1.6666009426116943
1707006081618621000,15.892620849609376,4.240081787109375,8.240880966186523,1.911865234375
1707006081637579000,15.9115791015625,4.025924205780029,8.403593063354492,2.36291241645813
1707006081656537300,15.930537353515625,3.8333017826080322,8.38684368133545,2.746960401535034
1707006081675495400,15.949495361328125,3.724428415298462,8.090133666992188,2.8211379051208496
1707006081694453800,15.968453857421874,3.655036687850952,8.00638484954834,2.8929226398468018
1707006081713412000,15.987412109375,3.6598222255706787,7.929814338684082,3.0065815448760986
1707006081732370400,16.006370361328123,3.531806230545044,7.635497093200684,2.7278177738189697
1707006081751328800,16.025328857421876,3.2793633937835693,7.324429988861084,2.276770830154419
1707006081770286800,16.044286865234376,3.150151014328003,7.259823799133301,2.0614166259765625
1707006081789245200,16.0632451171875,3.1920254230499268,7.141379356384277,1.8867406845092773
1707006081808203300,16.082203369140625,3.2279176712036133,7.05763053894043,1.4871392250061035
1707006081827161600,16.10116162109375,3.294916868209839,7.020541667938232,1.29810631275177
1707006081846120000,16.120119873046875,3.4887354373931885,6.813562393188477,1.1306086778640747
1707006081865078000,16.139078125,3.7878382205963135,6.794419765472412,0.9343972206115723
1707006081884036400,16.158036376953124,3.896711587905884,7.018148899078369,1.0348957777023315
1707006081902994700,16.17699462890625,3.865604877471924,7.1473612785339355,1.2035897970199585
1707006081921953000,16.195953125,3.91705060005188,7.328019142150879,1.2406785488128662
1707006081940911000,16.2149111328125,4.085744857788086,7.554141044616699,1.2705888748168945
1707006081959869400,16.233869384765626,4.23649263381958,7.801798343658447,1.3782658576965332
1707006081978827800,16.252827880859375,4.333401679992676,7.901100158691406,1.537388563156128
1707006081997785900,16.271785888671875,4.1659040451049805,7.761120319366455,1.2394821643829346
1707006082016744200,16.290744140625,4.046263217926025,7.8424763679504395,0.9212366938591003
1707006082035702500,16.30970263671875,4.170690059661865,8.061419486999512,1.0660024881362915
1707006082054660600,16.32866064453125,4.247260093688965,8.179863929748535,1.164108157157898
1707006082073619000,16.347618896484374,4.092923164367676,8.401200294494629,1.1330015659332275
1707006082092577300,16.366577392578126,3.9732820987701416,8.730213165283203,1.482353687286377
1707006082111535600,16.38553564453125,4.198207378387451,8.96112060546875,1.954936146736145
1707006082130494000,16.404493896484375,4.405186653137207,8.901300430297852,2.1607189178466797
1707006082149452000,16.4234521484375,4.34536600112915,8.647661209106445,2.021935224533081
1707006082168410400,16.442410400390624,4.164707660675049,8.282755851745605,1.852044701576233
1707006082187368700,16.46136865234375,4.054637908935547,7.988438606262207,1.7312071323394775
1707006082206326800,16.480326904296874,3.9625144004821777,7.9621171951293945,1.7479569911956787
1707006082225285000,16.49928515625,3.840480327606201,8.248059272766113,1.8556339740753174
1707006082244243500,16.518243408203126,3.6646077632904053,8.83669376373291,1.9645073413848877
1707006082263201500,16.537201416015623,3.627519130706787,9.136993408203125,2.049452543258667
1707006082282159900,16.556159912109376,3.6335012912750244,8.97787094116211,1.92741858959198
1707006082301118200,16.5751181640625,3.8297126293182373,9.163313865661621,1.9680966138839722
1707006082320076500,16.59407666015625,4.115654945373535,9.29611587524414,2.2636101245880127
1707006082339034600,16.61303466796875,4.223331928253174,9.004191398620605,2.2671995162963867
1707006082357993000,16.631992919921874,4.120440483093262,8.82233715057373,2.2396819591522217
1707006082376951300,16.650951416015626,4.175475597381592,8.83669376373291,2.5974090099334717
1707006082395909600,16.66990966796875,4.329812526702881,8.72183895111084,2.9479575157165527
1707006082414867700,16.68886767578125,4.193421840667725,8.175078392028809,2.633301258087158
1707006082433826000,16.707825927734376,3.8368911743164062,8.088936805725098,2.417947292327881
1707006082452784400,16.726784423828125,3.7663028240203857,8.542376518249512,2.7349963188171387
1707006082471742700,16.74574267578125,3.9218363761901855,8.86780071258545,2.9455647468566895
1707006082490701000,16.764701171875,3.700500249862671,8.974281311035156,2.5603201389312744
1707006082509659100,16.7836591796875,3.3272199630737305,9.007781028747559,2.273181438446045
1707006082528617500,16.802617431640623,3.1070802211761475,9.115457534790039,2.1104695796966553
1707006082547575800,16.821575927734376,3.0795626640319824,9.150154113769531,1.8640087842941284
1707006082566534000,16.840533935546876,2.964707374572754,9.175278663635254,1.3950155973434448
1707006082585492200,16.8594921875,2.685943365097046,9.383454322814941,0.9786644577980042
1707006082604450600,16.878450439453125,2.417947292327881,9.509077072143555,0.8123632669448853
1707006082623409000,16.897408935546874,2.4263222217559814,9.445667266845703,0.8530412912368774
1707006082642367000,16.916366943359375,2.583052158355713,9.198010444641113,0.8446664214134216
1707006082661325300,16.9353251953125,2.6739792823791504,9.151350021362305,0.8291130661964417
1707006082680283600,16.95428369140625,2.772084951400757,9.360722541809082,1.2634103298187256
1707006082699242000,16.973241943359376,2.932404041290283,9.329615592956543,1.8580267429351807
1707006082718200300,16.992200439453125,3.1716864109039307,9.158528327941895,2.3844478130340576
1707006082737158700,17.01115869140625,3.2793633937835693,9.233902931213379,2.8666014671325684
1707006082756116700,17.03011669921875,3.208775281906128,9.4660062789917,3.1860432624816895
1707006082775075000,17.049074951171875,3.0065815448760986,9.550951957702637,3.159722328186035
1707006082794033400,17.068033447265623,2.86061954498291,9.41336441040039,2.9108686447143555
1707006082812991700,17.08699169921875,2.7326035499572754,9.278169631958008,2.5806591510772705
1707006082831949800,17.10594970703125,2.6775684356689453,9.353543281555176,2.210968017578125
1707006082850908200,17.124908203125,2.7218358516693115,9.170493125915527,1.6019947528839111
1707006082869866500,17.143866455078125,2.5902304649353027,8.95394229888916,0.914058268070221
1707006082888824800,17.162824951171874,2.273181438446045,9.059226989746094,0.6424728631973267
1707006082907783200,17.181783203125,1.954936146736145,9.385847091674805,0.7525427341461182
1707006082926741200,17.2007412109375,1.8532410860061646,9.674181938171387,0.9678967595100403
1707006082945699600,17.219699462890624,1.8939191102981567,9.747162818908691,1.1856436729431152
1707006082964658000,17.238657958984376,2.0063817501068115,9.717252731323242,1.3962119817733765
1707006082983616300,17.2576162109375,2.1403799057006836,9.629914283752441,1.5206388235092163
1707006083002574600,17.27657470703125,2.252842426300049,9.373882293701172,1.5182459354400635
1707006083021533000,17.295532958984374,2.2396819591522217,9.21834945678711,1.5122638940811157
1707006083040491300,17.3144912109375,2.304288148880005,9.152546882629395,1.8376877307891846
1707006083059449300,17.333449462890623,2.5399811267852783,9.139386177062988,2.139183521270752
1707006083078407700,17.35240771484375,2.7122645378112793,9.164510726928711,2.2169501781463623
1707006083097366000,17.371365966796876,2.633301258087158,9.147761344909668,2.0099709033966064
1707006083116324400,17.390324462890625,2.5746772289276123,9.156135559082031,1.765903115272522
1707006083135282700,17.40928271484375,2.7361927032470703,9.104690551757812,1.6235301494598389
1707006083154240800,17.42824072265625,2.895315408706665,9.049654960632324,1.5038890838623047
1707006083173199000,17.44719921875,2.96111798286438,9.213563919067383,1.5493526458740234
1707006083192157400,17.466157470703124,3.0209386348724365,9.375079154968262,1.7359927892684937
1707006083211115800,17.48511572265625,2.985046148300171,9.30449104309082,1.6630117893218994
1707006083230074000,17.50407421875,2.847458839416504,9.091529846191406,1.5302101373672485
1707006083249032400,17.523032470703125,2.6871397495269775,9.06999397277832,1.6965112686157227
1707006083267990500,17.541990478515626,2.6811578273773193,9.160921096801758,2.059023857116699
1707006083286948900,17.560948974609374,2.678765058517456,9.156135559082031,2.1583259105682373
1707006083305907200,17.5799072265625,2.4119651317596436,9.196813583374023,2.0027925968170166
1707006083324865500,17.598865478515624,2.0721843242645264,9.432506561279297,2.045863389968872
1707006083343824000,17.617823974609376,1.9812572002410889,9.835697174072266,2.2791635990142822
1707006083362782200,17.6367822265625,2.1260228157043457,10.079765319824219,2.5292134284973145
1707006083381740300,17.655740234375,2.2791635990142822,10.02592658996582,2.5567309856414795
1707006083400698600,17.67469873046875,2.510071039199829,9.836894035339355,2.386840581893921
1707006083419657000,17.693656982421874,2.744567632675171,9.866804122924805,2.0757737159729004
1707006083438615300,17.712615234375,2.946761131286621,9.9469633102417,1.8963119983673096
1707006083457573600,17.73157373046875,3.1034910678863525,9.80937671661377,1.7754744291305542
1707006083476532000,17.750531982421876,3.218346357345581,9.719645500183105,1.7276179790496826
1707006083495490300,17.769490234375,3.418147087097168,9.732806205749512,1.6689938306808472
1707006083514448600,17.78844873046875,3.487539052963257,9.883553504943848,1.557727575302124
1707006083533406700,17.80740673828125,3.5222349166870117,9.931410789489746,1.2586246728897095
1707006083552365000,17.826364990234374,3.5018959045410156,10.016355514526367,0.9595218896865845
1707006083571323400,17.845323486328127,3.6370904445648193,10.1814603805542,0.9858429431915283
1707006083590281700,17.86428173828125,3.6993038654327393,10.651650428771973,1.098305583000183
1707006083609240000,17.883239990234376,3.830909013748169,11.319247245788574,1.3878371715545654
1707006083628198400,17.902198486328125,3.85483717918396,11.892328262329102,1.537388563156128
1707006083647156500,17.921156494140625,3.9672999382019043,12.21655559539795,1.456032633781433
1707006083666114800,17.94011474609375,4.100101470947266,11.94736385345459,0.9595218896865845
1707006083685073200,17.9590732421875,4.132404804229736,11.09073257446289,0.3924229145050049
1707006083704031500,17.978031494140627,4.191029071807861,10.060623168945312,-0.009571290574967861
1707006083722989800,17.99698974609375,4.121636867523193,9.266205787658691,-0.5108676552772522
1707006083741948200,18.0159482421875,3.9194436073303223,8.754141807556152,-1.046859860420227
1707006083760906200,18.03490625,3.5461630821228027,8.39282512664795,-1.29810631275177
1707006083779864600,18.053864501953125,3.1800613403320312,8.322237014770508,-1.2047861814498901
1707006083798823000,18.072822998046874,2.991028308868408,8.486145973205566,-1.2454642057418823
1707006083817781200,18.09178125,2.7900311946868896,8.606983184814453,-1.5541383028030396
1707006083836739600,18.110739501953127,2.579462766647339,8.701499938964844,-1.7754744291305542
1707006083855698000,18.129697998046876,2.4993033409118652,8.746963500976562,-1.8628123998641968
1707006083874656300,18.14865625,2.7050859928131104,8.756534576416016,-1.8400806188583374
1707006083893614600,18.167614501953125,3.019742250442505,8.657232284545898,-1.5026925802230835
1707006083912572700,18.18657275390625,3.407379388809204,8.429914474487305,-0.9667003750801086
1707006083931531000,18.205531005859374,3.830909013748169,8.201399803161621,-0.2919243574142456
1707006083950489300,18.2244892578125,4.187439441680908,8.044670104980469,0.31106695532798767
1707006083969447700,18.24344775390625,4.370490550994873,7.765905857086182,0.8997012972831726
1707006083988406000,18.262406005859376,4.418346881866455,7.402196884155273,1.4620146751403809
1707006084007364400,18.2813642578125,4.503292083740234,7.5565338134765625,1.7934205532073975
1707006084026322400,18.300322509765625,4.569094657897949,8.124829292297363,1.7982062101364136
1707006084045280800,18.31928076171875,4.4961137771606445,8.349754333496094,1.6618152856826782
1707006084064239000,18.338239013671874,4.5714874267578125,7.975277900695801,1.794616937637329
1707006084083197400,18.357197509765626,4.743771076202393,7.513463020324707,1.9094724655151367
1707006084102155800,18.37615576171875,4.549952030181885,7.439285755157471,1.7778671979904175
1707006084121113900,18.39511376953125,4.247260093688965,7.70249605178833,1.7359927892684937
1707006084140072200,18.414072265625,4.359723091125488,7.779066562652588,1.8831514120101929
1707006084159030500,18.433030517578125,4.713860511779785,7.4225358963012695,2.121237277984619
1707006084177988900,18.45198876953125,4.780859470367432,6.9822564125061035,2.33180570602417
1707006084196947200,18.470947265625,4.60857629776001,7.514659404754639,2.667997360229492
1707006084215905500,18.489905517578126,5.078765869140625,8.329415321350098,3.3511481285095215
1707006084234863900,18.50886376953125,5.907878875732422,8.088936805725098,4.338187217712402
1707006084253822000,18.527822021484376,6.496513366699219,7.403393268585205,5.745167255401611
1707006084272780300,18.5467802734375,6.509674072265625,7.2095746994018555,7.018148899078369
1707006084291738600,18.565738525390625,6.324230194091797,7.328019142150879,7.038487911224365
1707006084310697000,18.584697021484374,6.230910301208496,6.5527448654174805,7.21316385269165
1707006084329655300,18.6036552734375,6.471388816833496,5.801398277282715,7.341179847717285
1707006084348613400,18.62261328125,6.6149582862854,5.876772403717041,6.772884368896484
1707006084367571700,18.64157177734375,6.059823513031006,6.239284992218018,6.184250354766846
1707006084386530000,18.660530029296876,5.328815937042236,5.62672233581543,6.102894306182861
1707006084405488400,18.67948828125,5.139782905578613,4.831109046936035,6.123233318328857
1707006084424446700,18.69844677734375,5.407779216766357,4.815555572509766,6.010770320892334
1707006084443404800,18.71740478515625,5.687739372253418,5.088337421417236,5.907878875732422
1707006084462363100,18.736363037109374,5.68175745010376,4.865804672241211,5.863611698150635
1707006084481321500,18.755321533203126,5.605186939239502,4.366901397705078,5.4520463943481445
1707006084500279800,18.77427978515625,5.661418437957764,4.187439441680908,5.278566837310791
1707006084519238100,18.793238037109376,6.01675271987915,3.9278182983398438,5.706881999969482
1707006084538196200,18.8121962890625,6.193821430206299,3.476771354675293,6.0466628074646
1707006084557154600,18.831154541015625,6.041877269744873,3.2207393646240234,6.009573936462402
1707006084576113000,18.85011279296875,5.511867046356201,3.4432718753814697,5.592026710510254
1707006084595071200,18.8690712890625,5.472385406494141,3.7974095344543457,5.996413707733154
1707006084614029600,18.888029541015626,5.55733060836792,3.1561331748962402,6.311069488525391
1707006084632988000,18.90698779296875,5.583651542663574,2.586641311645508,6.215356826782227
1707006084651946000,18.925946044921876,5.4867424964904785,2.7804598808288574,6.16391134262085
1707006084670904300,18.944904296875,5.391029357910156,3.25663161277771,6.318248271942139
1707006084689862700,18.963862548828125,5.218746185302734,3.1106693744659424,6.672386169433594
1707006084708821000,18.982821044921874,5.257031440734863,2.5088746547698975,7.216753005981445
1707006084727779000,19.001779052734374,5.259424209594727,1.8089739084243774,7.703692436218262
1707006084746737400,19.0207373046875,5.131408214569092,1.6414763927459717,7.9250288009643555
1707006084765695700,19.03969580078125,5.198407173156738,2.1750757694244385,7.957331657409668
1707006084784654000,19.058654052734376,5.178068161010742,2.416750907897949,7.539783954620361
1707006084803612200,19.077612060546876,4.549952030181885,2.447857618331909,7.063612461090088
1707006084822570500,19.096570556640625,3.9672999382019043,2.8462624549865723,7.226324558258057
1707006084841528800,19.11552880859375,3.9589250087738037,2.9347970485687256,6.794419765472412
1707006084860487200,19.134487060546874,4.278367042541504,2.6081767082214355,6.1950178146362305
1707006084879445500,19.153445556640627,4.803591251373291,2.449054002761841,6.63051176071167
1707006084898403800,19.17240380859375,4.588237285614014,2.638087034225464,7.406982421875
1707006084917362000,19.19136181640625,4.454239368438721,3.266202926635742,8.2695951461792
1707006084936320300,19.2103203125,4.593023300170898,3.4241292476654053,9.023334503173828
1707006084955278600,19.229278564453125,4.770092010498047,3.1094729900360107,9.34157943725586
1707006084974236700,19.248236572265625,4.7796630859375,2.778067111968994,9.32602596282959
1707006084993195000,19.267195068359374,4.734199523925781,2.2444677352905273,8.892925262451172
1707006085012153300,19.2861533203125,4.677968502044678,1.8687944412231445,8.403593063354492
1707006085031111700,19.305111572265623,4.5786662101745605,2.0410776138305664,8.23250675201416
1707006085050070000,19.324070068359376,4.722235679626465,2.376072883605957,7.944170951843262
1707006085069028000,19.343028076171876,4.642076015472412,2.4526431560516357,8.195417404174805
1707006085087986400,19.361986328125,4.576273441314697,2.561516523361206,9.078369140625
1707006085106944800,19.38094482421875,4.450650215148926,2.7433712482452393,9.694520950317383
1707006085125903000,19.399903076171874,4.423132419586182,2.819941520690918,9.693324089050293
1707006085144861200,19.418861083984375,4.213760852813721,2.372483730316162,8.963513374328613
1707006085163819500,19.437819580078123,3.276970624923706,2.341377019882202,7.975277900695801
1707006085182777900,19.45677783203125,2.8630123138427734,3.1752755641937256,6.985845565795898
1707006085201736000,19.47573583984375,3.538984775543213,4.060619831085205,6.4905314445495605
1707006085220694300,19.4946943359375,4.068994998931885,3.111865758895874,7.0959153175354
1707006085239652600,19.513652587890626,3.7663028240203857,1.7336000204086304,9.554540634155273
1707006085258611000,19.53261083984375,3.462414264678955,1.6558332443237305,11.917452812194824
1707006085277569300,19.5515693359375,4.6169514656066895,1.6845471858978271,12.245269775390625
1707006085296527400,19.57052734375,5.31685209274292,1.306481122970581,10.228120803833008
1707006085315485700,19.589485595703124,4.584648132324219,1.612762451171875,8.656036376953125
1707006085334444000,19.608444091796876,4.082155227661133,2.200200319290161,8.71346378326416
1707006085353402000,19.627402099609377,4.048655986785889,2.3617160320281982,8.861818313598633
1707006085372360400,19.6463603515625,3.3918261528015137,2.366501569747925,8.225327491760254
1707006085391318800,19.66531884765625,3.157329559326172,3.3176486492156982,7.761120319366455
1707006085410276900,19.68427685546875,3.1680972576141357,3.90987229347229,7.611568927764893
1707006085429235200,19.703235107421875,3.2817561626434326,3.5306098461151123,8.065009117126465
1707006085448193500,19.722193603515624,3.0484559535980225,3.1657042503356934,9.317651748657227
1707006085467152000,19.74115185546875,2.7074787616729736,3.6598222255706787,9.742377281188965
1707006085486110000,19.76010986328125,2.695514678955078,4.449453830718994,9.023334503173828
1707006085505068300,19.779068359375,2.7517459392547607,4.4997029304504395,7.750352382659912
1707006085524026600,19.798026611328126,2.5435705184936523,3.867997884750366,7.201199531555176
1707006085542984700,19.816984619140626,2.3916261196136475,3.466003656387329,7.823333740234375
1707006085561943000,19.835943115234375,2.26959228515625,3.6837503910064697,8.62014389038086
1707006085580901400,19.8549013671875,2.2504496574401855,3.9146578311920166,9.354740142822266
1707006085599859500,19.873859375,2.445464849472046,3.8775691986083984,9.026923179626465
1707006085618817800,19.89281787109375,2.6009981632232666,3.830909013748169,8.553144454956055
1707006085637776100,19.911776123046874,2.4813570976257324,3.9912281036376953,8.908478736877441
1707006085656734500,19.930734375,2.334198474884033,3.90987229347229,9.540184020996094
1707006085675692500,19.949692626953127,2.480160713195801,3.4719855785369873,9.4121675491333
1707006085694651000,19.96865087890625,2.682354211807251,2.8558337688446045,8.86660385131836
1707006085713609200,19.987609130859376,2.803191661834717,2.4131617546081543,8.311469078063965
1707006085732567300,20.0065673828125,2.981456995010376,2.4849462509155273,8.300702095031738
1707006085751525600,20.025525634765625,3.273381471633911,2.6703901290893555,8.895318031311035
1707006085770484000,20.04448388671875,3.355933666229248,3.0113673210144043,9.329615592956543
1707006085789442300,20.0634423828125,3.3678979873657227,3.6131622791290283,9.206384658813477
1707006085808400400,20.082400390625,3.4983067512512207,4.122833251953125,9.306883811950684
1707006085827358700,20.101358642578123,3.686143398284912,4.137190341949463,9.21834945678711
1707006085846317000,20.120317138671876,3.662214994430542,3.8081772327423096,9.107083320617676
1707006085865275100,20.139275146484376,3.4923245906829834,3.6131622791290283,8.664410591125488
1707006085884233500,20.1582333984375,3.080759048461914,3.452843189239502,8.402397155761719
1707006085903191600,20.177191650390625,2.8486554622650146,3.3750762939453125,8.429914474487305
1707006085922150000,20.19614990234375,2.6811578273773193,3.1274192333221436,8.458627700805664
1707006085941108200,20.215108154296875,2.5112674236297607,3.036491870880127,8.34138011932373
1707006085960066600,20.234066650390623,2.4394826889038086,3.3332018852233887,8.353343963623047
1707006085979024600,20.253024658203124,2.3497519493103027,3.9194436073303223,8.400003433227539
1707006085997983000,20.27198291015625,2.4670002460479736,3.9278182983398438,8.539983749389648
1707006086016941000,20.290941162109377,2.5471596717834473,3.920639991760254,8.551948547363281
1707006086035899400,20.3098994140625,2.4670002460479736,4.058227062225342,8.57348346710205
1707006086054857700,20.328857666015626,2.4681966304779053,4.019941806793213,8.670392990112305
1707006086073815800,20.34781591796875,2.480160713195801,3.7639100551605225,8.646464347839355
1707006086092774100,20.366774169921875,2.4681966304779053,3.6131622791290283,8.58185863494873
1707006086111732500,20.385732421875,2.4466612339019775,3.572484254837036,8.612964630126953
1707006086130690600,20.404690673828124,2.4227328300476074,3.438486099243164,8.693124771118164
1707006086149649000,20.42364892578125,2.334198474884033,3.212364435195923,8.609375953674316
1707006086168607200,20.442607177734374,2.4023938179016113,3.098705291748047,8.725427627563477
1707006086187565300,20.4615654296875,2.6273193359375,3.1405797004699707,9.012566566467285
1707006086206523600,20.480523681640626,2.82951283454895,3.291327476501465,8.913264274597168
1707006086225482000,20.49948193359375,2.7696921825408936,3.3056845664978027,8.762516975402832
1707006086244440000,20.518440185546876,2.89172625541687,3.2853455543518066,8.83071231842041
1707006086263398400,20.5373984375,2.8103702068328857,3.0723843574523926,9.06401252746582
1707006086282356500,20.5563564453125,3.005385160446167,2.981456995010376,9.482755661010742
1707006086301314800,20.575314697265625,3.128615617752075,2.964707374572754,9.049654960632324
1707006086320273200,20.594273193359374,3.238685369491577,3.0352954864501953,8.69791030883789
1707006086339231200,20.613231201171875,3.153740167617798,3.0424740314483643,8.839086532592773
1707006086358189600,20.632189453125,3.390629768371582,3.0281169414520264,9.18006420135498
1707006086377148000,20.65114794921875,3.345165967941284,3.053241729736328,9.011369705200195
1707006086396106000,20.67010595703125,3.22552490234375,3.1310083866119385,8.888139724731445
1707006086415064300,20.689064208984377,3.126222848892212,3.2482566833496094,8.952746391296387
1707006086434022400,20.7080224609375,3.10109806060791,3.229114055633545,9.020941734313965
1707006086452980700,20.726980712890626,2.8007988929748535,3.1130621433258057,9.022137641906738
1707006086471939000,20.74593896484375,2.7361927032470703,3.1932218074798584,9.193224906921387
1707006086490897200,20.764897216796875,2.6560330390930176,3.2542388439178467,9.058030128479004
1707006086509855500,20.78385546875,2.63449764251709,3.359523057937622,8.883354187011719
1707006086528813600,20.8028134765625,2.6141586303710938,3.3643085956573486,8.72782039642334
1707006086547772000,20.82177197265625,2.6428725719451904,3.146561861038208,8.758927345275879
1707006086566730200,20.840730224609374,2.610569477081299,2.9659037590026855,8.847461700439453
1707006086585688300,20.859688232421874,2.5184457302093506,2.9180471897125244,8.952746391296387
1707006086604646700,20.878646728515626,2.465803623199463,2.853440999984741,8.97787094116211
1707006086623605000,20.89760498046875,2.4765713214874268,2.5746772289276123,9.049654960632324
1707006086642563000,20.91656298828125,2.4466612339019775,2.289931297302246,9.068798065185547
1707006086661521400,20.935521484375,2.410768747329712,2.449054002761841,9.174081802368164
1707006086680479500,20.9544794921875,2.3952155113220215,3.0376882553100586,9.321240425109863
1707006086699437800,20.973437744140625,2.4909284114837646,3.511467218399048,9.353543281555176
1707006086718396200,20.992396240234374,2.4394826889038086,3.5018959045410156,9.089137077331543
1707006086737354200,21.011354248046874,2.4813570976257324,3.473181962966919,8.781659126281738
1707006086756312600,21.0303125,2.5495524406433105,3.5018959045410156,8.708678245544434
1707006086775270700,21.049270751953124,2.6811578273773193,3.438486099243164,8.827122688293457
1707006086794229000,21.06822900390625,2.774477958679199,3.1453654766082764,8.839086532592773
1707006086813187000,21.08718701171875,2.833101987838745,3.1752755641937256,8.635697364807129
1707006086832145400,21.1061455078125,2.812762975692749,3.5066816806793213,8.469395637512207
1707006086851103700,21.125103759765626,2.678765058517456,3.7698919773101807,8.763712882995605
1707006086870061800,21.144061767578126,2.7457640171051025,3.751945972442627,9.369096755981445
1707006086889020200,21.163020263671875,2.8965117931365967,3.482753276824951,9.645467758178711
1707006086907978500,21.181978515625,2.974278450012207,3.476771354675293,9.577272415161133
1707006086926936600,21.2009365234375,2.8809585571289062,3.249453067779541,9.363115310668945
1707006086945895000,21.21989501953125,2.7553353309631348,2.8283164501190186,9.053244590759277
1707006086964853200,21.238853271484373,2.5974090099334717,2.6979074478149414,8.723034858703613
1707006086983811300,21.257811279296874,2.5052852630615234,3.008974552154541,8.617751121520996
1707006087002769700,21.276769775390626,2.478964328765869,3.2578279972076416,8.761320114135742
1707006087021727700,21.295727783203127,2.472982168197632,3.1166515350341797,8.804390907287598
1707006087040686000,21.31468603515625,2.449054002761841,3.0005996227264404,8.72901725769043
1707006087059644200,21.33364404296875,2.4670002460479736,3.212364435195923,8.916853904724121
1707006087078602500,21.3526025390625,2.4765713214874268,3.401397466659546,9.089137077331543
1707006087097560800,21.371560791015625,2.458625316619873,3.326023578643799,9.144171714782715
1707006087116519000,21.390518798828126,2.4466612339019775,3.071187973022461,8.992227554321289
1707006087135477200,21.409477294921874,2.4526431560516357,3.0101709365844727,9.014959335327148
1707006087154435600,21.428435546875,2.513660192489624,3.1956145763397217,8.885746955871582
1707006087173393700,21.4473935546875,2.5567309856414795,3.242274761199951,8.651249885559082
1707006087192352000,21.46635205078125,2.6045875549316406,3.260220766067505,8.520841598510742
1707006087211310000,21.48531005859375,2.6141586303710938,3.731606960296631,8.739784240722656
1707006087230268400,21.504268310546873,2.720639228820801,4.163511276245117,9.080761909484863
1707006087249226800,21.523226806640626,2.8247270584106445,4.078566074371338,9.306883811950684
1707006087268184800,21.542184814453126,2.8689942359924316,3.404986619949341,9.315258979797363
1707006087287143200,21.56114306640625,2.878565549850464,2.816352367401123,9.268598556518555
1707006087306101500,21.5801015625,2.7900311946868896,2.7254250049591064,9.343972206115723
1707006087325059600,21.5990595703125,2.623729944229126,3.0412776470184326,9.345169067382812
1707006087344018000,21.618017822265625,2.4011974334716797,3.345165967941284,9.169296264648438
1707006087362976300,21.636976318359373,2.282752752304077,3.3511481285095215,9.012566566467285
1707006087381934300,21.655934326171874,2.1272194385528564,3.2518460750579834,8.874979019165039
1707006087400892700,21.674892578125,2.0817556381225586,3.2937204837799072,8.981459617614746
1707006087419851000,21.69385107421875,2.1607189178466797,3.3176486492156982,9.212367057800293
1707006087438809000,21.71280908203125,2.2851455211639404,3.188436269760132,9.285347938537598
1707006087457767400,21.731767333984376,2.2851455211639404,2.9359934329986572,9.150154113769531
1707006087476725500,21.7507255859375,2.234896421432495,2.7146573066711426,9.014959335327148
1707006087495683800,21.769683837890625,2.181057929992676,2.6979074478149414,8.914461135864258
1707006087514642200,21.78864208984375,2.3054845333099365,2.6847469806671143,8.980263710021973
1707006087533600500,21.8076005859375,2.310270309448242,2.6907291412353516,8.854640007019043
1707006087552558600,21.82655859375,2.2612173557281494,2.926422119140625,8.791230201721191
1707006087571517000,21.845516845703123,2.379662036895752,2.9563324451446533,8.83669376373291
1707006087590475300,21.864475341796876,2.496910333633423,2.9240293502807617,8.784051895141602
1707006087609433300,21.883433349609376,2.482553482055664,2.9802606105804443,8.793622970581055
1707006087628391700,21.9023916015625,2.4131617546081543,3.1034910678863525,8.882157325744629
1707006087647350000,21.92135009765625,2.4885356426239014,2.998206853866577,9.024530410766602
1707006087666308400,21.940308349609374,2.486142635345459,2.7637102603912354,8.914461135864258
1707006087685266400,21.959266357421875,2.283949136734009,2.788834810256958,8.762516975402832
1707006087704224800,21.978224853515623,2.097309112548828,3.2374889850616455,9.028120040893555
1707006087723183000,21.99718310546875,2.1260228157043457,3.4540395736694336,9.21834945678711
1707006087742141200,22.01614111328125,2.2133610248565674,3.4372897148132324,9.20279598236084
1707006087761099500,22.035099609375,2.2169501781463623,3.4002010822296143,9.079565048217773
1707006087780057900,22.054057861328126,2.124826431274414,3.7471601963043213,9.025727272033691
1707006087799016000,22.073015869140626,2.282752752304077,3.838087558746338,9.291330337524414
1707006087817974300,22.091974365234375,2.4562325477600098,3.2614171504974365,9.382257461547852
1707006087836932600,22.1109326171875,2.551945447921753,2.691925525665283,9.31047248840332
1707006087855891000,22.129890869140624,2.685943365097046,2.853440999984741,9.489934921264648
1707006087874849000,22.14884912109375,2.9838497638702393,3.280559778213501,9.791430473327637
1707006087893807400,22.167807373046877,3.071187973022461,3.2685956954956055,9.751948356628418
1707006087912765700,22.186765625,2.8486554622650146,2.715853691101074,9.33559799194336
1707006087931723800,22.205723876953126,2.50289249420166,2.1068804264068604,8.902496337890625
1707006087950682000,22.22468212890625,2.2372891902923584,2.1092731952667236,8.96231746673584
1707006087969640400,22.243640380859375,2.2193429470062256,2.386840581893921,9.439684867858887
1707006087988598500,22.2625986328125,2.242074728012085,2.335394859313965,9.601201057434082
1707006088007556900,22.281556884765624,2.146361827850342,2.029113531112671,9.227920532226562
1707006088026515200,22.30051513671875,2.012363910675049,1.750349760055542,8.884550094604492
1707006088045473500,22.3194736328125,2.007578134536743,1.7383856773376465,8.781659126281738
1707006088064431900,22.338431884765626,2.0614166259765625,1.695314884185791,8.707481384277344
1707006088083390000,22.357389892578126,1.9764715433120728,1.6414763927459717,8.46461009979248
1707006088102348300,22.376348388671875,1.7850457429885864,1.557727575302124,8.256434440612793
1707006088121306600,22.395306640625,1.4787644147872925,1.5146567821502686,8.37966537475586
1707006088140264700,22.4142646484375,1.5194423198699951,1.5290136337280273,8.834300994873047
1707006088159223000,22.43322314453125,1.6235301494598389,1.3076776266098022,9.176474571228027
1707006088178181400,22.452181396484374,1.6737794876098633,1.3100703954696655,9.115457534790039
1707006088197139500,22.471139404296874,1.7204394340515137,1.4368900060653687,9.002995491027832
1707006088216097800,22.490097900390627,1.4979069232940674,1.7180466651916504,9.17886734008789
1707006088235056000,22.50905615234375,1.0492527484893799,2.0997018814086914,9.562915802001953
1707006088254014500,22.528014404296876,0.7585247755050659,2.280359983444214,9.840482711791992
1707006088272972800,22.546972900390625,0.6520441770553589,2.043470621109009,9.90987491607666
1707006088291931000,22.565930908203125,0.5395814776420593,1.7934205532073975,9.954142570495605
1707006088310889200,22.58488916015625,0.8039883971214294,1.5469598770141602,10.120443344116211
1707006088329847600,22.60384765625,1.085145115852356,1.3543375730514526,10.248459815979004
1707006088348805600,22.6228056640625,1.2861422300338745,1.171286702156067,10.316655158996582
1707006088367764000,22.641763916015623,1.262213945388794,1.2406785488128662,10.503294944763184
1707006088386722300,22.660722412109376,0.9080761671066284,1.7431713342666626,10.923234939575195
1707006088405680600,22.6796806640625,0.6675975322723389,2.2061824798583984,11.230712890625
1707006088424639000,22.698638916015625,0.6161518096923828,2.2911276817321777,11.213963508605957
1707006088443597000,22.71759716796875,0.7369893789291382,2.0673987865448,10.914860725402832
1707006088462555400,22.736555419921874,0.867398202419281,1.8400806188583374,10.435099601745605
1707006088481513700,22.755513671875,0.747757077217102,1.6654045581817627,9.9409818649292
1707006088500472000,22.77447216796875,0.5754738450050354,1.526620864868164,9.546165466308594
1707006088519430100,22.79343017578125,0.3577269911766052,1.2849457263946533,9.375079154968262
1707006088538388500,22.812388427734376,0.24047867953777313,0.9786644577980042,9.321240425109863
1707006088557346800,22.831346923828125,0.08853443711996078,0.7668996453285217,9.404989242553711
1707006088576305200,22.85030517578125,-0.10648060590028763,0.698704183101654,9.402596473693848
1707006088595263200,22.86926318359375,-0.25363919138908386,0.6161518096923828,9.43489933013916
1707006088614221600,22.8882216796875,-0.349352091550827,0.5862415432929993,9.542576789855957
1707006088633180000,22.907179931640623,-0.4091726839542389,0.5252245664596558,9.845269203186035
1707006088652138200,22.92613818359375,-0.3074777126312256,0.5000999569892883,10.124032974243164
1707006088671096600,22.9450966796875,-0.061016976833343506,0.5850451588630676,10.200602531433105
1707006088690054700,22.9640546875,0.11126625537872314,0.7585247755050659,10.186245918273926
1707006088709013000,22.983012939453126,0.26201409101486206,0.9152546525001526,10.140782356262207
1707006088727971300,23.001971435546874,0.3481557071208954,1.1078768968582153,10.05703353881836
1707006088746929700,23.0209296875,0.37447673082351685,1.1904292106628418,9.906285285949707
1707006088765887700,23.0398876953125,0.4486542344093323,1.144965648651123,9.851250648498535
1707006088784846000,23.05884619140625,0.48574298620224,1.1150553226470947,9.790233612060547
1707006088803804400,23.077804443359376,0.4223332107067108,1.1772687435150146,9.714859962463379
1707006088822762800,23.0967626953125,0.36729827523231506,1.0755738019943237,9.730413436889648
1707006088841720800,23.115720947265626,0.3900300860404968,0.7645068168640137,9.865608215332031
1707006088860679200,23.13467919921875,0.4211367964744568,0.5228317379951477,9.9409818649292
1707006088879637500,23.153637451171875,0.3158525824546814,0.4905286431312561,9.968499183654785
1707006088898595800,23.172595947265624,0.21655045449733734,0.47258245944976807,9.998409271240234
1707006088917554200,23.19155419921875,0.1902294009923935,0.4211367964744568,9.957731246948242
1707006088936512500,23.210512451171876,0.16151553392410278,0.47976094484329224,9.877572059631348
1707006088955470800,23.229470947265625,0.008374879136681557,0.6855437159538269,9.842875480651855
1707006088974429000,23.248428955078126,-0.15912270545959473,0.8291130661964417,9.872786521911621
1707006088993387300,23.26738720703125,-0.16151553392410278,0.8937192559242249,9.863214492797852
1707006089012345600,23.286345703125,-0.137587308883667,0.900897741317749,9.80100154876709
1707006089031304000,23.305303955078124,-0.06939185410737991,0.8745766878128052,9.741181373596191
1707006089050262300,23.32426220703125,0.010767702013254166,0.8662018179893494,9.768698692321777
1707006089069220400,23.343220458984376,-0.02512463741004467,0.8745766878128052,9.824930191040039
1707006089088178700,23.3621787109375,-0.008374879136681557,0.8410771489143372,9.870393753051758
1707006089107137000,23.381136962890626,0.14835500717163086,0.6759724020957947,9.787840843200684
1707006089126095400,23.400095458984374,0.26560330390930176,0.5826523303985596,9.738788604736328
1707006089145053700,23.4190537109375,0.26201409101486206,0.5934200286865234,9.759127616882324
1707006089164011800,23.43801171875,0.22612173855304718,0.5874379873275757,9.820143699645996
1707006089182970000,23.45697021484375,0.1698904037475586,0.5994020700454712,9.865608215332031
1707006089201928400,23.475928466796876,0.09930214285850525,0.6460621356964111,9.90149974822998
1707006089220886800,23.49488671875,0.058624155819416046,0.6664010882377625,9.912267684936523
1707006089239845000,23.51384521484375,0.04307080805301666,0.7010970115661621,9.912267684936523
1707006089258803500,23.532803466796874,0.016749758273363113,0.729810893535614,9.906285285949707
1707006089277761800,23.55176171875,0.0526420995593071,0.7860422134399414,9.866804122924805
1707006089296720000,23.570719970703124,0.04426721855998039,0.8039883971214294,9.832108497619629
1707006089315678200,23.58967822265625,0.035892341285943985,0.7525427341461182,9.82373332977295
1707006089334636500,23.608636474609376,0.04426721855998039,0.623330295085907,9.842875480651855
1707006089353595000,23.627594970703125,0.04187439754605293,0.5886343717575073,9.866804122924805
1707006089372553200,23.64655322265625,0.02392822690308094,0.6125625967979431,9.862018585205078
1707006089391511600,23.665511474609374,0.05623133108019829,0.6221339106559753,9.826126098632812
1707006089410470000,23.684469970703127,0.10648060590028763,0.6221339106559753,9.80219841003418
1707006089429428200,23.70342822265625,0.10408778488636017,0.6221339106559753,9.920642852783203
1707006089448386600,23.722386474609376,0.07058826833963394,0.7441678643226624,10.095318794250488
1707006089467345000,23.741344970703125,0.09690931439399719,0.8685946464538574,10.088140487670898
1707006089486303200,23.76030322265625,0.11724831163883209,0.9451649188995361,10.003194808959961
1707006089505261600,23.779261474609374,0.1339980661869049,1.0001999139785767,9.956535339355469
1707006089524220000,23.798219970703126,0.07896314561367035,1.074377417564392,9.90269660949707
1707006089543178000,23.817177978515623,0.031106693670153618,1.1497513055801392,9.839286804199219
1707006089562136300,23.83613623046875,0.0849452018737793,1.0552347898483276,9.787840843200684
1707006089581094700,23.8550947265625,0.09451649338006973,0.9571290612220764,9.77109146118164
1707006089600053000,23.874052978515625,0.09571290761232376,0.9619147181510925,9.694520950317383
1707006089619011300,23.89301123046875,0.1052841991186142,0.9583254456520081,9.68375301361084
1707006089637969700,23.9119697265625,0.07657032459974289,0.885344386100769,9.724431037902832
1707006089656928000,23.930927978515626,0.06340979784727097,0.8530412912368774,9.787840843200684
1707006089675886300,23.94988623046875,0.06580262631177902,0.9188438653945923,9.851250648498535
1707006089694844700,23.9688447265625,0.08015955984592438,0.9906286001205444,9.828518867492676
1707006089713803000,23.987802978515624,0.11844471842050552,1.0348957777023315,9.797411918640137
1707006089732761300,24.00676123046875,0.17706887423992157,0.9786644577980042,9.759127616882324
1707006089751719700,24.0257197265625,0.1782652884721756,0.973878800868988,9.723235130310059
1707006089770678000,24.044677978515626,0.1986042857170105,0.9726824164390564,9.728020668029785
1707006089789636400,24.06363623046875,0.14356936514377594,0.9403793215751648,9.76391315460205
1707006089808594700,24.0825947265625,0.1256231814622879,0.8626125454902649,9.76391315460205
1707006089827553000,24.101552978515624,0.13639089465141296,0.8027920126914978,9.729216575622559
1707006089846511400,24.120511474609376,0.14356936514377594,0.8015955686569214,9.680164337158203
1707006089865469700,24.1394697265625,0.18424734473228455,0.8267202377319336,9.708877563476562
1707006089884428000,24.158427978515626,0.16869398951530457,0.7657032608985901,9.796216011047363
1707006089903386400,24.177386474609374,0.14476576447486877,0.7178468108177185,9.851250648498535
1707006089922344700,24.1963447265625,0.16151553392410278,0.7010970115661621,9.834501266479492
1707006089941302800,24.215302734375,0.14356936514377594,0.776470959186554,9.875179290771484
1707006089960261000,24.23426123046875,0.16031911969184875,0.8135597109794617,9.900303840637207
1707006089979219500,24.253219482421876,0.12442677468061447,0.8123632669448853,9.92423152923584
1707006089998177800,24.272177734375,0.11485548317432404,0.7776673436164856,9.9409818649292
1707006090017136000,24.29113623046875,0.13519448041915894,0.7896314859390259,9.90269660949707
1707006090036094500,24.310094482421874,0.14715859293937683,0.8003991842269897,9.90269660949707
1707006090055052800,24.329052734375,0.10049854964017868,0.900897741317749,9.938589096069336
1707006090074011100,24.34801123046875,0.08853443711996078,0.9762716293334961,10.031908988952637
1707006090092969500,24.366969482421876,0.2309073805809021,0.8997012972831726,9.969695091247559
1707006090111927800,24.385927734375,0.2667997181415558,0.8327022790908813,9.956535339355469
1707006090130886100,24.40488623046875,0.23210379481315613,0.8458628058433533,9.942177772521973
1707006090149844700,24.4238447265625,0.13878370821475983,0.989432156085968,9.90987491607666
1707006090168803000,24.442802978515626,0.07417750358581543,1.0480563640594482,9.81655502319336
1707006090187761400,24.461761474609375,0.07776673883199692,0.9774680733680725,9.722038269042969
1707006090206719700,24.4807197265625,0.13280165195465088,0.8937192559242249,9.693324089050293
1707006090225678000,24.499677978515624,0.08374879509210587,0.9128618240356445,9.68494987487793
1707006090244636400,24.518636474609377,0.015553346835076809,0.8626125454902649,9.724431037902832
1707006090263594800,24.5375947265625,0.008374879136681557,0.7956135272979736,9.7064847946167
1707006090282553000,24.556552978515626,-0.037088751792907715,0.7417750358581543,9.638289451599121
1707006090301511400,24.575511474609375,-0.0729810893535614,0.7597211599349976,9.586843490600586
1707006090320469800,24.5944697265625,-0.1256231814622879,0.8865407705307007,9.592825889587402
1707006090339428000,24.613427978515624,-0.10408778488636017,0.916451096534729,9.627521514892578
1707006090358386400,24.632386474609376,-0.0849452018737793,0.8638089895248413,9.772287368774414
