time,seconds_elapsed,z,y,x
1707006065787282700,0.06128271484375,0.0015271619195118546,0.030466880649328232,0.036193739622831345
1707006065806241000,0.080240966796875,-0.010079269297420979,0.014278964139521122,0.03130681812763214
1707006065825199400,0.099199462890625,-0.003970621153712273,-0.0012980876490473747,0.02977965772151947
1707006065844157700,0.11815771484375,0.011300998739898205,-0.004657844081521034,0.029474224895238876
1707006065863116000,0.137115966796875,0.011911863461136818,0.0035888305865228176,0.024281874299049377
1707006065882074000,0.15607421875,0.001221729558892548,0.005421424750238657,0.018784092739224434
1707006065901032400,0.175032470703125,-0.001221729558892548,0.003894262947142124,0.009926552884280682
1707006065919990800,0.19399072265625,0.006108647678047419,0.0023671009112149477,0.0102319847792387
1707006065938949000,0.21294921875,0.01282816007733345,-0.008933897130191326,0.008093958720564842
1707006065957907500,0.231907470703125,0.012217295356094837,-0.02023489587008953,0.002290742937475443
1707006065976865800,0.25086572265625,0.010384701192378998,-0.01565340906381607,-0.005039634648710489
1707006065995824000,0.26982421875,0.012522728182375431,-0.02084576152265072,-0.0032070400193333626
1707006066014782500,0.288782470703125,0.0054977829568088055,-0.021456625312566757,-0.009850194677710533
1707006066033740800,0.30774072265625,-0.006108647678047419,-0.01259908638894558,-0.0193185992538929
1707006066052699100,0.32669921875,-0.001832594396546483,0.013057234697043896,-0.012904518283903599
1707006066071657500,0.345657470703125,0.00946840364485979,0.03168861195445061,-0.011988221667706966
1707006066090615800,0.36461572265625,0.013744457624852657,0.04329504072666168,-0.0154243353754282
1707006066109574000,0.383573974609375,0.013744457624852657,0.03932442143559456,-0.028787001967430115
1707006066128532200,0.4025322265625,0.014049889519810677,0.024052800610661507,-0.033368486911058426
1707006066147490600,0.421490478515625,0.01802051067352295,0.008170315995812416,-0.030314164236187935
1707006066166449000,0.440448974609375,0.021380268037319183,-0.01107192412018776,-0.037033677101135254
1707006066185407200,0.4594072265625,0.017104214057326317,-0.023594651371240616,-0.03275762498378754
1707006066204365600,0.478365478515625,0.01893680728971958,-0.03520108386874199,-0.03061959706246853
1707006066223324000,0.497323974609375,0.02626718580722809,-0.026038112118840218,-0.03153589367866516
1707006066242282200,0.5162822265625,0.031154103577136993,-0.016875140368938446,-0.022067490965127945
1707006066261240600,0.535240478515625,0.028099779039621353,-0.011377356946468353,-0.008628465235233307
1707006066280198700,0.55419873046875,0.023823726922273636,-0.010155626572668552,-0.005039634648710489
1707006066299157000,0.573156982421875,0.019853105768561363,-0.014737112447619438,-0.002901607658714056
1707006066318115300,0.592115234375,0.020158538594841957,-0.013820815831422806,0.003512472379952669
1707006066337073700,0.61107373046875,0.016798781231045723,0.008781181648373604,0.015729768201708794
1707006066356032000,0.630031982421875,0.014966187067329884,0.02802342176437378,0.021227551624178886
1707006066374990300,0.648990234375,0.014049889519810677,0.028634287416934967,0.02367101050913334
1707006066393948700,0.66794873046875,0.016187917441129684,0.019471315667033195,0.03130681812763214
1707006066412906800,0.68690673828125,0.015577051788568497,0.025274530053138733,0.027030766010284424
1707006066431865000,0.705864990234375,0.014966187067329884,0.030466880649328232,0.027336198836565018
1707006066450823400,0.724823486328125,0.008857538923621178,0.020387612283229828,0.02764163166284561
1707006066469781800,0.74378173828125,0.0030543238390237093,-0.004046979360282421,0.028863361105322838
1707006066488740000,0.762739990234375,-0.003665188793092966,-0.015042545273900032,0.020922118797898293
1707006066507698400,0.781698486328125,-0.010384701192378998,-0.03061959706246853,0.01908952370285988
1707006066526656800,0.80065673828125,-0.009162971749901772,-0.051389001309871674,0.02367101050913334
1707006066545615000,0.819614990234375,-0.006414080038666725,-0.059024810791015625,0.023365577682852745
1707006066564573400,0.838573486328125,-0.007330377586185932,-0.06268999725580215,0.031001387163996696
1707006066583531800,0.85753173828125,-0.013744457624852657,-0.0758235901594162,0.0383317656815052
1707006066602490000,0.876489990234375,-0.01649334840476513,-0.10239620506763458,0.03955349326133728
1707006066621448400,0.895448486328125,-0.015577051788568497,-0.1265253722667694,0.049021899700164795
1707006066640406500,0.914406494140625,-0.017715077847242355,-0.1472947746515274,0.05940660089254379
1707006066659364900,0.93336474609375,-0.023212861269712448,-0.18455752730369568,0.07040216773748398
1707006066678323200,0.9523232421875,-0.023212861269712448,-0.19677481055259705,0.10674861818552017
1707006066697281500,0.971281494140625,-0.019242240116000175,-0.1625663936138153,0.1363755613565445
1707006066716240000,0.990239990234375,-0.019242240116000175,-0.12011128664016724,0.14981459081172943
1707006066735198200,1.0091982421875,-0.01588248461484909,-0.10972658544778824,0.1617264449596405
1707006066754156500,1.028156494140625,-0.024740023538470268,-0.10453423857688904,0.1821904182434082
1707006066773115000,1.047114990234375,-0.023212861269712448,-0.09781472384929657,0.19410228729248047
1707006066792073000,1.066072998046875,-0.0054977829568088055,-0.0755181610584259,0.21639885008335114
1707006066811031300,1.08503125,0.002443459117785096,-0.031841326504945755,0.2390008419752121
1707006066829989600,1.10398974609375,-0.003665188793092966,-0.005574141163378954,0.2493855506181717
1707006066848948000,1.122947998046875,-0.009773836471140385,-0.03214675933122635,0.24113887548446655
1707006066867906300,1.14190625,-0.012217295356094837,-0.07918334752321243,0.24724751710891724
1707006066886864600,1.16086474609375,-0.003359756199643016,-0.10300707072019577,0.2680169343948364
1707006066905823000,1.179822998046875,0.010384701192378998,-0.12591449916362762,0.2793179154396057
1707006066924781300,1.19878125,0.023212861269712448,-0.1628718227148056,0.2756527364253998
1707006066943739600,1.21773974609375,0.04306596517562866,-0.16653701663017273,0.31261005997657776
1707006066962698000,1.236697998046875,0.05253437161445618,-0.09567669779062271,0.3477347791194916
1707006066981656300,1.25565625,0.053145237267017365,-0.024205517023801804,0.3404043912887573
1707006067000614700,1.27461474609375,0.03940077871084213,0.004810560029000044,0.3150535225868225
1707006067019573000,1.293572998046875,0.02871064469218254,0.0029779658652842045,0.32268932461738586
1707006067038531300,1.31253125,0.03023780696094036,0.016416991129517555,0.3410152494907379
1707006067057489400,1.331489501953125,0.038789913058280945,0.04940368980169296,0.35964664816856384
1707006067076447700,1.35044775390625,0.03543015569448471,0.08758273720741272,0.346513032913208
1707006067095406000,1.369406005859375,0.004276053514331579,0.1346193253993988,0.3355174660682678
1707006067114364400,1.388364501953125,-0.026878049597144127,0.18257221579551697,0.3462076187133789
1707006067133322800,1.40732275390625,-0.024740023538470268,0.19478951394557953,0.35414886474609375
1707006067152281000,1.426281005859375,0.012522728182375431,0.16271910071372986,0.3559814393520355
1707006067171239400,1.445239501953125,0.054672397673130035,0.09949459880590439,0.3584249019622803
1707006067190197800,1.46419775390625,0.07147117704153061,0.04298960790038109,0.3715584874153137
1707006067209156000,1.483156005859375,0.06414080411195755,-0.0009926552884280682,0.3513999581336975
1707006067228114400,1.502114501953125,0.03329212963581085,-0.005574141163378954,0.3269653618335724
1707006067247072800,1.52107275390625,-0.0021380267571657896,0.02741255611181259,0.3113883137702942
1707006067266031000,1.540031005859375,-0.015577051788568497,0.08269581943750381,0.3211621642112732
1707006067284989400,1.558989501953125,-0.010384701192378998,0.14836378395557404,0.33399030566215515
1707006067303947800,1.57794775390625,-0.011606430634856224,0.21555891633033752,0.32757624983787537
1707006067322906000,1.596906005859375,-0.035124726593494415,0.24029892683029175,0.2863428592681885
1707006067341864400,1.615864501953125,-0.060781046748161316,0.24060437083244324,0.27779075503349304
1707006067360822800,1.63482275390625,-0.06627883017063141,0.24060437083244324,0.2994764447212219
1707006067379781000,1.653781005859375,-0.05222893878817558,0.18379394710063934,0.30894485116004944
1707006067398739500,1.672739501953125,-0.03756818547844887,0.09674570709466934,0.31413722038269043
1707006067417697800,1.69169775390625,-0.03451386094093323,0.030466880649328232,0.3098611533641815
1707006067436656000,1.71065625,-0.04245510324835777,-0.008323032408952713,0.3065013885498047
1707006067455614500,1.729614501953125,-0.047952886670827866,-0.00954476185142994,0.29764387011528015
1707006067474572800,1.74857275390625,-0.06200277432799339,-0.0025198173243552446,0.28848087787628174
1707006067493531100,1.76753125,-0.0824667438864708,0.0035888305865228176,0.29306238889694214
1707006067512489500,1.786489501953125,-0.09193515032529831,0.015806125476956367,0.28267768025398254
1707006067531447800,1.80544775390625,-0.09529490768909454,0.0784197673201561,0.27290382981300354
1707006067550406100,1.82440625,-0.13225223124027252,0.17340923845767975,0.28298309445381165
1707006067569364500,1.843364501953125,-0.1905898153781891,0.25068363547325134,0.29825472831726074
1707006067588322800,1.86232275390625,-0.231212317943573,0.2894735336303711,0.29886558651924133
1707006067607281200,1.88128125,-0.2254091054201126,0.27145302295684814,0.28695371747016907
1707006067626239500,1.900239501953125,-0.18295399844646454,0.23083053529262543,0.2704603672027588
1707006067645197800,1.91919775390625,-0.15179990231990814,0.18868085741996765,0.26679518818855286
1707006067664156200,1.93815625,-0.12522727251052856,0.1547778695821762,0.26160284876823425
1707006067683114500,1.957114501953125,-0.08643736690282822,0.1550832986831665,0.23594652116298676
1707006067702072800,1.97607275390625,-0.04978547990322113,0.16699515283107758,0.2240346521139145
1707006067721031400,1.995031494140625,-0.024434590712189674,0.16180281341075897,0.21487168967723846
1707006067739989800,2.01398974609375,-0.03390299528837204,0.12851068377494812,0.1931859850883484
1707006067758948000,2.032947998046875,-0.0720820426940918,0.10193806141614914,0.17883066833019257
1707006067777906400,2.051906494140625,-0.1130099818110466,0.11232276260852814,0.17944152653217316
1707006067796864800,2.07086474609375,-0.11911863088607788,0.13706278800964355,0.18493930995464325
1707006067815823000,2.089822998046875,-0.1185077652335167,0.14194969832897186,0.18585561215877533
1707006067834781400,2.108781494140625,-0.11423171311616898,0.13248129189014435,0.19471314549446106
1707006067853739800,2.12773974609375,-0.10170898586511612,0.13370302319526672,0.20479241013526917
1707006067872698000,2.146697998046875,-0.09560033679008484,0.15661045908927917,0.212733656167984
1707006067891656400,2.165656494140625,-0.09315688163042068,0.16241367161273956,0.21426081657409668
1707006067910614800,2.18461474609375,-0.11453714966773987,0.12820523977279663,0.22953243553638458
1707006067929573000,2.203572998046875,-0.1493564397096634,0.09521854668855667,0.22128576040267944
1707006067948531500,2.222531494140625,-0.18814635276794434,0.07567087560892105,0.22617268562316895
1707006067967489800,2.24148974609375,-0.21197007596492767,0.07567087560892105,0.2231183648109436
1707006067986448400,2.260448486328125,-0.24251331388950348,0.07994692772626877,0.21517711877822876
1707006068005406700,2.27940673828125,-0.277332603931427,0.07536543905735016,0.23472478985786438
1707006068024365000,2.298364990234375,-0.2981020212173462,0.10193806141614914,0.2435823380947113
1707006068043323400,2.317323486328125,-0.3020726442337036,0.1446985900402069,0.2380845546722412
1707006068062281700,2.33628173828125,-0.2874118685722351,0.18409937620162964,0.2380845546722412
1707006068081240000,2.355239990234375,-0.26389357447624207,0.2372446060180664,0.24694208800792694
1707006068100198400,2.374198486328125,-0.2214384824037552,0.29069527983665466,0.25213444232940674
1707006068119157000,2.393156982421875,-0.17165300250053406,0.3447568118572235,0.2283107042312622
1707006068138115300,2.412115234375,-0.12125665694475174,0.3713294267654419,0.18524473905563354
1707006068157073700,2.43107373046875,-0.04978547990322113,0.35300347208976746,0.14492766559123993
1707006068176032000,2.450031982421875,0.01282816007733345,0.3001636862754822,0.10858121514320374
1707006068194990300,2.468990234375,0.043982263654470444,0.20364704728126526,0.08078686892986298
1707006068213948700,2.48794873046875,0.05345066636800766,0.09552398324012756,0.06551524996757507
1707006068232907000,2.506906982421875,0.044898562133312225,0.0011453714687377214,0.060933761298656464
1707006068251865300,2.525865234375,0.04062250629067421,-0.08743002265691757,0.05818486958742142
1707006068270823700,2.54482373046875,0.043371398001909256,-0.18974986672401428,0.06001746281981468
1707006068289782300,2.5637822265625,0.04734202101826668,-0.2926805913448334,0.04932733252644539
1707006068308740600,2.58274072265625,0.03787361457943916,-0.3473529815673828,0.03375028073787689
1707006068327699000,2.601698974609375,0.013439024798572063,-0.3577376902103424,0.0038179049734026194
1707006068346657300,2.6206572265625,-0.011911863461136818,-0.32505643367767334,-0.01259908638894558
1707006068365615600,2.63961572265625,-0.023823726922273636,-0.2926805913448334,-0.024816380813717842
1707006068384574000,2.658573974609375,-0.011606430634856224,-0.2816850244998932,-0.018173227086663246
1707006068403532300,2.6775322265625,0.011911863461136818,-0.25389066338539124,-0.022983787581324577
1707006068422490600,2.69649072265625,0.023212861269712448,-0.2352592945098877,-0.02176205813884735
1707006068441449200,2.71544921875,0.029626941308379173,-0.2545015513896942,-0.03306305781006813
1707006068460407600,2.734407470703125,0.03634645417332649,-0.2908479869365692,-0.019929463043808937
1707006068479366000,2.753365966796875,0.0409279391169548,-0.30886849761009216,-0.0025961752980947495
1707006068498324200,2.77232421875,0.02412915788590908,-0.3107011020183563,0.0007635809597559273
1707006068517282600,2.791282470703125,-0.007330377586185932,-0.30489787459373474,0.002901607658714056
1707006068536241200,2.8102412109375,-0.03481929376721382,-0.3015381395816803,0.012980876490473747
1707006068555199500,2.829199462890625,-0.05742128938436508,-0.28443390130996704,0.03191768378019333
1707006068574157800,2.84815771484375,-0.07147117704153061,-0.2590830326080322,0.06520981341600418
1707006068593116200,2.8671162109375,-0.07849612087011337,-0.23678645491600037,0.09544762223958969
1707006068612074500,2.886074462890625,-0.09132428467273712,-0.2297615110874176,0.09941824525594711
1707006068631032800,2.90503271484375,-0.10598503798246384,-0.2138790339231491,0.11774418503046036
1707006068649991200,2.9239912109375,-0.12186752259731293,-0.20166173577308655,0.14217877388000488
1707006068668949800,2.94294970703125,-0.14263692498207092,-0.18700097501277924,0.19043709337711334
1707006068687908000,2.961908203125,-0.17134757339954376,-0.14912736415863037,0.19410228729248047
1707006068706866400,2.980866455078125,-0.15271618962287903,-0.0962875634431839,0.18005239963531494
1707006068725824800,2.99982470703125,-0.08888082206249237,-0.06238456442952156,0.16050471365451813
1707006068744783000,3.018783203125,-0.05864302068948746,0.050930850207805634,0.13698641955852509
1707006068763741400,3.037741455078125,-0.0616973415017128,0.15661045908927917,0.10674861818552017
1707006068782700000,3.056699951171875,-0.04886918142437935,0.22808164358139038,0.08903354406356812
1707006068801658400,3.075658447265625,-0.01802051067352295,0.26045745611190796,0.06520981341600418
1707006068820616700,3.09461669921875,0.01588248461484909,0.2949713170528412,0.03283398225903511
1707006068839575300,3.1135751953125,0.03817904740571976,0.3410916328430176,0.016035201027989388
1707006068858533600,3.13253369140625,0.053756099194288254,0.3508654534816742,0.010537417605519295
1707006068877492000,3.151491943359375,0.0769689604640007,0.32337653636932373,-0.007406735327094793
1707006068896450300,3.1704501953125,0.10659590363502502,0.31299182772636414,-0.03367391973733902
1707006068915408600,3.18940869140625,0.11545344442129135,0.3194059133529663,-0.043753188103437424
1707006068934367200,3.2083671875,0.12186752259731293,0.3041343092918396,-0.04589121788740158
1707006068953325600,3.22732568359375,0.14630211889743805,0.2583194375038147,-0.0651334598660469
1707006068972284000,3.246283935546875,0.17806708812713623,0.22014039754867554,-0.10086904466152191
1707006068991242500,3.265242431640625,0.19700388610363007,0.2008981555700302,-0.14026983082294464
1707006069010200800,3.284200927734375,0.20127993822097778,0.18715369701385498,-0.1735619604587555
1707006069029159200,3.3031591796875,0.21777328848838806,0.18257221579551697,-0.2349538654088974
1707006069048117500,3.322117431640625,0.2153298407793045,0.18990258872509003,-0.28779366612434387
1707006069067075800,3.341075927734375,0.22357651591300964,0.21922409534454346,-0.3000109791755676
1707006069086034400,3.360034423828125,0.2461785078048706,0.2894735336303711,-0.28382304310798645
1707006069104992800,3.37899267578125,0.27977606654167175,0.3914879560470581,-0.2637408673763275
1707006069123951000,3.397951171875,0.30024003982543945,0.5133554935455322,-0.24320054054260254
1707006069142909700,3.41690966796875,0.3029889166355133,0.6101775765419006,-0.21082471311092377
1707006069161868000,3.435867919921875,0.30482152104377747,0.6422479748725891,-0.17967060208320618
1707006069180826400,3.454826416015625,0.31031930446624756,0.6092612743377686,-0.1628718227148056
1707006069199784700,3.47378466796875,0.31154105067253113,0.5524508357048035,-0.14912736415863037
1707006069218743300,3.492743408203125,0.3185659945011139,0.49594584107398987,-0.12072215229272842
1707006069237701600,3.51170166015625,0.35124725103378296,0.4730384051799774,-0.07612902671098709
1707006069256660200,3.53066015625,0.39278605580329895,0.5041925311088562,-0.05413788929581642
1707006069275618600,3.54961865234375,0.3915643095970154,0.5493965148925781,-0.051389001309871674
1707006069294577000,3.568576904296875,0.37354379892349243,0.5652790069580078,-0.031841326504945755
1707006069313535200,3.58753515625,0.36651885509490967,0.5811614990234375,0.008704823441803455
1707006069332493800,3.606493896484375,0.370184063911438,0.60406893491745,0.03558287397027016
1707006069351452200,3.6254521484375,0.3430005609989166,0.6236165761947632,0.04474584385752678
1707006069370410500,3.644410400390625,0.31581708788871765,0.5729147791862488,0.04718930274248123
1707006069389369000,3.663369140625,0.3026835024356842,0.4779253304004669,0.056657709181308746
1707006069408327400,3.682327392578125,0.2864955961704254,0.39973464608192444,0.07131846249103546
1707006069427285800,3.70128564453125,0.26969680190086365,0.3762163519859314,0.07681624591350555
1707006069446244400,3.720244384765625,0.23945899307727814,0.422947496175766,0.09056070446968079
1707006069465202700,3.73920263671875,0.23487751185894012,0.4843394160270691,0.10461059212684631
1707006069484161000,3.7581611328125,0.2623664140701294,0.585437536239624,0.1262962967157364
1707006069503119600,3.77711962890625,0.2910770773887634,0.7595340013504028,0.15928299725055695
1707006069522078000,3.796077880859375,0.31123560667037964,0.9485966563224792,0.17058399319648743
1707006069541036500,3.81503662109375,0.3347539007663727,1.0722967386245728,0.17486004531383514
1707006069559995000,3.833994873046875,0.3451386094093323,1.1795035600662231,0.1980729103088379
1707006069578953200,3.852953125,0.3396408259868622,1.2955678701400757,0.21059563755989075
1707006069597911800,3.871911865234375,0.34055712819099426,1.3749802112579346,0.21670427918434143
1707006069616870100,3.8908701171875,0.38270679116249084,1.3743693828582764,0.228921577334404
1707006069635828700,3.909828857421875,0.43890634179115295,1.2925134897232056,0.2591593861579895
1707006069654787000,3.928787109375,0.4401280879974365,1.184695839881897,0.2585485279560089
1707006069673745400,3.947745361328125,0.38850998878479004,1.064660906791687,0.2551887631416321
1707006069692704000,3.9667041015625,0.3442223072052002,0.9476803541183472,0.2438877671957016
1707006069711662300,3.985662353515625,0.33567020297050476,0.8386409878730774,0.2487746775150299
1707006069730621000,4.004620849609375,0.3451386094093323,0.7900772094726562,0.2799287736415863
1707006069749579300,4.023579345703125,0.35674503445625305,0.8200095891952515,0.3315468728542328
1707006069768537600,4.04253759765625,0.37659814953804016,0.8939242362976074,0.3718639314174652
1707006069787496200,4.06149609375,0.3607156574726105,0.9864702820777893,0.3627009689807892
1707006069806454800,4.080454833984375,0.3237583339214325,1.0567196607589722,0.35995206236839294
1707006069825413000,4.0994130859375,0.3399462401866913,1.13002347946167,0.40485063195228577
1707006069844371500,4.118371337890625,0.4221075773239136,1.2219586372375488,0.4338667094707489
1707006069863330000,4.137330078125,0.49418962001800537,1.3013710975646973,0.45707955956459045
1707006069882288400,4.156288330078125,0.5106829404830933,1.325500249862671,0.4534143805503845
1707006069901247000,4.1752470703125,0.4938841760158539,1.3227512836456299,0.43692103028297424
1707006069920205300,4.194205322265625,0.49541133642196655,1.3135883808135986,0.3935496211051941
1707006069939164000,4.213163818359375,0.5027416944503784,1.253418207168579,0.33460119366645813
1707006069958122200,4.232122314453125,0.4926624298095703,1.112308382987976,0.29764387011528015
1707006069977080800,4.251080810546875,0.4917461574077606,0.9858593940734863,0.28848087787628174
1707006069996039200,4.2700390625,0.49510589241981506,0.93729567527771,0.2701549530029297
1707006070014997500,4.28899755859375,0.4761691093444824,0.9241620302200317,0.22036947309970856
1707006070033956000,4.3079560546875,0.4303542375564575,0.9113339185714722,0.16050471365451813
1707006070052914700,4.326914794921875,0.39278605580329895,0.8734602928161621,0.11835505068302155
1707006070071873000,4.345873046875,0.39217519760131836,0.8224530816078186,0.09941824525594711
1707006070090831400,4.364831298828125,0.39736753702163696,0.7723621726036072,0.08384118974208832
1707006070109790000,4.3837900390625,0.3842339515686035,0.6984475255012512,0.053603384643793106
1707006070128748500,4.40274853515625,0.3588830530643463,0.5997928380966187,0.01206457894295454
1707006070147707000,4.421706787109375,0.33719736337661743,0.50144362449646,-0.021456625312566757
1707006070166665200,4.440665283203125,0.3277289569377899,0.4434114694595337,-0.017486004158854485
1707006070185623800,4.459623779296875,0.3197877109050751,0.4544070363044739,0.007788525894284248
1707006070204582400,4.47858251953125,0.3020726442337036,0.5124391913414001,0.04657844081521034
1707006070223540700,4.497540771484375,0.2721402645111084,0.583910346031189,0.0792597085237503
1707006070242499300,4.516499267578125,0.24037529528141022,0.6416370868682861,0.10705405473709106
1707006070261457700,4.535457763671875,0.20647229254245758,0.6605738997459412,0.13759729266166687
1707006070280416300,4.554416259765625,0.18417572975158691,0.6459131240844727,0.1663079410791397
1707006070299374600,4.57337451171875,0.16829325258731842,0.6092612743377686,0.17974695563316345
1707006070318333200,4.592333251953125,0.15546508133411407,0.5765799880027771,0.18127411603927612
1707006070337291500,4.61129150390625,0.13469567894935608,0.5710822343826294,0.1971566081047058
1707006070356250000,4.63025,0.12736530601978302,0.5842158198356628,0.1922696828842163
1707006070375208400,4.64920849609375,0.09529490768909454,0.5863538384437561,0.16752967238426208
1707006070394167000,4.6681669921875,0.0412333719432354,0.5622246861457825,0.14737112820148468
1707006070413125600,4.687125732421875,-0.01954767294228077,0.519769549369812,0.1366809904575348
1707006070432084000,4.706083984375,-0.05497783049941063,0.43974629044532776,0.10827577859163284
1707006070451042300,4.725042236328125,-0.0925460159778595,0.3136027157306671,0.0798705667257309
1707006070470001000,4.7440009765625,-0.11117739230394363,0.11812597513198853,0.05085449293255806
1707006070488959500,4.76295947265625,-0.09162971377372742,-0.08468113094568253,-0.00045814859913662076
1707006070507917800,4.781917724609375,-0.08338304609060287,-0.26213735342025757,-0.06330086290836334
1707006070526876400,4.80087646484375,-0.05925388261675835,-0.5180897116661072,-0.16714787483215332
1707006070545834800,4.819834716796875,0.04550942778587341,-0.8171079754829407,-0.297872930765152
1707006070564793300,4.83879345703125,0.15577052533626556,-1.0498474836349487,-0.4154644012451172
1707006070583751700,4.857751708984375,0.28588470816612244,-1.1051307916641235,-0.45364347100257874
1707006070602710300,4.876710205078125,0.43371400237083435,-0.9472221732139587,-0.4612792730331421
1707006070621668900,4.8956689453125,0.5690205693244934,-0.7166207432746887,-0.49273881316185
1707006070640627200,4.914627197265625,0.6514872908592224,-0.5037343502044678,-0.5687914490699768
1707006070659585800,4.933585693359375,0.7189878225326538,-0.30856308341026306,-0.6408734917640686
1707006070678544100,4.952544189453125,0.768467903137207,-0.08651372790336609,-0.6946296095848083
1707006070697502700,4.971502685546875,0.8072578310966492,0.11568251997232437,-0.7673225402832031
1707006070716461000,4.9904609375,0.8316923975944519,0.31848961114883423,-0.8418480157852173
1707006070735419600,5.009419677734375,0.8316923975944519,0.5048033595085144,-0.9007964730262756
1707006070754378200,5.028378173828125,0.8148936033248901,0.6104829907417297,-0.9463059306144714
1707006070773336600,5.047336669921875,0.7938187718391418,0.6300306916236877,-0.988455593585968
1707006070792295000,5.066294921875,0.7971785664558411,0.5536725521087646,-1.034881353378296
1707006070811253500,5.08525341796875,0.8347467184066772,0.40889760851860046,-1.0648136138916016
1707006070830212000,5.104212158203125,0.8756746649742126,0.2775616943836212,-1.0935243368148804
1707006070849170400,5.12317041015625,0.8848376274108887,0.1654679924249649,-1.1048252582550049
1707006070868129000,5.14212890625,0.8860593438148499,0.01030834298580885,-1.0971895456314087
1707006070887087600,5.161087646484375,0.8906408548355103,-0.21174100041389465,-1.096578598022461
1707006070906046000,5.1800458984375,0.9101884961128235,-0.43684467673301697,-1.0495420694351196
1707006070925004300,5.19900439453125,0.9505056142807007,-0.553214430809021,-0.9832631945610046
1707006070943963000,5.217962890625,0.9453132748603821,-0.5944477915763855,-0.9386700987815857
1707006070962921500,5.23692138671875,0.8881973624229431,-0.6341540217399597,-0.9011018872261047
1707006070981879800,5.2558798828125,0.8466585874557495,-0.7233402729034424,-0.8449023365974426
1707006071000838400,5.27483837890625,0.7996219992637634,-0.7199804782867432,-0.7832050323486328
1707006071019796700,5.293796630859375,0.7425061464309692,-0.6613374948501587,-0.7480802536010742
1707006071038755300,5.31275537109375,0.6679806113243103,-0.6491202116012573,-0.7196750640869141
1707006071057713700,5.331713623046875,0.5656607747077942,-0.5675697326660156,-0.6784417033195496
1707006071076672300,5.35067236328125,0.45387253165245056,-0.46830421686172485,-0.672638475894928
1707006071095630800,5.369630859375,0.3402516841888428,-0.40202537178993225,-0.6470585465431213
1707006071114589200,5.388589111328125,-0.006108647678047419,-1.2883901596069336,-0.598723828792572
1707006071133547800,5.4075478515625,-0.3326158821582794,-2.1652865409851074,-0.47777262330055237
1707006071152506000,5.426506103515625,-0.05955931544303894,-1.5525891780853271,-0.4206567704677582
1707006071171464700,5.445464599609375,0.18234314024448395,-1.2517383098602295,-0.48510298132896423
1707006071190423000,5.464423095703125,0.24953825771808624,-0.8326850533485413,-0.5932260751724243
1707006071209381600,5.483381591796875,0.08796452730894089,-0.474718302488327,-0.6231584548950195
1707006071228340200,5.50234033203125,-0.13225223124027252,-0.203799769282341,-0.5975021123886108
1707006071247298600,5.521298583984375,-0.3173442482948303,-0.03611737862229347,-0.7581595778465271
1707006071266257000,5.5402568359375,-0.5842921733856201,0.2796997129917145,-0.6326268315315247
1707006071285215500,5.559215576171875,-0.7901535630226135,0.5814669132232666,-0.617660641670227
1707006071304174000,5.578174072265625,-0.9407317638397217,0.6605738997459412,-0.6656135320663452
1707006071323132400,5.59713232421875,-0.9712749719619751,0.4745655655860901,-0.6833286285400391
1707006071342091000,5.616091064453125,-0.9300416111946106,0.22319471836090088,-0.69096440076828
1707006071361049300,5.63504931640625,-0.8973603844642639,-0.059024810791015625,-0.6970730423927307
1707006071380008000,5.654008056640625,-0.9184352159500122,-0.30978479981422424,-0.6753873825073242
1707006071398966300,5.67296630859375,-0.9740238785743713,-0.45242172479629517,-0.6268236041069031
1707006071417924900,5.6919248046875,-1.0274745225906372,-0.49334967136383057,-0.544051468372345
1707006071436883500,5.710883544921875,-1.0497710704803467,-0.5764272809028625,-0.4771617650985718
1707006071455841800,5.729841796875,-1.0937533378601074,-0.6738601922988892,-0.399887353181839
1707006071474800000,5.748800048828125,-1.145676851272583,-0.729143500328064,-0.3369682729244232
1707006071493758700,5.7677587890625,-1.2241730690002441,-0.6478984355926514,-0.312228262424469
1707006071512717000,5.786717041015625,-1.2651009559631348,-0.5122864842414856,-0.24411684274673462
1707006071531675600,5.805675537109375,-1.1872156858444214,-0.4243219494819641,-0.13507747650146484
1707006071550634200,5.82463427734375,-1.071456789970398,-0.3064250349998474,-0.04558578506112099
1707006071569592600,5.843592529296875,-0.952643632888794,-0.23220497369766235,0.012980876490473747
1707006071588551000,5.862551025390625,-0.7843503952026367,-0.12560907006263733,0.04505127668380737
1707006071607509500,5.881509521484375,-0.5763509273529053,0.16394083201885223,0.08689551800489426
1707006071626468000,5.900468017578125,-0.41263917088508606,0.4311941862106323,0.1305723488330841
1707006071645426400,5.919426513671875,-0.33750277757644653,0.47639816999435425,0.162031888961792
1707006071664384800,5.938384765625,-0.27550002932548523,0.40889760851860046,0.18829907476902008
1707006071683343400,5.95734326171875,-0.18661919236183167,0.390571653842926,0.1980729103088379
1707006071702302000,5.976302001953125,-0.09162971377372742,0.408592164516449,0.24633121490478516
1707006071721260300,5.99526025390625,0.0015271619195118546,0.510606586933136,0.3068068325519562
1707006071740218600,6.014218505859375,0.021685699000954628,0.6639336347579956,0.33276858925819397
1707006071759177200,6.03317724609375,0.009773836471140385,0.7033344507217407,0.3251327872276306
1707006071778135800,6.0521357421875,0.023518294095993042,0.651105523109436,0.35475972294807434
1707006071797094100,6.07109423828125,0.08307760953903198,0.5512291193008423,0.39446592330932617
1707006071816052500,6.090052490234375,0.15638138353824615,0.4904480576515198,0.42623090744018555
1707006071835011000,6.109010986328125,0.22876885533332825,0.4800633490085602,0.4173733592033386
1707006071853969700,6.1279697265625,0.28008151054382324,0.469678670167923,0.37858346104621887
1707006071872928000,6.146927978515625,0.26419901847839355,0.41958773136138916,0.3874409794807434
1707006071891886300,6.16588623046875,0.26450446248054504,0.3447568118572235,0.40515607595443726
1707006071910845000,6.184844970703125,0.27030766010284424,0.3456731140613556,0.36453354358673096
1707006071929803300,6.20380322265625,0.2309068888425827,0.47028952836990356,0.29733842611312866
1707006071948761900,6.222761962890625,0.20280711352825165,0.44066259264945984,0.33276858925819397
1707006071967720200,6.24172021484375,0.20402882993221283,0.3618610203266144,0.3611738085746765
1707006071986678800,6.2606787109375,0.19944734871387482,0.32734715938568115,0.3455967605113983
1707006072005637000,6.27963720703125,0.14782927930355072,0.32765260338783264,0.360868364572525
1707006072024595700,6.298595703125,0.07880155742168427,0.34720027446746826,0.35934120416641235
1707006072043554000,6.317553955078125,0.03329212963581085,0.24549128115177155,0.3104720115661621
1707006072062512600,6.3365126953125,0.05100720748305321,0.09949459880590439,0.21151192486286163
1707006072081471000,6.355470947265625,0.10873392969369888,0.01183550525456667,0.14767655730247498
1707006072100429600,6.3744296875,0.11942406743764877,0.07658717036247253,0.13851359486579895
1707006072119388000,6.393387939453125,0.0769689604640007,0.2570977210998535,0.13209950923919678
1707006072138346200,6.41234619140625,0.029016077518463135,0.4428006112575531,0.16600249707698822
1707006072157304800,6.431304931640625,-0.05253437161445618,0.5493965148925781,0.24083344638347626
1707006072176263200,6.45026318359375,-0.10934479534626007,0.6269763112068176,0.21487168967723846
1707006072195221800,6.4692216796875,-0.11545344442129135,0.65935218334198,0.14492766559123993
1707006072214180000,6.48818017578125,-0.09957095980644226,0.6843976378440857,0.10430516302585602
1707006072233138700,6.507138671875,-0.0873536616563797,0.6275871992111206,0.16416990756988525
1707006072252097000,6.526096923828125,-0.07880155742168427,0.4938078224658966,0.20448698103427887
1707006072271055600,6.5450556640625,-0.07849612087011337,0.37804892659187317,0.21975859999656677
1707006072290014000,6.564013916015625,-0.08582650125026703,0.30566146969795227,0.2393062710762024
1707006072308972300,6.58297216796875,-0.08582650125026703,0.2067013680934906,0.2802342176437378
1707006072327931000,6.601930908203125,-0.0821613147854805,0.0628427118062973,0.3617846667766571
1707006072346889200,6.62088916015625,-0.05039634555578232,-0.10606139898300171,0.41462448239326477
1707006072365847800,6.639847900390625,0.01802051067352295,-0.28473934531211853,0.44119709730148315
1707006072384806100,6.65880615234375,0.10842850059270859,-0.43317949771881104,0.40607234835624695
1707006072403764500,6.677764404296875,0.16737695038318634,-0.4957931339740753,0.425009161233902
1707006072422723000,6.69672314453125,0.15027274191379547,-0.43195775151252747,0.44669488072395325
1707006072441681400,6.715681396484375,0.08796452730894089,-0.3128391206264496,0.48670652508735657
1707006072460640000,6.734639892578125,0.03481929376721382,-0.1986074149608612,0.5465712547302246
1707006072479598300,6.753598388671875,0.040317077189683914,-0.17050762474536896,0.48365217447280884
1707006072498556700,6.772556640625,0.06414080411195755,-0.1369100660085678,0.4344775676727295
1707006072517515300,6.791515380859375,0.0616973415017128,-0.031230462715029716,0.46685341000556946
1707006072536473600,6.8104736328125,0.07452550530433655,-0.012904518283903599,0.5245801210403442
1707006072555432200,6.82943212890625,0.20402882993221283,-0.1576794683933258,0.4198168218135834
1707006072574390500,6.848390625,0.36621344089508057,-0.2795470058917999,0.3966039717197418
1707006072593348900,6.867348876953125,0.46547895669937134,-0.2908479869365692,0.30711227655410767
1707006072612307500,6.886307373046875,0.44990190863609314,-0.2874882221221924,0.23258677124977112
1707006072631265800,6.905265869140625,0.3481929302215576,-0.22640176117420197,0.18585561215877533
1707006072650224400,6.924224365234375,0.2678641974925995,-0.10392337292432785,0.12782345712184906
1707006072669182700,6.9431826171875,0.20708316564559937,0.06986765563488007,0.09972367435693741
1707006072688141000,6.96214111328125,0.1328630894422531,0.3151298761367798,0.09575305134057999
1707006072707099600,6.981099609375,0.07147117704153061,0.5747473835945129,0.09544762223958969
1707006072726058000,7.00005810546875,0.054672397673130035,0.7186060547828674,0.055741410702466965
1707006072745016300,7.019016357421875,0.032681263983249664,0.769002377986908,-0.008323032408952713
1707006072763975000,7.037974853515625,-0.04245510324835777,0.7717512845993042,-0.04192059487104416
1707006072782933200,7.056933349609375,-0.12675444781780243,0.770529568195343,-0.03917170315980911
1707006072801891600,7.0758916015625,-0.16676609218120575,0.7027235627174377,-0.0345902182161808
1707006072820850200,7.09485009765625,-0.16615521907806396,0.5811614990234375,-0.06910407543182373
1707006072839808500,7.11380859375,-0.16004657745361328,0.46631890535354614,-0.09445496648550034
1707006072858766800,7.132766845703125,-0.1337793916463852,0.3746891915798187,-0.09812015295028687
1707006072877725200,7.15172509765625,-0.10018182545900345,0.2876409590244293,-0.09353867173194885
1707006072896683800,7.170683837890625,-0.08765909820795059,0.21311545372009277,-0.08987347781658173
1707006072915642000,7.18964208984375,-0.09346231073141098,0.1559995859861374,-0.10056361556053162
1707006072934600700,7.2086005859375,-0.09285144507884979,0.0475710928440094,-0.13851359486579895
1707006072953559000,7.22755908203125,-0.08643736690282822,-0.06727148592472076,-0.1417969912290573
1707006072972517400,7.246517333984375,-0.07330377399921417,-0.11583523452281952,-0.1268308013677597
1707006072991475700,7.265475830078125,-0.03329212963581085,-0.1579848974943161,-0.06146826967597008
1707006073010434300,7.284434326171875,0.027488915249705315,-0.24808746576309204,-0.03367391973733902
1707006073029392600,7.303392578125,0.07513637095689774,-0.31894776225090027,-0.001679878099821508
1707006073048351200,7.322351318359375,0.11331541836261749,-0.2951240539550781,0.02306014485657215
1707006073067309600,7.3413095703125,0.1493564397096634,-0.26335906982421875,0.07254019379615784
1707006073086268000,7.360267822265625,0.185092031955719,-0.15951207280158997,0.1360701322555542
1707006073105226200,7.379226318359375,0.19242240488529205,-0.018402300775051117,0.1614210158586502
1707006073124184800,7.398184814453125,0.11759147047996521,0.20334161818027496,0.13729186356067657
1707006073143143200,7.41714306640625,-0.0015271619195118546,0.4953349828720093,0.13362666964530945
1707006073162101500,7.4361015625,-0.040317077189683914,0.47731447219848633,0.13240493834018707
1707006073181060000,7.45506005859375,-0.04153880476951599,0.30596688389778137,0.12812888622283936
1707006073200018400,7.474018310546875,-0.014049889519810677,0.1605810821056366,0.03588830679655075
1707006073218976800,7.492976806640625,-0.02871064469218254,-0.0019089524867013097,-0.09201150387525558
1707006073237935000,7.51193505859375,-0.06902772188186646,-0.13110685348510742,-0.2343430072069168
1707006073256893700,7.530893798828125,-0.05039634555578232,-0.004657844081521034,-0.1476002037525177
1707006073275852000,7.54985205078125,-0.08613193035125732,0.01672242395579815,-0.10881029069423676
1707006073294810400,7.568810302734375,-0.1588248461484909,-0.21632249653339386,-0.06635518372058868
1707006073313769000,7.58776904296875,-0.08124501258134842,-0.6164389252662659,-0.1115591824054718
1707006073332727300,7.606727294921875,0.05497783049941063,-0.9197332859039307,-0.28290674090385437
1707006073351685600,7.625685546875,0.168904110789299,-0.9099594354629517,-0.35590508580207825
1707006073370644000,7.64464404296875,-0.017104214057326317,-0.7774018049240112,-0.13209950923919678
1707006073389602300,7.663602294921875,-0.026572618633508682,-0.5819250345230103,-0.09292780607938766
1707006073408561000,7.682560791015625,-0.009162971749901772,-0.2801578640937805,-0.19677481055259705
1707006073427519200,7.701519287109375,-0.008857538923621178,-0.022678354755043983,-0.2398407906293869
1707006073446477600,7.7204775390625,-0.023823726922273636,0.06039925664663315,-0.15431971848011017
1707006073465436200,7.739436279296875,-0.02932151034474373,0.22105668485164642,-0.10209077596664429
1707006073484394500,7.75839453125,-0.05803215503692627,0.31635159254074097,-0.14118611812591553
1707006073503352800,7.777352783203125,-0.10323614627122879,0.2986365258693695,-0.22670719027519226
1707006073522311200,7.796311279296875,-0.15027274191379547,0.3823249936103821,-0.21723878383636475
1707006073541269500,7.81526953125,-0.1441640853881836,0.4162279963493347,-0.18272492289543152
1707006073560228000,7.83422802734375,-0.15027274191379547,0.3355938494205475,-0.21235187351703644
1707006073579186400,7.8531865234375,-0.17867794632911682,0.28611379861831665,-0.24839289486408234
1707006073598144800,7.872144775390625,-0.21380266547203064,0.11110103130340576,-0.2612210512161255
1707006073617103000,7.89110302734375,-0.2153298407793045,0.114460788667202,-0.183030366897583
1707006073636061400,7.9100615234375,-0.20830489695072174,0.1862373948097229,-0.20135630667209625
1707006073655020000,7.92902001953125,-0.22174391150474548,0.1505018174648285,-0.2658025324344635
1707006073673978400,7.947978271484375,-0.20158538222312927,-0.044669486582279205,-0.2648862302303314
1707006073692936700,7.966936767578125,-0.14202606678009033,-0.23861905932426453,-0.2096029818058014
1707006073711895000,7.98589501953125,-0.12400554865598679,-0.26366451382637024,-0.20838125050067902
1707006073730853600,8.004853515625,-0.24892739951610565,-0.26824599504470825,-0.21693335473537445
1707006073749812000,8.02381201171875,-0.4156934916973114,-0.26366451382637024,-0.2346484363079071
1707006073768770300,8.042770263671875,-0.4563159942626953,-0.20257803797721863,-0.2196822464466095
1707006073787728600,8.061728759765625,-0.4410443603992462,-0.08895718306303024,-0.194025918841362
1707006073806687000,8.08068701171875,-0.46547895669937134,0.044211339205503464,-0.20570871233940125
1707006073825645300,8.099645263671874,-0.5131264328956604,0.06986765563488007,-0.20196716487407684
1707006073844604000,8.11860400390625,-0.5781835317611694,0.053374309092760086,-0.2242637276649475
1707006073863562200,8.137562255859375,-0.6569850444793701,0.009086613543331623,-0.2251800298690796
1707006073882520600,8.1565205078125,-0.6902772188186646,-0.2099084109067917,-0.18730641901493073
1707006073901479000,8.17547900390625,-0.6743947267532349,-0.44356417655944824,-0.18730641901493073
1707006073920437200,8.194437255859375,-0.6334667801856995,-0.6054433584213257,-0.1842520833015442
1707006073939395800,8.213395751953126,-0.6001746654510498,-0.674165666103363,-0.25671592354774475
1707006073958354200,8.232354248046875,-0.5577195286750793,-0.7260891199111938,-0.3128391206264496
1707006073977312500,8.2513125,-0.5048797130584717,-0.8329904675483704,-0.3436878025531769
1707006073996270800,8.270270751953126,-0.46975502371788025,-0.8681151866912842,-0.37056586146354675
1707006074015229200,8.289229248046874,-0.44501498341560364,-0.8195514678955078,-0.39744389057159424
1707006074034187500,8.3081875,-0.43401941657066345,-0.7438042163848877,-0.4716639816761017
1707006074053145900,8.327145751953125,-0.46364638209342957,-0.6451495885848999,-0.5327504277229309
1707006074072104400,8.3461044921875,-0.4923570156097412,-0.4661661982536316,-0.5321395993232727
1707006074091062800,8.365062744140625,-0.4816668927669525,-0.3165042996406555,-0.5187005400657654
1707006074110021000,8.384021240234375,-0.45998117327690125,-0.2771035432815552,-0.5807033181190491
1707006074128979500,8.4029794921875,-0.46914416551589966,-0.21082471311092377,-0.6188823580741882
1707006074147937800,8.421937744140624,-0.48533207178115845,-0.13965895771980286,-0.6188823580741882
1707006074166896000,8.440896240234375,-0.4734202027320862,-0.12957969307899475,-0.5941423773765564
1707006074185854500,8.4598544921875,-0.4218021333217621,-0.1735619604587555,-0.6164389252662659
1707006074204812800,8.478812744140624,-0.4224129915237427,-0.14698933064937592,-0.6656135320663452
1707006074223771400,8.497771484375,-0.4728093445301056,-0.06177370250225067,-0.6622537970542908
1707006074242729700,8.516729736328125,-0.4883863925933838,-0.0058795735239982605,-0.6488147377967834
1707006074261688000,8.53568798828125,-0.42424559593200684,-0.05566505342721939,-0.6130791902542114
1707006074280646400,8.554646484375,-0.3231474757194519,-0.1066722646355629,-0.607886791229248
1707006074299604700,8.573604736328125,-0.25900667905807495,-0.070631243288517,-0.6286562085151672
1707006074318563000,8.59256298828125,-0.2309068888425827,-0.012293653562664986,-0.6680569648742676
1707006074337521400,8.611521484375,-0.1744018942117691,-0.05047270283102989,-0.6353757381439209
1707006074356480000,8.63047998046875,-0.06963858753442764,-0.15981750190258026,-0.4869355857372284
1707006074375438300,8.649438232421875,0.07024945318698883,-0.26427537202835083,-0.45730865001678467
1707006074394396700,8.668396728515624,0.1078176349401474,-0.25297439098358154,-0.5077049732208252
1707006074413355000,8.68735498046875,0.02779434807598591,-0.385532021522522,-0.455781489610672
1707006074432313300,8.706313232421875,-0.046425722539424896,-0.6475930213928223,-0.38156139850616455
1707006074451271700,8.725271728515626,-0.09926552325487137,-0.7236456871032715,-0.29909467697143555
1707006074470230000,8.74422998046875,-0.18112140893936157,-0.6060542464256287,-0.2822958827018738
1707006074489188400,8.763188232421875,-0.27030766010284424,-0.5639045238494873,-0.14462223649024963
1707006074508146700,8.782146728515626,-0.3087921440601349,-0.6249909996986389,0.007483093533664942
1707006074527105000,8.80110498046875,-0.3176496922969818,-0.6857720613479614,0.08353576064109802
1707006074546063400,8.8200634765625,-0.32528549432754517,-0.616744339466095,0.09422589093446732
1707006074565021700,8.839021728515625,-0.3741546869277954,-0.4771617650985718,0.15745039284229279
1707006074583980300,8.857980224609374,-0.38820457458496094,-0.41790786385536194,0.23686282336711884
1707006074602938600,8.876938720703125,-0.37659814953804016,-0.31894776225090027,0.21029019355773926
1707006074621897000,8.89589697265625,-0.42424559593200684,-0.09445496648550034,0.1455385386943817
1707006074640855300,8.914855224609376,-0.4825831651687622,0.17371466755867004,0.14309507608413696
1707006074659813600,8.933813720703125,-0.49021899700164795,0.3401753306388855,0.12140937149524689
1707006074678772000,8.95277197265625,-0.44440412521362305,0.41011935472488403,0.0642935186624527
1707006074697730300,8.971730224609376,-0.4114174246788025,0.4177551567554474,0.05940660089254379
1707006074716688600,8.990688720703124,-0.40408703684806824,0.3300960659980774,0.08139773458242416
1707006074735647000,9.00964697265625,-0.4046979248523712,0.1550832986831665,0.056657709181308746
1707006074754605300,9.028605224609375,-0.40286532044410706,-0.07796161621809006,-0.01107192412018776
1707006074773563600,9.047563720703126,-0.41447174549102783,-0.27343833446502686,-0.0550541877746582
1707006074792522000,9.06652197265625,-0.38759371638298035,-0.4249328076839447,-0.0010690133785828948
1707006074811480300,9.085480224609375,-0.3084867000579834,-0.6347648501396179,0.014202605932950974
1707006074830438700,9.104438720703126,-0.2828303873538971,-0.3977493345737457,-0.04069886729121208
1707006074849397000,9.12339697265625,-0.3042106628417969,-0.3125337064266205,-0.16745330393314362
1707006074868355300,9.142355224609375,-0.3549124300479889,-0.116751529276371,-0.07429642975330353
1707006074887313700,9.161313720703125,-0.3692677617073059,0.00511599238961935,0.006566796451807022
1707006074906272000,9.18027197265625,-0.37232208251953125,-0.0449749194085598,0.02672533318400383
1707006074925230300,9.199230224609375,-0.3597993552684784,-0.1842520833015442,-0.095982126891613
1707006074944188700,9.218188720703125,-0.42974337935447693,-0.34582582116127014,-0.14546217024326324
1707006074963147000,9.23714697265625,-0.4618137776851654,-0.43195775151252747,-0.1305723488330841
1707006074982105300,9.256105224609374,-0.4050033390522003,-0.4667770564556122,-0.13912445306777954
1707006075001063700,9.275063720703125,-0.33567020297050476,-0.46769335865974426,-0.18639011681079865
1707006075020022000,9.29402197265625,-0.3396408259868622,-0.3733147382736206,-0.20288346707820892
1707006075038980400,9.31298046875,-0.34697118401527405,-0.29359689354896545,-0.18547381460666656
1707006075057938700,9.331938720703125,-0.34727662801742554,-0.21265730261802673,-0.18730641901493073
1707006075076897000,9.35089697265625,-0.29474225640296936,0.011530072428286076,-0.19165882468223572
1707006075095855600,9.369855712890624,-0.19944734871387482,0.1196531355381012,-0.12866339087486267
1707006075114814000,9.38881396484375,-0.21197007596492767,0.3291797637939453,-0.08345939964056015
1707006075133772300,9.407772216796875,-0.2306014597415924,0.44066259264945984,-0.06391172856092453
1707006075152730600,9.426730712890626,-0.20861032605171204,0.6285035014152527,-0.12751802802085876
1707006075171689000,9.44568896484375,-0.2205221801996231,0.3716348707675934,-0.12469277530908585
1707006075190647300,9.464647216796875,-0.18325942754745483,0.2931387424468994,0.01908952370285988
1707006075209605600,9.483605712890625,-0.09193515032529831,0.16668972373008728,0.055741410702466965
1707006075228564000,9.50256396484375,-0.08460476994514465,0.02496909722685814,0.011148282326757908
1707006075247522300,9.521522216796875,-0.13225223124027252,-0.10789398849010468,-0.028787001967430115
1707006075266480600,9.540480712890625,-0.1893680840730667,-0.4313468933105469,-0.054443322122097015
1707006075285439000,9.55943896484375,-0.1792888194322586,-0.5483275055885315,-0.009850194677710533
1707006075304397000,9.57839697265625,-0.08002328872680664,-0.5565741658210754,-0.009850194677710533
1707006075323355400,9.59735546875,-0.050090912729501724,-0.4081340432167053,-0.01870773360133171
1707006075342313700,9.616313720703126,-0.03695731982588768,-0.2548069655895233,-0.005039634648710489
1707006075361272000,9.63527197265625,-0.043982263654470444,-0.041615162044763565,-0.015042545273900032
1707006075380230400,9.65423046875,-0.032681263983249664,0.13248129189014435,0.0025961752980947495
1707006075399188700,9.673188720703125,-0.06811141967773438,0.23327398300170898,0.03130681812763214
1707006075418147000,9.69214697265625,-0.14233149588108063,0.21861323714256287,0.04535670951008797
1707006075437105400,9.71110546875,-0.15118902921676636,0.20456334948539734,0.0435241162776947
1707006075456063700,9.730063720703125,-0.08124501258134842,0.11171189695596695,0.019700389355421066
1707006075475022000,9.74902197265625,-0.025961752980947495,-0.010461059398949146,0.002901607658714056
1707006075493980400,9.76798046875,-0.02626718580722809,-0.10453423857688904,-0.021456625312566757
1707006075512938800,9.786938720703125,-0.038789913058280945,-0.08895718306303024,-0.007101302966475487
1707006075531897000,9.80589697265625,-0.0772743970155716,-0.010155626572668552,-0.0102319847792387
1707006075550855400,9.82485546875,-0.049480047076940536,-0.08284853398799896,-0.08345939964056015
1707006075569813800,9.843813720703125,-0.003359756199643016,-0.3320813775062561,-0.015347977168858051
1707006075588772000,9.862772216796875,0.0513126403093338,-0.5794816017150879,0.04260781779885292
1707006075607730400,9.88173046875,0.05803215503692627,-0.7596867084503174,-0.028176138177514076
1707006075626688800,9.900688720703124,0.020769402384757996,-0.6314051151275635,-0.0907897800207138
1707006075645646800,9.919646728515625,0.01282816007733345,-0.4444804787635803,-0.1066722646355629
1707006075664605200,9.938605224609375,0.05436696484684944,-0.6194932460784912,-0.06520981341600418
1707006075683563500,9.9575634765625,0.048563748598098755,-0.3482692837715149,-0.04711294546723366
1707006075702521900,9.97652197265625,-0.0015271619195118546,-0.11308634281158447,-0.036422811448574066
1707006075721480200,9.995480224609375,-0.04550942778587341,-0.015958841890096664,0.027947064489126205
1707006075740438500,10.0144384765625,-0.08063415437936783,0.12637265026569366,0.16447533667087555
1707006075759396900,10.03339697265625,-0.11026109009981155,0.14928008615970612,0.17883066833019257
1707006075778355200,10.052355224609375,-0.11667517572641373,0.29100072383880615,0.18127411603927612
1707006075797313500,10.0713134765625,-0.16523891687393188,0.2632063627243042,0.1568395346403122
1707006075816272000,10.09027197265625,-0.26450446248054504,0.335288405418396,0.16539163887500763
1707006075835230200,10.109230224609375,-0.16126830875873566,0.3340666890144348,0.14767655730247498
1707006075854188500,10.1281884765625,0.07422006875276566,0.8187878727912903,0.337350070476532
1707006075873147000,10.14714697265625,0.14538581669330597,1.564653754234314,0.1052214577794075
1707006075892105200,10.166105224609375,0.13011419773101807,1.7857868671417236,0.05177079141139984
1707006075911063300,10.185063232421875,0.10415244847536087,1.7912845611572266,0.061850059777498245
1707006075930021600,10.204021728515626,-0.03481929376721382,1.4852412939071655,0.040775224566459656
1707006075948980000,10.22297998046875,-0.2522871494293213,0.7598394155502319,-0.022678354755043983
1707006075967938300,10.241938232421875,-0.3756818473339081,0.05306887626647949,-0.021151192486286163
1707006075986896600,10.260896728515625,-0.24892739951610565,-0.6063596606254578,0.019394956529140472
1707006076005855000,10.27985498046875,0.02107483521103859,-1.1335359811782837,0.040775224566459656
1707006076024813300,10.298813232421875,0.08460476994514465,-1.3366484642028809,-0.059024810791015625
1707006076043771600,10.317771728515625,-0.004581485874950886,-1.2456296682357788,-0.041004300117492676
1707006076062730000,10.33672998046875,-0.07330377399921417,-1.1979821920394897,-0.014737112447619438
1707006076081688000,10.35568798828125,-0.0977383628487587,-0.9383646845817566,0.0899498388171196
1707006076100646400,10.374646484375,-0.13011419773101807,-0.4661661982536316,0.14950916171073914
1707006076119604700,10.393604736328125,-0.0870482325553894,-0.10545053333044052,0.18616104125976562
1707006076138563000,10.41256298828125,0.010690134018659592,-0.8684206604957581,0.29703301191329956
1707006076157521400,10.431521484375,0.007941242307424545,-0.46922051906585693,0.4592176079750061
1707006076176479700,10.450479736328125,0.10690133273601532,-0.5077049732208252,0.42164942622184753
1707006076195438000,10.46943798828125,0.3078758418560028,-0.6369028687477112,0.12843431532382965
1707006076214396200,10.488396240234374,0.6575959324836731,-0.6683624386787415,-0.09903645515441895
1707006076233354500,10.5073544921875,0.8213077187538147,-0.3699549734592438,-0.14912736415863037
1707006076252312800,10.526312744140625,0.34147340059280396,-0.034895651042461395,-0.06910407543182373
1707006076271271200,10.545271240234374,0.043371398001909256,-0.16531528532505035,-0.13446660339832306
1707006076290229500,10.5642294921875,0.020769402384757996,0.33681556582450867,-0.21051926910877228
1707006076309187800,10.583187744140625,-0.0766635313630104,0.41408994793891907,-0.16012293100357056
1707006076328146200,10.602146240234376,-0.17531819641590118,0.9162207841873169,-0.12835796177387238
1707006076347104300,10.621104248046874,-0.05894844979047775,0.8914808034896851,-0.15859577059745789
1707006076366062600,10.6400625,0.19944734871387482,0.3966803252696991,-0.18028147518634796
1707006076385021000,10.65902099609375,0.2669478952884674,0.03871355578303337,-0.041004300117492676
1707006076403979300,10.677979248046874,0.15057817101478577,0.0035888305865228176,0.0206166859716177
1707006076422937600,10.6969375,0.1588248461484909,-0.18730641901493073,-0.019624030217528343
1707006076441896000,10.71589599609375,0.29596397280693054,-0.16959133744239807,-0.09017891436815262
1707006076460854300,10.734854248046876,0.17318016290664673,-0.12072215229272842,-0.030925029888749123
1707006076479812600,10.7538125,-0.07330377399921417,0.09521854668855667,0.049632761627435684
1707006076498771000,10.77277099609375,-0.19120067358016968,0.1556941568851471,0.1107192412018776
1707006076517729000,10.79172900390625,-0.23304490745067596,0.15325069427490234,-0.3180314898490906
1707006076536687400,10.810687255859374,-0.1493564397096634,0.12667807936668396,-0.6588940024375916
1707006076555645700,10.829645751953125,-0.7861829996109009,0.3517817556858063,-0.5052615404129028
1707006076574604000,10.84860400390625,-1.1792744398117065,0.18379394710063934,-0.5104538798332214
1707006076593562400,10.867562255859376,-1.1239912509918213,-0.29940009117126465,-0.628045380115509
1707006076612520400,10.8865205078125,-0.758694052696228,-1.043738842010498,-0.7331140637397766
1707006076631478800,10.905478759765625,-0.5100721120834351,-1.5528945922851562,-0.8888846039772034
1707006076650437000,10.92443701171875,-0.6682860851287842,-1.026940107345581,-0.8742238283157349
1707006076669395500,10.9433955078125,-1.028085470199585,-0.45883581042289734,-0.8088613152503967
1707006076688353800,10.962353759765625,-1.3457350730895996,-0.5681806206703186,-0.5577958822250366
1707006076707312000,10.98131201171875,-1.4761546850204468,-0.7373901605606079,-0.3543779253959656
1707006076726270200,11.000270263671876,-1.6032146215438843,-0.6775254011154175,-0.38217228651046753
1707006076745228500,11.019228515625,-1.5607595443725586,-0.8723912835121155,-0.046807512640953064
1707006076764187000,11.038186767578125,-1.0638209581375122,-0.7850375771522522,0.3480401933193207
1707006076783145200,11.057145263671876,-0.6969966888427734,-0.4802160859107971,0.5007563829421997
1707006076802103600,11.076103515625,-0.6426297426223755,-0.08804088830947876,0.019394956529140472
1707006076821062000,11.095061767578125,-0.5790998339653015,-0.2092975378036499,0.19960007071495056
1707006076840020200,11.114020263671875,-0.3335321843624115,-0.5296961069107056,0.32818710803985596
1707006076858978600,11.132978515625,0.14538581669330597,-0.9062942862510681,0.3767508566379547
1707006076877936600,11.1519365234375,0.6029235124588013,-0.692186176776886,0.191964253783226
1707006076896895000,11.17089501953125,0.9202677607536316,-0.2929860055446625,0.04657844081521034
1707006076915853300,11.189853271484376,1.0571014881134033,-0.010155626572668552,0.08781181275844574
1707006076934811600,11.208811767578124,0.8918625712394714,0.1340084671974182,0.057268574833869934
1707006076953770000,11.22777001953125,0.5677987933158875,0.05734493210911751,0.07498364895582199
1707006076972728300,11.246728271484375,0.32589635252952576,-0.05352702736854553,-0.015042545273900032
1707006076991686700,11.265686767578124,-0.002443459117785096,-0.22579088807106018,-0.07429642975330353
1707006077010645000,11.28464501953125,-0.1533270627260208,-0.3876700699329376,-0.1274416595697403
1707006077029603000,11.30360302734375,-0.13133592903614044,-0.40691229701042175,-0.10270164161920547
1707006077048561400,11.3225615234375,-0.056810423731803894,-0.03886627033352852,0.055741410702466965
1707006077067519700,11.341519775390625,-0.20891575515270233,0.4782307744026184,0.09911280870437622
1707006077086478000,11.36047802734375,-0.2522871494293213,0.7039452791213989,0.10277800261974335
1707006077105436400,11.3794365234375,-0.13958260416984558,0.927521824836731,0.023976443335413933
1707006077124394800,11.398394775390624,-0.0256563201546669,1.2842668294906616,0.0642935186624527
1707006077143353000,11.41735302734375,0.11484257876873016,1.806250810623169,0.20448698103427887
1707006077162311200,11.436311279296875,0.1698204129934311,1.4782164096832275,0.30222535133361816
1707006077181269500,11.45526953125,0.12278381735086441,0.8481093645095825,0.20693044364452362
1707006077200227800,11.474227783203125,0.07116574794054031,0.36216646432876587,0.03802633285522461
1707006077219186200,11.493186279296875,0.2205221801996231,0.2219729870557785,0.017867794260382652
1707006077238144500,11.51214453125,0.27030766010284424,-0.07612902671098709,-0.007101302966475487
1707006077257102800,11.531102783203124,0.23335035145282745,-0.3638463318347931,-0.05627591907978058
1707006077276061200,11.550061279296875,0.2608392536640167,-0.5034289360046387,-0.03550651669502258
1707006077295019500,11.56901953125,0.2834412455558777,-0.5886445641517639,0.09178243577480316
1707006077313977600,11.5879775390625,0.258395791053772,-0.46311184763908386,0.1000291109085083
1707006077332936000,11.60693603515625,0.17745621502399445,-0.1521816849708557,0.051159925758838654
1707006077351894300,11.625894287109375,0.23518294095993042,0.17921245098114014,0.12476912885904312
1707006077370852600,11.6448525390625,0.29596397280693054,0.26076290011405945,0.26679518818855286
1707006077389811000,11.66381103515625,0.38881543278694153,0.5487856268882751,0.22983787953853607
1707006077408769300,11.682769287109375,0.5427533388137817,0.1495855152606964,0.1974620372056961
1707006077427727600,11.7017275390625,0.5522217750549316,-0.015042545273900032,0.17638720571994781
1707006077446686000,11.72068603515625,0.5827649831771851,-0.32994332909584045,0.22769984602928162
1707006077465644300,11.739644287109375,0.4266890585422516,-0.28840452432632446,0.27809619903564453
1707006077484602600,11.7586025390625,0.17348559200763702,0.27084216475486755,0.24480405449867249
1707006077503561000,11.77756103515625,0.19303326308727264,0.3615556061267853,0.1773035079240799
1707006077522519000,11.79651904296875,0.13103049993515015,0.07872519642114639,0.08628465235233307
1707006077541477400,11.815477294921875,-0.025961752980947495,-0.21296273171901703,0.125074565410614
1707006077560435700,11.834435791015625,-0.06383536756038666,-0.19097159802913666,0.11621702462434769
1707006077579394000,11.85339404296875,0.250149130821228,-0.02695440873503685,0.14370593428611755
1707006077598352400,11.872352294921875,0.318871408700943,-0.11064288020133972,-0.04130972921848297
1707006077617310700,11.891310791015625,0.1029307171702385,-0.22762349247932434,-0.02176205813884735
1707006077636269000,11.91026904296875,-0.057726722210645676,-0.12072215229272842,0.03741546720266342
1707006077655227400,11.929227294921875,-0.09407317638397217,-0.04436405375599861,0.051159925758838654
1707006077674185700,11.948185791015625,-0.053145237267017365,0.03168861195445061,0.06582067906856537
1707006077693144000,11.96714404296875,0.04825831577181816,0.09582941234111786,0.06368265300989151
1707006077712102400,11.986102294921874,0.1545487940311432,0.18684826791286469,0.045967575162649155
1707006077731060700,12.005060791015625,0.21777328848838806,0.1911243200302124,0.021838415414094925
1707006077750019000,12.02401904296875,0.20738859474658966,0.13736821711063385,0.03405570983886719
1707006077768977400,12.042977294921876,0.13744457066059113,0.03657552972435951,0.025503603741526604
1707006077787935700,12.061935791015625,0.06444623321294785,0.06101011857390404,0.005345067009329796
1707006077806894000,12.08089404296875,0.06017018109560013,0.13125957548618317,-0.03764454275369644
1707006077825852400,12.099852294921876,0.189673513174057,0.2225838601589203,-0.06268999725580215
1707006077844810800,12.118810791015624,0.08399390429258347,0.1092684343457222,-0.05933023989200592
1707006077863769000,12.13776904296875,-0.19181154668331146,0.3701077103614807,-0.2804632782936096
1707006077882727400,12.1567275390625,-0.1026252806186676,1.8120540380477905,-0.05261072888970375
1707006077901685800,12.175685791015624,0.10018182545900345,0.9006437659263611,0.052076224237680435
1707006077920644000,12.19464404296875,0.19181154668331146,0.41011935472488403,0.16416990756988525
1707006077939602400,12.2136025390625,0.16554436087608337,0.6712640523910522,0.16478078067302704
1707006077958560800,12.232560791015626,0.02718348242342472,0.5747473835945129,0.20509785413742065
1707006077977519000,12.25151904296875,0.044898562133312225,0.8465822339057922,0.2750418782234192
1707006077996477400,12.2704775390625,0.1536324918270111,0.5753582715988159,0.3321577310562134
1707006078015435800,12.289435791015626,0.25442516803741455,-0.13385574519634247,0.3095557391643524
1707006078034394000,12.30839404296875,0.17867794632911682,-0.6433169841766357,0.10735948383808136
1707006078053352400,12.3273525390625,0.129197895526886,-0.9230930209159851,-0.044440411031246185
1707006078072310800,12.346310791015625,0.04550942778587341,-0.9117920398712158,-0.061162836849689484
1707006078091269000,12.36526904296875,-0.02932151034474373,-0.6482039093971252,-0.004046979360282421
1707006078110227500,12.3842275390625,-0.04581485688686371,-0.3641517758369446,0.023976443335413933
1707006078129185800,12.403185791015625,-0.10842850059270859,-0.40141451358795166,0.015729768201708794
1707006078148144000,12.42214404296875,-0.026878049597144127,-0.5009855031967163,0.02825249545276165
1707006078167102500,12.4411025390625,-0.008552107028663158,-0.41210466623306274,0.05085449293255806
1707006078186060800,12.460060791015625,-0.14721840620040894,-0.16195552051067352,0.03191768378019333
1707006078205019100,12.47901904296875,-0.0922405794262886,0.005421424750238657,0.039858926087617874
1707006078223977500,12.4979775390625,0.05742128938436508,-0.168675035238266,0.07131846249103546
1707006078242935800,12.516935791015625,-0.09651663154363632,-0.3950004279613495,-0.013820815831422806
1707006078261894100,12.53589404296875,-0.23365578055381775,-0.451200008392334,-0.07765618711709976
1707006078280852500,12.5548525390625,-0.16707152128219604,-0.3937787115573883,-0.06635518372058868
1707006078299810800,12.573810791015624,-0.0772743970155716,-0.09873101860284805,-0.06452259421348572
1707006078318769200,12.59276904296875,-0.11209368705749512,0.2830594778060913,-0.08865175396203995
1707006078337727500,12.6117275390625,0.015577051788568497,0.22044582664966583,-0.07246383279561996
1707006078356685800,12.630685791015624,0.3811796307563782,-1.0299943685531616,-0.5516872406005859
1707006078375644200,12.64964404296875,0.3032943606376648,-0.8445969223976135,-0.48937904834747314
1707006078394602500,12.6686025390625,0.14233149588108063,-0.004352411720901728,-0.13813179731369019
1707006078413560800,12.687560791015626,0.022296564653515816,0.34353506565093994,0.017562363296747208
1707006078432519200,12.706519287109375,0.007941242307424545,0.53931725025177,0.08781181275844574
1707006078451477500,12.7254775390625,0.08979712426662445,0.6019308567047119,0.052076224237680435
1707006078470435800,12.744435791015626,0.05925388261675835,0.49716755747795105,0.17455461621284485
1707006078489394200,12.763394287109374,0.12003492563962936,0.45043641328811646,0.18890993297100067
1707006078508352500,12.7823525390625,0.004581485874950886,0.622394859790802,0.057268574833869934
1707006078527310800,12.801310791015625,0.009773836471140385,0.5222130417823792,0.014202605932950974
1707006078546269200,12.820269287109374,0.03237583488225937,0.05429060757160187,0.04169152304530144
1707006078565227300,12.839227294921875,0.10934479534626007,-0.21204642951488495,0.10980294644832611
1707006078584185600,12.858185546875,0.08155044913291931,-0.664391815662384,0.04810560122132301
1707006078603144000,12.87714404296875,0.019853105768561363,-0.9206495881080627,-0.030925029888749123
1707006078622102300,12.896102294921874,-0.01802051067352295,-1.0559561252593994,-0.04344775900244713
1707006078641060600,12.915060546875,-0.029932374134659767,-0.9673807621002197,-0.14462223649024963
1707006078660019000,12.93401904296875,-0.06933315098285675,-0.4713585376739502,-0.15187625586986542
1707006078678977300,12.952977294921874,0.000610864779446274,0.23968806862831116,-0.027259841561317444
1707006078697935600,12.971935546875,0.014966187067329884,0.669126033782959,0.13454297184944153
1707006078716894000,12.99089404296875,-0.029626941308379173,0.8746820092201233,0.11896591633558273
1707006078735852300,13.009852294921876,-0.12400554865598679,0.8771254420280457,0.07498364895582199
1707006078754810600,13.028810546875,-0.12400554865598679,1.0240384340286255,0.14523309469223022
1707006078773769000,13.04776904296875,-0.3295615613460541,1.289153814315796,0.18127411603927612
1707006078792727300,13.066727294921876,-0.619722306728363,1.4779109954833984,0.20906847715377808
1707006078811685600,13.085685546875,-0.5653553605079651,1.4898228645324707,0.2286161482334137
1707006078830644000,13.10464404296875,-0.4050033390522003,1.3502402305603027,0.22098033130168915
1707006078849602300,13.123602294921875,-0.3454440236091614,1.185917615890503,0.249690979719162
1707006078868560600,13.142560546875,-0.40958482027053833,1.0096831321716309,0.2805396616458893
1707006078887519000,13.16151904296875,-0.37629270553588867,0.7396808862686157,0.37461283802986145
1707006078906477300,13.180477294921875,-0.3640754222869873,0.23571744561195374,0.26771149039268494
1707006078925435600,13.199435546875,-0.4276053309440613,-0.08193223923444748,0.212733656167984
1707006078944394000,13.21839404296875,-0.4566214084625244,0.008170315995812416,0.2124282270669937
1707006078963352300,13.237352294921875,-0.3741546869277954,-0.006185005884617567,0.1980729103088379
1707006078982310700,13.256310546875,-0.29413139820098877,-0.09873101860284805,0.1727220118045807
1707006079001269000,13.27526904296875,-0.2987128794193268,-0.23922991752624512,0.1611155867576599
1707006079020227300,13.294227294921875,-0.2306014597415924,-0.49396052956581116,0.10155627131462097
1707006079039185700,13.313185546875,-0.17134757339954376,-0.4606684148311615,0.009010255336761475
1707006079058144000,13.33214404296875,-0.09926552325487137,-0.15615230798721313,0.07192932814359665
1707006079077102300,13.351102294921875,-0.09346231073141098,-0.24717116355895996,0.08781181275844574
1707006079096060700,13.370060791015625,-0.09132428467273712,-0.1726456582546234,0.06856957077980042
1707006079115019000,13.38901904296875,-0.03756818547844887,-0.1326340138912201,0.10949750989675522
1707006079133977300,13.407977294921874,0.016798781231045723,-0.3885863721370697,0.0383317656815052
1707006079152935700,13.426935791015625,0.02626718580722809,-0.5287798047065735,-0.04344775900244713
1707006079171894000,13.44589404296875,0.030543239787220955,-0.5724566578865051,-0.08315397053956985
1707006079190852400,13.464852294921876,0.016798781231045723,-0.6656135320663452,-0.04528035223484039
1707006079209810700,13.483810791015625,0.03940077871084213,-0.6020836234092712,-0.04802924394607544
1707006079228769000,13.50276904296875,0.06383536756038666,-0.4802160859107971,-0.053832460194826126
1707006079247727400,13.521727294921876,-0.03543015569448471,-0.10392337292432785,-0.04711294546723366
1707006079266685700,13.540685791015624,-0.14202606678009033,0.09980003535747528,-0.17692171037197113
1707006079285644000,13.55964404296875,-0.189673513174057,0.23999349772930145,-0.21846051514148712
1707006079304602400,13.578602294921875,-0.15302163362503052,0.2625955045223236,-0.20166173577308655
1707006079323560700,13.597560791015624,-0.13744457066059113,0.23113596439361572,-0.18639011681079865
1707006079342519000,13.61651904296875,-0.19639302790164948,0.41958773136138916,-0.22243113815784454
1707006079361477400,13.635477294921875,-0.24923282861709595,0.6651554107666016,-0.22884522378444672
1707006079380435700,13.654435791015626,-0.2663370370864868,0.8490256667137146,-0.1876882016658783
1707006079399394000,13.67339404296875,-0.3032943606376648,1.0362557172775269,-0.13324488699436188
1707006079418352000,13.69235205078125,-0.2733619809150696,1.0319796800613403,-0.05780307948589325
1707006079437310500,13.711310546875,-0.17256930470466614,0.7619774341583252,-0.0703258067369461
1707006079456268800,13.730268798828124,-0.18906265497207642,0.6208676695823669,-0.17539454996585846
1707006079475227100,13.74922705078125,-0.2730565667152405,0.47548186779022217,-0.18180863559246063
1707006079494185500,13.768185546875,-0.2620609998703003,0.4482983946800232,-0.14859285950660706
1707006079513143800,13.787143798828126,-0.08307760953903198,0.28519749641418457,-0.1476002037525177
1707006079532102100,13.80610205078125,-0.018631376326084137,0.18776455521583557,-0.2096029818058014
1707006079551060500,13.825060546875,0.021991131827235222,-0.25786128640174866,-0.23251040279865265
1707006079570018800,13.844018798828126,0.16004657745361328,-0.9890664219856262,-0.23922991752624512
1707006079588977200,13.86297705078125,0.25992295145988464,-1.7834960222244263,-0.28382304310798645
1707006079607935500,13.881935546875,0.2211330533027649,-2.2874596118927,-0.3329976499080658
1707006079626893800,13.900893798828125,0.18906265497207642,-2.4707188606262207,-0.19524765014648438
1707006079645852200,13.91985205078125,0.20250166952610016,-2.336939573287964,-0.026038112118840218
1707006079664810200,13.938810302734375,0.13591741025447845,-1.669264316558838,0.09422589093446732
1707006079683768600,13.9577685546875,0.008857538923621178,-0.6973785161972046,0.20693044364452362
1707006079702727000,13.976726806640626,-0.143553227186203,0.3771326541900635,0.3013090491294861
1707006079721685200,13.995685302734374,-0.3237583339214325,1.628794550895691,0.356286883354187
1707006079740643600,14.0146435546875,-0.3439168632030487,2.4134504795074463,0.29184064269065857
1707006079759602000,14.033601806640625,-0.32528549432754517,2.552116632461548,0.19898919761180878
1707006079778560300,14.052560302734374,-0.35185810923576355,2.410090684890747,0.1363755613565445
1707006079797518600,14.0715185546875,-0.3402516841888428,1.6226859092712402,-0.010842849500477314
1707006079816477000,14.090476806640625,-0.13225223124027252,0.2680932879447937,-0.038560837507247925
1707006079835435300,14.109435302734376,0.1331685185432434,-1.331456184387207,-0.15981750190258026
1707006079854393300,14.128393310546874,0.21868959069252014,-2.315253973007202,0.025503603741526604
1707006079873351700,14.1473515625,0.23762640357017517,-2.9313108921051025,0.14340050518512726
1707006079892310000,14.16631005859375,0.2886336147785187,-3.080056667327881,0.16050471365451813
1707006079911268400,14.185268310546874,0.35735589265823364,-2.932532787322998,0.20357069373130798
1707006079930226700,14.204226806640625,0.3069595396518707,-2.8030292987823486,0.29733842611312866
1707006079949185000,14.22318505859375,0.18570289015769958,-2.368399143218994,0.37858346104621887
1707006079968143400,14.242143310546876,0.14660754799842834,-1.6769001483917236,0.41615164279937744
1707006079987101700,14.261101806640625,0.10537417232990265,-0.9737948179244995,0.42042768001556396
1707006080006059800,14.280059814453125,0.08582650125026703,-0.11339177191257477,0.49342602491378784
1707006080025018000,14.29901806640625,0.08979712426662445,0.6394990682601929,0.5523744821548462
1707006080043976400,14.3179765625,0.07635809481143951,1.0906226634979248,0.5887209177017212
1707006080062934800,14.336934814453125,0.036651886999607086,1.2311216592788696,0.6168206930160522
1707006080081893000,14.35589306640625,0.031154103577136993,1.1184170246124268,0.6400335431098938
1707006080100851500,14.3748515625,0.07391463965177536,0.8884264826774597,0.652556300163269
1707006080119809800,14.393809814453125,0.12675444781780243,0.5689441561698914,0.6394227147102356
1707006080138768100,14.41276806640625,0.1493564397096634,0.16455170512199402,0.6171261668205261
1707006080157726500,14.4317265625,0.18142683804035187,-0.25389066338539124,0.5945241451263428
1707006080176684800,14.450684814453124,0.2507599890232086,-0.5513818264007568,0.634230375289917
1707006080195643000,14.469642822265625,0.32131487131118774,-0.7019599676132202,0.7154753804206848
1707006080214601200,14.488601318359375,0.34238970279693604,-0.7404444813728333,0.7728966474533081
1707006080233559600,14.5075595703125,0.31123560667037964,-0.6827177405357361,0.8150463104248047
1707006080252518000,14.526517822265625,0.27580544352531433,-0.5483275055885315,0.9323323965072632
1707006080271476200,14.545476318359375,0.2868010103702545,-0.3571268320083618,1.0713040828704834
1707006080290434600,14.5644345703125,0.34605491161346436,-0.15401428937911987,1.134528636932373
1707006080309392600,14.583392578125,0.3704894781112671,0.011224640533328056,1.096960425376892
1707006080328351000,14.60235107421875,0.2971857190132141,0.22472187876701355,1.0438151359558105
1707006080347309300,14.621309326171875,0.2110537886619568,0.41958773136138916,1.0529781579971313
1707006080366267600,14.640267578125,0.16707152128219604,0.5298488140106201,0.9634864926338196
1707006080385226000,14.65922607421875,0.1233946830034256,0.5726093649864197,0.8629992008209229
1707006080404184300,14.678184326171875,0.09621120244264603,0.6257545948028564,0.7857248187065125
1707006080423142400,14.697142333984376,0.10934479534626007,0.760755717754364,0.753043532371521
1707006080442100700,14.716100830078124,0.13622283935546875,0.9125556349754333,0.7286089658737183
1707006080461059000,14.73505908203125,0.14569124579429626,1.0435861349105835,0.6974548697471619
1707006080480017400,14.754017333984375,0.13011419773101807,1.1284962892532349,0.6519454121589661
1707006080498975700,14.772975830078124,0.12767073512077332,1.151098370552063,0.6464476585388184
1707006080517934000,14.79193408203125,0.1493564397096634,1.138880968093872,0.6675224900245667
1707006080536892200,14.81089208984375,0.1744018942117691,1.0976476669311523,0.688902735710144
1707006080555850500,14.8298505859375,0.19089524447917938,0.9999092817306519,0.688902735710144
1707006080574808800,14.848808837890624,0.18845178186893463,0.8566614985466003,0.6861538887023926
1707006080593767200,14.86776708984375,0.19272783398628235,0.7051670551300049,0.6931788325309753
1707006080612725500,14.8867255859375,0.21868959069252014,0.5829941034317017,0.6956222653388977
1707006080631683600,14.90568359375,0.24006985127925873,0.5133554935455322,0.6953168511390686
1707006080650642000,14.924641845703125,0.24709481000900269,0.46479174494743347,0.6583595275878906
1707006080669600300,14.943600341796875,0.22968515753746033,0.42539095878601074,0.597273051738739
1707006080688558600,14.96255859375,0.18692462146282196,0.43547022342681885,0.559399425983429
1707006080707517000,14.981516845703124,0.15821397304534912,0.5500074028968811,0.5453495383262634
1707006080726475000,15.00047509765625,0.1334739476442337,0.7030289769172668,0.5432115197181702
1707006080745433300,15.019433349609375,0.1386663019657135,0.8142064213752747,0.5206094980239868
1707006080764391700,15.0383916015625,0.15638138353824615,0.9339358806610107,0.4805978536605835
1707006080783350000,15.05735009765625,0.19150610268115997,1.0628283023834229,0.45616328716278076
1707006080802308400,15.076308349609375,0.2364046722650528,1.194775104522705,0.4454731345176697
1707006080821266400,15.095266357421876,0.3130682110786438,1.3120611906051636,0.4088212549686432
1707006080840224800,15.114224853515625,0.3845393657684326,1.3557380437850952,0.31932955980300903
1707006080859183000,15.13318310546875,0.42394015192985535,1.3615412712097168,0.23533566296100616
1707006080878141400,15.152141357421876,0.4376846253871918,1.3746747970581055,0.18890993297100067
1707006080897099800,15.171099853515624,0.43982264399528503,1.3728421926498413,0.18952079117298126
1707006080916057900,15.190057861328125,0.4535670876502991,1.3120611906051636,0.18310672044754028
1707006080935016200,15.20901611328125,0.46486809849739075,1.177670955657959,0.13393209874629974
1707006080953974500,15.227974609375,0.4572322964668274,1.028009057044983,0.07681624591350555
1707006080972932600,15.2469326171875,0.4477638900279999,0.8945351243019104,0.06246092543005943
1707006080991891000,15.265890869140625,0.47525280714035034,0.7662535309791565,0.049021899700164795
1707006081010849300,15.284849365234376,0.5033525824546814,0.6446914076805115,0.024892739951610565
1707006081029807600,15.3038076171875,0.499381959438324,0.5643627047538757,0.002290742937475443
1707006081048766000,15.322765869140625,0.4621191918849945,0.5087739825248718,-0.008323032408952713
1707006081067724300,15.341724365234375,0.4407389461994171,0.44432777166366577,-0.03214675933122635
1707006081086682400,15.360682373046876,0.42882707715034485,0.38812822103500366,-0.07338013499975204
1707006081105640700,15.379640625,0.3900371491909027,0.3646099269390106,-0.10697769373655319
1707006081124599000,15.39859912109375,0.3588830530643463,0.33284494280815125,-0.12438733875751495
1707006081143557000,15.41755712890625,0.3494146466255188,0.2882518172264099,-0.15462514758110046
1707006081162515500,15.436515380859374,0.34086254239082336,0.24182608723640442,-0.19280420243740082
1707006081181473800,15.455473876953125,0.3124573230743408,0.23388485610485077,-0.21479532122612
1707006081200431900,15.474431884765625,0.26542073488235474,0.25526511669158936,-0.24625486135482788
1707006081219390200,15.49339013671875,0.21655155718326569,0.26564982533454895,-0.32383468747138977
1707006081238348500,15.5123486328125,0.17226386070251465,0.3132972717285156,-0.3983601927757263
1707006081257307000,15.531306884765625,0.1185077652335167,0.36247187852859497,-0.4447859227657318
1707006081276265200,15.55026513671875,0.06841685622930527,0.32765260338783264,-0.4340957701206207
1707006081295223300,15.569223388671874,0.034208428114652634,0.2519053518772125,-0.36690065264701843
1707006081314181600,15.588181640625,0.007941242307424545,0.18409937620162964,-0.31864234805107117
1707006081333140000,15.607139892578125,-0.05497783049941063,0.11171189695596695,-0.28932082653045654
1707006081352098000,15.62609814453125,-0.1542433500289917,-0.020540328696370125,-0.2746600806713104
1707006081371056400,15.645056396484375,-0.2522871494293213,-0.18119776248931885,-0.25236350297927856
1707006081390014700,15.6640146484375,-0.3329212963581085,-0.30947935581207275,-0.19677481055259705
1707006081408972800,15.682972900390626,-0.3448331654071808,-0.3943895697593689,-0.13660463690757751
1707006081427931100,15.70193115234375,-0.30451610684394836,-0.4560869038105011,-0.13568833470344543
1707006081446889500,15.720889404296875,-0.2733619809150696,-0.5153408050537109,-0.20074543356895447
1707006081465847800,15.739847900390625,-0.2617555558681488,-0.5675697326660156,-0.2554178237915039
1707006081484806100,15.75880615234375,-0.2159406989812851,-0.5825359225273132,-0.260915607213974
1707006081503764200,15.77776416015625,-0.16035200655460358,-0.5519927144050598,-0.2349538654088974
1707006081522722600,15.79672265625,-0.11606431007385254,-0.5269472599029541,-0.18700097501277924
1707006081541680600,15.8156806640625,-0.11636973917484283,-0.4979311525821686,-0.1476002037525177
1707006081560639000,15.834638916015624,-0.19364413619041443,-0.48876819014549255,-0.13759729266166687
1707006081579597300,15.853597412109375,-0.2721402645111084,-0.49976375699043274,-0.12163844704627991
1707006081598555400,15.872555419921875,-0.29474225640296936,-0.5003746151924133,-0.09873101860284805
1707006081617513700,15.891513671875,-0.24984370172023773,-0.4912116527557373,-0.07857248187065125
1707006081636472000,15.91047216796875,-0.17623448371887207,-0.45333802700042725,-0.07276926934719086
1707006081655430400,15.929430419921875,-0.14294235408306122,-0.36659523844718933,-0.10086904466152191
1707006081674388500,15.948388427734375,-0.14477495849132538,-0.2545015513896942,-0.14943279325962067
1707006081693346800,15.967346923828124,-0.13652828335762024,-0.10606139898300171,-0.18974986672401428
1707006081712305200,15.98630517578125,-0.15179990231990814,0.07353284955024719,-0.2086866796016693
1707006081731263200,16.00526318359375,-0.1792888194322586,0.261984646320343,-0.1992182731628418
1707006081750221600,16.0242216796875,-0.17043127119541168,0.42019861936569214,-0.20654866099357605
1707006081769180000,16.043179931640626,-0.1233946830034256,0.520991325378418,-0.22884522378444672
1707006081788138200,16.06213818359375,-0.09865466505289078,0.549091100692749,-0.2349538654088974
1707006081807096300,16.081096435546876,-0.08093958348035812,0.5185478329658508,-0.23892448842525482
1707006081826054700,16.1000546875,-0.03390299528837204,0.4534907341003418,-0.2618319094181061
1707006081845013000,16.119012939453125,0.014966187067329884,0.3404807448387146,-0.26427537202835083
1707006081863971000,16.13797119140625,0.08368847519159317,0.22624903917312622,-0.24747659265995026
1707006081882929400,16.156929443359374,0.1484401375055313,0.17707443237304688,-0.22304199635982513
1707006081901887700,16.1758876953125,0.1337793916463852,0.1755472719669342,-0.1787542998790741
1707006081920845800,16.194845703125,0.10201441496610641,0.17951788008213043,-0.15065452456474304
1707006081939804200,16.21380419921875,0.11636973917484283,0.21006113290786743,-0.1323285847902298
1707006081958762500,16.232762451171876,0.16584978997707367,0.256792277097702,-0.10819942504167557
1707006081977720800,16.251720947265625,0.20647229254245758,0.3038288652896881,-0.0345902182161808
1707006081996679000,16.270678955078125,0.19914191961288452,0.32307112216949463,0.03405570983886719
1707006082015637200,16.28963720703125,0.20830489695072174,0.2528216540813446,0.046883873641490936
1707006082034595600,16.308595703125,0.24862197041511536,0.13858994841575623,0.055741410702466965
1707006082053553700,16.3275537109375,0.268169641494751,0.05306887626647949,0.09758564829826355
1707006082072512000,16.346511962890624,0.27855435013771057,-0.0034361144062131643,0.12873975932598114
1707006082091470300,16.36547021484375,0.24740023910999298,-0.07735075056552887,0.11163553595542908
1707006082110428400,16.384428466796876,0.14202606678009033,-0.15859577059745789,0.09422589093446732
1707006082129386800,16.40338671875,0.011606430634856224,-0.18150319159030914,0.11591159552335739
1707006082148345000,16.422344970703126,-0.07513637095689774,-0.16378812491893768,0.16081015765666962
1707006082167303400,16.441303466796874,-0.09315688163042068,-0.16714787483215332,0.18646647036075592
1707006082186261800,16.46026171875,-0.08796452730894089,-0.19799654185771942,0.21700970828533173
1707006082205219800,16.4792197265625,-0.06261363625526428,-0.22059854865074158,0.2441931962966919
1707006082224178200,16.49817822265625,-0.020158538594841957,-0.2138790339231491,0.25763222575187683
1707006082243136500,16.517136474609377,0.021380268037319183,-0.19249875843524933,0.2689332067966461
1707006082262094600,16.536094482421873,0.018325943499803543,-0.18577924370765686,0.268627792596817
1707006082281053000,16.555052978515626,-0.03237583488225937,-0.2141844630241394,0.24022257328033447
1707006082300011300,16.57401123046875,-0.07360920310020447,-0.2914588451385498,0.18921536207199097
1707006082318969600,16.592969482421875,-0.12553271651268005,-0.3943895697593689,0.16936226189136505
1707006082337927700,16.611927734375,-0.20433427393436432,-0.48327040672302246,0.1724165827035904
1707006082356886000,16.630885986328124,-0.22418737411499023,-0.5281689763069153,0.15012001991271973
1707006082375844400,16.64984423828125,-0.20738859474658966,-0.514729917049408,0.10155627131462097
1707006082394802700,16.668802734375,-0.22510367631912231,-0.43837183713912964,0.10247256606817245
1707006082413760800,16.6877607421875,-0.2522871494293213,-0.2407570779323578,0.12904518842697144
1707006082432719000,16.706718994140626,-0.1802051067352295,-0.02023489587008953,0.11407899856567383
1707006082451677400,16.725677490234375,-0.11514800786972046,0.12759438157081604,0.08597921580076218
1707006082470635500,16.744635498046875,-0.14080433547496796,0.252210795879364,0.10277800261974335
1707006082489593900,16.76359375,-0.18753549456596375,0.4107302129268646,0.15012001991271973
1707006082508552200,16.78255224609375,-0.16249002516269684,0.5347357392311096,0.16325360536575317
1707006082527510500,16.801510498046873,-0.1334739476442337,0.5753582715988159,0.17119485139846802
1707006082546468900,16.82046875,-0.1496618688106537,0.5738310813903809,0.19379685819149017
1707006082565427000,16.839427001953126,-0.14263692498207092,0.5606974959373474,0.24816381931304932
1707006082584385300,16.85838525390625,-0.07391463965177536,0.5448150038719177,0.2695440948009491
1707006082603343600,16.877343505859375,-0.020769402384757996,0.4638754427433014,0.25121814012527466
1707006082622302000,16.896302001953124,-0.02932151034474373,0.2589302957057953,0.22006404399871826
1707006082641260000,16.915260009765625,-0.07055488228797913,0.005421424750238657,0.2029598206281662
1707006082660218400,16.93421826171875,-0.06841685622930527,-0.22823435068130493,0.19165882468223572
1707006082679176700,16.9531767578125,-0.036651886999607086,-0.4612792730331421,0.16050471365451813
1707006082698135000,16.972135009765626,-0.05222893878817558,-0.6934078931808472,0.1311832070350647
1707006082717093000,16.991093017578127,-0.08032871782779694,-0.812221109867096,0.09697478264570236
1707006082736051500,17.010051513671876,-0.08307760953903198,-0.729143500328064,0.08414662629365921
1707006082755009800,17.029009765625,-0.07269290834665298,-0.47929978370666504,0.09911280870437622
1707006082773968100,17.047968017578125,-0.09498947113752365,-0.1482110619544983,0.11743875592947006
1707006082792926500,17.066926513671874,-0.13561198115348816,0.17890702188014984,0.12263110280036926
1707006082811884800,17.085884765625,-0.15210533142089844,0.45990481972694397,0.12263110280036926
1707006082830843000,17.1048427734375,-0.14202606678009033,0.650189220905304,0.09636391699314117
1707006082849801200,17.12380126953125,-0.11881320178508759,0.6914225816726685,0.05238165333867073
1707006082868759600,17.142759521484376,-0.054672397673130035,0.6535489559173584,0.03649916872382164
1707006082887718000,17.1617177734375,0.06322450190782547,0.602847158908844,0.014202605932950974
1707006082906676200,17.18067626953125,0.17256930470466614,0.5206858515739441,-0.029397867619991302
1707006082925634300,17.19963427734375,0.22327107191085815,0.4015672206878662,-0.07521272450685501
1707006082944592600,17.218592529296874,0.21899501979351044,0.2784779667854309,-0.10453423857688904
1707006082963551000,17.237551025390626,0.19944734871387482,0.13645191490650177,-0.10239620506763458
1707006082982509300,17.25650927734375,0.18600831925868988,-0.005268708802759647,-0.07979421317577362
1707006083001467600,17.275467529296876,0.16829325258731842,-0.11003202199935913,-0.044669486582279205
1707006083020425700,17.29442578125,0.1798996776342392,-0.16684244573116302,-0.02023489587008953
1707006083039384000,17.313384033203125,0.210442915558815,-0.17967060208320618,-0.005345067009329796
1707006083058342400,17.33234228515625,0.21868959069252014,-0.1573740392923355,0.016340631991624832
1707006083077300700,17.35130078125,0.21960589289665222,-0.07490729540586472,0.06887500733137131
1707006083096259000,17.370259033203126,0.1951712965965271,0.056428633630275726,0.1156061589717865
1707006083115217400,17.389217529296875,0.16523891687393188,0.12851068377494812,0.13179408013820648
1707006083134175700,17.40817578125,0.13988803327083588,0.13920080661773682,0.13423752784729004
1707006083153133800,17.4271337890625,0.13103049993515015,0.14378230273723602,0.12782345712184906
1707006083172092200,17.446092041015625,0.13988803327083588,0.13767364621162415,0.10094540566205978
1707006083191050500,17.465050537109374,0.13469567894935608,0.10835213959217072,0.09941824525594711
1707006083210008800,17.4840087890625,0.11362084746360779,0.09644027799367905,0.10888664424419403
1707006083228967200,17.50296728515625,0.1282816082239151,0.12667807936668396,0.0948367565870285
1707006083247925500,17.521925537109375,0.16310089826583862,0.1547778695821762,0.050549060106277466
1707006083266883600,17.540883544921876,0.1533270627260208,0.16180281341075897,-0.0062613640911877155
1707006083285842000,17.559842041015624,0.11056652665138245,0.18776455521583557,-0.03886627033352852
1707006083304800300,17.57880029296875,0.09376774728298187,0.23541201651096344,-0.051389001309871674
1707006083323758600,17.597758544921874,0.09315688163042068,0.23449571430683136,-0.081015944480896
1707006083342717000,17.616717041015626,0.06902772188186646,0.16730059683322906,-0.10239620506763458
1707006083361675300,17.63567529296875,0.0021380267571657896,0.11018473654985428,-0.1066722646355629
1707006083380633300,17.65463330078125,-0.08429934084415436,0.09155336022377014,-0.08834631741046906
1707006083399591700,17.673591796875,-0.16157373785972595,0.083306685090065,-0.05352702736854553
1707006083418550000,17.692550048828124,-0.1948658674955368,0.09766200929880142,0.001679878099821508
1707006083437508400,17.71150830078125,-0.18264856934547424,0.16882775723934174,0.04505127668380737
1707006083456466700,17.730466796875,-0.1545487940311432,0.274812787771225,0.06826414167881012
1707006083475424800,17.7494248046875,-0.1285870373249054,0.3902662396430969,0.04566214233636856
1707006083494383000,17.768383056640626,-0.13041962683200836,0.49228066205978394,-0.0013744457392022014
1707006083513341400,17.787341552734375,-0.1795942485332489,0.594295084476471,-0.08009964227676392
1707006083532299800,17.8062998046875,-0.26511532068252563,0.6508000493049622,-0.17722713947296143
1707006083551258000,17.825258056640624,-0.33078327775001526,0.6440805792808533,-0.27313292026519775
1707006083570216400,17.844216552734373,-0.3533852696418762,0.5933787822723389,-0.3388008773326874
1707006083589174800,17.8631748046875,-0.3396408259868622,0.5408443808555603,-0.3891972303390503
1707006083608133000,17.882133056640626,-0.33567020297050476,0.4999164640903473,-0.42248934507369995
1707006083627091500,17.901091552734375,-0.38789913058280945,0.5005273222923279,-0.39622217416763306
1707006083646049500,17.920049560546875,-0.46608981490135193,0.5182424187660217,-0.32566729187965393
1707006083665007900,17.9390078125,-0.5219839811325073,0.5338194370269775,-0.21662792563438416
1707006083683966200,17.95796630859375,-0.5241219997406006,0.5661953091621399,-0.15431971848011017
1707006083702924500,17.976924560546873,-0.5045742988586426,0.6440805792808533,-0.15981750190258026
1707006083721883000,17.9958828125,-0.4508182108402252,0.7430406212806702,-0.16134466230869293
1707006083740841200,18.01484130859375,-0.36132651567459106,0.8566614985466003,-0.1983019858598709
1707006083759799300,18.03379931640625,-0.21685700118541718,0.9528726935386658,-0.2294560819864273
1707006083778757600,18.052757568359375,-0.07880155742168427,0.9886083006858826,-0.2450331300497055
1707006083797716000,18.071716064453124,0.010384701192378998,0.9531781077384949,-0.2807687222957611
1707006083816674300,18.09067431640625,0.05803215503692627,0.8117629289627075,-0.28779366612434387
1707006083835632600,18.109632568359373,0.08979712426662445,0.5753582715988159,-0.27374377846717834
1707006083854590700,18.1285908203125,0.1182023361325264,0.22838707268238068,-0.2774089574813843
1707006083873549000,18.147549072265626,0.17562362551689148,-0.17722713947296143,-0.3134499788284302
1707006083892507400,18.16650732421875,0.2629773020744324,-0.5965858101844788,-0.3378845751285553
1707006083911465700,18.1854658203125,0.33017241954803467,-0.9545525908470154,-0.3833940029144287
1707006083930424000,18.204424072265624,0.35735589265823364,-1.2306634187698364,-0.4237110912799835
1707006083949382400,18.22338232421875,0.33567020297050476,-1.412395715713501,-0.45944666862487793
1707006083968340700,18.2423408203125,0.32009315490722656,-1.4637084007263184,-0.4872410297393799
1707006083987299000,18.261299072265626,0.3020726442337036,-1.3558907508850098,-0.5330559015274048
1707006084006257400,18.28025732421875,0.2816086709499359,-1.221195101737976,-0.5571850538253784
1707006084025215500,18.299215576171875,0.26419901847839355,-1.1204023361206055,-0.535193920135498
1707006084044173800,18.318173828125,0.26022839546203613,-1.0559561252593994,-0.5471057891845703
1707006084063132200,18.337132080078124,0.2922987937927246,-1.0645081996917725,-0.6256018877029419
1707006084082090500,18.356090576171876,0.31612253189086914,-1.1127665042877197,-0.692186176776886
1707006084101048800,18.375048828125,0.34147340059280396,-1.1448369026184082,-0.7108175158500671
1707006084120007000,18.3940068359375,0.3426951467990875,-1.1842377185821533,-0.7395281791687012
1707006084138965200,18.41296533203125,0.3494146466255188,-1.3888773918151855,-0.8180242776870728
1707006084157923600,18.431923583984375,0.45051276683807373,-1.596876859664917,-0.9111811518669128
1707006084176882000,18.4508818359375,0.5522217750549316,-1.6271146535873413,-0.9243147969245911
1707006084195840300,18.46984033203125,0.593149721622467,-1.707137942314148,-0.9350048899650574
1707006084214798300,18.48879833984375,0.6621774435043335,-2.0140974521636963,-1.025412917137146
1707006084233756700,18.507756591796873,0.8197805285453796,-2.21171236038208,-1.1188751459121704
1707006084252715000,18.526715087890626,1.0115920305252075,-2.1429901123046875,-1.1582759618759155
1707006084271673300,18.54567333984375,1.1197150945663452,-1.9007821083068848,-1.09688401222229
1707006084290631700,18.564631591796875,1.174692988395691,-1.476536512374878,-1.1115448474884033
1707006084309590000,18.583590087890624,1.1811070442199707,-0.9420298337936401,-1.198898434638977
1707006084328548400,18.60254833984375,1.1533126831054688,-0.46830421686172485,-1.2144755125045776
1707006084347506400,18.62150634765625,1.1679733991622925,-0.15981750190258026,-1.1216241121292114
1707006084366464800,18.64046484375,1.2580760717391968,0.05154171586036682,-1.079779863357544
1707006084385423000,18.659423095703126,1.2913681268692017,0.17188207805156708,-1.1054362058639526
1707006084404381400,18.67838134765625,1.2513564825057983,0.08727730810642242,-1.1219295263290405
1707006084423339800,18.69733984375,1.2318087816238403,-0.17111849784851074,-1.1008546352386475
1707006084442297900,18.7162978515625,1.230587124824524,-0.45730865001678467,-1.0394628047943115
1707006084461256200,18.735256103515624,1.2116502523422241,-0.6527853608131409,-0.9093486070632935
1707006084480214500,18.754214599609377,1.1508692502975464,-0.7578541040420532,-0.7764855027198792
1707006084499172900,18.7731728515625,1.1337649822235107,-0.8888846039772034,-0.7218130826950073
1707006084518131000,18.792130859375,1.1151336431503296,-0.9362266063690186,-0.6833286285400391
1707006084537089300,18.81108935546875,1.0619884729385376,-0.8161917328834534,-0.5559632778167725
1707006084556047600,18.830047607421875,0.9828814268112183,-0.5843685269355774,-0.34032803773880005
1707006084575006000,18.849005859375,0.9596685767173767,-0.3745364546775818,-0.19616395235061646
1707006084593964300,18.86796435546875,1.0115920305252075,-0.2862665057182312,-0.19280420243740082
1707006084612922400,18.88692236328125,0.9789108037948608,-0.25938844680786133,-0.14332415163516998
1707006084631880700,18.905880615234373,0.9257655739784241,-0.29848378896713257,-0.06971494108438492
1707006084650839000,18.924839111328126,0.9221003651618958,-0.4295142889022827,-0.020540328696370125
1707006084669797400,18.94379736328125,0.9208786487579346,-0.646065890789032,-0.01718057133257389
1707006084688755700,18.962755615234375,0.8512400984764099,-0.8229112029075623,-0.07185296714305878
1707006084707714000,18.981714111328124,0.7638863921165466,-0.8907172083854675,-0.15615230798721313
1707006084726672100,19.000672119140624,0.7000510096549988,-0.803363561630249,-0.17661628127098083
1707006084745630500,19.01963037109375,0.6499601006507874,-0.6622537970542908,-0.11980585753917694
1707006084764588800,19.0385888671875,0.6270527243614197,-0.5538252592086792,-0.034895651042461395
1707006084783547100,19.057547119140626,0.5296197533607483,-0.42187848687171936,0.06551524996757507
1707006084802505200,19.076505126953126,0.3738492429256439,-0.21540619432926178,0.18432845175266266
1707006084821463600,19.095463623046875,0.27458372712135315,-0.04069886729121208,0.2441931962966919
1707006084840422000,19.114421875,0.09071341902017593,0.00755945174023509,0.23441936075687408
1707006084859380200,19.133380126953124,-0.07849612087011337,-0.20807582139968872,0.17424917221069336
1707006084878338600,19.152338623046877,-0.01954767294228077,-0.5978075265884399,0.1262962967157364
1707006084897296600,19.171296630859374,0.05497783049941063,-0.8613957166671753,0.14828743040561676
1707006084916255000,19.1902548828125,0.12767073512077332,-1.0193042755126953,0.13179408013820648
1707006084935213300,19.20921337890625,0.1386663019657135,-0.9982293844223022,0.12873975932598114
1707006084954171600,19.228171630859375,0.040317077189683914,-0.7593812942504883,0.1571449637413025
1707006084973129700,19.247129638671876,0.01282816007733345,-0.4872410297393799,0.19135339558124542
1707006084992088000,19.266088134765624,0.07238747924566269,-0.32383468747138977,0.2606865465641022
1707006085011046400,19.28504638671875,0.22204934060573578,-0.2923751473426819,0.2909243404865265
1707006085030004700,19.304004638671874,0.40255987644195557,-0.3977493345737457,0.2756527364253998
1707006085048962800,19.322962890625,0.48013970255851746,-0.6014727354049683,0.19410228729248047
1707006085067921200,19.341921142578126,0.48502662777900696,-0.7065414786338806,0.08200860023498535
1707006085086879500,19.36087939453125,0.49052441120147705,-0.5953640937805176,0.046883873641490936
1707006085105837800,19.379837890625,0.4679224193096161,-0.316809743642807,0.08536835014820099
1707006085124796200,19.398796142578124,0.41813695430755615,0.004810560029000044,0.141262486577034
1707006085143754200,19.417754150390625,0.34116798639297485,0.3514763116836548,0.268627792596817
1707006085162712600,19.436712646484374,0.21899501979351044,0.6508000493049622,0.4182896614074707
1707006085181671000,19.4556708984375,0.1588248461484909,0.5790234804153442,0.39599308371543884
1707006085200629000,19.47462890625,0.0977383628487587,0.2012035846710205,0.22159120440483093
1707006085219587300,19.49358740234375,-0.08552107214927673,-0.25786128640174866,0.17027856409549713
1707006085238545700,19.512545654296876,-0.2406807243824005,-0.6607266068458557,0.37919431924819946
1707006085257503700,19.531503662109376,-0.21746785938739777,-0.8702532649040222,0.5737547278404236
1707006085276462000,19.550462158203125,-0.1536324918270111,-0.8436806201934814,0.5655080676078796
1707006085295420400,19.56942041015625,-0.2626718580722809,-0.37606361508369446,0.5175551772117615
1707006085314378800,19.588378662109374,-0.3686569035053253,0.16913318634033203,0.5010618567466736
1707006085333337000,19.607337158203126,-0.3426951467990875,0.4797579348087311,0.4958694875240326
1707006085352295200,19.626295166015623,-0.2712239623069763,0.5991820096969604,0.5890263915061951
1707006085371253500,19.64525341796875,-0.20677772164344788,0.5194641351699829,0.6449204683303833
1707006085390211800,19.6642119140625,-0.10018182545900345,0.2574031352996826,0.5810851454734802
1707006085409170000,19.683169921875,-0.09010255336761475,-0.05810851231217384,0.503810703754425
1707006085428128300,19.702128173828125,-0.1386663019657135,-0.26763513684272766,0.5016726851463318
1707006085447086600,19.721086669921874,-0.05955931544303894,-0.25297439098358154,0.5001455545425415
1707006085466044700,19.740044677734375,0.008857538923621178,-0.06238456442952156,0.4799869954586029
1707006085485003000,19.7590029296875,0.020769402384757996,0.2021198868751526,0.45158177614212036
1707006085503961300,19.77796142578125,-0.0925460159778595,0.28611379861831665,0.43722647428512573
1707006085522919700,19.796919677734376,-0.1805105358362198,0.16302454471588135,0.44119709730148315
1707006085541877800,19.815877685546877,-0.10567960888147354,0.01611155830323696,0.40576693415641785
1707006085560836000,19.834836181640625,0.05100720748305321,-0.09292780607938766,0.34865108132362366
1707006085579794400,19.85379443359375,0.12034036219120026,-0.11797326058149338,0.2851211428642273
1707006085598752500,19.87275244140625,0.05955931544303894,-0.16226094961166382,0.20723587274551392
1707006085617710800,19.8917109375,-0.016187917441129684,-0.17508912086486816,0.11224640160799026
1707006085636669200,19.910669189453124,-0.014049889519810677,-0.14362958073616028,0.08811724185943604
1707006085655627300,19.929627197265624,0.007635809946805239,-0.04711294546723366,0.07223475724458694
1707006085674585600,19.948585693359377,-0.05589412897825241,-0.022067490965127945,0.052687086164951324
1707006085693544000,19.9675439453125,-0.17134757339954376,-0.059635672718286514,0.07589995115995407
1707006085712502300,19.986502197265626,-0.2562577724456787,-0.15920662879943848,0.11621702462434769
1707006085731460400,20.00546044921875,-0.1945604383945465,-0.25297439098358154,0.10430516302585602
1707006085750418700,20.024418701171875,-0.1178968995809555,-0.3000109791755676,0.08323032408952713
1707006085769377000,20.043376953125,-0.09682206809520721,-0.2920697331428528,0.06490438431501389
1707006085788335000,20.062335205078124,-0.13103049993515015,-0.23220497369766235,0.043829549103975296
1707006085807293400,20.08129345703125,-0.12247838824987411,-0.17447824776172638,-0.009315688163042068
1707006085826251800,20.100251708984374,-0.13561198115348816,-0.06421715766191483,-0.05566505342721939
1707006085845210000,20.119210205078126,-0.11972949653863907,0.043600473552942276,-0.06085740402340889
1707006085864168200,20.138168212890626,-0.10384701192378998,0.14256057143211365,-0.06757691502571106
1707006085883126500,20.15712646484375,-0.08368847519159317,0.19998185336589813,-0.06788235157728195
1707006085902084600,20.176084716796876,-0.0665842592716217,0.19265148043632507,-0.0758235901594162
1707006085921043000,20.19504296875,-0.039706211537122726,0.13614648580551147,-0.07643445581197739
1707006085940001300,20.214001220703125,0.0009162971982732415,0.07994692772626877,-0.0755181610584259
1707006085958959400,20.23295947265625,0.03451386094093323,0.02283107116818428,-0.053832460194826126
1707006085977917700,20.251917724609374,0.054672397673130035,0.01000291109085083,-0.04558578506112099
1707006085996876000,20.2708759765625,0.032681263983249664,-0.016875140368938446,-0.027259841561317444
1707006086015834000,20.289834228515623,0.021380268037319183,-0.04528035223484039,-0.008093958720564842
1707006086034792400,20.30879248046875,0.04673115536570549,-0.033979352563619614,-0.029397867619991302
1707006086053750800,20.327750732421876,0.05742128938436508,-0.028787001967430115,-0.095982126891613
1707006086072708900,20.346708984375,0.03817904740571976,-0.0345902182161808,-0.1372154951095581
1707006086091667200,20.365667236328125,0.04276053607463837,-0.0397825688123703,-0.17050762474536896
1707006086110625500,20.38462548828125,0.06322450190782547,-0.03611737862229347,-0.18150319159030914
1707006086129583600,20.40358349609375,0.06475166976451874,-0.03153589367866516,-0.173256516456604
1707006086148542000,20.4225419921875,0.043371398001909256,-0.05199986323714256,-0.16684244573116302
1707006086167500300,20.441500244140624,0.02260199747979641,-0.11980585753917694,-0.15981750190258026
1707006086186458400,20.460458251953124,0.028099779039621353,-0.17997603118419647,-0.13996438682079315
1707006086205416700,20.479416748046877,0.01649334840476513,-0.21693335473537445,-0.11247547715902328
1707006086224374800,20.498374755859373,-0.013133592903614044,-0.24350596964359283,-0.06246092543005943
1707006086243333000,20.5173330078125,-0.03940077871084213,-0.2764926850795746,-0.0709366723895073
1707006086262291500,20.53629150390625,-0.05833758786320686,-0.28809911012649536,-0.07826705276966095
1707006086281249500,20.55524951171875,-0.039706211537122726,-0.2868773639202118,-0.06604975461959839
1707006086300207900,20.574207763671875,-0.057726722210645676,-0.3110065162181854,-0.06788235157728195
1707006086319166200,20.593166259765624,-0.06627883017063141,-0.27435463666915894,-0.07307469844818115
1707006086338124300,20.612124267578125,-0.04550942778587341,-0.22059854865074158,-0.07490729540586472
1707006086357082600,20.63108251953125,-0.006108647678047419,-0.19646938145160675,-0.06879864633083344
1707006086376040700,20.650040771484374,0.035124726593494415,-0.12805253267288208,-0.04894553869962692
1707006086394999000,20.6689990234375,0.07055488228797913,-0.04283689334988594,-0.043753188103437424
1707006086413957400,20.687957275390627,0.0818558782339096,0.0243582334369421,-0.03550651669502258
1707006086432915500,20.70691552734375,0.06230820715427399,0.08086322247982025,-0.029397867619991302
1707006086451873800,20.725873779296876,0.053145237267017365,0.12576179206371307,0.003512472379952669
1707006086470831900,20.744831787109376,0.08124501258134842,0.11110103130340576,0.012675444595515728
1707006086489790200,20.763790283203125,0.06902772188186646,0.0939968153834343,0.008399390615522861
1707006086508748500,20.78274853515625,0.03023780696094036,0.08391755074262619,0.013286309316754341
1707006086527706600,20.80170654296875,-0.020769402384757996,0.03810269013047218,0.03527744114398956
1707006086546665000,20.8206650390625,-0.05192350596189499,-0.02756527252495289,0.09300415962934494
1707006086565623300,20.839623291015624,-0.03298669680953026,-0.07002037763595581,0.1204930767416954
1707006086584581400,20.858581298828124,0.006414080038666725,-0.07643445581197739,0.10980294644832611
1707006086603539700,20.877539794921876,0.015577051788568497,-0.05261072888970375,0.07895427197217941
1707006086622497800,20.896497802734373,-0.012522728182375431,-0.03917170315980911,0.05177079141139984
1707006086641456000,20.9154560546875,-0.025350889191031456,-0.02756527252495289,0.03649916872382164
1707006086660414500,20.93441455078125,0.009773836471140385,-0.007101302966475487,-0.0025961752980947495
1707006086679372500,20.95337255859375,0.08429934084415436,0.018860450014472008,-0.05871937796473503
1707006086698331000,20.972330810546875,0.08429934084415436,0.03321577236056328,-0.0965929925441742
1707006086717289000,20.9912890625,0.001832594396546483,0.04146244749426842,-0.08804088830947876
1707006086736247300,21.010247314453125,-0.05406153202056885,0.0005345066892914474,-0.06788235157728195
1707006086755205600,21.02920556640625,-0.05955931544303894,-0.059635672718286514,-0.04589121788740158
1707006086774163700,21.048163818359374,-0.051618073135614395,-0.08132137358188629,0.006872228812426329
1707006086793122000,21.0671220703125,-0.07941242307424545,-0.10911571979522705,0.08567378669977188
1707006086812080000,21.086080078125,-0.056199558079242706,-0.17203480005264282,0.16019928455352783
1707006086831038500,21.10503857421875,0.0021380267571657896,-0.21846051514148712,0.1977674663066864
1707006086849996500,21.12399658203125,0.038789913058280945,-0.24167338013648987,0.1928805559873581
1707006086868955000,21.142954833984376,0.02107483521103859,-0.224569171667099,0.13912445306777954
1707006086887913200,21.161913330078125,-0.031154103577136993,-0.12805253267288208,0.0743727833032608
1707006086906871600,21.18087158203125,-0.03695731982588768,0.000839939049910754,0.022449281066656113
1707006086925829600,21.19982958984375,-0.029932374134659767,0.1346193253993988,0.004123337101191282
1707006086944788000,21.2187880859375,-0.04428769648075104,0.1963166743516922,0.018173227086663246
1707006086963746000,21.23774609375,-0.03787361457943916,0.1712712198495865,0.03741546720266342
1707006086982704400,21.256704345703124,0.018631376326084137,0.11140646785497665,0.02458730712532997
1707006087001662700,21.275662841796876,0.04001164436340332,0.056428633630275726,0.020922118797898293
1707006087020620800,21.294620849609377,0.007330377586185932,-0.019013166427612305,0.05757400393486023
1707006087039579100,21.3135791015625,0.00946840364485979,-0.08468113094568253,0.1003345400094986
1707006087058537200,21.332537109375,0.043982263654470444,-0.10209077596664429,0.12293653935194016
1707006087077495600,21.35149560546875,0.04276053607463837,-0.0859028622508049,0.14278964698314667
1707006087096453600,21.37045361328125,0.0030543238390237093,-0.03917170315980911,0.1571449637413025
1707006087115412000,21.389411865234376,-0.017104214057326317,0.008781181648373604,0.16752967238426208
1707006087134370300,21.408370361328124,0.013744457624852657,0.029245151206851006,0.187382772564888
1707006087153328600,21.42732861328125,0.04825831577181816,0.019471315667033195,0.20418155193328857
1707006087172286700,21.44628662109375,0.057726722210645676,-0.01626427471637726,0.23655737936496735
1707006087191245000,21.4652451171875,0.07238747924566269,-0.08559742569923401,0.27809619903564453
1707006087210203100,21.484203125,0.11392628401517868,-0.1527925580739975,0.2903134822845459
1707006087229161500,21.503161376953123,0.14049890637397766,-0.18150319159030914,0.27748534083366394
1707006087248119800,21.522119873046876,0.11392628401517868,-0.16378812491893768,0.24297146499156952
1707006087267078000,21.541077880859376,0.05253437161445618,-0.1066722646355629,0.20204351842403412
1707006087286036200,21.5600361328125,0.04520399495959282,-0.017486004158854485,0.14950916171073914
1707006087304994600,21.57899462890625,0.11239911615848541,0.10957387089729309,0.10063996911048889
1707006087323952600,21.59795263671875,0.18661919236183167,0.2378554791212082,0.04993819445371628
1707006087342911000,21.616910888671875,0.2205221801996231,0.33192864060401917,0.007177661173045635
1707006087361869000,21.635869140625,0.19853104650974274,0.3502545952796936,-0.011988221667706966
1707006087380827400,21.654827392578124,0.16310089826583862,0.3047451674938202,-0.028557928279042244
1707006087399785700,21.67378564453125,0.15790854394435883,0.24152065813541412,-0.049861837178468704
1707006087418744000,21.692744140625,0.15088360011577606,0.18776455521583557,-0.06421715766191483
1707006087437702100,21.7117021484375,0.11514800786972046,0.1508072465658188,-0.06604975461959839
1707006087456660500,21.730660400390626,0.07544180005788803,0.1508072465658188,-0.03367391973733902
1707006087475618600,21.74961865234375,0.06933315098285675,0.145614892244339,0.0062613640911877155
1707006087494577000,21.768576904296875,0.07819069176912308,0.12759438157081604,0.030390523374080658
1707006087513535200,21.78753515625,0.0824667438864708,0.11110103130340576,0.05451968312263489
1707006087532493300,21.806493408203124,0.0821613147854805,0.07780890166759491,0.0847574844956398
1707006087551451600,21.82545166015625,0.10476330667734146,0.03810269013047218,0.09728021919727325
1707006087570410000,21.844409912109374,0.09437860548496246,-0.011377356946468353,0.10613775253295898
1707006087589368300,21.863368408203126,0.08460476994514465,-0.06666062027215958,0.13179408013820648
1707006087608326400,21.882326416015626,0.09896009415388107,-0.08834631741046906,0.16661337018013
1707006087627284700,21.90128466796875,0.12767073512077332,-0.08956804871559143,0.16997312009334564
1707006087646243000,21.9202431640625,0.1334739476442337,-0.07276926934719086,0.18096868693828583
1707006087665201200,21.939201171875,0.11362084746360779,-0.046807512640953064,0.2234237939119339
1707006087684159500,21.958159423828125,0.12492185086011887,-0.04222602769732475,0.28298309445381165
1707006087703117800,21.977117919921874,0.16096286475658417,-0.07276926934719086,0.30772313475608826
1707006087722076200,21.996076171875,0.17837251722812653,-0.11339177191257477,0.30222535133361816
1707006087741034200,22.0150341796875,0.1646280586719513,-0.1372154951095581,0.30894485116004944
1707006087759992600,22.03399267578125,0.12522727251052856,-0.17539454996585846,0.33399030566215515
1707006087778951000,22.052950927734376,0.11148282140493393,-0.23220497369766235,0.3266599476337433
1707006087797909000,22.071908935546876,0.12614357471466064,-0.2541961073875427,0.2582430839538574
1707006087816867300,22.090867431640625,0.13072505593299866,-0.23892448842525482,0.22006404399871826
1707006087835825400,22.109825439453125,0.12125665694475174,-0.2346484363079071,0.19440771639347076
1707006087854783700,22.12878369140625,0.13103049993515015,-0.2141844630241394,0.11682789027690887
1707006087873742000,22.1477421875,0.17134757339954376,-0.13629920780658722,0.03497200831770897
1707006087892700400,22.166700439453123,0.18295399844646454,-0.0019089524867013097,0.007177661173045635
1707006087911658800,22.18565869140625,0.16340632736682892,0.13278673589229584,0.027947064489126205
1707006087930616800,22.204616943359376,0.19364413619041443,0.22655446827411652,0.056657709181308746
1707006087949575200,22.2235751953125,0.26969680190086365,0.2540434002876282,0.03222311660647392
1707006087968533500,22.242533447265625,0.31001389026641846,0.25587597489356995,-0.05566505342721939
1707006087987491600,22.26149169921875,0.25992295145988464,0.25618141889572144,-0.11125374585390091
1707006088006450000,22.280449951171875,0.20738859474658966,0.21983496844768524,-0.081015944480896
1707006088025408300,22.299408203125,0.21655155718326569,0.1508072465658188,0.012675444595515728
1707006088044366300,22.318366455078124,0.2605338394641876,0.07475458085536957,0.10980294644832611
1707006088063324700,22.33732470703125,0.30054548382759094,0.03138317912817001,0.21212279796600342
1707006088082283000,22.356282958984377,0.3454440236091614,-0.004352411720901728,0.33276858925819397
1707006088101241300,22.375241455078125,0.41325002908706665,-0.06299543380737305,0.4427242577075958
1707006088120199700,22.39419970703125,0.47464191913604736,-0.16195552051067352,0.5331322550773621
1707006088139157800,22.41315771484375,0.48472121357917786,-0.2905425727367401,0.5184714794158936
1707006088158116000,22.4321162109375,0.4566214084625244,-0.40171995759010315,0.5013672709465027
1707006088177074400,22.451074462890624,0.4633409380912781,-0.5211440324783325,0.4967857897281647
1707006088196032500,22.470032470703124,0.5287034511566162,-0.588949978351593,0.541989803314209
1707006088214990800,22.488990966796877,0.5888736248016357,-0.6081922650337219,0.6592758297920227
1707006088233949200,22.50794921875,0.573602020740509,-0.6283507943153381,0.7738129496574402
1707006088252907300,22.5269072265625,0.518318772315979,-0.6530908346176147,0.8217658400535583
1707006088271865600,22.545865478515626,0.4838049113750458,-0.6646972298622131,0.8248201608657837
1707006088290824000,22.564823974609375,0.47555822134017944,-0.6982948184013367,0.7988584041595459
1707006088309782300,22.5837822265625,0.44409868121147156,-0.7334195375442505,0.7481566667556763
1707006088328740600,22.60274072265625,0.3949240744113922,-0.709595799446106,0.6708822250366211
1707006088347698700,22.62169873046875,0.3637699782848358,-0.6228529810905457,0.5981893539428711
1707006088366657000,22.640656982421874,0.33200499415397644,-0.5015963315963745,0.5480984449386597
1707006088385615400,22.659615478515626,0.2770271897315979,-0.38614290952682495,0.4546361267566681
1707006088404573700,22.67857373046875,0.2110537886619568,-0.2514472007751465,0.29184064269065857
1707006088423531800,22.69753173828125,0.16310089826583862,-0.12835796177387238,0.13790272176265717
1707006088442490000,22.716489990234376,0.12156209349632263,-0.028787001967430115,0.039858926087617874
1707006088461448400,22.735448486328124,0.09987638890743256,0.07414371520280838,-0.017486004158854485
1707006088480406800,22.75440673828125,0.10445787757635117,0.1804341822862625,-0.04069886729121208
1707006088499365000,22.773365234375,0.1334739476442337,0.26015204191207886,-0.05199986323714256
1707006088518323200,22.7923232421875,0.16859868168830872,0.279394268989563,-0.04589121788740158
1707006088537281500,22.811281494140626,0.19242240488529205,0.23388485610485077,-0.019624030217528343
1707006088556240000,22.830239990234375,0.21166464686393738,0.13370302319526672,0.042913250625133514
1707006088575198200,22.8491982421875,0.21899501979351044,-0.00038179047987796366,0.09361502528190613
1707006088594156300,22.86815625,0.21258094906806946,-0.16165009140968323,0.13820815086364746
1707006088613114600,22.887114501953125,0.17684535682201385,-0.31436628103256226,0.1876882016658783
1707006088632073000,22.906072998046874,0.12614357471466064,-0.4264599680900574,0.22189663350582123
1707006088651031000,22.925031005859374,0.06383536756038666,-0.48327040672302246,0.22708898782730103
1707006088669989400,22.9439892578125,0.02107483521103859,-0.4719693958759308,0.20479241013526917
1707006088688947700,22.96294775390625,-0.0030543238390237093,-0.37575820088386536,0.20357069373130798
1707006088707906000,22.981906005859376,-0.024434590712189674,-0.24900375306606293,0.1971566081047058
1707006088726864400,23.000864501953124,-0.034208428114652634,-0.11766783148050308,0.1623373180627823
1707006088745822700,23.01982275390625,-0.02626718580722809,-0.021151192486286163,0.12293653935194016
1707006088764780800,23.03878076171875,0.007941242307424545,0.020693045109510422,0.10888664424419403
1707006088783739100,23.0577392578125,0.039706211537122726,0.030161447823047638,0.1104138121008873
1707006088802697500,23.076697509765626,0.05070177838206291,0.02130390889942646,0.08720094710588455
1707006088821655800,23.09565576171875,0.06414080411195755,-0.01259908638894558,0.06337722390890121
1707006088840614000,23.11461376953125,0.0772743970155716,-0.05719221383333206,0.05696314200758934
1707006088859572200,23.133572265625,0.0818558782339096,-0.07490729540586472,0.06337722390890121
1707006088878530600,23.152530517578125,0.0766635313630104,-0.05047270283102989,0.04993819445371628
1707006088897489000,23.171489013671874,0.06200277432799339,0.008170315995812416,0.014202605932950974
1707006088916447200,23.190447265625,0.05100720748305321,0.06192641705274582,-0.012293653562664986
1707006088935405300,23.2094052734375,0.04276053607463837,0.09796743839979172,-0.00923932995647192
1707006088954363600,23.22836376953125,0.03695731982588768,0.12576179206371307,0.006566796451807022
