time,seconds_elapsed,z,y,x
1707005576164222200,0.04422216796875,0,0,0
1707005576183179000,0.063178955078125,-0.07346677780151367,0.02923727035522461,0.06405520439147949
1707005576202135800,0.0821357421875,0.012762069702148438,0.03094482421875,0.04443526268005371
1707005576221092900,0.1010927734375,-0.05991554260253906,0.04896354675292969,0.04192471504211426
1707005576240049700,0.120049560546875,-0.07051658630371094,0.10239219665527344,0.016417503356933594
1707005576259006500,0.13900634765625,-0.010353565216064453,0.07949113845825195,-0.0033960342407226562
1707005576277963500,0.157963623046875,0.027482032775878906,0.022195816040039062,0.06547880172729492
1707005576296920300,0.17692041015625,0.09434890747070312,0.021698951721191406,0.08377480506896973
1707005576315877000,0.195877197265625,0.08460521697998047,0.06052684783935547,0.06407046318054199
1707005576334834000,0.214833984375,0.10908794403076172,0.07757902145385742,-0.013646364212036133
1707005576353791000,0.233791015625,0.14219141006469727,0.1543722152709961,0.04014444351196289
1707005576372747800,0.252747802734375,0.21122264862060547,0.0722799301147461,0.30380868911743164
1707005576391704600,0.27170458984375,0.1659717559814453,0.10101842880249023,0.13354778289794922
1707005576410661600,0.29066162109375,-0.04170846939086914,0.015952110290527344,-0.03859376907348633
1707005576429618400,0.309618408203125,-0.09453535079956055,-0.11079978942871094,-0.2100820541381836
1707005576448575200,0.3285751953125,-0.1085214614868164,-0.20055055618286133,-0.18841242790222168
1707005576467532000,0.347531982421875,-0.21865272521972656,0.0873408317565918,0.05434560775756836
1707005576486488800,0.36648876953125,-0.3169722557067871,0.14808940887451172,-0.06317257881164551
1707005576505446000,0.38544580078125,-0.25662755966186523,0.08851051330566406,-0.12272810935974121
1707005576524402700,0.404402587890625,-0.292294979095459,0.042537689208984375,-0.03835892677307129
1707005576543359500,0.423359375,-0.21438884735107422,0.013936042785644531,0.0790102481842041
1707005576562316500,0.442316650390625,-0.25872182846069336,0.03707170486450195,0.16178154945373535
1707005576581273300,0.4612734375,-0.2639608383178711,0.10889720916748047,0.04023599624633789
1707005576600230100,0.480230224609375,-0.3475794792175293,-0.07558012008666992,-0.21492791175842285
1707005576619187000,0.49918701171875,-0.4316258430480957,-0.003178119659423828,-0.26361680030822754
1707005576638144000,0.51814404296875,0.06450176239013672,0.03558826446533203,-0.16280508041381836
1707005576657100800,0.537100830078125,0.4139714241027832,0.2413945198059082,0.40831899642944336
1707005576676057600,0.5560576171875,0.362393856048584,0.3729410171508789,0.3963494300842285
1707005576695014700,0.5750146484375,0.23870182037353516,0.0938558578491211,0.07787656784057617
1707005576713971500,0.593971435546875,0.2938079833984375,0.051273345947265625,-0.13021612167358398
1707005576732928300,0.61292822265625,0.3103971481323242,0.10213804244995117,-0.08917951583862305
1707005576751885000,0.631885009765625,0.33150434494018555,-0.0022449493408203125,0.02394866943359375
1707005576770842000,0.650842041015625,0.5370578765869141,-0.056044578552246094,0.12214899063110352
1707005576789799000,0.669798828125,0.36675119400024414,0.022147178649902344,0.34651660919189453
1707005576808755700,0.688755615234375,0.486971378326416,-0.08384990692138672,0.33156633377075195
1707005576827712800,0.707712646484375,0.2547945976257324,0.056339263916015625,0.34156322479248047
1707005576846669600,0.726669677734375,0.2157573699951172,0.12770938873291016,0.21979808807373047
1707005576865626400,0.74562646484375,0.36922311782836914,-0.1671123504638672,0.23978042602539062
1707005576884583200,0.764583251953125,0.18442249298095703,-0.06294488906860352,0.1476888656616211
1707005576903540200,0.783540283203125,0.13001060485839844,-0.08395099639892578,0.13544416427612305
1707005576922497000,0.8024970703125,0.032587528228759766,-0.111724853515625,-0.07280969619750977
1707005576941453800,0.821453857421875,-0.11394786834716797,-0.14235496520996094,-0.2295551300048828
1707005576960411000,0.840410888671875,-0.024862289428710938,-0.16904640197753906,-0.19001054763793945
1707005576979367700,0.85936767578125,0.06730079650878906,-0.06329202651977539,-0.034996986389160156
1707005576998324500,0.878324462890625,0.06905984878540039,0.006613254547119141,0.09355640411376953
1707005577017281500,0.897281494140625,0.009122371673583984,0.20682668685913086,0.1255488395690918
1707005577036238300,0.91623828125,-0.2300739288330078,0.13250112533569336,-0.060276031494140625
1707005577055195400,0.9351953125,-0.07374191284179688,-0.014735698699951172,-0.12944650650024414
1707005577074152200,0.954152099609375,-0.015118598937988281,-0.05768632888793945,-0.12859678268432617
1707005577093109000,0.97310888671875,0.10185003280639648,0.0013074874877929688,0.05422258377075195
1707005577112065800,0.992065673828125,0.07721376419067383,0.13106346130371094,0.19042110443115234
1707005577131022800,1.01102294921875,0.07162237167358398,0.013270378112792969,0.06358718872070312
1707005577149979600,1.029979736328125,-0.06114387512207031,-0.09291410446166992,-0.14653921127319336
1707005577168936700,1.048936767578125,0.06749105453491211,0.0038061141967773438,-0.06863164901733398
1707005577187893500,1.0678935546875,0.35352134704589844,-0.07139110565185547,0.08917856216430664
1707005577206850300,1.086850341796875,0.6278681755065918,-0.04021024703979492,0.2515072822570801
1707005577225807400,1.105807373046875,0.5356564521789551,0.07163095474243164,0.6987056732177734
1707005577244764200,1.12476416015625,0.39464473724365234,0.2034282684326172,0.7972369194030762
1707005577263721200,1.14372119140625,0.03254127502441406,0.14680719375610352,-0.02972269058227539
1707005577282678000,1.162677978515625,-0.39953088760375977,0.2984886169433594,-0.6572036743164062
1707005577301634800,1.181634765625,-0.43495845794677734,0.22604799270629883,-0.6844158172607422
1707005577320592000,1.200591796875,-0.1342635154724121,0.1131601333618164,-0.2248058319091797
1707005577339548700,1.219548583984375,0.1691150665283203,0.169097900390625,0.030983448028564453
1707005577358505500,1.23850537109375,0.07309722900390625,-0.02437734603881836,0.027956008911132812
1707005577377462500,1.257462646484375,0.047515869140625,-0.09726476669311523,-0.24669551849365234
1707005577396419300,1.27641943359375,-0.015301704406738281,-0.052689552307128906,-0.1729140281677246
1707005577415376400,1.29537646484375,-0.17293930053710938,-0.04528236389160156,-0.07336235046386719
1707005577434333200,1.314333251953125,-0.11182689666748047,-0.03135347366333008,-0.06542015075683594
1707005577453290200,1.333290283203125,-0.06648111343383789,0.09429121017456055,0.027826309204101562
1707005577472247000,1.3522470703125,0.1587204933166504,0.07605457305908203,0.08868074417114258
1707005577491204000,1.3712041015625,0.08692598342895508,-0.06191396713256836,0.10063886642456055
1707005577510161000,1.390160888671875,-0.047110557556152344,0.11167287826538086,-0.0452876091003418
1707005577529118000,1.409117919921875,-0.1712474822998047,-0.01922464370727539,-0.31983137130737305
1707005577548074800,1.42807470703125,-0.18158864974975586,0.17369890213012695,-0.14004039764404297
1707005577567031800,1.44703173828125,-0.07220458984375,0.31131839752197266,0.1263270378112793
1707005577585988600,1.465988525390625,0.04861783981323242,0.1118464469909668,0.05990791320800781
1707005577604945700,1.484945556640625,-0.01307058334350586,0.06247758865356445,-0.015261650085449219
1707005577623902500,1.50390234375,0.01421213150024414,0.04717397689819336,-0.18804287910461426
1707005577642859500,1.522859619140625,-0.027083873748779297,0.10436868667602539,-0.1593008041381836
1707005577661816300,1.54181640625,-0.14528560638427734,-0.0008997917175292969,-0.04862165451049805
1707005577680773400,1.5607734375,-0.12279558181762695,-0.1268930435180664,-0.20041370391845703
1707005577699730200,1.579730224609375,-0.020956993103027344,-0.1730513572692871,-0.02779078483581543
1707005577718687200,1.598687255859375,0.0614628791809082,-0.09040403366088867,0.14638161659240723
1707005577737644000,1.61764404296875,0.0643610954284668,-0.1394357681274414,0.14780330657958984
1707005577756601000,1.63660107421875,-0.06301498413085938,-0.12270069122314453,-0.12599396705627441
1707005577775558000,1.655557861328125,-0.03452587127685547,0.01989459991455078,-0.13162517547607422
1707005577794515000,1.674514892578125,0.12628459930419922,0.11700201034545898,0.06498265266418457
1707005577813471700,1.6934716796875,0.05446052551269531,-0.13964414596557617,-0.07037210464477539
1707005577832428800,1.7124287109375,0.061708927154541016,-0.1320948600769043,-0.18802356719970703
1707005577851385900,1.7313857421875,0.03803205490112305,-0.017857074737548828,0.014736175537109375
1707005577870342700,1.7503427734375,-0.005950927734375,0.00920867919921875,0.1696336269378662
1707005577889299700,1.7692998046875,-0.16937923431396484,-0.15544462203979492,-0.09027290344238281
1707005577908256500,1.788256591796875,-0.07278060913085938,-0.007148265838623047,-0.12324810028076172
1707005577927213600,1.807213623046875,0.10007715225219727,0.05349540710449219,-0.049297332763671875
1707005577946170600,1.826170654296875,0.18526363372802734,-0.07833147048950195,-0.06152701377868652
1707005577965127400,1.84512744140625,0.21096086502075195,-0.20862436294555664,-0.11521744728088379
1707005577984084500,1.86408447265625,0.26459789276123047,-0.2681450843811035,-0.27587056159973145
1707005578003041500,1.88304150390625,0.27625560760498047,-0.30899477005004883,-0.3424079418182373
1707005578021998300,1.901998291015625,0.2116527557373047,-0.3074164390563965,-0.38513898849487305
1707005578040955400,1.920955322265625,0.13511896133422852,-0.34056949615478516,-0.46616673469543457
1707005578059912200,1.939912109375,0.07214069366455078,-0.3364248275756836,-0.5509960651397705
1707005578078869200,1.958869140625,0.12003087997436523,-0.39164257049560547,-0.5159249305725098
1707005578097826300,1.977826416015625,0.12840652465820312,-0.36806249618530273,-0.6031692028045654
1707005578116783000,1.996783203125,0.1134939193725586,-0.29773759841918945,-0.6536328792572021
1707005578135740200,2.015740234375,0.22217321395874023,-0.3200559616088867,-0.6573021411895752
1707005578154697200,2.034697265625,0.3985590934753418,-0.5090088844299316,-0.6268022060394287
1707005578173654000,2.053654052734375,0.6434564590454102,-0.5052361488342285,-0.4571988582611084
1707005578192611000,2.072611083984375,0.6969785690307617,-0.41254758834838867,-0.2700643539428711
1707005578211568000,2.091568115234375,0.757962703704834,-0.38570261001586914,-0.2854762077331543
1707005578230525000,2.11052490234375,0.5898256301879883,-0.41367578506469727,-0.4180607795715332
1707005578249482000,2.12948193359375,0.4325747489929199,-0.3794827461242676,-0.628652811050415
1707005578268439000,2.14843896484375,0.344851016998291,-0.2642850875854492,-0.6939833164215088
1707005578287395800,2.167395751953125,0.29941654205322266,-0.046009063720703125,-0.5873661041259766
1707005578306353000,2.186352783203125,0.2131643295288086,0.023423194885253906,-0.5023949146270752
1707005578325310000,2.20531005859375,0.17286920547485352,-0.04793596267700195,-0.5794196128845215
1707005578344267000,2.22426708984375,0.14991283416748047,-0.07351493835449219,-0.5571937561035156
1707005578363223800,2.243223876953125,0.05273723602294922,0.053829193115234375,-0.6405556201934814
1707005578382180900,2.262180908203125,0.05211162567138672,0.2036747932434082,-0.6225688457489014
1707005578401138000,2.281137939453125,0.13416004180908203,0.23814630508422852,-0.5669898986816406
1707005578420095000,2.300094970703125,0.1806931495666504,0.35664987564086914,-0.45319032669067383
1707005578439051800,2.3190517578125,0.19405508041381836,0.609957218170166,-0.47823190689086914
1707005578458008800,2.3380087890625,0.2589759826660156,0.5707745552062988,-0.4321725368499756
1707005578476966000,2.3569658203125,0.28508949279785156,0.49430370330810547,-0.34391307830810547
1707005578495922700,2.375922607421875,0.3006110191345215,0.5297913551330566,-0.14512944221496582
1707005578514879700,2.394879638671875,0.12877464294433594,0.5346899032592773,-0.039829254150390625
1707005578533836800,2.4138369140625,0.10489130020141602,0.3932523727416992,-0.03287839889526367
1707005578552793900,2.4327939453125,-0.036182403564453125,-0.1947941780090332,-0.06565570831298828
1707005578571751000,2.4517509765625,-0.2594161033630371,-0.5406641960144043,0.009923934936523438
1707005578590707700,2.470707763671875,-0.40629148483276367,-0.2836017608642578,0.053314924240112305
1707005578609664800,2.489664794921875,-0.4365830421447754,-0.008991241455078125,-0.007018566131591797
1707005578628621800,2.508621826171875,-0.5643129348754883,0.07401895523071289,0.03997230529785156
1707005578647579000,2.527578857421875,-0.6528992652893066,0.015748023986816406,-0.009407758712768555
1707005578666535700,2.54653564453125,-0.44730281829833984,-0.10449409484863281,-0.04080390930175781
1707005578685492700,2.56549267578125,-0.07239151000976562,0.08850860595703125,0.46279191970825195
1707005578704449800,2.58444970703125,-0.08135461807250977,0.006917476654052734,0.5716314315795898
1707005578723406800,2.60340673828125,-0.034761905670166016,-0.012533187866210938,0.4693880081176758
1707005578742364000,2.622364013671875,-0.3579750061035156,0.041463375091552734,0.34967708587646484
1707005578761320700,2.64132080078125,-0.5852432250976562,0.03839397430419922,0.2576594352722168
1707005578780277800,2.66027783203125,-0.6423850059509277,0.01687335968017578,0.25335025787353516
1707005578799234800,2.67923486328125,-0.5983457565307617,-0.22511911392211914,0.2661576271057129
1707005578818192000,2.69819189453125,-0.46648311614990234,-0.3528294563293457,0.3988327980041504
1707005578837149000,2.71714892578125,-0.5854001045227051,-0.3809237480163574,0.40395307540893555
1707005578856105700,2.736105712890625,-0.9121541976928711,-0.2371811866760254,0.24944448471069336
1707005578875062800,2.755062744140625,-1.303351879119873,-0.45206165313720703,-0.2571277618408203
1707005578894019800,2.774019775390625,-1.8395800590515137,0.39366579055786133,0.08519268035888672
1707005578912977000,2.792976806640625,-1.849349021911621,-0.1266040802001953,-1.0701756477355957
1707005578931934000,2.811933837890625,-1.9864897727966309,-0.7829880714416504,-1.1648950576782227
1707005578950891000,2.83089111328125,-1.7482986450195312,-0.11919069290161133,-0.5233883857727051
1707005578969848000,2.84984814453125,-2.2444229125976562,2.647216796875,0.1214756965637207
1707005578988804900,2.868804931640625,-1.505751609802246,-0.6512174606323242,-0.8822364807128906
1707005579007762000,2.887761962890625,-1.1216785907745361,-0.5011205673217773,-0.7212047576904297
1707005579026719000,2.906718994140625,-0.8773114681243896,1.308244228363037,-0.44936037063598633
1707005579045676000,2.925676025390625,-0.9379665851593018,1.3024158477783203,-0.05767107009887695
1707005579064633000,2.944633056640625,-0.9729816913604736,0.23894739151000977,0.09842109680175781
1707005579083590100,2.963590087890625,-0.8127830028533936,0.086151123046875,0.6895952224731445
1707005579102547000,2.982546875,-0.6324992179870605,0.34709739685058594,1.504438877105713
1707005579121504300,3.001504150390625,-0.49776363372802734,-0.12092208862304688,2.010709285736084
1707005579140461000,3.0204609375,-0.6203389167785645,0.27004575729370117,1.5706539154052734
1707005579159418000,3.039418212890625,-0.7850100994110107,0.9972081184387207,1.6795525550842285
1707005579178375200,3.058375244140625,-0.6783491373062134,0.5309100151062012,2.008236885070801
1707005579197332200,3.077332275390625,-0.32680559158325195,-0.49832963943481445,1.911508560180664
1707005579216289300,3.096289306640625,-0.30976295471191406,-0.23728513717651367,1.9361820220947266
1707005579235246300,3.115246337890625,-0.3903651237487793,0.6999731063842773,2.0842199325561523
1707005579254203400,3.134203369140625,-0.3992938995361328,0.2360992431640625,1.7513341903686523
1707005579273160400,3.153160400390625,-0.420795202255249,-0.39536523818969727,0.7329702377319336
1707005579292117200,3.1721171875,-0.48339390754699707,-0.2541332244873047,-0.05251598358154297
1707005579311074600,3.191074462890625,-0.7808144092559814,0.3807687759399414,-0.140289306640625
1707005579330031400,3.21003125,-0.9570440053939819,0.7985782623291016,0.7983074188232422
1707005579348988400,3.228988525390625,-0.5594079494476318,0.23682022094726562,1.8915376663208008
1707005579367945500,3.247945556640625,-0.20699453353881836,-0.21531009674072266,2.317704439163208
1707005579386902500,3.266902587890625,-0.1827232837677002,0.2594728469848633,2.3660759925842285
1707005579405859600,3.285859619140625,-0.040473341941833496,0.6059885025024414,2.4206631183624268
1707005579424816600,3.304816650390625,0.006150245666503906,-0.31128883361816406,2.012280225753784
1707005579443773700,3.323773681640625,0.09867620468139648,-0.9232549667358398,1.616220474243164
1707005579462730800,3.342730712890625,-0.19292140007019043,-0.4472799301147461,1.2159416675567627
1707005579481687800,3.361687744140625,-0.7768850326538086,0.46351051330566406,1.2010753154754639
1707005579500644900,3.380644775390625,-1.138628363609314,1.098607063293457,1.3292303085327148
1707005579519602000,3.399601806640625,-1.330134391784668,0.9169435501098633,1.1832184791564941
1707005579538559000,3.41855908203125,-1.2973281145095825,0.488372802734375,0.7495274543762207
1707005579557515800,3.437515869140625,-1.4447814226150513,0.38830089569091797,0.7295694351196289
1707005579576473000,3.45647314453125,-1.5426045656204224,0.3819456100463867,0.9534924030303955
1707005579595430000,3.475429931640625,-1.538188099861145,0.3079662322998047,1.1885679960250854
1707005579614387000,3.494386962890625,-1.2768688201904297,0.15628814697265625,1.5142779350280762
1707005579633344000,3.513343994140625,-1.1159937381744385,0.029242515563964844,1.5905121564865112
1707005579652301000,3.532301025390625,-0.9367656707763672,-0.01810932159423828,1.5078681707382202
1707005579671258000,3.551258056640625,-1.1705347299575806,-0.07977867126464844,1.0266262292861938
1707005579690215200,3.570215087890625,-1.3662946224212646,0.008067131042480469,0.8192316293716431
1707005579709172200,3.589172119140625,-1.168222188949585,0.10307121276855469,0.9788014888763428
1707005579728129300,3.60812939453125,-0.684706449508667,0.7163476943969727,1.5450718402862549
1707005579747086300,3.62708642578125,-0.05109286308288574,0.7011585235595703,2.19864559173584
1707005579766043400,3.64604345703125,0.8427109718322754,0.10914897918701172,2.2778279781341553
1707005579785000400,3.66500048828125,0.9044039249420166,-0.4214153289794922,1.6549081802368164
1707005579803957500,3.68395751953125,0.45469093322753906,-0.8366689682006836,0.6850744485855103
1707005579822914600,3.70291455078125,-0.07551455497741699,-1.1989593505859375,-0.38278067111968994
1707005579841871600,3.72187158203125,-0.38233447074890137,-1.397592544555664,-1.1106152534484863
1707005579860828700,3.74082861328125,-0.5932577848434448,-1.2016267776489258,-1.5777678489685059
1707005579879785700,3.75978564453125,-0.8236122131347656,-0.7807064056396484,-1.8116353750228882
1707005579898742800,3.77874267578125,-0.9011025428771973,-0.21115684509277344,-1.7215936183929443
1707005579917699800,3.797699951171875,-0.7574300765991211,0.3573760986328125,-1.3831286430358887
1707005579936657000,3.816656982421875,-0.5795893669128418,0.7835311889648438,-0.8732469081878662
1707005579955614000,3.835614013671875,-0.4103405475616455,0.8801517486572266,-0.23418843746185303
1707005579974571000,3.854571044921875,-0.11918115615844727,0.6864118576049805,0.1772385835647583
1707005579993528000,3.873528076171875,0.21620464324951172,0.3157787322998047,0.4561159610748291
1707005580012485000,3.892485107421875,0.31464123725891113,-0.11135101318359375,0.4235529899597168
1707005580031442200,3.911442138671875,0.2001023292541504,-0.3437166213989258,0.320767879486084
1707005580050399200,3.930399169921875,-0.09514904022216797,-0.39403533935546875,0.38370752334594727
1707005580069356300,3.949356201171875,-0.45928144454956055,-0.4037504196166992,0.5049374103546143
1707005580088313300,3.968313232421875,-0.5797572135925293,-0.3724393844604492,0.585191011428833
1707005580107270400,3.9872705078125,-0.6035988330841064,-0.253204345703125,0.6414694786071777
1707005580126227500,4.0062275390625,-0.40327489376068115,-0.20380306243896484,0.6770186424255371
1707005580145184500,4.0251845703125,-0.22922325134277344,-0.39960289001464844,0.5904181003570557
1707005580164141600,4.0441416015625,-0.2941622734069824,-0.7783985137939453,0.26035523414611816
1707005580183098600,4.0630986328125,-0.35361409187316895,-1.1650381088256836,-0.2552938461303711
1707005580202055700,4.0820556640625,-0.38701605796813965,-1.401712417602539,-0.756005048751831
1707005580221012700,4.1010126953125,-0.367753267288208,-1.495926856994629,-0.9616208076477051
1707005580239969800,4.1199697265625,-0.3135700225830078,-1.3395447731018066,-1.1659010648727417
1707005580258926800,4.1389267578125,-0.28591346740722656,-1.0511655807495117,-1.319035291671753
1707005580277884000,4.1578837890625,-0.17387986183166504,-0.4241466522216797,-1.3364317417144775
1707005580296841000,4.176841064453125,-0.02132725715637207,0.6626968383789062,-1.1984069347381592
1707005580315798000,4.195798095703125,-0.23938369750976562,2.1165952682495117,-0.869181752204895
1707005580334755000,4.214755126953125,-0.9768526554107666,3.408148765563965,-0.44004249572753906
1707005580353712000,4.233712158203125,-1.1048983335494995,2.8611764907836914,-0.5798327922821045
1707005580372669400,4.25266943359375,-0.31385064125061035,1.4392404556274414,-0.8639316558837891
1707005580391626200,4.271626220703125,0.05763530731201172,1.137497901916504,-0.6485288143157959
1707005580410583300,4.290583251953125,-0.14110887050628662,2.243210792541504,-0.022995710372924805
1707005580429540600,4.30954052734375,-0.4667123556137085,3.1869583129882812,0.5062441825866699
1707005580448497700,4.32849755859375,-0.47267627716064453,3.1188430786132812,0.6701505184173584
1707005580467454700,4.347454833984375,-0.4473065137863159,1.8726911544799805,0.6486163139343262
1707005580486411800,4.366411865234375,-0.7249515056610107,0.23508358001708984,0.2580230236053467
1707005580505368800,4.385368896484375,-1.1613295078277588,-0.6770858764648438,-0.31753015518188477
1707005580524326000,4.404325927734375,-1.5538842678070068,-0.8628568649291992,-1.257850170135498
1707005580543283000,4.423282958984375,-1.915012240409851,-0.5207233428955078,-2.2083802223205566
1707005580562240000,4.442239990234375,-2.1360673904418945,-0.09659671783447266,-2.2020680904388428
1707005580581197000,4.461197021484375,-1.902968406677246,0.2709341049194336,-1.7603590488433838
1707005580600154000,4.480154052734375,-1.5856094360351562,0.6224889755249023,-1.6823363304138184
1707005580619111200,4.499111083984375,-1.5537419319152832,0.8027458190917969,-1.6072192192077637
1707005580638068200,4.518068115234375,-0.31658053398132324,0.26469993591308594,-1.5520257949829102
1707005580657025300,4.537025390625,-0.559091329574585,1.2959566116333008,-0.16524791717529297
1707005580675982300,4.555982421875,-3.81742000579834,1.7362489700317383,-0.711390495300293
1707005580694939400,4.574939453125,-1.878818154335022,-0.14253616333007812,-2.4679882526397705
1707005580713896400,4.593896484375,-1.624264121055603,-1.1439571380615234,-1.8593196868896484
1707005580732853500,4.612853515625,-1.59200918674469,-0.5888156890869141,-1.330169439315796
1707005580751810800,4.631810791015625,-1.0395276546478271,-0.289276123046875,-1.0092802047729492
1707005580770768000,4.650767822265625,-0.6945186853408813,0.15186214447021484,-0.5823183059692383
1707005580789724700,4.669724609375,-0.4528312683105469,0.47246742248535156,-0.33231616020202637
1707005580808681700,4.688681640625,-0.21440649032592773,0.3724679946899414,-0.48296308517456055
1707005580827639000,4.70763916015625,-0.7480514049530029,0.06570148468017578,-0.7519309520721436
1707005580846596000,4.72659619140625,-1.6523016691207886,-0.18617630004882812,-1.1750555038452148
1707005580865553200,4.74555322265625,-1.7921825647354126,0.0008344650268554688,-1.3211488723754883
1707005580884510200,4.76451025390625,-1.8383864164352417,0.3263216018676758,-0.690340518951416
1707005580903467300,4.78346728515625,-1.5234134197235107,0.2577848434448242,-0.30635929107666016
1707005580922424300,4.80242431640625,-1.0549426078796387,0.49162769317626953,0.061812400817871094
1707005580941381400,4.82138134765625,-0.7107840776443481,1.2470569610595703,0.22851324081420898
1707005580960338400,4.84033837890625,-0.3316560983657837,2.672290802001953,0.9105048179626465
1707005580979295500,4.85929541015625,-0.02446281909942627,3.3613433837890625,1.3606228828430176
1707005580998252500,4.87825244140625,0.8257648944854736,1.6955223083496094,0.9558453559875488
1707005581017209600,4.897209716796875,1.2212785482406616,-0.3953218460083008,-0.07712697982788086
1707005581036166700,4.916166748046875,0.7643804550170898,-0.9138655662536621,-1.2727675437927246
1707005581055123700,4.935123779296875,0.26112115383148193,0.04521465301513672,-1.2356715202331543
1707005581074081000,4.9540810546875,0.03814220428466797,1.596872329711914,-0.20574665069580078
1707005581093038000,4.9730380859375,0.20845580101013184,2.250239849090576,0.3901653289794922
1707005581111995100,4.9919951171875,0.7277214527130127,1.4509735107421875,0.4359626770019531
1707005581130952200,5.0109521484375,1.2209649085998535,0.2750697135925293,0.2911348342895508
1707005581149909200,5.0299091796875,1.5142061710357666,-0.47493410110473633,0.22023773193359375
1707005581168866300,5.0488662109375,1.4564979076385498,-0.6269903182983398,0.1775074005126953
1707005581187823400,5.0678232421875,1.3414185047149658,-0.4514808654785156,0.10928869247436523
1707005581206780400,5.086780517578125,1.0952131748199463,-0.4189324378967285,-0.05805063247680664
1707005581225737500,5.105737548828125,1.1315267086029053,-0.5160999298095703,0.21863603591918945
1707005581244694500,5.124694580078125,1.5730500221252441,-0.3886704444885254,0.4518752098083496
1707005581263651800,5.14365185546875,1.4192368984222412,0.41680383682250977,0.8929376602172852
1707005581282608600,5.162608642578125,1.3689155578613281,0.9433145523071289,1.5582098960876465
1707005581301565700,5.181565673828125,1.3607087135314941,0.3104252815246582,1.3579273223876953
1707005581320522800,5.200522705078125,1.2121431827545166,-0.3221168518066406,0.51885986328125
1707005581339480000,5.21947998046875,0.8612412810325623,-0.29697465896606445,-0.02840423583984375
1707005581358437000,5.23843701171875,0.4996874928474426,-0.15143728256225586,-0.21050071716308594
1707005581377394200,5.257394287109375,0.43617308139801025,0.008789539337158203,-0.20661354064941406
1707005581396351200,5.276351318359375,0.6190152168273926,-0.09758758544921875,-0.32837772369384766
1707005581415308300,5.295308349609375,0.7090777158737183,-0.1571643352508545,-0.4770183563232422
1707005581434265300,5.314265380859375,0.7389132976531982,-0.23314666748046875,-0.6679868698120117
1707005581453222400,5.333222412109375,0.6311327219009399,-0.33966803550720215,-0.8621072769165039
1707005581472179500,5.352179443359375,0.4161111116409302,-0.4586930274963379,-1.3120098114013672
1707005581491136500,5.371136474609375,0.2576296329498291,-0.4588024616241455,-1.7157936096191406
1707005581510093800,5.39009375,0.10814189910888672,-0.33255743980407715,-2.1032209396362305
1707005581529051000,5.40905078125,0.08711099624633789,-0.16338896751403809,-2.2647972106933594
1707005581548008000,5.428008056640625,0.4298989772796631,0.2600061893463135,-2.4350719451904297
1707005581566965000,5.446965087890625,0.6075531244277954,0.6408119201660156,-2.224228858947754
1707005581585922000,5.465922119140625,0.7096234560012817,0.17937135696411133,-1.7003345489501953
1707005581604879000,5.484879150390625,0.4259216785430908,-0.3267526626586914,-1.4473614692687988
1707005581623836200,5.503836181640625,0.5884017944335938,0.9286899566650391,-0.763850212097168
1707005581642793200,5.522793212890625,0.9705917835235596,1.9434928894042969,-0.041068077087402344
1707005581661750300,5.541750244140625,0.0561063289642334,0.9742612838745117,-0.3225717544555664
1707005581680707600,5.56070751953125,0.37616097927093506,-0.48442983627319336,-0.19080162048339844
1707005581699664600,5.57966455078125,1.1080418825149536,-0.6627464294433594,0.5027790069580078
1707005581718621700,5.59862158203125,1.1989926099777222,-0.24924492835998535,0.8402843475341797
1707005581737578800,5.617578857421875,0.9497552514076233,-0.09844088554382324,0.4171609878540039
1707005581756535800,5.636535888671875,0.9141661524772644,0.11458778381347656,-0.007725715637207031
1707005581775492900,5.655492919921875,0.7960641384124756,0.25213623046875,-0.06623268127441406
1707005581794450000,5.674449951171875,0.822746992111206,0.08087158203125,-0.1205129623413086
1707005581813407000,5.693406982421875,0.14789849519729614,-0.2996494770050049,0.03761863708496094
1707005581832364000,5.712364013671875,-0.6169389486312866,-0.575941801071167,0.04468536376953125
1707005581851321000,5.731321044921875,-0.9672783613204956,-0.49317502975463867,-0.0577392578125
1707005581870278400,5.7502783203125,-0.9545304775238037,0.015991926193237305,-0.23219013214111328
1707005581889235500,5.7692353515625,-0.8406707048416138,0.15558147430419922,-0.3848133087158203
1707005581908192500,5.788192626953125,-1.2698911428451538,0.23334050178527832,0.15958786010742188
1707005581927149600,5.807149658203125,-1.1045300960540771,0.41222548484802246,0.24498939514160156
1707005581946106600,5.826106689453125,-0.827850878238678,0.5575175285339355,0.2949705123901367
1707005581965064000,5.84506396484375,-0.6346243619918823,0.458554744720459,0.5016813278198242
1707005581984021000,5.86402099609375,-0.47980713844299316,0.4525279998779297,0.19992542266845703
1707005582002978000,5.88297802734375,-0.05925565958023071,0.7941594123840332,-0.18807315826416016
1707005582021935000,5.90193505859375,0.19739872217178345,0.9930415153503418,-0.34870147705078125
1707005582040892200,5.92089208984375,0.6347395181655884,0.6146903038024902,0.04909229278564453
1707005582059849200,5.93984912109375,1.206500768661499,0.28481054306030273,0.802668571472168
1707005582078806300,5.95880615234375,2.1402435302734375,0.8532791137695312,1.7033624649047852
1707005582097763300,5.977763427734375,0.0671466588973999,2.0095090866088867,1.352421760559082
1707005582116720600,5.996720703125,-0.5317815542221069,2.300905704498291,0.0002899169921875
1707005582135677700,6.015677734375,-0.7589483857154846,2.1239795684814453,-1.0137758255004883
1707005582154634800,6.034634765625,-1.0157041549682617,1.5511488914489746,-1.6508893966674805
1707005582173591800,6.053591796875,-1.3435616493225098,0.9868369102478027,-2.5521669387817383
1707005582192548900,6.072548828125,-0.831730306148529,1.1136093139648438,-2.406460762023926
1707005582211506000,6.091505859375,-0.01781916618347168,1.2967910766601562,-1.5009222030639648
1707005582230463000,6.110462890625,0.8070684671401978,1.2245845794677734,-0.36675453186035156
1707005582249420300,6.129420166015625,1.2500941753387451,0.9382390975952148,0.24739360809326172
1707005582268377300,6.14837744140625,0.9513612985610962,0.7300763130187988,0.4347085952758789
1707005582287334400,6.16733447265625,0.41218698024749756,0.1941237449645996,0.4437532424926758
1707005582306291500,6.18629150390625,-0.30303096771240234,0.1762843132019043,-0.15877151489257812
1707005582325248500,6.20524853515625,-0.549351692199707,1.611572265625,-0.7285079956054688
1707005582344205800,6.224205810546875,-0.4497462511062622,2.416630268096924,-0.9233932495117188
1707005582363163000,6.243162841796875,-0.48798954486846924,1.4631681442260742,-1.3228721618652344
1707005582382120000,6.262119873046875,-0.48492956161499023,0.6784195899963379,-1.2107667922973633
1707005582401077000,6.281076904296875,-0.5241185426712036,0.8629951477050781,-0.6573553085327148
1707005582420034300,6.300034423828125,-0.4586668014526367,1.2295608520507812,0.059670448303222656
1707005582438991400,6.318991455078125,-0.6581506729125977,1.2504034042358398,0.21938419342041016
1707005582457948400,6.337948486328125,-0.7622048854827881,0.9347419738769531,-0.07391166687011719
1707005582476905500,6.356905517578125,-0.8083905577659607,0.4702301025390625,-0.3827991485595703
1707005582495862800,6.37586279296875,-0.9991689920425415,0.021483898162841797,-0.6118545532226562
1707005582514819800,6.39481982421875,-1.076695442199707,-0.2851271629333496,-0.4502067565917969
1707005582533777000,6.41377685546875,-1.0938749313354492,-0.36982059478759766,-0.13047313690185547
1707005582552734000,6.43273388671875,-0.7675061821937561,-0.19126033782958984,-0.1026144027709961
1707005582571691000,6.45169091796875,-0.3886767625808716,0.004993915557861328,-0.2198657989501953
1707005582590648300,6.4706484375,0.4387401342391968,0.15520381927490234,0.3169717788696289
1707005582609605400,6.48960546875,1.0143187046051025,0.0128326416015625,0.8742618560791016
1707005582628562400,6.5085625,1.0430941581726074,-0.26808881759643555,1.1851215362548828
1707005582647519700,6.527519775390625,0.9010361433029175,-0.3220858573913574,1.2248039245605469
1707005582666476800,6.546476806640625,1.0328572988510132,0.10776853561401367,0.8834800720214844
1707005582685433900,6.565433837890625,0.9966732263565063,0.700261116027832,0.3881416320800781
1707005582704391000,6.584390869140625,0.7278019189834595,0.6226325035095215,-0.10960578918457031
1707005582723348200,6.60334814453125,0.2284482717514038,0.3029336929321289,-0.3602018356323242
1707005582742305300,6.62230517578125,-0.2957063913345337,-0.12590837478637695,-0.10733222961425781
1707005582761262300,6.641262451171875,-0.7528485655784607,-0.40403032302856445,0.2751283645629883
1707005582780219600,6.6602197265625,-1.0317273139953613,-0.3073740005493164,0.24814510345458984
1707005582799176700,6.6791767578125,-1.0403435230255127,0.24566173553466797,-0.11269760131835938
1707005582818133800,6.6981337890625,-0.7999387979507446,0.6561794281005859,-0.6370811462402344
1707005582837091000,6.717091064453125,-0.5868622064590454,0.6658897399902344,-0.6968183517456055
1707005582856048000,6.736048095703125,-0.4048877954483032,0.15757465362548828,-0.44727611541748047
1707005582875005200,6.755005126953125,-0.16549909114837646,-0.43773794174194336,0.09417057037353516
1707005582893962200,6.773962158203125,0.012700200080871582,-0.7861571311950684,0.6956624984741211
1707005582912919600,6.79291943359375,0.1641167402267456,-0.7561659812927246,1.0574970245361328
1707005582931876600,6.811876708984375,0.2318727970123291,-0.7578964233398438,0.9072189331054688
1707005582950834000,6.830833984375,0.40698254108428955,-0.8615987300872803,0.9241695404052734
1707005582969791000,6.849791015625,0.5984864234924316,-1.1804454326629639,0.9664859771728516
1707005582988748300,6.868748291015625,0.7941731214523315,-1.2936170101165771,1.217789649963379
1707005583007705300,6.887705322265625,0.9050308465957642,-1.0816802978515625,1.2768583297729492
1707005583026662400,6.906662353515625,1.0724724531173706,-0.5914268493652344,1.446864128112793
1707005583045619700,6.92561962890625,0.8702938556671143,-0.5171687602996826,1.0230817794799805
1707005583064576800,6.94457666015625,0.1618342399597168,-0.9067652225494385,0.2806396484375
1707005583083533800,6.963533935546875,-0.2616872787475586,-1.1839687824249268,0.09054851531982422
1707005583102491100,6.9824912109375,-0.34620583057403564,-1.2667865753173828,0.23296737670898438
1707005583121448200,7.0014482421875,-0.485024094581604,-1.214604139328003,0.19817066192626953
1707005583140405500,7.020405517578125,-0.4190737009048462,-0.8654072284698486,0.37975597381591797
1707005583159362600,7.039362548828125,-0.14782822132110596,-0.5101783275604248,0.5273761749267578
1707005583178320000,7.05831982421875,-0.26374781131744385,-0.6429944038391113,0.40044689178466797
1707005583197277000,7.07727685546875,-0.5506693124771118,-1.0261456966400146,0.5130538940429688
1707005583216234000,7.09623388671875,-0.39520084857940674,-1.0796860456466675,0.3200254440307617
1707005583235191300,7.11519140625,-0.15100812911987305,-0.7869720458984375,-0.10321903228759766
1707005583254148400,7.1341484375,0.21451687812805176,-0.21922063827514648,-0.5928630828857422
1707005583273105700,7.153105712890625,1.180883765220642,0.40019726753234863,-1.012521743774414
1707005583292062700,7.172062744140625,1.6402441263198853,0.8586840629577637,-1.7670764923095703
1707005583311020000,7.19102001953125,1.7279654741287231,0.7737523317337036,-1.8168153762817383
1707005583329977000,7.20997705078125,1.1508359909057617,-0.20155072212219238,-1.5765657424926758
1707005583348934100,7.22893408203125,0.6295706033706665,-0.8302910327911377,-1.4545068740844727
1707005583367891500,7.247891357421875,0.3280693292617798,-0.7423704862594604,-1.078608512878418
1707005583386848500,7.2668486328125,0.09354054927825928,-0.41431283950805664,-0.7880258560180664
1707005583405805800,7.285805908203125,0.003420591354370117,-0.12922728061676025,-0.3090229034423828
1707005583424763000,7.304762939453125,0.01253354549407959,0.09200358390808105,-0.029036521911621094
1707005583443720200,7.32372021484375,-0.008246541023254395,-0.10796022415161133,0.4057178497314453
1707005583462677200,7.34267724609375,-0.26192522048950195,-0.5456143617630005,0.7859668731689453
1707005583481634600,7.361634521484375,-0.2982645034790039,-0.7077027559280396,1.0487298965454102
1707005583500591600,7.380591552734375,-0.5462840795516968,-0.6227676868438721,1.1991043090820312
1707005583519549000,7.399548828125,-0.6457650661468506,-0.4060063362121582,1.2951164245605469
1707005583538506000,7.418506103515625,-0.5496188402175903,-0.35373377799987793,1.5431098937988281
1707005583557463300,7.43746337890625,-0.43288469314575195,-0.5459835529327393,1.4933891296386719
1707005583576420600,7.456420654296875,-0.658848762512207,-0.531360387802124,1.2607355117797852
1707005583595377700,7.475377685546875,-0.7076481580734253,-0.1495532989501953,1.040069580078125
1707005583614335000,7.4943349609375,-0.2565321922302246,-0.07095885276794434,0.9291858673095703
1707005583633292000,7.5132919921875,-0.5339186191558838,-0.502821683883667,1.2964696884155273
1707005583652249300,7.532249267578125,-2.9313502311706543,-0.2503669261932373,0.7873811721801758
1707005583671206400,7.551206298828125,-3.041048049926758,-0.15538525581359863,-1.4652910232543945
1707005583690163700,7.570163818359375,-2.407867908477783,-0.5298483371734619,-2.7232255935668945
1707005583709120800,7.589120849609375,-2.454050064086914,-0.8174605369567871,-2.355318546295166
1707005583728078000,7.608078125,-1.3040482997894287,-0.16884279251098633,-1.8867273330688477
1707005583747035100,7.62703515625,0.20780134201049805,0.22002792358398438,-1.9760584831237793
1707005583765992400,7.645992431640625,-0.02084827423095703,0.33904433250427246,-1.9142141342163086
1707005583784949500,7.664949462890625,-0.10282421112060547,0.4373056888580322,-1.2431011199951172
1707005583803906800,7.68390673828125,-0.017863988876342773,0.638129711151123,-0.39412975311279297
1707005583822864000,7.70286376953125,-0.1401822566986084,1.0974719524383545,0.008164405822753906
1707005583841821200,7.7218212890625,-0.16663146018981934,1.2963695526123047,-0.18177223205566406
1707005583860778200,7.7407783203125,0.37621331214904785,1.106152057647705,-0.38785648345947266
1707005583879735600,7.759735595703125,1.0862548351287842,1.2863926887512207,-0.6988682746887207
1707005583898692600,7.778692626953125,0.7790665626525879,1.386655330657959,-1.0036001205444336
1707005583917650000,7.79764990234375,0.12130165100097656,1.3313984870910645,-1.2777605056762695
1707005583936607000,7.81660693359375,-0.11929702758789062,1.078089714050293,-1.3058972358703613
1707005583955564300,7.835564208984375,-0.10079169273376465,0.8286449909210205,-0.03872203826904297
1707005583974521600,7.854521484375,0.07403564453125,0.28723788261413574,1.251596450805664
1707005583993478700,7.873478759765625,0.6193652153015137,-0.394237756729126,2.003434181213379
1707005584012436000,7.89243603515625,0.7412204742431641,-0.516845703125,1.643768310546875
1707005584031393000,7.91139306640625,-0.6663751602172852,-0.35777807235717773,0.3253974914550781
1707005584050350300,7.930350341796875,-2.0437135696411133,-0.47992515563964844,0.1290721893310547
1707005584069307400,7.949307373046875,-2.683588981628418,-0.6677823066711426,-0.26074743270874023
1707005584088264700,7.9682646484375,-2.2437448501586914,-0.7995679378509521,-0.7302255630493164
1707005584107222000,7.987221923828125,-1.7656865119934082,-1.0429402589797974,-0.9671001434326172
1707005584126179000,8.006178955078125,-1.7341318130493164,-0.8687665462493896,-0.6643381118774414
1707005584145136400,8.025136474609376,-1.5340142250061035,-0.3337749242782593,0.06650829315185547
1707005584164093400,8.044093505859376,-1.0882635116577148,-0.15263116359710693,0.6272201538085938
1707005584183050800,8.06305078125,-0.3970961570739746,-0.4771273136138916,0.9591798782348633
1707005584202007800,8.0820078125,0.2501211166381836,-0.18610799312591553,0.9960126876831055
1707005584220965000,8.100965087890625,0.2871723175048828,0.3674652576446533,0.9953165054321289
1707005584239922400,8.11992236328125,0.7891213893890381,0.7543710470199585,1.8004951477050781
1707005584258879500,8.13887939453125,0.9448652267456055,0.192979097366333,1.075322151184082
1707005584277836800,8.1578369140625,1.0198264122009277,-0.08024442195892334,0.911707878112793
1707005584296793900,8.1767939453125,1.2444088459014893,0.2290252447128296,0.9098777770996094
1707005584315751200,8.195751220703125,0.9488935470581055,0.3590196371078491,0.8535356521606445
1707005584334708200,8.214708251953125,0.5997498035430908,0.3879903554916382,0.7870750427246094
1707005584353665500,8.23366552734375,0.5365915298461914,0.49434375762939453,0.6735944747924805
1707005584372622800,8.252622802734376,0.2285294532775879,0.6447151899337769,0.5682134628295898
1707005584391580000,8.271579833984376,-0.17851758003234863,0.8613651990890503,0.16986656188964844
1707005584410537200,8.290537109375,-0.4740579128265381,0.9870069026947021,0.12568092346191406
1707005584429494300,8.309494384765625,-0.32927489280700684,0.5610588788986206,0.3079843521118164
1707005584448451600,8.32845166015625,-0.009461641311645508,0.34847140312194824,0.3731803894042969
1707005584467409000,8.347408935546875,-0.08262872695922852,0.7063156366348267,0.49885082244873047
1707005584486366000,8.366365966796875,-0.2757880687713623,0.8358242511749268,0.39840221405029297
1707005584505323300,8.3853232421875,-0.1287682056427002,0.5067583322525024,0.17196369171142578
1707005584524280300,8.4042802734375,0.22144722938537598,0.2818640470504761,-0.16494178771972656
1707005584543237600,8.423237548828125,0.42747044563293457,0.536484956741333,-0.010396957397460938
1707005584562195000,8.44219482421875,0.9497911930084229,0.9685639142990112,0.5098896026611328
1707005584581152000,8.461152099609375,1.4299685955047607,0.6443508863449097,0.021859169006347656
1707005584600109300,8.480109375,1.0416314601898193,0.2240985631942749,-0.48853492736816406
1707005584619066400,8.49906640625,0.9401938915252686,0.1311779022216797,-0.18124008178710938
1707005584638023700,8.518023681640624,1.165548324584961,0.7414423227310181,0.18015670776367188
1707005584656981000,8.53698095703125,1.3334071636199951,1.0650118589401245,0.05650138854980469
1707005584675938000,8.55593798828125,0.5121903419494629,0.8102208375930786,0.9644937515258789
1707005584694895400,8.574895263671875,0.08620405197143555,0.9144269227981567,1.6602849960327148
1707005584713852400,8.593852294921875,0.7399828433990479,0.45588886737823486,1.1663532257080078
1707005584732809700,8.612809814453126,0.36531710624694824,0.5116238594055176,1.0672731399536133
1707005584751767000,8.63176708984375,-0.8209707736968994,0.6520775556564331,0.9043741226196289
1707005584770724000,8.65072412109375,-1.1425725221633911,-0.06358468532562256,0.11775493621826172
1707005584789681400,8.669681396484375,-0.7691590785980225,-1.2026640176773071,0.0839548110961914
1707005584808638500,8.688638427734375,-0.48499441146850586,-0.9617345333099365,0.651738166809082
1707005584827595800,8.707595703125,-1.2424845695495605,-0.4984985589981079,0.6203746795654297
1707005584846553000,8.726552978515626,-1.0491058826446533,-0.41282224655151367,0.21268653869628906
1707005584865510100,8.74551025390625,-0.7408468723297119,-0.8768360614776611,-0.009578704833984375
1707005584884467500,8.764467529296875,-1.479593276977539,-0.43381428718566895,0.32009029388427734
1707005584903424800,8.7834248046875,-0.3683927059173584,-0.9146618843078613,-0.14136600494384766
1707005584922381800,8.8023818359375,0.14243030548095703,-1.3064517974853516,-0.40868568420410156
1707005584941339100,8.821339111328125,0.34746885299682617,-1.2267534732818604,0.11536407470703125
1707005584960296200,8.840296142578126,0.2665133476257324,-0.8526270389556885,0.12673568725585938
1707005584979253500,8.85925341796875,0.5921664237976074,-1.2563756704330444,-0.27007484436035156
1707005584998210800,8.8782109375,0.9574935436248779,-1.4479954242706299,-0.8834648132324219
1707005585017168000,8.89716796875,1.100614309310913,-1.233968734741211,0.2957620620727539
1707005585036125200,8.916125244140625,1.1548891067504883,0.4902076721191406,0.7487163543701172
1707005585055082200,8.935082275390625,1.1202671527862549,1.6312000751495361,1.0606918334960938
1707005585074039600,8.95403955078125,1.2338240146636963,0.9556272029876709,1.122471809387207
1707005585092996600,8.97299658203125,1.0973453521728516,0.6968131065368652,0.6880216598510742
1707005585111954000,8.991953857421874,0.7121337652206421,1.013798475265503,0.2732276916503906
1707005585130911200,9.0109111328125,0.3750978708267212,1.319045066833496,0.24283981323242188
1707005585149868300,9.029868408203125,0.21841871738433838,1.1498496532440186,0.12312602996826172
1707005585168825600,9.04882568359375,0.30356931686401367,0.7325558662414551,0.07584095001220703
1707005585187782700,9.06778271484375,0.3746225833892822,0.6567158699035645,0.08404064178466797
1707005585206740000,9.086739990234374,0.21820175647735596,0.5243024826049805,0.08095264434814453
1707005585225697000,9.105697021484374,-0.16512715816497803,0.47017812728881836,-0.10975170135498047
1707005585244654300,9.124654296875,-0.4446338415145874,0.38985252380371094,-0.009007453918457031
1707005585263611600,9.143611572265625,-0.2831103801727295,0.2592649459838867,0.07965564727783203
1707005585282568700,9.162568603515625,0.15841913223266602,0.09411144256591797,-0.09822654724121094
1707005585301526000,9.181526123046876,0.8252263069152832,-0.18752384185791016,0.051604270935058594
1707005585320483000,9.200483154296874,1.1836433410644531,0.004653453826904297,0.059622764587402344
1707005585339440400,9.2194404296875,1.1690700054168701,0.04608440399169922,-0.19713211059570312
1707005585358397700,9.238397705078125,0.5527255535125732,-0.1164693832397461,-0.692145824432373
1707005585377354800,9.257354736328125,-0.03618121147155762,-0.3219003677368164,-0.9601430892944336
1707005585396312000,9.27631201171875,-0.017096757888793945,-0.5509171485900879,-0.668489933013916
1707005585415269000,9.29526904296875,0.07446432113647461,-0.19277381896972656,0.23791265487670898
1707005585434226400,9.314226318359376,0.35799312591552734,-0.2967052459716797,0.6034989356994629
1707005585453183700,9.333183837890624,0.22171807289123535,-0.2698326110839844,0.15677118301391602
1707005585472140800,9.352140869140625,0.046353816986083984,-0.39212703704833984,0.29491662979125977
1707005585491098000,9.37109814453125,-0.24879169464111328,0.04616498947143555,0.30226659774780273
1707005585510055400,9.390055419921875,-0.06795930862426758,0.09193801879882812,0.33585166931152344
1707005585529012500,9.409012451171876,0.302703857421875,-0.23185014724731445,0.26485490798950195
1707005585547969800,9.4279697265625,0.6131236553192139,-0.43986034393310547,0.30858421325683594
1707005585566926800,9.4469267578125,0.5530149936676025,-0.8100032806396484,0.028816699981689453
1707005585585884200,9.46588427734375,0.41974973678588867,-1.3030881881713867,-0.32482337951660156
1707005585604841500,9.484841552734375,0.46041131019592285,-1.2535195350646973,-0.2968277931213379
1707005585623798500,9.503798583984375,0.3727152347564697,-1.0192022323608398,-0.3717212677001953
1707005585642755800,9.522755859375,0.20344257354736328,-0.6062674522399902,-0.4602231979370117
1707005585661713000,9.541712890625,0.21033620834350586,-0.059853553771972656,-0.04816102981567383
1707005585680670200,9.560670166015624,0.5530316829681396,-0.016676902770996094,0.43232250213623047
1707005585699627500,9.57962744140625,0.9016618728637695,-0.6184711456298828,0.27504777908325195
1707005585718584600,9.59858447265625,0.5500564575195312,-0.4830183982849121,-0.08960533142089844
1707005585737542000,9.6175419921875,0.0986020565032959,-0.6328096389770508,-0.4439210891723633
1707005585756499000,9.6364990234375,-0.019600868225097656,-0.546992301940918,-0.3387880325317383
1707005585775456300,9.655456298828126,0.2643260955810547,-0.14533042907714844,0.1425337791442871
1707005585794413600,9.67441357421875,0.29250454902648926,-0.1444549560546875,-0.097442626953125
1707005585813370600,9.69337060546875,-0.1615746021270752,-0.31976890563964844,-0.2744026184082031
1707005585832328000,9.712327880859375,-0.3371107578277588,-0.4121241569519043,0.16136980056762695
1707005585851285000,9.731284912109375,-0.3516726493835449,-0.3431415557861328,0.5901050567626953
1707005585870242300,9.7502421875,-0.8277978897094727,-0.2998166084289551,0.03809404373168945
1707005585889199600,9.76919970703125,-1.1165425777435303,0.12895631790161133,-0.6715927124023438
1707005585908156700,9.78815673828125,-0.8246735334396362,-0.24730539321899414,-1.4323410987854004
1707005585927114000,9.807114013671875,-0.8346133232116699,-0.2755889892578125,-0.8035569190979004
1707005585946071000,9.826071044921875,-0.15965700149536133,-0.14641571044921875,-0.035561561584472656
1707005585965028400,9.8450283203125,-0.028911352157592773,0.11331653594970703,0.45611572265625
1707005585983985700,9.863985595703125,0.3011515140533447,-0.4459075927734375,0.512784481048584
1707005586002942700,9.882942626953126,0.6751368045806885,-0.5908522605895996,0.32169628143310547
1707005586021900000,9.901900146484374,0.7222621440887451,-0.4402894973754883,0.5278506278991699
1707005586040857000,9.920857177734375,0.625612735748291,-0.5142636299133301,0.19095993041992188
1707005586059814400,9.939814453125,0.43116188049316406,-0.4113936424255371,-0.2794528007507324
1707005586078771700,9.958771728515625,0.24495506286621094,-0.14728450775146484,-0.2640213966369629
1707005586097728800,9.977728759765625,0.271043062210083,-0.01789569854736328,-0.35168933868408203
1707005586116686000,9.99668603515625,0.21776676177978516,-0.46489429473876953,-0.45216798782348633
1707005586135643100,10.01564306640625,0.21871066093444824,-0.30034494400024414,-0.3112063407897949
1707005586154600400,10.034600341796875,0.28795552253723145,-0.3569478988647461,-0.1013646125793457
1707005586173557800,10.053557861328125,0.40660810470581055,-0.36736106872558594,-0.22576570510864258
1707005586192514800,10.072514892578125,0.18825078010559082,-0.37990331649780273,-0.35016870498657227
1707005586211472100,10.09147216796875,0.25870299339294434,-0.10709476470947266,0.10916757583618164
1707005586230429200,10.11042919921875,0.3337879180908203,-0.0734243392944336,0.3852224349975586
1707005586249386500,10.129386474609374,0.571908712387085,-0.3895549774169922,0.26933908462524414
1707005586268343800,10.14834375,0.48929691314697266,0.26592254638671875,0.19435787200927734
1707005586287300900,10.16730078125,0.2970592975616455,0.45981502532958984,0.1929941177368164
1707005586306258200,10.186258056640625,0.12852263450622559,0.5580649375915527,-0.01844167709350586
1707005586325215200,10.20521533203125,-0.18794822692871094,0.8139510154724121,-0.3398294448852539
1707005586344172500,10.224172607421876,-0.517822265625,0.9718427658081055,-0.38907527923583984
1707005586363129900,10.2431298828125,-0.7946338653564453,1.2980475425720215,-0.025001049041748047
1707005586382087000,10.2620869140625,-0.9187850952148438,1.3684000968933105,0.052690982818603516
1707005586401044200,10.281044189453125,-0.9434597492218018,1.0340628623962402,-0.16504859924316406
1707005586420001300,10.300001220703125,-0.8864052295684814,0.9425163269042969,-0.017653942108154297
1707005586438958600,10.31895849609375,-0.9377138614654541,1.0939784049987793,0.1302022933959961
1707005586457915600,10.33791552734375,-0.8735270500183105,0.7351889610290527,-0.08536243438720703
1707005586476873000,10.356873046875,-1.0440077781677246,0.13737821578979492,-0.12011051177978516
1707005586495830300,10.375830322265625,-0.7229797840118408,-0.10438966751098633,0.2419881820678711
1707005586514787300,10.394787353515625,-0.5153172016143799,-0.13475799560546875,-0.13579463958740234
1707005586533744600,10.41374462890625,-0.3649904727935791,-0.14715814590454102,-0.291384220123291
1707005586552701700,10.43270166015625,-0.3830249309539795,-0.2580404281616211,-0.22525787353515625
1707005586571659000,10.451658935546876,-0.13966131210327148,-0.393887996673584,-0.3633537292480469
1707005586590616000,10.470615966796874,0.07149958610534668,-0.3689236640930176,0.03416109085083008
1707005586609573400,10.489573486328124,0.5333118438720703,-0.2313070297241211,0.4267711639404297
1707005586628530700,10.50853076171875,0.7149064540863037,0.026314258575439453,0.4852638244628906
1707005586647487700,10.52748779296875,0.5512292385101318,0.3975400924682617,0.528562068939209
1707005586666445000,10.546445068359375,0.24162626266479492,0.2938814163208008,0.02718496322631836
1707005586685402000,10.565402099609376,0.36275172233581543,0.2127528190612793,-0.19333362579345703
1707005586704359400,10.584359375,0.1530468463897705,0.08734798431396484,-0.5284490585327148
1707005586723316500,10.60331640625,0.05253195762634277,0.3058815002441406,-0.015730857849121094
1707005586742273800,10.622273681640625,0.0910024642944336,-0.04619407653808594,0.07681608200073242
1707005586761231000,10.641231201171875,0.01953125,-0.2769932746887207,0.14721059799194336
1707005586780188200,10.660188232421875,-0.18633127212524414,-0.17820978164672852,-0.05474662780761719
1707005586799145500,10.6791455078125,-0.14869260787963867,-0.20238542556762695,-0.33047914505004883
1707005586818102500,10.6981025390625,-0.07540202140808105,-0.13004112243652344,-0.42969465255737305
1707005586837059800,10.717059814453124,-0.08469915390014648,-0.10594367980957031,-0.39929819107055664
1707005586856017000,10.736016845703125,-0.1593644618988037,0.020390033721923828,-0.25297021865844727
1707005586874974200,10.75497412109375,-0.1655125617980957,0.05127239227294922,-0.07366180419921875
1707005586893931500,10.773931640625,0.12409257888793945,-0.13995742797851562,-0.10316133499145508
1707005586912888600,10.792888671875,0.36299872398376465,0.14054250717163086,0.18187713623046875
1707005586931846000,10.811845947265626,0.16492986679077148,-0.2543649673461914,-0.5717277526855469
1707005586950803000,10.830802978515624,0.5349042415618896,0.22909975051879883,0.07695245742797852
1707005586969760300,10.84976025390625,0.16414427757263184,-0.02432107925415039,-0.4483375549316406
1707005586988717600,10.868717529296875,0.17170405387878418,-0.23119068145751953,-0.7175579071044922
1707005587007674600,10.887674560546875,-0.016845226287841797,0.36220598220825195,-0.44936037063598633
1707005587026632000,10.9066318359375,-0.09832906723022461,0.10956239700317383,0.19445228576660156
1707005587045589000,10.925589111328126,0.04157376289367676,-0.5316910743713379,-0.3917222023010254
1707005587064546300,10.94454638671875,-0.05079317092895508,-0.12828779220581055,-0.17387723922729492
1707005587083503600,10.963503662109375,-0.261049747467041,0.12758874893188477,-0.11844778060913086
1707005587102460700,10.982460693359375,-0.03259682655334473,0.09734010696411133,-0.2985420227050781
1707005587121418000,11.00141796875,0.22699451446533203,-0.09215927124023438,-0.18715572357177734
1707005587140375000,11.020375,0.10103869438171387,1.4806303977966309,1.6771140098571777
1707005587159332400,11.039332275390626,-0.163100004196167,0.37594032287597656,0.7553701400756836
1707005587178289700,11.05828955078125,0.16053986549377441,0.4316525459289551,0.7656941413879395
1707005587197246700,11.077246826171875,-0.03237032890319824,0.2778615951538086,-0.23247241973876953
1707005587216204000,11.0962041015625,0.037508249282836914,0.12364387512207031,-0.7400579452514648
1707005587235161300,11.115161376953125,-0.09823465347290039,-0.09595346450805664,-1.4150571823120117
1707005587254118400,11.134118408203125,-0.4262712001800537,0.2920656204223633,-0.7881522178649902
1707005587273075700,11.15307568359375,-0.13303136825561523,0.2760171890258789,0.024411678314208984
1707005587292032800,11.17203271484375,0.09531426429748535,-0.13460493087768555,0.18212652206420898
1707005587310990000,11.190989990234375,-0.23411297798156738,-0.39397430419921875,0.4017481803894043
1707005587329947400,11.209947509765625,-0.10875511169433594,-0.9837408065795898,-0.3730344772338867
1707005587348904400,11.228904541015625,0.08988118171691895,-0.916600227355957,-0.5404963493347168
1707005587367861800,11.24786181640625,0.10799336433410645,-0.5934209823608398,-0.08386039733886719
1707005587386819000,11.266819091796876,0.1549830436706543,-0.1587047576904297,-0.011271953582763672
1707005587405776100,11.285776123046874,0.4677860736846924,0.11638832092285156,-0.27857255935668945
1707005587424733400,11.3047333984375,0.1865689754486084,0.5966753959655762,0.23661184310913086
1707005587443690800,11.323690673828125,0.08632445335388184,0.4543743133544922,0.08890771865844727
1707005587462647800,11.342647705078125,-0.12331485748291016,0.1856098175048828,-0.26114368438720703
1707005587481605000,11.361605224609375,-0.3214895725250244,0.12145614624023438,0.17720508575439453
1707005587500562400,11.3805625,-0.3950941562652588,-0.14758062362670898,0.11500835418701172
1707005587519519500,11.39951953125,-0.4029817581176758,-0.38655567169189453,-0.30419158935546875
1707005587538476800,11.418476806640625,-0.39725756645202637,-0.43141889572143555,-0.30077219009399414
1707005587557434000,11.43743408203125,-0.18034815788269043,-0.48861026763916016,-0.16428565979003906
1707005587576391200,11.45639111328125,0.03163909912109375,-0.22477102279663086,-0.1710834503173828
1707005587595348500,11.475348388671875,0.33740234375,0.2561922073364258,0.1275629997253418
1707005587614305800,11.494305908203126,0.44971251487731934,0.2821931838989258,0.14339017868041992
1707005587633262800,11.513262939453124,0.40653443336486816,0.09266996383666992,-0.06435394287109375
1707005587652220200,11.53222021484375,0.5229020118713379,0.28059864044189453,-0.017452716827392578
1707005587671177200,11.55117724609375,0.4486062526702881,0.1528792381286621,0.3566408157348633
1707005587690134500,11.570134521484375,0.1065363883972168,-0.11922025680541992,0.6158065795898438
1707005587709091800,11.589091796875,0.001733541488647461,0.06450080871582031,0.4877457618713379
1707005587728049200,11.608049072265626,0.14346981048583984,0.6032652854919434,0.3269028663635254
1707005587747006200,11.627006103515624,0.2508687973022461,0.6380906105041504,0.7413167953491211
1707005587765963500,11.645963623046875,0.2681736946105957,-0.2068648338317871,0.7848572731018066
1707005587784920800,11.6649208984375,0.4602336883544922,-0.7309975624084473,0.3553900718688965
1707005587803878100,11.683878173828125,0.5395772457122803,-0.4183497428894043,-0.3312363624572754
1707005587822835200,11.702835205078125,0.5311365127563477,0.381105899810791,-0.26481008529663086
1707005587841792500,11.72179248046875,0.5133206844329834,0.7554774284362793,0.03901481628417969
1707005587860749800,11.740749755859374,0.9360189437866211,0.05312204360961914,-0.17569923400878906
1707005587879707100,11.75970703125,0.5606365203857422,-0.9369134902954102,-0.5724258422851562
1707005587898664200,11.778664306640625,-0.11174869537353516,-0.7292180061340332,-0.40978050231933594
1707005587917621500,11.79762158203125,-0.1926572322845459,-1.1025118827819824,-0.325592041015625
1707005587936578800,11.816578857421876,-0.6272180080413818,-0.35918712615966797,-0.0009927749633789062
1707005587955536000,11.835535888671876,-0.43926215171813965,-1.2102546691894531,-0.7745823860168457
1707005587974493200,11.8544931640625,-0.5023477077484131,-0.3538689613342285,-0.8194479942321777
1707005587993450500,11.873450439453125,-0.2973823547363281,-0.658210277557373,-0.9962778091430664
1707005588012407800,11.89240771484375,-0.5156502723693848,-0.6725029945373535,-1.0153627395629883
1707005588031365000,11.911365234375,-0.2497861385345459,-0.0427403450012207,-0.36284780502319336
1707005588050322200,11.930322265625,-0.20135021209716797,-0.35823535919189453,-0.8079700469970703
1707005588069279500,11.949279541015626,-0.5364105701446533,-1.038088321685791,-1.1389155387878418
1707005588088236800,11.96823681640625,-0.6775102615356445,-0.819511890411377,-0.6457071304321289
1707005588107194000,11.987194091796875,-0.49306821823120117,-0.3771171569824219,-0.33829641342163086
1707005588126151200,12.006151123046875,-0.28982973098754883,-0.6517815589904785,-0.3238105773925781
1707005588145108500,12.0251083984375,-0.19013690948486328,0.10935258865356445,0.257871150970459
1707005588164065800,12.044065673828126,0.11271238327026367,0.3188967704772949,0.39240503311157227
1707005588183023000,12.063023193359374,0.3127467632293701,-0.31380319595336914,0.3809685707092285
1707005588201980400,12.08198046875,0.17778277397155762,-0.815096378326416,0.08105897903442383
1707005588220937500,12.1009375,-0.24362492561340332,0.1575007438659668,-0.15163850784301758
1707005588239894800,12.119894775390625,-0.10874056816101074,0.7150802612304688,-0.1872553825378418
1707005588258852000,12.13885205078125,-0.25578808784484863,-0.04126167297363281,-0.8118562698364258
1707005588277809400,12.157809326171876,-0.016684293746948242,0.6741704940795898,-0.2500319480895996
1707005588296766700,12.1767666015625,0.34909772872924805,1.1362619400024414,0.28103113174438477
1707005588315723800,12.195723876953124,0.11916112899780273,0.7862153053283691,0.24035072326660156
1707005588334681000,12.21468115234375,-0.1124727725982666,0.7510972023010254,0.11153125762939453
1707005588353638400,12.233638427734375,-0.1309201717376709,0.6494607925415039,0.33345556259155273
1707005588372595700,12.252595703125,0.021628618240356445,0.07264041900634766,-0.06832313537597656
1707005588391553000,12.271552978515626,-0.024085521697998047,0.12798452377319336,-0.21831274032592773
1707005588410510300,12.29051025390625,-0.2451765537261963,0.6933393478393555,0.1414623260498047
1707005588429467600,12.309467529296874,-0.21158385276794434,0.5577273368835449,-0.05637073516845703
1707005588448424700,12.3284248046875,-0.19429683685302734,0.14925432205200195,-0.6999893188476562
1707005588467382000,12.347382080078125,-0.47535157203674316,-0.04056835174560547,-0.7580680847167969
1707005588486339300,12.36633935546875,-0.6443321704864502,0.07138252258300781,-0.6429424285888672
1707005588505296600,12.385296630859376,-0.4876093864440918,-0.01570415496826172,-0.7201647758483887
1707005588524254000,12.40425390625,-0.5628821849822998,0.3128018379211426,-0.8139247894287109
1707005588543211300,12.423211181640625,-0.7600879669189453,0.4781942367553711,-0.7392497062683105
1707005588562168300,12.442168212890625,-0.8333582878112793,0.3364386558532715,-0.5989012718200684
1707005588581125600,12.461125732421875,-0.6272859573364258,0.3980231285095215,-0.38007164001464844
1707005588600083000,12.4800830078125,-0.4099416732788086,0.25771379470825195,-0.00087738037109375
1707005588619040300,12.499040283203126,-0.43313026428222656,-0.3464641571044922,0.19555044174194336
1707005588637997600,12.51799755859375,-0.34946107864379883,-0.42387866973876953,0.6627902984619141
1707005588656955000,12.536954833984375,0.0796971321105957,-0.04135322570800781,0.8908977508544922
1707005588675912000,12.555911865234375,0.444760799407959,-0.18671751022338867,1.2184925079345703
1707005588694869200,12.574869140625,0.5628993511199951,-0.357053279876709,1.1392059326171875
1707005588713826600,12.59382666015625,0.45352935791015625,-0.6110057830810547,0.8743042945861816
1707005588732783900,12.612783935546876,0.5688772201538086,-0.8171577453613281,1.191206455230713
1707005588751741200,12.6317412109375,0.29523324966430664,-0.7695193290710449,1.2818865776062012
1707005588770698500,12.650698486328125,0.1129004955291748,-0.8991336822509766,0.9717464447021484
1707005588789655800,12.66965576171875,-0.18145990371704102,-0.6406564712524414,0.7264342308044434
1707005588808613000,12.688613037109375,-0.3558359146118164,-0.5370936393737793,0.4056377410888672
1707005588827570200,12.707570068359376,-0.6829147338867188,-0.7950029373168945,0.3376350402832031
1707005588846527500,12.726527587890626,-0.8398966789245605,-1.088949203491211,0.4362344741821289
1707005588865484800,12.74548486328125,-0.9470767974853516,-1.0678668022155762,0.6624431610107422
1707005588884442000,12.764442138671875,-1.0608789920806885,-1.308638572692871,0.88482666015625
1707005588903399400,12.7833994140625,-1.0009760856628418,-1.4554929733276367,0.8289570808410645
1707005588922356700,12.802356689453125,-0.8236751556396484,-1.227829933166504,0.650148868560791
1707005588941314000,12.82131396484375,-0.788569450378418,-1.0072202682495117,0.6543312072753906
1707005588960271400,12.840271240234374,-0.5965452194213867,-1.1475319862365723,0.7605323791503906
1707005588979228700,12.859228759765625,-0.04069089889526367,-1.0445876121520996,0.5193719863891602
1707005588998186000,12.87818603515625,0.4223353862762451,-0.9650616645812988,0.4444732666015625
1707005589017143000,12.89714306640625,0.5435771942138672,-0.759127140045166,0.13460922241210938
1707005589036100400,12.916100341796875,0.5184085369110107,-0.13825225830078125,-0.09385204315185547
1707005589055057700,12.9350576171875,0.9185299873352051,0.1614208221435547,0.09535455703735352
1707005589074015000,12.954014892578124,0.9664719104766846,0.46667957305908203,0.28006982803344727
1707005589092972300,12.97297216796875,1.005882978439331,0.6792702674865723,0.5403375625610352
1707005589111929600,12.9919296875,0.735771656036377,0.5223727226257324,0.11195611953735352
1707005589130887000,13.010886962890625,0.5780131816864014,0.5129132270812988,0.13170146942138672
1707005589149844200,13.02984423828125,0.4539332389831543,0.6590919494628906,-0.03834247589111328
1707005589168801300,13.04880126953125,0.14343500137329102,0.9420394897460938,-0.25965118408203125
1707005589187758600,13.067758544921874,-0.17127394676208496,0.9787092208862305,-0.6180157661437988
1707005589206716000,13.0867158203125,-0.26780200004577637,1.0792064666748047,-0.7871356010437012
1707005589225673200,13.105673095703125,-0.1679534912109375,1.2739529609680176,-0.8384518623352051
1707005589244630500,13.124630615234375,-0.3413703441619873,1.044069766998291,-0.7730765342712402
1707005589263587800,13.143587890625,-0.5680546760559082,0.8700346946716309,-0.8508663177490234
1707005589282545200,13.162545166015626,-0.6549274921417236,0.6537046432495117,-0.7277145385742188
1707005589301502200,13.181502197265624,-0.46466636657714844,0.5570998191833496,-0.7951397895812988
1707005589320459500,13.20045947265625,-0.26492977142333984,0.448946475982666,-1.0045008659362793
1707005589339416800,13.219416748046875,-0.15695571899414062,0.29642677307128906,-1.2549796104431152
1707005589358374100,13.2383740234375,-0.06259799003601074,0.4314603805541992,-1.441312313079834
1707005589377331500,13.25733154296875,-0.01614999771118164,0.5001001358032227,-1.4434175491333008
1707005589396288800,13.276288818359374,0.01576995849609375,0.419161319732666,-1.3170552253723145
1707005589415246000,13.29524609375,0.02825331687927246,0.3373408317565918,-1.4268794059753418
1707005589434203400,13.314203369140625,-0.0033059120178222656,0.44528675079345703,-1.4205322265625
1707005589453160700,13.33316064453125,-0.08424639701843262,0.7439994812011719,-1.2926206588745117
1707005589472118000,13.352117919921875,-0.28195905685424805,0.9406037330627441,-0.8914804458618164
1707005589491075300,13.371075439453126,-0.1404280662536621,0.7411541938781738,-0.7862305641174316
1707005589510032600,13.39003271484375,0.04142570495605469,0.4848618507385254,-0.8993206024169922
1707005589528990000,13.408989990234375,0.1618638038635254,0.20366811752319336,-0.7770795822143555
1707005589547947000,13.427947021484375,0.30225348472595215,0.39194822311401367,-0.508735179901123
1707005589566904300,13.446904296875,0.4033167362213135,1.1079788208007812,-0.04241657257080078
1707005589585861600,13.465861572265625,0.36743998527526855,1.5156364440917969,0.35033750534057617
1707005589604819000,13.48481884765625,0.17928814888000488,0.7064814567565918,0.2050642967224121
1707005589623776300,13.5037763671875,0.05727648735046387,0.32988786697387695,0.13476037979125977
1707005589642733600,13.522733642578125,0.21438956260681152,-0.1688251495361328,0.005937099456787109
1707005589661691000,13.54169091796875,0.22161293029785156,-0.5439362525939941,-0.39707422256469727
1707005589680648000,13.56064794921875,-0.07220959663391113,-0.5041422843933105,-0.9063186645507812
1707005589699605200,13.579605224609375,-0.20528936386108398,-0.22095394134521484,-1.3014488220214844
1707005589718562600,13.5985625,-0.26340150833129883,0.21837329864501953,-1.1461591720581055
1707005589737519900,13.617519775390624,-0.21925997734069824,0.6417760848999023,-0.6192960739135742
1707005589756477200,13.636477294921875,-0.3664875030517578,0.5634174346923828,-0.14142274856567383
1707005589775434500,13.6554345703125,-0.4963071346282959,0.1681513786315918,0.1494607925415039
1707005589794391800,13.674391845703125,-0.44226717948913574,-0.3953428268432617,0.5074238777160645
1707005589813349000,13.69334912109375,-0.44353747367858887,-0.8657045364379883,0.4400768280029297
1707005589832306400,13.712306396484376,-0.5416507720947266,-0.7283353805541992,0.5345091819763184
1707005589851263700,13.731263671875,-0.7057220935821533,-0.41927146911621094,0.7526259422302246
1707005589870221000,13.750220947265625,-0.7598917484283447,-0.37227869033813477,0.8404507637023926
1707005589889178400,13.769178466796875,-0.8242535591125488,-0.538236141204834,0.6628909111022949
1707005589908135700,13.7881357421875,-0.7490651607513428,-0.8674583435058594,0.7886772155761719
1707005589927092700,13.8070927734375,-0.5865700244903564,-1.1842660903930664,0.6902737617492676
1707005589946050000,13.826050048828124,-0.630561351776123,-0.8791680335998535,0.6787967681884766
1707005589965007400,13.84500732421875,-0.6902897357940674,-0.6517171859741211,0.8500008583068848
1707005589983964700,13.863964599609375,-0.8764100074768066,-0.6240086555480957,0.6257853507995605
1707005590002922000,13.882921875,-0.6243081092834473,-0.6632175445556641,0.7153172492980957
1707005590021879300,13.90187939453125,-0.42413926124572754,-0.8963918685913086,1.0320210456848145
1707005590040836600,13.920836669921876,-0.2709159851074219,-0.8472146987915039,0.9918661117553711
1707005590059794000,13.9397939453125,-0.3830409049987793,-0.560826301574707,1.0618400573730469
1707005590078751000,13.9587509765625,-0.40427422523498535,-0.793696403503418,0.8978443145751953
1707005590097708300,13.977708251953125,-0.44553208351135254,-1.077807903289795,0.7844133377075195
1707005590116665600,13.99666552734375,-0.32019472122192383,-1.135127067565918,0.7528839111328125
1707005590135623000,14.015622802734375,-0.206801176071167,-0.8760662078857422,0.7517828941345215
1707005590154580200,14.034580322265626,-0.5864665508270264,-0.6605596542358398,0.5511264801025391
1707005590173537500,14.05353759765625,-0.744041919708252,-0.8586239814758301,0.3239607810974121
1707005590192494800,14.072494873046875,-0.5939500331878662,-1.08909273147583,0.4686579704284668
1707005590211452000,14.091451904296875,-0.24813437461853027,-1.1598625183105469,0.5387711524963379
1707005590230409200,14.1104091796875,-0.4470248222351074,-0.7941389083862305,0.543421745300293
1707005590249366500,14.129366455078125,-0.5122830867767334,0.18503522872924805,0.5271849632263184
1707005590268323800,14.14832373046875,-0.4332544803619385,0.831505298614502,0.0876302719116211
1707005590287281200,14.16728125,-0.3709993362426758,0.4774293899536133,0.08224105834960938
1707005590306238500,14.186238525390625,-0.17009401321411133,-0.16261053085327148,-0.03316974639892578
1707005590325195800,14.20519580078125,0.2449791431427002,-0.47859811782836914,-0.37406396865844727
1707005590344153000,14.224153076171875,0.25492310523986816,-0.4109816551208496,-0.680211067199707
1707005590363110100,14.243110107421876,0.06234288215637207,-0.04345893859863281,-0.8787407875061035
1707005590382067500,14.2620673828125,-0.06450223922729492,0.38582611083984375,-1.0255866050720215
1707005590401024800,14.281024658203124,-0.014186382293701172,0.6341781616210938,-0.8783531188964844
1707005590419982000,14.299982177734375,0.10020661354064941,0.6319036483764648,-0.7684130668640137
1707005590438939400,14.318939453125,0.17522144317626953,0.5569424629211426,-0.39298009872436523
1707005590457896700,14.337896728515625,0.1067037582397461,0.5006594657897949,0.02169036865234375
1707005590476854000,14.35685400390625,0.2492353916168213,0.24023675918579102,0.09841251373291016
1707005590495811300,14.375811279296874,0.3560171127319336,-0.010873794555664062,-0.0882720947265625
1707005590514768600,14.3947685546875,0.351546049118042,0.2794003486633301,-0.08341407775878906
1707005590533725700,14.4137255859375,0.5725913047790527,0.2358393669128418,-0.4752216339111328
1707005590552683000,14.43268310546875,0.6866104602813721,0.36556577682495117,-0.7155308723449707
1707005590571640300,14.451640380859375,0.6545448303222656,0.5086479187011719,-0.4985623359680176
1707005590590597600,14.47059765625,0.7040550708770752,0.6918535232543945,-0.3536062240600586
1707005590609555000,14.489554931640624,0.658789873123169,1.1185483932495117,-0.14313983917236328
1707005590628512300,14.50851220703125,0.6797819137573242,1.1276426315307617,0.3314986228942871
1707005590647469600,14.527469482421875,0.7683045864105225,0.06809234619140625,0.026923179626464844
1707005590666427000,14.546427001953125,0.2962808609008789,-0.3624567985534668,-0.27800464630126953
1707005590685384000,14.565384033203125,-0.13392281532287598,-0.32499170303344727,-0.499661922454834
1707005590704341200,14.58434130859375,-0.6200542449951172,-0.1945042610168457,-0.46570634841918945
1707005590723298600,14.603298583984374,-0.8260829448699951,-0.038747310638427734,-0.5818085670471191
1707005590742255900,14.622255859375,-0.9834458827972412,-0.3032970428466797,-0.8301525115966797
1707005590761213200,14.641213134765625,-1.022529125213623,-0.1563129425048828,-1.2116670608520508
1707005590780170500,14.66017041015625,-0.5778160095214844,-0.13092517852783203,-0.8275952339172363
1707005590799127800,14.6791279296875,-0.6276276111602783,-0.025019168853759766,-0.5836906433105469
1707005590818084900,14.6980849609375,-0.5675077438354492,-0.2610344886779785,-0.7848443984985352
1707005590837042200,14.717042236328124,-0.3863565921783447,-0.1722550392150879,-0.8147883415222168
1707005590855999500,14.73599951171875,-0.20976805686950684,-0.002509593963623047,-0.4932670593261719
1707005590874956800,14.754956787109375,0.10614800453186035,-0.0595245361328125,0.03150653839111328
1707005590893914000,14.7739140625,0.2881617546081543,-0.09211492538452148,-0.2661571502685547
1707005590912871400,14.792871337890626,0.4076418876647949,0.04828977584838867,-0.4196662902832031
1707005590931828700,14.811828857421874,0.3453397750854492,0.7345676422119141,-0.16323566436767578
1707005590950785800,14.830785888671874,0.5332231521606445,1.2629585266113281,0.24768972396850586
1707005590969743000,14.8497431640625,0.8994110822677612,0.6688065528869629,0.14819002151489258
1707005590988700400,14.868700439453125,0.7392487525939941,0.38094472885131836,0.24479389190673828
1707005591007657700,14.88765771484375,1.171064019203186,-0.16852903366088867,-0.11368894577026367
1707005591026615000,14.906614990234376,0.23622846603393555,0.2825198173522949,-0.034786224365234375
1707005591045572400,14.925572265625,0.30747759342193604,-0.00385284423828125,-0.25332164764404297
1707005591064529400,14.944529296875,0.9323923587799072,-0.11549806594848633,-0.19809579849243164
1707005591083486700,14.96348681640625,0.1567838191986084,0.2135152816772461,-0.2350788116455078
1707005591102444000,14.982444091796875,0.23423683643341064,0.2390899658203125,-0.4510765075683594
1707005591121401300,15.0014013671875,0.0001169443130493164,0.3469271659851074,-0.3575563430786133
1707005591140358700,15.020358642578126,-0.01899123191833496,0.19809627532958984,-0.2622947692871094
1707005591159316000,15.03931591796875,-0.09290623664855957,-0.18418645858764648,-0.09263277053833008
1707005591178273300,15.058273193359375,-0.07841110229492188,-0.33391904830932617,-0.026403427124023438
1707005591197230300,15.077230224609375,-0.03780055046081543,-0.3593316078186035,0.09162282943725586
1707005591216187600,15.096187744140625,0.04277825355529785,-0.3525071144104004,-0.013854503631591797
1707005591235145000,15.11514501953125,0.2454204559326172,-0.25557374954223633,0.03631162643432617
1707005591254102300,15.134102294921876,0.0296173095703125,0.06790542602539062,-0.01437997817993164
1707005591273059600,15.1530595703125,-0.0244443416595459,0.2233586311340332,-0.2158031463623047
1707005591292017000,15.172016845703125,-0.20472562313079834,0.35367536544799805,-0.011879920959472656
1707005591310974200,15.19097412109375,-0.2144298553466797,0.3333296775817871,0.10031652450561523
1707005591329931500,15.209931640625,-0.3517695665359497,0.11230182647705078,-0.03344297409057617
1707005591348888600,15.228888671875,-0.3953893184661865,-0.11145544052124023,-0.02306509017944336
1707005591367846000,15.247845947265626,-0.42230772972106934,-0.28118181228637695,0.0025377273559570312
1707005591386803200,15.26680322265625,-0.43250465393066406,-0.07587480545043945,0.09025096893310547
1707005591405760500,15.285760498046875,-0.3382093906402588,-0.12681341171264648,0.10271978378295898
1707005591424717800,15.3047177734375,-0.21068835258483887,-0.20767641067504883,0.03436851501464844
1707005591443675100,15.323675048828125,-0.10289740562438965,-0.07538032531738281,-0.05253887176513672
1707005591462632200,15.342632080078126,-0.030602693557739258,0.045583248138427734,-0.03801584243774414
1707005591481589500,15.361589599609376,-0.07445311546325684,0.0027055740356445312,0.18288946151733398
1707005591500546800,15.380546875,0.014707088470458984,-0.2913517951965332,-0.10820770263671875
1707005591519504100,15.399504150390625,0.01174473762512207,-0.2866225242614746,-0.11965703964233398
1707005591538461400,15.41846142578125,-0.11735677719116211,-0.05715656280517578,0.1194620132446289
1707005591557418500,15.43741845703125,-0.04871726036071777,-0.05875587463378906,0.0585780143737793
1707005591576375800,15.456375732421876,0.026924610137939453,0.024389266967773438,-0.0758204460144043
1707005591595333000,15.4753330078125,-0.11136507987976074,0.019243240356445312,-0.04883623123168945
1707005591614290400,15.49429052734375,-0.33115315437316895,0.03433704376220703,-0.009872913360595703
1707005591633247700,15.513247802734375,-0.4435861110687256,0.0338587760925293,-0.04576921463012695
1707005591652205000,15.532205078125,-0.42456531524658203,0.0010981559753417969,0.05725812911987305
1707005591671162000,15.551162109375,-0.29091906547546387,-0.06978511810302734,0.11618995666503906
1707005591690119400,15.570119384765626,-0.024425506591796875,-0.2291240692138672,0.07711935043334961
1707005591709076700,15.58907666015625,-0.03737282752990723,-0.3319129943847656,0.003954410552978516
1707005591728034000,15.608033935546874,-0.000022172927856445312,-0.2584190368652344,-0.07264947891235352
1707005591746991400,15.626991455078125,0.149641752243042,-0.11822986602783203,-0.10178709030151367
1707005591765948700,15.64594873046875,0.24427032470703125,-0.056664466857910156,0.11189508438110352
1707005591784906000,15.664906005859375,0.31899023056030273,0.08401679992675781,0.2735772132873535
1707005591803863000,15.683863037109376,0.28113222122192383,0.06486082077026367,0.21982383728027344
1707005591822820400,15.7028203125,0.16478633880615234,0.031699180603027344,-0.026110172271728516
1707005591841777700,15.721777587890625,0.08752179145812988,0.08997440338134766,-0.09476041793823242
1707005591860735000,15.74073486328125,0.07557916641235352,0.0011334419250488281,0.0058956146240234375
1707005591879692300,15.7596923828125,0.11309409141540527,-0.17216920852661133,-0.0070476531982421875
1707005591898649300,15.7786494140625,0.13701653480529785,-0.11360931396484375,0.004021167755126953
1707005591917606700,15.797606689453126,0.142822265625,-0.08675193786621094,-0.02612018585205078
1707005591936564000,15.81656396484375,0.09503793716430664,0.04160022735595703,-0.03608369827270508
1707005591955521300,15.835521240234375,0.09452080726623535,0.16979694366455078,-0.0976719856262207
1707005591974478600,15.854478515625,0.15429043769836426,0.11529970169067383,-0.0742640495300293
1707005591993435600,15.873435546875,0.13132596015930176,-0.07641029357910156,0.011772632598876953
1707005592012393000,15.89239306640625,0.04877829551696777,-0.15899229049682617,-0.03759002685546875
1707005592031350300,15.911350341796876,0.045232534408569336,-0.20639467239379883,-0.06724834442138672
1707005592050307600,15.9303076171875,-0.027326107025146484,-0.18812847137451172,-0.13106250762939453
1707005592069265000,15.949264892578125,-0.014718770980834961,-0.1452045440673828,-0.24401330947875977
1707005592088222200,15.96822216796875,-0.011105060577392578,-0.10860490798950195,-0.220611572265625
1707005592107179500,15.987179443359375,-0.03019404411315918,-0.08385467529296875,-0.1026148796081543
1707005592126136800,16.00613671875,0.01930713653564453,-0.011937618255615234,-0.06479120254516602
1707005592145094000,16.025093994140626,0.07962369918823242,0.009012222290039062,0.06253671646118164
1707005592164051200,16.04405126953125,0.07597470283508301,-0.0051136016845703125,0.039679527282714844
1707005592183008500,16.063008544921875,0.12427711486816406,-0.03352689743041992,0.04615163803100586
1707005592201965800,16.0819658203125,0.23176145553588867,-0.023559093475341797,0.007668972015380859
1707005592220923100,16.100923095703124,0.3458559513092041,-0.006932258605957031,-0.10781002044677734
1707005592239880400,16.11988037109375,0.40889668464660645,0.1465001106262207,-0.11786031723022461
1707005592258837800,16.138837646484376,0.360837459564209,0.35068178176879883,-0.06588363647460938
1707005592277794800,16.157794921875,0.30033421516418457,0.367647647857666,-0.046681880950927734
1707005592296752000,16.176752197265625,0.18440604209899902,0.16586685180664062,-0.03378582000732422
1707005592315709400,16.19570947265625,0.14291858673095703,-0.057480812072753906,0.015992164611816406
1707005592334666800,16.214666748046874,-0.020049571990966797,-0.1693582534790039,0.023145675659179688
1707005592353624000,16.2336240234375,-0.13504290580749512,-0.03840780258178711,0.15944147109985352
1707005592372581400,16.252581298828126,-0.2677040100097656,-0.1450209617614746,-0.05013084411621094
1707005592391538700,16.27153857421875,-0.3346390724182129,-0.09871864318847656,-0.13529586791992188
1707005592410496000,16.29049609375,-0.24849987030029297,-0.03852224349975586,-0.028207778930664062
1707005592429453000,16.309453125,-0.1813952922821045,-0.013503074645996094,0.06712961196899414
1707005592448410400,16.328410400390624,-0.12277603149414062,-0.019477367401123047,-0.07973337173461914
1707005592467367700,16.34736767578125,-0.08199501037597656,0.0816659927368164,-0.1425619125366211
1707005592486325000,16.366324951171876,-0.12549304962158203,0.07227373123168945,-0.044214725494384766
1707005592505282300,16.3852822265625,-0.0654592514038086,-0.17551422119140625,-0.14904403686523438
1707005592524239600,16.404239501953125,0.017690181732177734,-0.1314530372619629,-0.23425722122192383
1707005592543197000,16.423197021484373,0.02174234390258789,0.0885615348815918,-0.12192487716674805
1707005592562154000,16.442154052734374,-0.031668901443481445,0.076141357421875,0.0037097930908203125
1707005592581111300,16.461111328125,-0.05285978317260742,0.003886699676513672,0.050194740295410156
1707005592600068600,16.480068603515626,0.0000972747802734375,-0.04405689239501953,-0.0710306167602539
1707005592619026000,16.49902587890625,-0.022556781768798828,-0.07737541198730469,-0.11554622650146484
1707005592637983200,16.517983154296875,0.01157522201538086,-0.05151844024658203,-0.06684541702270508
1707005592656940500,16.5369404296875,0.08645510673522949,0.05472707748413086,-0.041463375091552734
1707005592675897900,16.55589794921875,0.1404707431793213,0.1513819694519043,0.06660842895507812
1707005592694855200,16.574855224609376,0.22362995147705078,0.21292591094970703,0.044490814208984375
1707005592713812500,16.5938125,0.2889237403869629,0.1976456642150879,0.10333967208862305
1707005592732769800,16.612769775390625,0.2409677505493164,0.1452794075012207,0.05556488037109375
1707005592751727000,16.63172705078125,0.22395968437194824,0.15903520584106445,0.034999847412109375
1707005592770684400,16.650684326171874,0.23773527145385742,-0.03957557678222656,-0.022140979766845703
1707005592789641700,16.669641845703126,0.14848923683166504,0.01260519027709961,-0.08329153060913086
1707005592808598800,16.688598876953126,0.019871950149536133,0.1637563705444336,-0.01870584487915039
1707005592827556000,16.70755615234375,-0.1279890537261963,0.08557605743408203,-0.09510660171508789
1707005592846513400,16.726513427734375,-0.1876678466796875,-0.07460689544677734,-0.0028319358825683594
1707005592865471000,16.745470947265623,-0.06531357765197754,-0.2196798324584961,-0.014919757843017578
1707005592884428300,16.76442822265625,-0.022222042083740234,-0.2455916404724121,-0.07092475891113281
1707005592903385300,16.78338525390625,-0.07937407493591309,-0.07617855072021484,-0.16806936264038086
1707005592922342700,16.8023427734375,-0.07950067520141602,0.06742191314697266,-0.16012954711914062
1707005592941300000,16.821300048828125,-0.02945876121520996,0.08768701553344727,-0.07470846176147461
1707005592960257300,16.84025732421875,0.04359626770019531,0.08907794952392578,-0.04310178756713867
1707005592979214600,16.859214599609373,0.03398275375366211,0.12340021133422852,0.10667228698730469
1707005592998172000,16.878171875,0.0312952995300293,0.06378650665283203,0.11476612091064453
1707005593017129200,16.897129150390626,0.03489232063293457,0.026665210723876953,0.08225727081298828
1707005593036086500,16.91608642578125,0.0888516902923584,0.009043693542480469,0.021144390106201172
1707005593055043800,16.9350439453125,0.130615234375,-0.0005230903625488281,0.1178889274597168
1707005593074001200,16.954001220703127,0.09838342666625977,-0.03374052047729492,0.16395950317382812
1707005593092958500,16.97295849609375,0.011075735092163086,-0.021816730499267578,0.07612228393554688
1707005593111915800,16.991915771484376,-0.13408565521240234,0.08891725540161133,-0.03838920593261719
1707005593130873000,17.010873046875,-0.17514824867248535,0.12157583236694336,-0.05184602737426758
1707005593149830400,17.029830322265624,-0.1672835350036621,0.0119781494140625,-0.14376163482666016
1707005593168788000,17.0487880859375,-0.17246723175048828,-0.012192249298095703,-0.08096790313720703
1707005593187745000,17.0677451171875,-0.1909627914428711,-0.05520439147949219,-0.05351829528808594
1707005593206702300,17.086702392578125,-0.18752694129943848,-0.043904781341552734,0.04907655715942383
1707005593225659600,17.10565966796875,-0.14309024810791016,-0.06450605392456055,-0.0982046127319336
1707005593244617200,17.1246171875,-0.13013601303100586,0.12003850936889648,-0.05927610397338867
1707005593263574500,17.143574462890626,-0.09241414070129395,0.07235860824584961,-0.0021843910217285156
1707005593282531600,17.162531494140627,-0.06441092491149902,0.018012046813964844,-0.08026313781738281
1707005593301489200,17.1814892578125,-0.04950761795043945,0.064422607421875,-0.037946224212646484
1707005593320446500,17.200446533203124,0.05471396446228027,0.0015888214111328125,0.02089834213256836
1707005593339403800,17.21940380859375,0.08042645454406738,-0.09005546569824219,-0.019193172454833984
1707005593358361000,17.238361083984376,0.0551304817199707,-0.07539558410644531,-0.037847042083740234
1707005593377318400,17.257318359375,0.0470731258392334,-0.014998912811279297,0.006246089935302734
1707005593396275700,17.276275634765625,0.07631468772888184,0.05820608139038086,0.06830644607543945
1707005593415233000,17.29523291015625,0.09727883338928223,0.06510591506958008,0.10632085800170898
1707005593434190300,17.3141904296875,0.056229352951049805,0.03931999206542969,0.049040794372558594
1707005593453147600,17.333147705078126,0.12153506278991699,-0.0815272331237793,-0.013775825500488281
1707005593472105000,17.35210498046875,0.0851891040802002,-0.03715848922729492,0.09522294998168945
1707005593491062300,17.371062255859375,0.06478762626647949,-0.019056320190429688,0.16283893585205078
1707005593510019600,17.39001953125,0.10788249969482422,-0.16529273986816406,0.0004515647888183594
1707005593528977000,17.408976806640624,0.13997364044189453,-0.11180782318115234,-0.11257791519165039
1707005593547934200,17.427934326171876,0.12854385375976562,0.026526451110839844,-0.04166698455810547
1707005593566891800,17.446891845703124,0.09945344924926758,0.10745573043823242,-0.021120071411132812
1707005593585849000,17.46584912109375,0.07083439826965332,0.021038055419921875,-0.13518047332763672
1707005593604806400,17.484806396484377,0.050614118576049805,-0.0484309196472168,-0.160186767578125
1707005593623763700,17.503763671875,0.06759476661682129,-0.051471710205078125,-0.07635354995727539
1707005593642721000,17.522720947265626,0.08130335807800293,-0.0000400543212890625,0.029127120971679688
1707005593661678300,17.54167822265625,0.04722332954406738,-0.005076885223388672,0.054335594177246094
1707005593680635600,17.5606357421875,0.0998687744140625,-0.159637451171875,-0.10084247589111328
1707005593699593000,17.579593017578127,0.10342597961425781,0.012563705444335938,0.028817176818847656
1707005593718550300,17.59855029296875,0.18501853942871094,0.012460708618164062,0.039202213287353516
1707005593737507600,17.617507568359375,0.22107267379760742,-0.02280426025390625,-0.023895740509033203
1707005593756465200,17.636465087890624,0.2505669593811035,0.021843910217285156,-0.04986858367919922
1707005593775422200,17.655422119140624,0.20130372047424316,0.044748783111572266,0.04354667663574219
1707005593794379800,17.6743798828125,0.08493256568908691,0.03314542770385742,0.057550907135009766
1707005593813337000,17.693337158203125,0.02185797691345215,-0.0673222541809082,-0.053931236267089844
1707005593832294400,17.71229443359375,0.008452415466308594,-0.07712697982788086,-0.08850765228271484
1707005593851251700,17.731251708984374,-0.06331825256347656,-0.10688543319702148,-0.058053016662597656
1707005593870209000,17.750208984375,-0.16759300231933594,0.006779193878173828,-0.04788827896118164
1707005593889166300,17.769166259765626,-0.15884613990783691,0.11681652069091797,-0.0366363525390625
1707005593908124000,17.7881240234375,-0.1488351821899414,-0.003692150115966797,0.04503154754638672
1707005593927081000,17.8070810546875,-0.11169743537902832,-0.15183305740356445,0.03249216079711914
1707005593946038500,17.82603857421875,-0.029320240020751953,-0.05363607406616211,0.018245697021484375
1707005593964995800,17.844995849609376,0.025533199310302734,0.05201148986816406,0.12430810928344727
1707005593983953200,17.863953125,0.09427022933959961,0.045937538146972656,0.08021259307861328
1707005594002910500,17.882910400390625,0.1282029151916504,0.02177143096923828,0.0001678466796875
1707005594021867800,17.90186767578125,0.12391138076782227,-0.05589437484741211,-0.04916572570800781
1707005594040825000,17.9208251953125,0.07292413711547852,-0.010539054870605469,-0.025902271270751953
1707005594059782700,17.93978271484375,0.034522294998168945,-0.00974273681640625,-0.033388614654541016
1707005594078739700,17.95873974609375,0.012148380279541016,0.016164779663085938,-0.0677175521850586
1707005594097697300,17.977697265625,-0.0024864673614501953,0.053598880767822266,0.055094242095947266
1707005594116654600,17.996654541015626,-0.017667531967163086,-0.048883914947509766,-0.01929759979248047
1707005594135612000,18.01561181640625,-0.08629322052001953,0.038021087646484375,-0.03617286682128906
1707005594154569200,18.0345693359375,-0.08858656883239746,0.08365726470947266,0.08886337280273438
1707005594173526500,18.053526611328124,-0.04119729995727539,-0.04023933410644531,0.05245685577392578
1707005594192483800,18.07248388671875,-0.021414756774902344,-0.05227518081665039,0.045914649963378906
1707005594211441200,18.091441162109376,0.006646633148193359,-0.04153585433959961,0.023111820220947266
1707005594230398500,18.1103984375,0.005040407180786133,-0.04221677780151367,-0.06245279312133789
1707005594249355800,18.129355712890625,-0.005362987518310547,-0.006182670593261719,-0.010141849517822266
1707005594268313300,18.148313232421874,0.015718460083007812,-0.02203845977783203,0.0034627914428710938
1707005594287270700,18.167270751953126,-0.04400897026062012,0.016539573669433594,0.01933002471923828
1707005594306228000,18.18622802734375,-0.09397149085998535,0.041426658630371094,-0.00012159347534179688
1707005594325185300,18.205185302734375,-0.11341452598571777,0.022158145904541016,-0.042290687561035156
1707005594344142600,18.224142578125,-0.0886390209197998,0.023899555206298828,-0.003940582275390625
1707005594363100000,18.243099853515623,-0.07976484298706055,-0.013362884521484375,0.11657047271728516
1707005594382057200,18.26205712890625,-0.05858135223388672,-0.027027606964111328,0.1004171371459961
1707005594401014500,18.2810146484375,-0.05661416053771973,0.009521961212158203,0.015390872955322266
1707005594419972000,18.29997216796875,-0.0369720458984375,-0.008137226104736328,0.003066539764404297
1707005594438929400,18.318929443359377,0.02459120750427246,-0.019814014434814453,0.010159969329833984
1707005594457886700,18.33788671875,0.046942710876464844,0.047646522521972656,-0.03623390197753906
1707005594476844000,18.356843994140625,0.04130721092224121,0.07742834091186523,-0.029850006103515625
1707005594495801300,18.37580126953125,0.005947589874267578,0.09942626953125,-0.010052680969238281
1707005594514759000,18.394759033203126,0.032334327697753906,0.16442584991455078,0.027906417846679688
1707005594533716000,18.413716064453126,0.04543900489807129,0.10722494125366211,0.0969691276550293
1707005594552673300,18.43267333984375,0.051084280014038086,-0.11164236068725586,-0.019919872283935547
1707005594571630800,18.451630859375,0.0007719993591308594,-0.12871789932250977,-0.0908041000366211
1707005594590588200,18.470588134765624,-0.003125905990600586,0.039404869079589844,0.06658792495727539
1707005594609545500,18.48954541015625,0.06492447853088379,-0.0025157928466796875,0.00045013427734375
1707005594628502800,18.508502685546876,-0.03422856330871582,-0.002891063690185547,-0.0339503288269043
1707005594647460000,18.527460205078125,-0.09149670600891113,-0.02042531967163086,-0.06133556365966797
1707005594666417400,18.54641748046875,-0.051889657974243164,-0.017375469207763672,-0.04851484298706055
1707005594685374700,18.565374755859374,-0.03730630874633789,0.011715888977050781,0.0001983642578125
1707005594704332000,18.58433203125,-0.0668344497680664,-0.007487773895263672,-0.037817955017089844
1707005594723289600,18.60328955078125,-0.09555172920227051,0.015439033508300781,-0.11098861694335938
1707005594742247000,18.622246826171875,-0.09116435050964355,0.013709545135498047,-0.03475809097290039
1707005594761204200,18.641204345703127,-0.06416177749633789,0.028172016143798828,-0.01210927963256836
1707005594780161500,18.66016162109375,-0.05633711814880371,-0.013058185577392578,-0.030854225158691406
1707005594799118800,18.679118896484376,-0.04911208152770996,0.027161598205566406,0.024721622467041016
1707005594818076200,18.698076171875,-0.004523038864135742,-0.016949176788330078,0.021176815032958984
1707005594837033500,18.717033447265624,0.05330777168273926,0.0040302276611328125,-0.00043582916259765625
1707005594855990800,18.73599072265625,0.10039210319519043,0.01787853240966797,0.021427154541015625
1707005594874948400,18.7549482421875,0.07761549949645996,-0.0017833709716796875,-0.007145881652832031
1707005594893905700,18.77390576171875,0.010736703872680664,-0.05002737045288086,-0.053791046142578125
1707005594912863000,18.792863037109374,0.009624958038330078,-0.03645133972167969,-0.12624502182006836
1707005594931820300,18.8118203125,-0.0011916160583496094,0.05107879638671875,0.02182912826538086
1707005594950777600,18.830777587890626,-0.011013269424438477,-0.03310823440551758,-0.013379573822021484
1707005594969735000,18.84973486328125,-0.005575895309448242,-0.0359344482421875,-0.058722496032714844
1707005594988692200,18.868692138671875,-0.022553205490112305,0.016111373901367188,0.0799260139465332
1707005595007649500,18.8876494140625,-0.0029420852661132812,-0.06365299224853516,0.019330978393554688
1707005595026607000,18.906607177734376,-0.025067806243896484,0.0939640998840332,0.07806825637817383
1707005595045564400,18.925564453125,0.030746936798095703,0.010406494140625,0.04484367370605469
1707005595064521700,18.944521728515625,-0.01654958724975586,0.010935306549072266,-0.011825084686279297
1707005595083479000,18.96347900390625,-0.013080120086669922,0.053125858306884766,0.08327054977416992
1707005595102436400,18.982436279296873,0.06138920783996582,0.042325496673583984,0.06560611724853516
1707005595121393700,19.0013935546875,0.0994408130645752,0.10151910781860352,-0.031145572662353516
1707005595140351000,19.02035107421875,0.0918576717376709,0.11552238464355469,0.07112789154052734
1707005595159308300,19.039308349609374,0.0710601806640625,0.01749563217163086,0.1064753532409668
1707005595178265600,19.058265625,0.012915611267089844,-0.07033634185791016,0.007871627807617188
1707005595197223200,19.07722314453125,-0.04662895202636719,-0.08798789978027344,0.02414083480834961
1707005595216180500,19.096180419921875,-0.09804773330688477,-0.15460205078125,0.0131072998046875
1707005595235137800,19.1151376953125,-0.1584639549255371,-0.08385848999023438,-0.030904293060302734
1707005595254095000,19.13409521484375,-0.16864228248596191,-0.05167865753173828,-0.018639564514160156
1707005595273052400,19.153052490234376,-0.20569872856140137,-0.052980899810791016,-0.0079803466796875
1707005595292009700,19.172009765625,-0.14541172981262207,-0.027484893798828125,-0.08248281478881836
1707005595310967000,19.190967041015625,-0.06971454620361328,0.008027076721191406,-0.008931636810302734
1707005595329924400,19.20992431640625,-0.06353020668029785,0.007571697235107422,0.03822660446166992
1707005595348881700,19.228881591796874,-0.025163888931274414,-0.0017652511596679688,-0.028625011444091797
1707005595367839200,19.247839111328126,0.009421110153198242,0.03591442108154297,-0.04665231704711914
1707005595386796300,19.26679638671875,0.05636310577392578,0.020123958587646484,-0.024798870086669922
1707005595405753900,19.28575390625,0.0418550968170166,-0.01094961166381836,-0.060909271240234375
1707005595424711200,19.304711181640624,0.0017383098602294922,0.11229467391967773,-0.06979560852050781
1707005595443668500,19.32366845703125,-0.0281527042388916,0.1350250244140625,-0.0815591812133789
1707005595462625800,19.342625732421876,-0.09094500541687012,0.12673711776733398,0.14117193222045898
1707005595481583000,19.3615830078125,-0.00995945930480957,-0.103485107421875,0.0420384407043457
1707005595500540400,19.38054052734375,-0.02634119987487793,-0.18952512741088867,0.02801799774169922
1707005595519497700,19.399497802734373,-0.04293417930603027,-0.0812983512878418,0.07047319412231445
1707005595538455000,19.418455078125,0.07078742980957031,-0.08895111083984375,-0.04769468307495117
1707005595557412400,19.437412353515626,0.1535332202911377,-0.03382301330566406,-0.05995512008666992
1707005595576369700,19.45636962890625,0.15887665748596191,0.03847455978393555,0.016274452209472656
1707005595595327200,19.4753271484375,0.1304950714111328,0.06536245346069336,-0.009627819061279297
1707005595614284500,19.494284423828127,0.0840311050415039,0.08240032196044922,-0.07133150100708008
1707005595633241900,19.513241943359375,0.030723094940185547,0.012249946594238281,0.020136356353759766
1707005595652199200,19.53219921875,0.007441043853759766,-0.01295328140258789,0.06801462173461914
1707005595671156500,19.551156494140624,-0.04416394233703613,-0.009616851806640625,0.03917264938354492
1707005595690113800,19.57011376953125,-0.08085870742797852,-0.012611865997314453,0.0011844635009765625
1707005595709071000,19.589071044921877,-0.07436990737915039,-0.05336713790893555,-0.05528879165649414
1707005595728028400,19.6080283203125,-0.07243871688842773,-0.08086061477661133,-0.06827688217163086
1707005595746985700,19.62698583984375,-0.07526564598083496,-0.007472515106201172,-0.035091400146484375
1707005595765943000,19.645943115234374,-0.044183969497680664,0.0807957649230957,-0.05962848663330078
1707005595784900400,19.664900390625,-0.010826349258422852,0.0721883773803711,-0.013867378234863281
1707005595803857700,19.683857666015626,0.025665760040283203,-0.02526235580444336,-0.028578758239746094
1707005595822815200,19.702815185546875,0.0806586742401123,-0.03354787826538086,-0.057392120361328125
1707005595841772500,19.7217724609375,0.0707402229309082,0.052068233489990234,0.08420658111572266
1707005595860729900,19.740729736328124,0.0317072868347168,0.060819149017333984,0.0286102294921875
1707005595879687200,19.759687255859376,0.03890085220336914,-0.013709545135498047,-0.09815216064453125
1707005595898644500,19.77864453125,0.03345322608947754,0.057091712951660156,0.037923336029052734
1707005595917601800,19.797601806640625,0.09737467765808105,0.005058765411376953,-0.009029865264892578
1707005595936559000,19.81655908203125,0.014095067977905273,-0.014256954193115234,0.023312091827392578
1707005595955516400,19.835516357421874,-0.01148080825805664,-0.0168914794921875,0.038727760314941406
1707005595974473700,19.8544736328125,-0.0008382797241210938,-0.07672405242919922,-0.02868509292602539
1707005595993431000,19.87343115234375,0.007909774780273438,0.03255939483642578,-0.07657766342163086
1707005596012388400,19.892388427734375,0.02751636505126953,0.06601905822753906,-0.026885032653808594
1707005596031345700,19.911345703125,0.018399715423583984,0.0537114143371582,0.009350299835205078
1707005596050303000,19.930302978515623,-0.0018277168273925781,0.004363059997558594,-0.0303955078125
1707005596069260500,19.949260498046876,-0.0007755756378173828,-0.025952816009521484,0.04693126678466797
1707005596088217900,19.9682177734375,0.0005331039428710938,-0.0548248291015625,0.04111957550048828
1707005596107175200,19.987175048828124,0.0010981559753417969,-0.029428482055664062,0.008096694946289062
1707005596126132500,20.006132568359376,-0.019854068756103516,0.019054889678955078,0.028761863708496094
1707005596145089800,20.02508984375,-0.011661767959594727,-0.01563882827758789,-0.017271995544433594
1707005596164047000,20.044047119140625,0.009858846664428711,-0.0055789947509765625,-0.026804447174072266
1707005596183004400,20.06300439453125,0.012271404266357422,0.017780780792236328,-0.017549514770507812
1707005596201961700,20.081961669921874,-0.004753828048706055,0.04088258743286133,-0.04124259948730469
1707005596220919000,20.1009189453125,-0.02683281898498535,0.039113521575927734,0.007402896881103516
1707005596239876600,20.119876708984375,0.06852960586547852,-0.08290338516235352,-0.0005803108215332031
1707005596258834000,20.138833984375,0.12509560585021973,-0.10081768035888672,0.023556232452392578
1707005596277791200,20.157791259765624,0.09860110282897949,0.017916202545166016,0.05991792678833008
1707005596296748500,20.17674853515625,0.06014871597290039,0.06251955032348633,0.02426004409790039
1707005596315705900,20.195705810546876,0.08015775680541992,-0.04190683364868164,-0.1192021369934082
1707005596334663200,20.2146630859375,0.1015167236328125,0.08730363845825195,0.021163463592529297
1707005596353620500,20.233620361328125,0.14735960960388184,-0.015740394592285156,0.005911350250244141
1707005596372577800,20.252577880859373,0.02770090103149414,-0.05538606643676758,-0.04203176498413086
1707005596391535400,20.271535400390626,-0.06281876564025879,-0.026954174041748047,-0.04769134521484375
1707005596410492400,20.290492431640626,-0.028082847595214844,-0.04277324676513672,-0.028751850128173828
1707005596429450000,20.309449951171874,0.03013753890991211,-0.009017467498779297,-0.008063793182373047
1707005596448407300,20.3284072265625,0.05544233322143555,0.07066917419433594,0.008210182189941406
1707005596467364600,20.347364501953123,0.022515535354614258,0.14324712753295898,-0.012819290161132812
1707005596486322000,20.366322021484375,0.019040346145629883,0.08056211471557617,-0.05820751190185547
1707005596505279200,20.385279296875,0.004813671112060547,-0.004727840423583984,0.03188943862915039
1707005596524236800,20.40423681640625,-0.009374141693115234,-0.025824546813964844,0.08760595321655273
1707005596543194000,20.423194091796876,0.005072593688964844,-0.0218048095703125,0.05628633499145508
1707005596562151400,20.4421513671875,0.014637470245361328,-0.023369789123535156,-0.019905567169189453
1707005596581108700,20.461108642578125,0.02460002899169922,0.031067371368408203,0.03900718688964844
1707005596600066000,20.480066162109374,-0.0074617862701416016,0.17005395889282227,0.028580188751220703
1707005596619023400,20.4990234375,-0.05908489227294922,0.2463064193725586,0.09379005432128906
1707005596637980700,20.517980712890626,-0.044289588928222656,-0.038094520568847656,0.004209995269775391
1707005596656938200,20.536938232421875,-0.02303290367126465,-0.11897754669189453,0.02699422836303711
1707005596675895600,20.5558955078125,0.007564544677734375,-0.1785144805908203,0.032975196838378906
1707005596694852900,20.574852783203124,0.00010538101196289062,-0.1795039176940918,-0.06590557098388672
1707005596713810200,20.59381005859375,-0.00837850570678711,-0.053246498107910156,-0.15678930282592773
1707005596732767700,20.612767822265624,-0.024889469146728516,0.006840229034423828,-0.02594757080078125
1707005596751725000,20.63172509765625,-0.032679080963134766,0.02346324920654297,0.00016880035400390625
1707005596770682400,20.650682373046877,-0.03137946128845215,0.10143280029296875,0.024108409881591797
1707005596789639700,20.6696396484375,-0.017010211944580078,0.09660816192626953,0.07923555374145508
1707005596808597000,20.688596923828126,0.0031638145446777344,-0.016533374786376953,-0.02160501480102539
1707005596827554300,20.70755419921875,-0.09977984428405762,-0.019862651824951172,-0.009698867797851562
1707005596846511900,20.726511962890626,-0.1039888858795166,-0.015538692474365234,-0.028480052947998047
1707005596865469200,20.74546923828125,-0.07879161834716797,-0.050426483154296875,-0.051076412200927734
1707005596884426500,20.764426513671875,-0.06255125999450684,0.002318859100341797,-0.05442094802856445
1707005596903383800,20.7833837890625,-0.0325007438659668,-0.016677379608154297,-0.02745676040649414
1707005596922341400,20.80234130859375,-0.04154634475708008,-0.027975082397460938,-0.03442096710205078
1707005596941298700,20.821298583984376,-0.07398486137390137,0.024646759033203125,-0.0661325454711914
1707005596960256000,20.840256103515625,-0.09815263748168945,0.12711858749389648,0.027335643768310547
1707005596979213300,20.85921337890625,-0.05563235282897949,-0.041771888732910156,0.00794839859008789
1707005596998171000,20.8781708984375,-0.04501795768737793,-0.06459474563598633,0.03600502014160156
1707005597017128200,20.897128173828126,-0.06092953681945801,-0.0080108642578125,0.15842676162719727
1707005597036085500,20.91608544921875,-0.028012752532958984,0.036756038665771484,0.07434225082397461
1707005597055043000,20.93504296875,0.049303293228149414,-0.0018849372863769531,-0.006809711456298828
1707005597074000400,20.95400048828125,0.08680367469787598,-0.043251991271972656,-0.012390613555908203
1707005597092957700,20.972957763671875,0.07879304885864258,-0.0960245132446289,-0.048554420471191406
1707005597111915000,20.9919150390625,0.049103498458862305,-0.03956937789916992,-0.06434154510498047
1707005597130872300,21.010872314453124,0.0643007755279541,-0.018364429473876953,-0.008876800537109375
1707005597149830000,21.029829833984376,0.09267735481262207,-0.018892765045166016,0.05973386764526367
1707005597168787200,21.048787109375,0.11826467514038086,0.014893531799316406,0.06143760681152344
1707005597187744500,21.06774462890625,0.13046717643737793,0.05977153778076172,0.2012195587158203
1707005597206702000,21.0867021484375,0.09400296211242676,-0.007738590240478516,0.08768129348754883
1707005597225659400,21.105659423828126,0.035238027572631836,0.0976724624633789,-0.029293537139892578
1707005597244616700,21.12461669921875,0.06182098388671875,0.07618856430053711,-0.07843923568725586
1707005597263574300,21.14357421875,0.040772438049316406,0.008317947387695312,-0.03499174118041992
1707005597282531600,21.162531494140627,-0.03943037986755371,0.004586219787597656,-0.027906417846679688
1707005597301489000,21.181489013671875,-0.06749129295349121,-0.04178571701049805,-0.11210870742797852
1707005597320446500,21.200446533203124,-0.12979555130004883,-0.018172740936279297,-0.09486722946166992
1707005597339403800,21.21940380859375,-0.17657947540283203,0.044115543365478516,-0.06284475326538086
1707005597358361000,21.238361083984376,-0.2330155372619629,0.019505023956298828,-0.19368410110473633
1707005597377318700,21.257318603515625,-0.37034034729003906,0.05440950393676758,-0.09704971313476562
1707005597396276000,21.27627587890625,-0.29976630210876465,-0.10509395599365234,-0.02559661865234375
1707005597415233300,21.2952333984375,-0.2312331199645996,-0.24858617782592773,0.1253795623779297
1707005597434190800,21.31419091796875,-0.20981287956237793,-0.08164453506469727,0.33802366256713867
1707005597453148200,21.333148193359374,0.04795360565185547,0.06306791305541992,0.2197895050048828
1707005597472105500,21.35210546875,0.16517090797424316,0.14113712310791016,0.0032410621643066406
1707005597491063000,21.37106298828125,0.16686654090881348,0.09266519546508789,-0.09792566299438477
1707005597510020400,21.390020263671875,0.27571892738342285,0.12828636169433594,-0.19484472274780273
1707005597528978000,21.40897802734375,0.3393247127532959,0.029683589935302734,-0.17972993850708008
1707005597547935200,21.427935302734376,0.20421075820922852,0.06748151779174805,-0.031182289123535156
1707005597566892500,21.446892578125,0.11341190338134766,0.2411046028137207,0.03514289855957031
1707005597585850000,21.46585009765625,0.05988812446594238,0.20942115783691406,0.1308121681213379
1707005597604807400,21.484807373046873,-0.03250932693481445,-0.061669349670410156,0.014266014099121094
1707005597623764700,21.5037646484375,-0.18728280067443848,-0.13281869888305664,0.08432531356811523
1707005597642722300,21.522722412109374,-0.17840361595153809,-0.008827686309814453,0.09269237518310547
1707005597661679600,21.5416796875,-0.066162109375,-0.0751504898071289,-0.06020069122314453
1707005597680637200,21.56063720703125,-0.0345613956451416,-0.04143476486206055,0.029754161834716797
1707005597699594500,21.579594482421875,0.04157304763793945,-0.06720304489135742,-0.02839946746826172
1707005597718551800,21.5985517578125,0.06506133079528809,-0.045928001403808594,-0.1401839256286621
1707005597737509400,21.61750927734375,0.0765383243560791,-0.05345010757446289,-0.08238601684570312
1707005597756466700,21.636466796875,0.03014063835144043,0.07073736190795898,0.018139362335205078
1707005597775424300,21.65542431640625,0.1044762134552002,0.08043813705444336,0.09544086456298828
1707005597794381600,21.674381591796877,0.1864919662475586,0.02570819854736328,-0.03125953674316406
1707005597813339100,21.693339111328125,0.007573604583740234,0.06330060958862305,0.01919269561767578
1707005597832296400,21.71229638671875,-0.09292459487915039,0.0962376594543457,0.06759023666381836
1707005597851254000,21.73125390625,-0.0359041690826416,0.09193611145019531,0.0547642707824707
1707005597870211300,21.75021142578125,0.0234677791595459,-0.1547684669494629,-0.07224321365356445
1707005597889169000,21.7691689453125,0.06750893592834473,-0.28956079483032227,-0.08865165710449219
1707005597908126200,21.788126220703123,-0.2487788200378418,-0.09967803955078125,0.013274669647216797
1707005597927083500,21.80708349609375,-0.11827659606933594,-0.11320257186889648,-0.04366254806518555
1707005597946041000,21.826041015625,-0.03885960578918457,-0.12368249893188477,-0.01866006851196289
1707005597964998400,21.844998291015624,-0.053175926208496094,-0.043866634368896484,0.0617985725402832
1707005597983956000,21.8639560546875,-0.025103092193603516,0.12390995025634766,0.18054771423339844
1707005598002913300,21.882913330078125,0.07142448425292969,0.036612510681152344,0.1576552391052246
1707005598021870800,21.901870849609374,0.06683778762817383,-0.12287473678588867,0.17633485794067383
1707005598040828200,21.920828125,0.039742469787597656,-0.1841897964477539,0.013631820678710938
1707005598059785700,21.93978564453125,0.08951187133789062,-0.03242063522338867,0.0002903938293457031
1707005598078743000,21.958742919921875,0.08991861343383789,0.06402873992919922,0.09764289855957031
1707005598097700400,21.977700439453123,0.14476871490478516,-0.10379362106323242,-0.15021324157714844
1707005598116658000,21.996657958984375,0.07901525497436523,-0.01900005340576172,0.022282123565673828
1707005598135615200,22.015615234375,0.15854239463806152,-0.14277172088623047,-0.017569541931152344
1707005598154572800,22.03457275390625,0.08984231948852539,-0.18864774703979492,-0.0791616439819336
1707005598173530400,22.0535302734375,0.021552562713623047,-0.16254472732543945,-0.04104137420654297
1707005598192487700,22.07248779296875,0.04214787483215332,-0.16589784622192383,0.09097146987915039
1707005598211445000,22.091445068359373,0.01184844970703125,-0.2595176696777344,0.04111480712890625
1707005598230402600,22.110402587890626,-0.023235082626342773,-0.4097275733947754,-0.22785282135009766
1707005598249360000,22.12935986328125,-0.1264326572418213,-0.5521955490112305,-0.5419621467590332
1707005598268317400,22.1483173828125,-0.28986668586730957,-0.5668330192565918,-0.6936492919921875
1707005598287274800,22.167274658203127,-0.4013943672180176,-0.4636363983154297,-0.673499584197998
1707005598306232300,22.186232421875,-0.3903055191040039,-0.5629982948303223,-0.7830586433410645
1707005598325189600,22.205189697265624,-0.47164392471313477,-0.9662384986877441,-0.7281155586242676
1707005598344147200,22.224147216796876,-0.43845462799072266,-1.0624785423278809,-0.9170007705688477
1707005598363104500,22.2431044921875,-0.4131944179534912,-0.714714527130127,-0.9291605949401855
1707005598382062000,22.26206201171875,-0.2712259292602539,-1.062692642211914,-1.0816583633422852
1707005598401019400,22.281019287109373,-0.15657711029052734,-1.8311948776245117,-1.5905413627624512
1707005598419977000,22.29997705078125,-0.011318206787109375,-1.8967409133911133,-1.6296758651733398
1707005598438934300,22.318934326171874,0.10146045684814453,-1.7192974090576172,-1.409034252166748
1707005598457891600,22.3378916015625,0.1996161937713623,-1.9017810821533203,-1.5152549743652344
1707005598476849200,22.35684912109375,0.2624087333679199,-1.7407488822937012,-1.429062843322754
1707005598495806700,22.375806640625,0.10073232650756836,-1.5773372650146484,-1.3600068092346191
1707005598514764000,22.394763916015624,-0.4005129337310791,-1.1822333335876465,-1.219057559967041
1707005598533721600,22.4137216796875,-0.7693736553192139,-0.4540691375732422,-0.8377113342285156
1707005598552679000,22.432678955078124,-0.7409923076629639,-0.06560182571411133,-0.29143571853637695
1707005598571636500,22.451636474609376,-0.40168094635009766,-1.2573370933532715,-0.6494989395141602
1707005598590593800,22.47059375,-0.11704182624816895,-1.3712024688720703,-0.7749419212341309
1707005598609551000,22.489551025390625,-0.4555625915527344,0.31023693084716797,0.40373992919921875
1707005598628508700,22.5085087890625,-0.4620189666748047,0.7273263931274414,0.47145795822143555
1707005598647466000,22.527466064453126,-0.1187748908996582,-0.2407994270324707,-0.8549046516418457
1707005598666423600,22.546423583984375,-0.15308618545532227,-0.03863525390625,-0.3470954895019531
1707005598685380900,22.565380859375,0.2807471752166748,0.0196075439453125,0.7000288963317871
1707005598704338400,22.58433837890625,0.42528557777404785,0.08539581298828125,0.17370033264160156
1707005598723296000,22.6032958984375,0.14191031455993652,-0.11983251571655273,-0.6424140930175781
1707005598742253300,22.62225341796875,-0.27280473709106445,0.35582542419433594,-0.6702837944030762
1707005598761210600,22.641210693359376,-0.45160531997680664,1.4305710792541504,0.8910007476806641
1707005598780168200,22.660168212890625,-0.46712636947631836,0.4494814872741699,1.2331037521362305
1707005598799125500,22.67912548828125,-0.07972979545593262,-1.2205257415771484,-0.19274282455444336
1707005598818083000,22.6980830078125,0.07402873039245605,-0.014190673828125,-0.013274669647216797
1707005598837040400,22.717040283203126,-0.09391450881958008,1.4942712783813477,1.4477787017822266
1707005598855998000,22.735998046875,0.680762767791748,1.0204119682312012,1.196373462677002
1707005598874955300,22.754955322265626,0.8591742515563965,0.4401531219482422,0.038195133209228516
1707005598893912800,22.773912841796875,0.7956771850585938,1.2083344459533691,-0.05569124221801758
1707005598912870100,22.7928701171875,0.904975175857544,1.7838139533996582,1.1601924896240234
1707005598931827700,22.81182763671875,1.3074450492858887,0.9952702522277832,2.1033577919006348
1707005598950785000,22.830784912109376,1.2103266716003418,0.9595022201538086,1.3049335479736328
1707005598969742300,22.849742431640625,1.1311721801757812,0.857295036315918,1.096235752105713
1707005598988700000,22.868699951171877,0.7197356224060059,-0.033247947692871094,0.27042675018310547
1707005599007657200,22.8876572265625,-0.1454172134399414,0.9288396835327148,0.7889933586120605
1707005599026614800,22.90661474609375,0.41440439224243164,1.768308162689209,1.5367937088012695
1707005599045572400,22.925572265625,1.606161117553711,0.9926023483276367,1.3213205337524414
1707005599064529700,22.94452978515625,1.3400940895080566,-0.1424732208251953,0.0316472053527832
1707005599083487000,22.963487060546875,-0.44307804107666016,0.5626521110534668,-0.03216552734375
1707005599102444500,22.982444580078123,-0.9437532424926758,1.693974494934082,0.8466024398803711
1707005599121401900,23.00140185546875,0.4034748077392578,2.2808923721313477,1.0660157203674316
1707005599140359400,23.020359375,1.4467554092407227,-0.37024497985839844,-0.1458606719970703
1707005599159316700,23.039316650390624,0.23780059814453125,-0.8826179504394531,-0.4719247817993164
1707005599178274300,23.0582744140625,-1.3318161964416504,0.22506189346313477,0.7262306213378906
1707005599197231600,23.077231689453125,-0.25209665298461914,2.00443172454834,1.2123088836669922
1707005599216189200,23.096189208984374,1.3445301055908203,0.3664078712463379,-0.020734310150146484
1707005599235146500,23.115146484375,1.054006576538086,-0.5639796257019043,-1.0640950202941895
1707005599254103800,23.134103759765626,-0.5710732936859131,0.21994590759277344,0.04701423645019531
1707005599273061400,23.153061279296875,-0.31755733489990234,1.1133551597595215,1.0229010581970215
1707005599292018700,23.172018798828127,0.9263849258422852,0.9680466651916504,1.1748018264770508
1707005599310976300,23.190976318359375,1.3064770698547363,-0.12195634841918945,0.8654994964599609
1707005599329933600,23.20993359375,0.48670434951782227,0.0408930778503418,0.6080727577209473
1707005599348891100,23.22889111328125,-0.13192510604858398,0.3228292465209961,0.510831356048584
1707005599367848400,23.247848388671876,0.33266162872314453,1.1625356674194336,0.4346327781677246
