time,seconds_elapsed,z,y,x
1711550869418072000,0.120072021484375,0.024434590712189674,-0.5561923980712891,-0.12003492563962936
1711550869437030400,0.139030517578125,0.041844237595796585,-0.45998117327690125,-0.11606431007385254
1711550869455988700,0.15798876953125,0.012217295356094837,-0.2559523284435272,-0.060781046748161316
1711550869474947300,0.176947265625,-0.010079269297420979,-0.026572618633508682,0.0021380267571657896
1711550869493905700,0.19590576171875,-0.014660755172371864,0.15607595443725586,0.043371398001909256
1711550869512864000,0.214864013671875,-0.011300998739898205,0.24862197041511536,0.05283980444073677
1711550869531822300,0.233822265625,0.0027488914784044027,0.24404047429561615,0.03909534588456154
1711550869550780700,0.25278076171875,0.023212861269712448,0.1740964651107788,0.006108647678047419
1711550869569739000,0.271739013671875,0.02932151034474373,0.07574722915887833,-0.019853105768561363
1711550869588697300,0.290697265625,0.023518294095993042,0.000305432389723137,-0.019242240116000175
1711550869607656000,0.309656005859375,0.01740964688360691,-0.041844237595796585,-0.007941242307424545
1711550869626614300,0.3286142578125,0.0030543238390237093,-0.07544180005788803,0.005192350596189499
1711550869645572600,0.347572509765625,-0.014966187067329884,-0.07941242307424545,0.0204639695584774
1711550869664531000,0.366531005859375,-0.004886918235570192,-0.047952886670827866,0.018325943499803543
1711550869683489300,0.3854892578125,0.008857538923621178,-0.03176496922969818,0.012217295356094837
1711550869702447900,0.40444775390625,-0.011300998739898205,-0.04001164436340332,0.02779434807598591
1711550869721406200,0.42340625,-0.023518294095993042,-0.053145237267017365,0.043982263654470444
1711550869740364500,0.442364501953125,-0.016798781231045723,-0.06963858753442764,0.05039634555578232
1711550869759323100,0.4613232421875,-0.009162971749901772,-0.09193515032529831,0.051618073135614395
1711550869778281500,0.480281494140625,-0.007941242307424545,-0.10720676928758621,0.037262752652168274
1711550869797239800,0.49923974609375,-0.007635809946805239,-0.09712749719619751,0.01740964688360691
1711550869816198100,0.5181982421875,-0.009773836471140385,-0.08918625861406326,0.007941242307424545
1711550869835156700,0.53715673828125,-0.013133592903614044,-0.0824667438864708,0.001832594396546483
1711550869854115000,0.556114990234375,-0.019853105768561363,-0.06994401663541794,-0.003665188793092966
1711550869873073700,0.57507373046875,-0.02718348242342472,-0.05833758786320686,-0.015271619893610477
1711550869892032000,0.594031982421875,-0.032681263983249664,-0.04520399495959282,-0.034208428114652634
1711550869910990300,0.612990234375,-0.0360410213470459,-0.04550942778587341,-0.04245510324835777
1711550869929948700,0.63194873046875,-0.03451386094093323,-0.04917461425065994,-0.04978547990322113
1711550869948907300,0.6509072265625,-0.01954767294228077,-0.05528326332569122,-0.06750056147575378
1711550869967865600,0.669865478515625,-0.005803215317428112,-0.05742128938436508,-0.08552107214927673
1711550869986824200,0.68882421875,-0.005803215317428112,-0.0513126403093338,-0.09407317638397217
1711550870005782500,0.707782470703125,-0.02107483521103859,-0.025350889191031456,-0.10384701192378998
1711550870024740900,0.726740966796875,-0.034208428114652634,0.0409279391169548,-0.08429934084415436
1711550870043699500,0.745699462890625,-0.03787361457943916,0.10720676928758621,-0.05558869615197182
1711550870062658000,0.764657958984375,-0.03543015569448471,0.15729768574237823,-0.03451386094093323
1711550870081616400,0.783616455078125,-0.04214967042207718,0.17776164412498474,-0.025045456364750862
1711550870100574700,0.80257470703125,-0.03940077871084213,0.15515965223312378,-0.017715077847242355
1711550870119533300,0.821533203125,-0.010995565913617611,0.10384701192378998,-0.023212861269712448
1711550870138491600,0.84049169921875,0.021380268037319183,0.04764745384454727,-0.026878049597144127
1711550870157450200,0.8594501953125,0.04520399495959282,-0.007330377586185932,-0.029626941308379173
1711550870176408600,0.87840869140625,0.049480047076940536,-0.03329212963581085,-0.02932151034474373
1711550870195367200,0.8973671875,0.03390299528837204,-0.03237583488225937,-0.029932374134659767
1711550870214325500,0.916325439453125,0.021685699000954628,-0.021380268037319183,-0.03481929376721382
1711550870233284000,0.9352841796875,0.008552107028663158,0.017104214057326317,-0.028099779039621353
1711550870252242400,0.954242431640625,-0.016798781231045723,0.08552107214927673,-0.007941242307424545
1711550870271201000,0.973200927734375,-0.05192350596189499,0.13011419773101807,0.02626718580722809
1711550870290159600,0.99215966796875,-0.0824667438864708,0.17195843160152435,0.05864302068948746
1711550870309118000,1.011117919921875,-0.10873392969369888,0.2406807243824005,0.07941242307424545
1711550870328076500,1.03007666015625,-0.13652828335762024,0.3176496922969818,0.0925460159778595
1711550870347035000,1.049034912109375,-0.17776164412498474,0.38209593296051025,0.11484257876873016
1711550870365993500,1.067993408203125,-0.22449280321598053,0.4276053309440613,0.13255766034126282
1711550870384952000,1.0869521484375,-0.27916520833969116,0.4422661066055298,0.14049890637397766
1711550870403910400,1.105910400390625,-0.3445277214050293,0.49571678042411804,0.1539379209280014
1711550870422869000,1.124868896484375,-0.4156934916973114,0.5406153202056885,0.15729768574237823
1711550870441827600,1.14382763671875,-0.5057960152626038,0.6017017960548401,0.1792888194322586
1711550870460786000,1.162785888671875,-0.6029235124588013,0.7247910499572754,0.20861032605171204
1711550870479744500,1.18174462890625,-0.6817250847816467,0.8924734592437744,0.23915356397628784
1711550870498703000,1.200703125,-0.767857015132904,1.0790926218032837,0.2724456787109375
1711550870517661700,1.21966162109375,-0.8344413042068481,1.2611303329467773,0.3081812858581543
1711550870536620000,1.2386201171875,-0.8460476994514465,1.408348798751831,0.3436114490032196
1711550870555578600,1.25757861328125,-0.8298597931861877,1.488982915878296,0.3652971386909485
1711550870574537200,1.276537109375,-0.8359684348106384,1.481041669845581,0.38667741417884827
1711550870593495600,1.29549560546875,-0.8619301915168762,1.4114030599594116,0.4324922561645508
1711550870612454100,1.3144541015625,-0.8475748896598816,1.3289363384246826,0.4841103255748749
1711550870631412700,1.333412841796875,-0.776714563369751,1.2431098222732544,0.5186241865158081
1711550870650371300,1.352371337890625,-0.6997455954551697,1.128878116607666,0.5149590373039246
1711550870669330000,1.371329833984375,-0.6692023873329163,0.998153030872345,0.4972439408302307
1711550870688288500,1.39028857421875,-0.647516667842865,0.8772017955780029,0.508544921875
1711550870707247000,1.4092470703125,-0.5873464941978455,0.7648026943206787,0.5241219997406006
1711550870726205400,1.428205322265625,-0.5222893953323364,0.5983420610427856,0.49052441120147705
1711550870745164000,1.4471640625,-0.5271763205528259,0.40958482027053833,0.4425715208053589
1711550870764122600,1.46612255859375,-0.5739074349403381,0.28069236874580383,0.4211912751197815
1711550870783081200,1.485081298828125,-0.5937605500221252,0.19333870708942413,0.39248061180114746
1711550870802039800,1.504039794921875,-0.6206386089324951,0.09712749719619751,0.37171122431755066
1711550870820998400,1.522998291015625,-0.6719512343406677,0.053756099194288254,0.38331764936447144
1711550870839957000,1.54195703125,-0.6982184648513794,0.13011419773101807,0.3802633285522461
1711550870858915600,1.56091552734375,-0.6582068204879761,0.3484983444213867,0.37140578031539917
1711550870877874200,1.579874267578125,-0.5940660238265991,0.5794052481651306,0.3555232882499695
1711550870896832800,1.598832763671875,-0.6108647584915161,0.6661480665206909,0.35094180703163147
1711550870915791400,1.617791259765625,-0.7055488228797913,0.6215549111366272,0.3686569035053253
1711550870934750000,1.63675,-0.7531962990760803,0.6695078015327454,0.4001164436340332
1711550870953708500,1.65570849609375,-0.6792816519737244,0.8949168920516968,0.46547895669937134
1711550870972667100,1.674667236328125,-0.5235111117362976,1.1221586465835571,0.4783071279525757
1711550870991625700,1.693625732421875,-0.3796524703502655,1.1698060035705566,0.42332929372787476
1711550871010584600,1.71258447265625,-0.3124573230743408,1.0338886976242065,0.3555232882499695
1711550871029543000,1.73154296875,-0.32162031531333923,0.7901535630226135,0.3448331654071808
1711550871048501800,1.750501708984375,-0.37812530994415283,0.5708531141281128,0.40317076444625854
1711550871067460400,1.76946044921875,-0.3946186602115631,0.5412262082099915,0.46914416551589966
1711550871086419000,1.7884189453125,-0.27550002932548523,0.6258309483528137,0.4465421438217163
1711550871105377500,1.80737744140625,-0.08155044913291931,0.6524035930633545,0.3387245237827301
1711550871124336400,1.82633642578125,0.048563748598098755,0.46975502371788025,0.3194822669029236
1711550871143295000,1.845294921875,-0.03145953640341759,0.13591741025447845,0.43951719999313354
1711550871162253600,1.864253662109375,-0.20616686344146729,-0.11606431007385254,0.5351175665855408
1711550871181212200,1.883212158203125,-0.22327107191085815,-0.21716243028640747,0.5250383019447327
1711550871200170800,1.902170654296875,-0.06994401663541794,-0.21227550506591797,0.47036588191986084
1711550871219129600,1.921129638671875,0.07024945318698883,-0.15179990231990814,0.476779967546463
1711550871238088200,1.940088134765625,0.10109812021255493,-0.14752385020256042,0.5290089249610901
1711550871257046800,1.959046875,0.03634645417332649,-0.21349723637104034,0.5305360555648804
1711550871276005600,1.978005615234375,-0.032070402055978775,-0.17653992772102356,0.48044514656066895
1711550871294964200,1.996964111328125,-0.010384701192378998,0.06047561392188072,0.3992001414299011
1711550871313922800,2.0159228515625,0.13530655205249786,0.39309149980545044,0.33169957995414734
1711550871332881700,2.034881591796875,0.3222311735153198,0.6273581385612488,0.282524973154068
1711550871351840300,2.05384033203125,0.4050033390522003,0.6841685771942139,0.231212317943573
1711550871370798800,2.072798828125,0.360410213470459,0.6902772188186646,0.20219624042510986
1711550871389757700,2.0917578125,0.33047783374786377,0.6960803866386414,0.18264856934547424
1711550871408716300,2.11071630859375,0.41813695430755615,0.6407971382141113,0.16615521907806396
1711550871427675100,2.129675048828125,0.526565432548523,0.5311469435691833,0.1334739476442337
1711550871446633700,2.1486337890625,0.518318772315979,0.3845393657684326,0.09804379940032959
1711550871465592300,2.16759228515625,0.39339691400527954,0.23212862014770508,0.08368847519159317
1711550871484551200,2.18655126953125,0.2718348205089569,0.15515965223312378,0.11087195575237274
1711550871503510000,2.205510009765625,0.2263254076242447,0.18356487154960632,0.13530655205249786
1711550871522468600,2.224468505859375,0.20189081132411957,0.33169957995414734,0.09865466505289078
1711550871541427200,2.24342724609375,0.17867794632911682,0.4764745235443115,0.02412915788590908
1711550871560386000,2.262385986328125,0.17165300250053406,0.48105600476264954,-0.006414080038666725
1711550871579345000,2.281344970703125,0.14538581669330597,0.42943793535232544,0.019853105768561363
1711550871598303500,2.300303466796875,0.11362084746360779,0.3790415823459625,0.0616973415017128
1711550871617262300,2.319262451171875,0.1078176349401474,0.2987128794193268,0.08032871782779694
1711550871636221200,2.33822119140625,0.09285144507884979,0.22785256803035736,0.06047561392188072
1711550871655179800,2.3571796875,0.07574722915887833,0.1337793916463852,0.03481929376721382
1711550871674138600,2.376138671875,0.049480047076940536,0.007024944759905338,0.033597562462091446
1711550871693097200,2.39509716796875,0.024740023538470268,-0.10995566099882126,0.05192350596189499
1711550871712056000,2.41405615234375,0.03451386094093323,-0.25442516803741455,0.04825831577181816
1711550871731015000,2.433014892578125,0.03451386094093323,-0.40805765986442566,0.03298669680953026
1711550871749973500,2.451973388671875,0.028099779039621353,-0.517707884311676,0.015271619893610477
1711550871768932400,2.470932373046875,0.01588248461484909,-0.5213730931282043,0.011911863461136818
1711550871787891000,2.489890869140625,0.035735588520765305,-0.4871646761894226,0.001832594396546483
1711550871806849800,2.508849853515625,0.08857539296150208,-0.4257727563381195,-0.029626941308379173
1711550871825808600,2.52780859375,0.10476330667734146,-0.291687935590744,-0.04367683082818985
1711550871844767500,2.546767578125,0.06383536756038666,-0.07147117704153061,-0.000610864779446274
1711550871863726000,2.56572607421875,0.035735588520765305,0.13622283935546875,0.04153880476951599
1711550871882685000,2.584684814453125,0.03145953640341759,0.24526220560073853,0.053145237267017365
1711550871901643800,2.603643798828125,-0.003970621153712273,0.2672533392906189,0.0565049909055233
1711550871920602600,2.6226025390625,-0.06902772188186646,0.2767217457294464,-0.022907428443431854
1711550871939561500,2.6415615234375,-0.18295399844646454,0.2868010103702545,-0.04214967042207718
1711550871958520300,2.660520263671875,-0.08307760953903198,0.24373504519462585,0.006414080038666725
1711550871977479000,2.67947900390625,0.16065743565559387,-0.15760311484336853,0.010995565913617611
1711550871996437800,2.698437744140625,0.17287473380565643,-0.3961458206176758,0.04550942778587341
1711550872015396600,2.717396728515625,0.05711585655808449,-0.3249800503253937,0.053145237267017365
1711550872034355500,2.73635546875,-0.003359756199643016,-0.11698060482740402,0.08643736690282822
1711550872053314300,2.755314208984375,0.01893680728971958,0.08307760953903198,0.11392628401517868
1711550872072273200,2.774273193359375,0.04673115536570549,0.2767217457294464,0.1285870373249054
1711550872091232000,2.79323193359375,0.06291907280683517,0.3436114490032196,0.1444695144891739
1711550872110190800,2.81219091796875,0.10629047453403473,0.19944734871387482,0.14172062277793884
1711550872129149700,2.831149658203125,0.17684535682201385,-0.02626718580722809,0.1383608728647232
1711550872148108500,2.850108642578125,0.22846342623233795,-0.1997527778148651,0.1493564397096634
1711550872167067400,2.8690673828125,0.2211330533027649,-0.2816086709499359,0.18753549456596375
1711550872186026200,2.888026123046875,0.18325942754745483,-0.2626718580722809,0.21471896767616272
1711550872204985000,2.906985107421875,0.1701258420944214,-0.2110537886619568,0.2214384824037552
1711550872223944000,2.92594384765625,0.185092031955719,-0.18234314024448395,0.20952661335468292
1711550872242902800,2.94490283203125,0.1945604383945465,-0.19914191961288452,0.18570289015769958
1711550872261861600,2.963861572265625,0.18723005056381226,-0.22266021370887756,0.17104214429855347
1711550872280820500,2.982820556640625,0.17715078592300415,-0.2208276242017746,0.17898337543010712
1711550872299779300,3.001779296875,0.14263692498207092,-0.1795942485332489,0.1795942485332489
1711550872318738200,3.02073828125,0.06230820715427399,-0.12034036219120026,0.1640172004699707
1711550872337697000,3.039697021484375,-0.0256563201546669,-0.0412333719432354,0.13133592903614044
1711550872356655900,3.05865576171875,-0.1078176349401474,0.06536252796649933,0.07483093440532684
1711550872375614700,3.07761474609375,-0.17806708812713623,0.20647229254245758,0.002443459117785096
1711550872394573600,3.096573486328125,-0.23793183267116547,0.36774060130119324,-0.03756818547844887
1711550872413532400,3.115532470703125,-0.2770271897315979,0.5042688846588135,-0.011911863461136818
1711550872432491500,3.134491455078125,-0.2605338394641876,0.528092622756958,0.043982263654470444
1711550872451450400,3.153450439453125,-0.1487455666065216,0.3491092324256897,0.0925460159778595
1711550872470409200,3.1724091796875,0.029932374134659767,0.022907428443431854,0.14813470840454102
1711550872489368000,3.1913681640625,0.14996729791164398,-0.23518294095993042,0.22479823231697083
1711550872508327200,3.2103271484375,0.08399390429258347,-0.35766133666038513,0.2889390289783478
1711550872527286000,3.2292861328125,-0.05070177838206291,-0.40958482027053833,0.3017672002315521
1711550872546244900,3.248244873046875,-0.0412333719432354,-0.4477638900279999,0.23732095956802368
1711550872565203700,3.26720361328125,0.010079269297420979,-0.4404335021972656,0.16218459606170654
1711550872584162800,3.286162841796875,-0.07391463965177536,-0.1701258420944214,0.21655155718326569
1711550872603121700,3.30512158203125,-0.19242240488529205,0.3387245237827301,0.3607156574726105
1711550872622080500,3.32408056640625,-0.1847866028547287,0.6979129910469055,0.4969384968280792
1711550872641039600,3.34303955078125,-0.01893680728971958,0.6227766275405884,0.5907062292098999
1711550872659998500,3.36199853515625,0.20189081132411957,0.1948658674955368,0.6071996092796326
1711550872678957300,3.380957275390625,0.3384190797805786,-0.39675667881965637,0.5531380772590637
1711550872697916200,3.399916259765625,0.32681265473365784,-0.9196569323539734,0.48960810899734497
1711550872716875300,3.418875244140625,0.2205221801996231,-1.0888664722442627,0.4453204274177551
1711550872735834000,3.437834228515625,0.08979712426662445,-0.8484911918640137,0.4004218578338623
1711550872754793000,3.45679296875,-0.011606430634856224,-0.42363473773002625,0.34208428859710693
1711550872773752000,3.475751953125,-0.029932374134659767,-0.024740023538470268,0.2932150959968567
1711550872792711000,3.4947109375,0.007941242307424545,0.21166464686393738,0.2706131041049957
1711550872811670000,3.513669921875,0.006414080038666725,0.2929096519947052,0.2632827162742615
1711550872830628900,3.53262890625,-0.003970621153712273,0.25381430983543396,0.23396120965480804
1711550872849587700,3.551587646484375,0.0412333719432354,0.06780599057674408,0.17715078592300415
1711550872868546800,3.570546875,0.16065743565559387,-0.20341797173023224,0.0717766135931015
1711550872887505700,3.589505615234375,0.25503605604171753,-0.3271180987358093,0.03481929376721382
1711550872906464800,3.60846484375,0.26480987668037415,-0.25992295145988464,0.0513126403093338
1711550872925423600,3.627423583984375,0.2415970265865326,-0.07330377399921417,0.024434590712189674
1711550872944382700,3.6463828125,0.24801109731197357,0.19639302790164948,-0.011300998739898205
1711550872963341600,3.665341552734375,0.27580544352531433,0.40378162264823914,-0.020158538594841957
1711550872982300700,3.68430078125,0.27458372712135315,0.48930269479751587,-0.03756818547844887
1711550873001259500,3.703259521484375,0.2675587832927704,0.45448338985443115,-0.03481929376721382
1711550873020218600,3.722218505859375,0.2968802750110626,0.34116798639297485,-0.014660755172371864
1711550873039177500,3.741177490234375,0.3695732057094574,0.16798780858516693,0.010995565913617611
1711550873058136600,3.760136474609375,0.4059196412563324,-0.03695731982588768,0.04917461425065994
1711550873077095400,3.779095458984375,0.39797839522361755,-0.1640172004699707,0.09193515032529831
1711550873096054500,3.798054443359375,0.33536475896835327,-0.11759147047996521,0.14599667489528656
1711550873115013600,3.817013671875,0.25320345163345337,-0.06811141967773438,0.15088360011577606
1711550873133972500,3.835972412109375,0.20647229254245758,-0.0769689604640007,0.09896009415388107
1711550873152931600,3.854931640625,0.19883649051189423,-0.12644900381565094,0.04062250629067421
1711550873171890400,3.873890380859375,0.1698204129934311,-0.15241076052188873,0.021685699000954628
1711550873190849500,3.892849609375,0.09193515032529831,-0.061391908675432205,0.04520399495959282
1711550873209808600,3.91180859375,0.02626718580722809,0.08949168771505356,0.05955931544303894
1711550873228767500,3.930767578125,-0.0054977829568088055,0.09896009415388107,0.03543015569448471
1711550873247726600,3.9497265625,-0.023518294095993042,-0.0409279391169548,0.002443459117785096
1711550873266685400,3.968685546875,-0.05589412897825241,-0.17318016290664673,-0.034208428114652634
1711550873285644500,3.98764453125,-0.09071341902017593,-0.22724169492721558,-0.0665842592716217
1711550873304603600,4.006603759765625,-0.10598503798246384,-0.22357651591300964,-0.0668896958231926
1711550873323562500,4.0255625,-0.10018182545900345,-0.16218459606170654,-0.07452550530433655
1711550873342521600,4.044521484375,-0.08002328872680664,-0.0668896958231926,-0.08491020649671555
1711550873361480700,4.063480712890625,-0.07910698652267456,0.05436696484684944,-0.07299833744764328
1711550873380439800,4.082439697265625,-0.08674279600381851,0.12217295914888382,-0.059864748269319534
1711550873399398700,4.101398681640625,-0.08063415437936783,0.10537417232990265,-0.03176496922969818
1711550873418357800,4.120357666015625,-0.07024945318698883,0.04245510324835777,-0.003665188793092966
1711550873437316900,4.13931689453125,-0.06047561392188072,-0.015577051788568497,-0.011300998739898205
1711550873456276000,4.15827587890625,-0.03756818547844887,-0.0769689604640007,-0.02718348242342472
1711550873475234800,4.17723486328125,-0.016187917441129684,-0.15546508133411407,-0.048563748598098755
1711550873494194000,4.19619384765625,-0.032681263983249664,-0.2009745091199875,-0.07544180005788803
1711550873513153000,4.215153076171875,-0.06414080411195755,-0.15607595443725586,-0.0925460159778595
1711550873532112000,4.23411181640625,-0.08826996386051178,-0.02779434807598591,-0.09987638890743256
1711550873551071000,4.253071044921875,-0.09682206809520721,0.08643736690282822,-0.11972949653863907
1711550873570030000,4.272030029296875,-0.11087195575237274,0.11881320178508759,-0.17073670029640198
1711550873588989200,4.2909892578125,-0.13713914155960083,0.13530655205249786,-0.2309068888425827
1711550873607948300,4.3099482421875,-0.13927717506885529,0.11728604137897491,-0.2663370370864868
1711550873626907400,4.328907470703125,-0.11759147047996521,0.08918625861406326,-0.287106454372406
1711550873645866500,4.347866455078125,-0.11209368705749512,0.04367683082818985,-0.30573782324790955
1711550873664825300,4.366825439453125,-0.1081230640411377,-0.018325943499803543,-0.3249800503253937
1711550873683784400,4.385784423828125,-0.1127045527100563,-0.07788526266813278,-0.3426951467990875
1711550873702743600,4.40474365234375,-0.10415244847536087,-0.12675444781780243,-0.3399462401866913
1711550873721702700,4.42370263671875,-0.04917461425065994,-0.1847866028547287,-0.3185659945011139
1711550873740661800,4.442661865234375,-0.04550942778587341,-0.23762640357017517,-0.31062474846839905
1711550873759620900,4.461620849609375,-0.0821613147854805,-0.28496840596199036,-0.3451386094093323
1711550873778580000,4.480580078125,-0.14080433547496796,-0.29535311460494995,-0.41294458508491516
1711550873797539000,4.4995390625,-0.2153298407793045,-0.33047783374786377,-0.47983428835868835
1711550873816498000,4.518497802734375,-0.2770271897315979,-0.3961458206176758,-0.500298261642456
1711550873835457000,4.53745703125,-0.31581708788871765,-0.36743515729904175,-0.526870846748352
1711550873854416400,4.55641650390625,-0.37201663851737976,-0.364991694688797,-0.5537489056587219
1711550873873375200,4.575375244140625,-0.42882707715034485,-0.3946186602115631,-0.5815432667732239
1711550873892334300,4.594334228515625,-0.467006117105484,-0.328645259141922,-0.6334667801856995
1711550873911293400,4.61329345703125,-0.5076286196708679,-0.21685700118541718,-0.6933315396308899
1711550873930252500,4.63225244140625,-0.5598575472831726,-0.0821613147854805,-0.7257073521614075
1711550873949211600,4.651211669921875,-0.6505709886550903,0.08521563559770584,-0.7254019379615784
1711550873968170800,4.670170654296875,-0.8005383014678955,0.23823726177215576,-0.7272345423698425
1711550873987129900,4.6891298828125,-0.9474512934684753,0.3811796307563782,-0.7681624889373779
1711550874006089000,4.7080888671875,-1.0396918058395386,0.5506945848464966,-0.80389803647995
1711550874025048000,4.727048095703125,-1.1038326025009155,0.6539307236671448,-0.823445737361908
1711550874044007200,4.746007080078125,-1.1707223653793335,0.6731730103492737,-0.8203914165496826
1711550874062966300,4.76496630859375,-1.2366957664489746,0.6139190793037415,-0.8115338683128357
1711550874081925400,4.78392529296875,-1.265711784362793,0.47433650493621826,-0.795651376247406
1711550874100884500,4.802884521484375,-1.2370011806488037,0.2507599890232086,-0.7360920310020447
1711550874119843600,4.821843505859375,-1.1997383832931519,0.0054977829568088055,-0.6426297426223755
1711550874138803000,4.840802978515625,-1.1728603839874268,-0.18753549456596375,-0.591622531414032
1711550874157761800,4.85976171875,-1.1181880235671997,-0.36132651567459106,-0.5699368119239807
1711550874176721200,4.87872119140625,-1.056185245513916,-0.5849030017852783,-0.5253437161445618
1711550874195680000,4.897679931640625,-1.0274745225906372,-0.8121446967124939,-0.4712821841239929
1711550874214639400,4.916639404296875,-0.9972367286682129,-1.0036507844924927,-0.42821621894836426
1711550874233598500,4.935598388671875,-0.988990068435669,-1.277012825012207,-0.4373791813850403
1711550874252557600,4.9545576171875,-1.0222822427749634,-1.5793908834457397,-0.44929105043411255
1711550874271516700,4.9735166015625,-1.0735948085784912,-1.7486004829406738,-0.4416552484035492
1711550874290475800,4.992475830078125,-1.1142174005508423,-1.7638720273971558,-0.42791077494621277
1711550874309435100,5.01143505859375,-1.0754274129867554,-1.6994258165359497,-0.42332929372787476
1711550874328394000,5.03039404296875,-0.9379828572273254,-1.6209297180175781,-0.4355465769767761
1711550874347353300,5.049353271484375,-0.7357866168022156,-1.5189152956008911,-0.4572322964668274
1711550874366312400,5.0683125,-0.5354229807853699,-1.423620343208313,-0.4740310609340668
1711550874385271600,5.087271484375,-0.3503309488296509,-1.3011419773101807,-0.4630354940891266
1711550874404230700,5.106230712890625,-0.16615521907806396,-1.1441497802734375,-0.4407389461994171
1711550874423190000,5.12518994140625,0.035124726593494415,-1.0122029781341553,-0.40408703684806824
1711550874442149000,5.144149169921875,0.29626941680908203,-0.9367611408233643,-0.25045454502105713
1711550874461108200,5.163108154296875,0.6038398146629333,-0.9004147052764893,-0.1533270627260208
1711550874480067300,5.1820673828125,0.7925970554351807,-1.010064959526062,-0.3488037884235382
1711550874499026400,5.2010263671875,0.8237511515617371,-1.2724313735961914,-0.5024362802505493
1711550874517985800,5.21998583984375,0.8710931539535522,-1.5296053886413574,-0.4816668927669525
1711550874536945000,5.23894482421875,0.9615011811256409,-1.8002184629440308,-0.4529562294483185
1711550874555904000,5.257904052734375,1.0103703737258911,-2.0769402980804443,-0.4776962697505951
1711550874574863400,5.27686328125,1.0051779747009277,-2.28035831451416,-0.5082395076751709
1711550874593822500,5.295822509765625,0.9828814268112183,-2.349691390991211,-0.5082395076751709
1711550874612781600,5.314781494140625,0.9392045736312866,-2.330143690109253,-0.44379326701164246
1711550874631740700,5.33374072265625,0.8558215498924255,-2.2733333110809326,-0.337808221578598
1711550874650700000,5.352699951171875,0.7522799968719482,-2.162461280822754,-0.24434591829776764
1711550874669659100,5.3716591796875,0.6725621223449707,-1.886350393295288,-0.18845178186893463
1711550874688618200,5.3906181640625,0.6542361974716187,-1.4981458187103271,-0.13561198115348816
1711550874707577600,5.40957763671875,0.6866120100021362,-1.0680971145629883,-0.0772743970155716
1711550874726536700,5.42853662109375,0.7229584455490112,-0.6579013466835022,-0.013439024798572063
1711550874745496000,5.44749609375,0.7422007322311401,-0.3121519088745117,0.05833758786320686
1711550874764455200,5.466455078125,0.7971785664558411,-0.03787361457943916,0.09101885557174683
1711550874783414300,5.485414306640625,0.916297197341919,0.1649334877729416,0.07269290834665298
1711550874802373600,5.50437353515625,1.0619884729385376,0.2837466895580292,0.04764745384454727
1711550874821332700,5.523332763671875,1.176525592803955,0.29962918162345886,0.010690134018659592
1711550874840292000,5.5422919921875,1.2302817106246948,0.2159406989812851,-0.07605266571044922
1711550874859251200,5.561251220703125,1.2641847133636475,0.16249002516269684,-0.17134757339954376
1711550874878210600,5.58021044921875,1.3008365631103516,0.19944734871387482,-0.21991132199764252
1711550874897169700,5.599169677734375,1.3185516595840454,0.2110537886619568,-0.1847866028547287
1711550874916128800,5.618128662109375,1.2565488815307617,0.13561198115348816,-0.13041962683200836
1711550874935088000,5.637088134765625,1.1426225900650024,0.040317077189683914,-0.12064579129219055
1711550874954047200,5.656047119140625,1.0528254508972168,0.07605266571044922,-0.1588248461484909
1711550874973006600,5.675006591796875,1.0320560932159424,0.3042106628417969,-0.1649334877729416
1711550874991965700,5.693965576171875,1.0870338678359985,0.6701186895370483,-0.11117739230394363
1711550875010925000,5.712925048828125,1.2085959911346436,1.0855066776275635,-0.002443459117785096
1711550875029884400,5.731884521484375,1.375972867012024,1.4706569910049438,0.13011419773101807
1711550875048843500,5.750843505859375,1.5347977876663208,1.702785611152649,0.26358816027641296
1711550875067802600,5.769802734375,1.5931353569030762,1.6838487386703491,0.3854556679725647
1711550875086762000,5.788761962890625,1.5375466346740723,1.471267819404602,0.4783071279525757
1711550875105721300,5.807721435546875,1.463021159172058,1.2018764019012451,0.5400044918060303
1711550875124680400,5.826680419921875,1.4046835899353027,0.9425643682479858,0.5519163012504578
1711550875143639800,5.845639892578125,1.3481786251068115,0.7199041247367859,0.5439751148223877
1711550875162599200,5.86459912109375,1.3258819580078125,0.5717694163322449,0.5421425104141235
1711550875181558300,5.883558349609375,1.349400281906128,0.5064069032669067,0.5595521330833435
1711550875200517600,5.902517578125,1.3878847360610962,0.5082395076751709,0.5769617557525635
1711550875219477000,5.92147705078125,1.4193443059921265,0.5619956254959106,0.593149721622467
1711550875238436000,5.94043603515625,1.4434734582901,0.6811142563819885,0.6215549111366272
1711550875257395500,5.9593955078125,1.4495820999145508,0.8512400984764099,0.6667588949203491
1711550875276354800,5.978354736328125,1.426674723625183,1.0152572393417358,0.720820426940918
1711550875295314000,5.99731396484375,1.4016292095184326,1.1417062282562256,0.766940712928772
1711550875314273300,6.016273193359375,1.3750566244125366,1.239139199256897,0.814588189125061
1711550875333232600,6.035232666015625,1.3527600765228271,1.2904518842697144,0.8521563410758972
1711550875352192000,6.05419189453125,1.3176352977752686,1.268766164779663,0.8475748896598816
1711550875371151000,6.073151123046875,1.2715150117874146,1.1505638360977173,0.7809906005859375
1711550875390110500,6.0921103515625,1.2580760717391968,0.9049961566925049,0.6939423680305481
1711550875409069800,6.11106982421875,1.2550216913223267,0.5784889459609985,0.5882627964019775
1711550875428029200,6.130029296875,1.1490366458892822,0.189673513174057,0.4825831651687622
1711550875446988300,6.14898828125,0.9972367286682129,-0.2675587832927704,0.3594939112663269
1711550875465947600,6.16794775390625,0.8814778923988342,-0.7327322959899902,0.23915356397628784
1711550875484907000,6.186906982421875,0.8084795475006104,-1.0445787906646729,0.21502439677715302
1711550875503866400,6.205866455078125,0.6753110289573669,-1.1768310070037842,0.23273947834968567
1711550875522825700,6.22482568359375,0.4175260663032532,-1.2217295169830322,0.22968515753746033
1711550875541784800,6.243784912109375,0.19089524447917938,-1.1362085342407227,0.2257145345211029
1711550875560744200,6.262744140625,0.03023780696094036,-0.822834849357605,0.19242240488529205
1711550875579703600,6.28170361328125,-0.10598503798246384,-0.39400777220726013,0.11575887352228165
1711550875598663000,6.300662841796875,-0.2926042377948761,0.029932374134659767,-0.03023780696094036
1711550875617622300,6.319622314453125,-0.4101957082748413,0.4618137776851654,-0.16096286475658417
1711550875636581600,6.33858154296875,-0.30451610684394836,0.9495893120765686,-0.235793799161911
1711550875655541000,6.357541015625,-0.07422006875276566,1.3710860013961792,-0.3090975880622864
1711550875674500400,6.376500244140625,0.11942406743764877,1.5659518241882324,-0.41813695430755615
1711550875693459700,6.395459716796875,0.20738859474658966,1.4550799131393433,-0.5681042671203613
1711550875712419000,6.414419189453125,0.22174391150474548,1.1004729270935059,-0.7107411623001099
1711550875731378400,6.43337841796875,0.21166464686393738,0.5745183229446411,-0.7809906005859375
1711550875750337500,6.452337646484375,0.1698204129934311,-0.11117739230394363,-0.7889318466186523
1711550875769297000,6.471296875,0.12186752259731293,-0.8888082504272461,-0.7247910499572754
1711550875788256300,6.49025634765625,0.09285144507884979,-1.5876375436782837,-0.618806004524231
1711550875807215900,6.5092158203125,0.09132428467273712,-2.053727388381958,-0.5143481492996216
1711550875826175200,6.52817529296875,0.08124501258134842,-2.2360706329345703,-0.4202749729156494
1711550875845134600,6.547134521484375,0.04276053607463837,-2.1276419162750244,-0.3292561173439026
1711550875864094000,6.566093994140625,0.015577051788568497,-1.7788382768630981,-0.22999058663845062
1711550875883053300,6.58505322265625,0.0204639695584774,-1.2647955417633057,-0.12034036219120026
1711550875902012700,6.6040126953125,0.016798781231045723,-0.7165443897247314,0.004276053514331579
1711550875920971800,6.6229716796875,-0.011300998739898205,-0.23365578055381775,0.129197895526886
1711550875939931400,6.641931396484375,-0.05497783049941063,0.1340848207473755,0.22876885533332825
1711550875958890800,6.660890869140625,-0.09285144507884979,0.3695732057094574,0.2715294063091278
1711550875977850000,6.67985009765625,-0.1130099818110466,0.48075059056282043,0.258395791053772
1711550875996809500,6.6988095703125,-0.10659590363502502,0.4764745235443115,0.23518294095993042
1711550876015768800,6.717768798828125,-0.09712749719619751,0.3552178740501404,0.2211330533027649
1711550876034728200,6.736728271484375,-0.09315688163042068,0.18295399844646454,0.18203771114349365
1711550876053687600,6.7556875,-0.09193515032529831,-0.006108647678047419,0.13775001466274261
1711550876072647000,6.77464697265625,-0.08552107214927673,-0.14996729791164398,0.08399390429258347
1711550876091606500,6.7936064453125,-0.06444623321294785,-0.20158538222312927,0.032070402055978775
1711550876110566000,6.81256591796875,-0.01954767294228077,-0.1701258420944214,0.001832594396546483
1711550876129525200,6.831525146484375,0.012217295356094837,-0.09865466505289078,-0.01588248461484909
1711550876148484600,6.850484619140625,0.017104214057326317,-0.018325943499803543,-0.017104214057326317
1711550876167444000,6.86944384765625,0.004886918235570192,0.0772743970155716,-0.01588248461484909
1711550876186403300,6.8884033203125,0.001221729558892548,0.15485422313213348,-0.013133592903614044
1711550876205363000,6.907363037109375,0.020158538594841957,0.19272783398628235,-0.004276053514331579
1711550876224322300,6.926322265625,0.06750056147575378,0.19333870708942413,0.002443459117785096
1711550876243281700,6.94528173828125,0.14782927930355072,0.14691297709941864,0.028099779039621353
1711550876262241000,6.964240966796875,0.2260199636220932,0.10506874322891235,0.07238747924566269
1711550876281200600,6.98320068359375,0.22937972843647003,0.043371398001909256,0.12156209349632263
1711550876300160000,7.002159912109375,0.17195843160152435,0.03298669680953026,0.13255766034126282
1711550876319119400,7.021119384765625,0.129197895526886,0.09193515032529831,0.11881320178508759
1711550876338078700,7.04007861328125,0.17287473380565643,0.17134757339954376,0.10140355676412582
1711550876357038300,7.059038330078125,0.3072649836540222,0.22876885533332825,0.08338304609060287
1711550876375997700,7.077997802734375,0.48013970255851746,0.17287473380565643,0.12064579129219055
1711550876394957000,7.09695703125,0.5021308660507202,0.05283980444073677,0.10965022444725037
1711550876413916400,7.11591650390625,0.3992001414299011,-0.09193515032529831,0.0668896958231926
1711550876432876000,7.1348759765625,0.3536907136440277,-0.2987128794193268,0.07757982611656189
1711550876451835400,7.15383544921875,0.2715294063091278,-0.4425715208053589,0.06994401663541794
1711550876470794800,7.172794677734375,0.07422006875276566,-0.5174024701118469,0.059864748269319534
1711550876489754400,7.19175439453125,-0.14202606678009033,-0.5122101306915283,0.02932151034474373
1711550876508713700,7.210713623046875,-0.314289927482605,-0.3448331654071808,-0.036651886999607086
1711550876527673000,7.229673095703125,-0.39278605580329895,-0.10934479534626007,-0.07483093440532684
1711550876546632700,7.2486328125,-0.39370235800743103,0.15607595443725586,-0.07605266571044922
1711550876565592000,7.267592041015625,-0.3756818473339081,0.4105011224746704,-0.04978547990322113
1711550876584551400,7.286551513671875,-0.35246896743774414,0.6185005903244019,-0.05833758786320686
1711550876603511000,7.305510986328125,-0.3329212963581085,0.7889318466186523,-0.10506874322891235
1711550876622470400,7.324470458984375,-0.2861901521682739,0.9065233469009399,-0.129197895526886
1711550876641430000,7.343429931640625,-0.19822561740875244,0.9233221411705017,-0.09101885557174683
1711550876660389400,7.362389404296875,-0.14599667489528656,0.8814778923988342,-0.03390299528837204
1711550876679348700,7.3813486328125,-0.15577052533626556,0.8246674537658691,-0.02626718580722809
1711550876698308400,7.400308349609375,-0.14141519367694855,0.676227331161499,-0.05070177838206291
1711550876717267700,7.419267822265625,-0.12003492563962936,0.3426951467990875,-0.047036588191986084
1711550876736227300,7.438227294921875,-0.12522727251052856,-0.0616973415017128,-0.02626718580722809
1711550876755186700,7.457186767578125,-0.15607595443725586,-0.38698282837867737,0.007941242307424545
1711550876774146000,7.47614599609375,-0.17898337543010712,-0.6053670048713684,0.040317077189683914
1711550876793105700,7.495105712890625,-0.20616686344146729,-0.6719512343406677,0.06414080411195755
1711550876812065000,7.51406494140625,-0.18753549456596375,-0.5314523577690125,0.06597339361906052
1711550876831024600,7.533024658203125,-0.13225223124027252,-0.2877173125743866,0.025350889191031456
1711550876849984000,7.55198388671875,-0.06994401663541794,-0.007941242307424545,-0.05406153202056885
1711550876868943400,7.570943359375,0.0015271619195118546,0.24801109731197357,-0.1383608728647232
1711550876887903000,7.589903076171875,0.0665842592716217,0.4422661066055298,-0.20280711352825165
1711550876906862600,7.608862548828125,0.0977383628487587,0.5174024701118469,-0.2406807243824005
1711550876925822000,7.627822021484375,0.1029307171702385,0.48533207178115845,-0.27458372712135315
1711550876944781600,7.646781494140625,0.09346231073141098,0.3808741867542267,-0.2935205399990082
1711550876963741000,7.665740966796875,0.06414080411195755,0.1945604383945465,-0.2770271897315979
1711550876982700500,7.684700439453125,0.02779434807598591,0.0204639695584774,-0.22174391150474548
1711550877001660000,7.703659912109375,0.024434590712189674,-0.14294235408306122,-0.15790854394435883
1711550877020619300,7.722619384765625,0.04978547990322113,-0.2761108875274658,-0.10445787757635117
1711550877039579000,7.741578857421875,0.06017018109560013,-0.37293294072151184,-0.04520399495959282
1711550877058538200,7.760538330078125,0.05711585655808449,-0.4324922561645508,0.011911863461136818
1711550877077497900,7.779497802734375,0.07880155742168427,-0.416304349899292,0.06933315098285675
1711550877096457200,7.798457275390625,0.14141519367694855,-0.3426951467990875,0.11728604137897491
1711550877115416800,7.817416748046875,0.20341797173023224,-0.2776380479335785,0.10598503798246384
1711550877134376400,7.83637646484375,0.21868959069252014,-0.2712239623069763,0.035735588520765305
1711550877153335800,7.855335693359375,0.22724169492721558,-0.2981020212173462,-0.07116574794054031
1711550877172295400,7.87429541015625,0.2211330533027649,-0.3271180987358093,-0.1893680840730667
1711550877191255000,7.893255126953125,0.2107483446598053,-0.36163195967674255,-0.250149130821228
1711550877210214400,7.91221435546875,0.22785256803035736,-0.32559093832969666,-0.2715294063091278
1711550877229173800,7.931173828125,0.29413139820098877,-0.23212862014770508,-0.2822195291519165
1711550877248133400,7.95013330078125,0.3396408259868622,-0.16646064817905426,-0.32589635252952576
1711550877267093000,7.969093017578125,0.3246746361255646,-0.12400554865598679,-0.3845393657684326
1711550877286052400,7.98805224609375,0.28924447298049927,-0.08521563559770584,-0.4251618981361389
1711550877305012000,8.007011962890624,0.2712239623069763,-0.06261363625526428,-0.45967575907707214
1711550877323971300,8.025971435546875,0.27030766010284424,-0.05436696484684944,-0.5146535634994507
1711550877342931000,8.044930908203124,0.23945899307727814,-0.044898562133312225,-0.6401863098144531
1711550877361890600,8.063890625,0.12522727251052856,-0.024434590712189674,-0.748920202255249
1711550877380850000,8.082849853515626,-0.035124726593494415,0.041844237595796585,-0.7904590368270874
1711550877399809500,8.1018095703125,-0.1747073233127594,0.1026252806186676,-0.7458658814430237
1711550877418769000,8.120768798828125,-0.2605338394641876,0.2254091054201126,-0.7244856357574463
1711550877437728500,8.139728515625,-0.29565855860710144,0.4007273018360138,-0.7492256760597229
1711550877456688000,8.158688232421875,-0.3549124300479889,0.4511236250400543,-0.766940712928772
1711550877475647500,8.1776474609375,-0.47006043791770935,0.5076286196708679,-0.8249728679656982
1711550877494607000,8.196607177734375,-0.5039634704589844,0.6973021626472473,-0.8631519079208374
1711550877513566500,8.21556640625,-0.33536475896835327,0.9285144805908203,-0.8032872080802917
1711550877532526000,8.234526123046875,0.07024945318698883,1.1215476989746094,-0.7452550530433655
1711550877551485700,8.253485595703125,0.6908880472183228,1.1478148698806763,-0.5882627964019775
1711550877570445300,8.2724453125,1.184772253036499,0.9969313144683838,-0.3191768527030945
1711550877589404700,8.29140478515625,1.1227694749832153,0.6520981788635254,-0.2364046722650528
1711550877608364300,8.3103642578125,0.7733548283576965,0.0015271619195118546,-0.21746785938739777
1711550877627323600,8.32932373046875,0.5436696410179138,-0.6899717450141907,-0.11575887352228165
1711550877646283300,8.348283203125,0.6120865345001221,-0.9465349912643433,-0.12583814561367035
1711550877665243000,8.367242919921875,0.7706059217453003,-0.8698714375495911,-0.3707949221134186
1711550877684202200,8.3862021484375,0.8448259830474854,-0.6969966888427734,-0.6423243284225464
1711550877703161900,8.405161865234374,0.952643632888794,-0.41263917088508606,-0.8845322132110596
1711550877722121500,8.42412158203125,0.9697478413581848,0.0818558782339096,-1.2116502523422241
1711550877741080800,8.443080810546874,0.7794634699821472,0.4214966893196106,-1.4859285354614258
1711550877760040400,8.46204052734375,0.5681042671203613,0.8405499458312988,-1.694844365119934
1711550877779000000,8.481,0.5112938284873962,1.3655881881713867,-1.8005239963531494
1711550877797959400,8.49995947265625,0.5641336441040039,1.7806708812713623,-1.9129230976104736
1711550877816919000,8.5189189453125,0.4569268524646759,1.905592679977417,-2.053421974182129
1711550877835878700,8.537878662109375,0.18264856934547424,1.8591669797897339,-2.2733333110809326
1711550877854838000,8.556838134765625,-0.01649334840476513,1.7345505952835083,-2.358548879623413
1711550877873797600,8.575797607421874,-0.16096286475658417,1.562286615371704,-2.3906192779541016
1711550877892757200,8.59475732421875,-0.41783151030540466,1.2721259593963623,-2.263864755630493
1711550877911716900,8.613716796875,-0.7706059217453003,0.9416480660438538,-2.2204935550689697
1711550877930676200,8.63267626953125,-1.0821470022201538,0.6380482912063599,-2.132223606109619
1711550877949635800,8.6516357421875,-1.2183698415756226,0.38881543278694153,-1.968511700630188
1711550877968595500,8.670595458984375,-1.3206896781921387,0.1957821547985077,-1.795026183128357
1711550877987554800,8.689554931640625,-1.443168044090271,0.1185077652335167,-1.5858049392700195
1711550878006514400,8.708514404296874,-1.5653409957885742,0.18234314024448395,-1.2342523336410522
1711550878025474000,8.72747412109375,-1.6453642845153809,0.4263836145401001,-0.8662062287330627
1711550878044433700,8.74643359375,-1.6759074926376343,0.6212494969367981,-0.6407971382141113
1711550878063393000,8.76539306640625,-1.694844365119934,0.6450732350349426,-0.49663305282592773
1711550878082352600,8.7843525390625,-1.7641774415969849,0.5262600183486938,-0.33567020297050476
1711550878101312300,8.803312255859375,-1.749211311340332,0.3075704276561737,-0.1185077652335167
1711550878120271600,8.822271728515625,-1.6227623224258423,0.11514800786972046,0.12400554865598679
1711550878139231200,8.841231201171874,-1.464242935180664,-0.013133592903614044,0.3023780584335327
1711550878158190800,8.86019091796875,-1.3674207925796509,-0.06291907280683517,0.406530499458313
1711550878177150200,8.879150146484376,-1.3332123756408691,-0.14049890637397766,0.5430588126182556
1711550878196109800,8.89810986328125,-1.2470804452896118,-0.3656025826931,0.630107045173645
1711550878215069400,8.9170693359375,-1.0763437747955322,-0.7425061464309692,0.5140427350997925
1711550878234029000,8.936029052734375,-0.9615011811256409,-1.1380411386489868,0.3451386094093323
1711550878252988400,8.954988525390625,-0.9547816514968872,-1.3897173404693604,0.37110036611557007
1711550878271948000,8.973947998046874,-0.9221003651618958,-1.4019346237182617,0.6352993845939636
1711550878290907600,8.99290771484375,-0.8106175661087036,-1.1701115369796753,0.9016364216804504
1711550878309867000,9.011866943359376,-0.6835576891899109,-0.8017600178718567,1.0009019374847412
1711550878328826600,9.03082666015625,-0.6065887212753296,-0.5180133581161499,0.9660826325416565
1711550878347786200,9.0497861328125,-0.6307178735733032,-0.34238970279693604,0.9468404054641724
1711550878366745900,9.068745849609375,-0.6536253094673157,-0.25870123505592346,1.06443190574646
1711550878385705200,9.087705322265625,-0.5809323787689209,-0.3179551064968109,1.1267400979995728
1711550878404664800,9.106664794921874,-0.4987711012363434,-0.5256491303443909,0.9886846542358398
1711550878423624400,9.12562451171875,-0.5219839811325073,-0.7538071274757385,0.7794634699821472
1711550878442583800,9.144583740234374,-0.5555815100669861,-0.8350521326065063,0.757777750492096
1711550878461543400,9.16354345703125,-0.5061014890670776,-0.7473930716514587,0.8600975871086121
1711550878480503000,9.1825029296875,-0.4373791813850403,-0.5772672295570374,0.8701768517494202
1711550878499462400,9.20146240234375,-0.41325002908706665,-0.4990765154361725,0.7916807532310486
1711550878518422000,9.220422119140625,-0.3546070158481598,-0.5140427350997925,0.7021890878677368
1711550878537381600,9.239381591796874,-0.23029601573944092,-0.5958985686302185,0.657290518283844
1711550878556341200,9.25834130859375,-0.1029307171702385,-0.7220421433448792,0.6505709886550903
1711550878575300900,9.27730078125,-0.036651886999607086,-0.8973603844642639,0.6517927050590515
1711550878594260200,9.29626025390625,-0.02107483521103859,-1.0830632448196411,0.6444623470306396
1711550878613219800,9.3152197265625,-0.035124726593494415,-1.2079850435256958,0.6255255341529846
1711550878632179500,9.334179443359375,0.03237583488225937,-1.1731657981872559,0.5729911923408508
1711550878651138800,9.353138916015626,0.1750127524137497,-1.0326669216156006,0.37110036611557007
1711550878670098400,9.372098388671875,0.13194678723812103,-1.0244202613830566,0.10048725455999374
1711550878689058000,9.39105810546875,-0.1340848207473755,-1.1826342344284058,0.043982263654470444
1711550878708017400,9.410017333984374,-0.2974911332130432,-1.2990039587020874,0.07941242307424545
1711550878726977000,9.42897705078125,-0.3185659945011139,-1.219896912574768,0.04978547990322113
1711550878745936600,9.4479365234375,-0.2620609998703003,-1.1313215494155884,-0.07757982611656189
1711550878764896300,9.466896240234375,-0.17256930470466614,-1.110552191734314,-0.210442915558815
1711550878783855900,9.48585595703125,-0.04734202101826668,-1.1954623460769653,-0.3075704276561737
1711550878802815200,9.504815185546875,0.05925388261675835,-1.2018764019012451,-0.30543237924575806
1711550878821774800,9.52377490234375,0.1487455666065216,-0.9957095980644226,-0.19333870708942413
1711550878840734500,9.542734375,0.20250166952610016,-0.62857985496521,-0.09987638890743256
1711550878859693800,9.56169384765625,0.09957095980644226,-0.08032871782779694,-0.03298669680953026
1711550878878653400,9.5806533203125,-0.1893680840730667,0.4004218578338623,0.05100720748305321
1711550878897613000,9.599613037109375,-0.4269944727420807,0.6218603253364563,0.20830489695072174
1711550878916572400,9.618572509765626,-0.44990190863609314,0.4978547990322113,0.37812530994415283
1711550878935532000,9.637531982421875,-0.2712239623069763,0.07360920310020447,0.46425724029541016
1711550878954491600,9.65649169921875,-0.0360410213470459,-0.36651885509490967,0.481361448764801
1711550878973451300,9.675451171875,0.0977383628487587,-0.6175842881202698,0.46883872151374817
1711550878992410600,9.69441064453125,0.0818558782339096,-0.6600393652915955,0.47097674012184143
1711550879011370200,9.713370361328124,0.01893680728971958,-0.4419606626033783,0.47036588191986084
1711550879030329900,9.732329833984375,0.03390299528837204,-0.10751219838857651,0.4046979248523712
1711550879049289200,9.751289306640626,0.06719512492418289,0.11453714966773987,0.33719736337661743
1711550879068248800,9.770248779296875,0.06811141967773438,0.1585194170475006,0.2574795186519623
1711550879087208400,9.78920849609375,0,0.05711585655808449,0.20341797173023224
1711550879106167800,9.808167724609374,-0.09285144507884979,-0.1444695144891739,0.13072505593299866
1711550879125127400,9.82712744140625,-0.14996729791164398,-0.37781986594200134,0.06841685622930527
1711550879144087000,9.846087158203124,-0.1340848207473755,-0.573602020740509,0.04245510324835777
1711550879163046700,9.865046630859375,-0.08765909820795059,-0.582459568977356,0.06475166976451874
1711550879182006300,9.88400634765625,-0.054672397673130035,-0.41447174549102783,0.11942406743764877
1711550879200965600,9.902965576171875,-0.03176496922969818,-0.24709481000900269,0.15546508133411407
1711550879219925200,9.92192529296875,0.028099779039621353,-0.17287473380565643,0.14508038759231567
1711550879238884900,9.940884765625,0.07422006875276566,-0.09376774728298187,0.14477495849132538
1711550879257844200,9.95984423828125,0.0766635313630104,0.043371398001909256,0.18814635276794434
1711550879276803800,9.978803955078124,0.07055488228797913,0.20311254262924194,0.21807873249053955
1711550879295763500,9.997763427734375,0.08429934084415436,0.29993459582328796,0.1740964651107788
1711550879314722800,10.016722900390626,0.07635809481143951,0.4731147587299347,-0.32131487131118774
1711550879333682400,10.035682373046875,-0.1899789422750473,0.2202167510986328,-0.5238165259361267
1711550879352642000,10.05464208984375,-0.24556763470172882,-0.06414080411195755,-0.3295615613460541
1711550879371601700,10.0736015625,0.017104214057326317,-0.2675587832927704,-0.13591741025447845
1711550879390561000,10.09256103515625,0.2419024556875229,-0.4425715208053589,-0.06750056147575378
1711550879409520600,10.111520751953124,0.14019346237182617,-0.5424479246139526,-0.06719512492418289
1711550879428480300,10.130480224609375,-0.05955931544303894,-0.5164861679077148,-0.07269290834665298
1711550879447439600,10.149439697265626,-0.10201441496610641,-0.3020726442337036,-0.12400554865598679
1711550879466399200,10.168399169921875,-0.0922405794262886,0.000305432389723137,-0.24801109731197357
1711550879485358800,10.18735888671875,-0.17318016290664673,0.17592905461788177,-0.29626941680908203
1711550879504318500,10.206318359375,-0.24984370172023773,0.2623664140701294,-0.31459537148475647
1711550879523277800,10.22527783203125,-0.2370155304670334,0.2153298407793045,-0.33047783374786377
1711550879542237400,10.244237548828124,-0.16157373785972595,0.12125665694475174,-0.30451610684394836
1711550879561197000,10.263197021484375,-0.07299833744764328,0.01435532234609127,-0.2507599890232086
1711550879580156700,10.28215673828125,-0.0409279391169548,-0.06750056147575378,-0.18845178186893463
1711550879599116000,10.301115966796875,-0.12431098520755768,-0.04550942778587341,-0.16523891687393188
1711550879618075600,10.32007568359375,-0.1230892539024353,-0.024740023538470268,-0.1594357043504715
1711550879637035000,10.339034912109375,-0.0565049909055233,-0.015577051788568497,-0.10140355676412582
1711550879655994600,10.35799462890625,0.011300998739898205,0.020158538594841957,-0.11545344442129135
1711550879674954200,10.376954345703124,0.006414080038666725,0.0668896958231926,-0.07452550530433655
1711550879693913900,10.395913818359375,-0.05589412897825241,0.11759147047996521,-0.0668896958231926
1711550879712873500,10.41487353515625,-0.10415244847536087,0.04520399495959282,-0.06230820715427399
1711550879731832800,10.433832763671875,-0.10629047453403473,0.08613193035125732,-0.0015271619195118546
1711550879750792400,10.45279248046875,-0.03298669680953026,-0.11178825795650482,-0.004886918235570192
1711550879769752000,10.471751953125,0.019242240116000175,-0.19425499439239502,0.0054977829568088055
1711550879788711400,10.49071142578125,-0.033597562462091446,-0.2574795186519623,0.03634645417332649
1711550879807671000,10.509671142578124,0.02932151034474373,-0.3381136655807495,-0.013744457624852657
1711550879826630700,10.528630615234375,0.06902772188186646,-0.22296564280986786,-0.07269290834665298
1711550879845590000,10.547590087890624,-0.003970621153712273,-0.16126830875873566,-0.1744018942117691
1711550879864549600,10.566549560546875,0.03145953640341759,-0.06597339361906052,-0.2715294063091278
1711550879883509200,10.58550927734375,0.05528326332569122,0.14233149588108063,-0.28008151054382324
1711550879902468900,10.60446875,0.044898562133312225,0.1954767256975174,-0.2721402645111084
1711550879921428200,10.62342822265625,0.04764745384454727,0.22204934060573578,-0.21685700118541718
1711550879940387800,10.642387939453124,0.04276053607463837,0.17776164412498474,-0.08521563559770584
1711550879959347500,10.661347412109375,0.05039634555578232,0.0616973415017128,0.056810423731803894
1711550879978306800,10.680306884765624,0.09437860548496246,-0.06383536756038666,0.17226386070251465
1711550879997266400,10.699266357421875,0.12767073512077332,-0.21991132199764252,0.24892739951610565
1711550880016226000,10.71822607421875,0.10842850059270859,-0.32070401310920715,0.2623664140701294
1711550880035185700,10.737185546875,0.07941242307424545,-0.3390299379825592,0.18631376326084137
1711550880054145000,10.75614501953125,-0.003970621153712273,-0.22663083672523499,0.14691297709941864
1711550880073104600,10.775104736328124,-0.018325943499803543,-0.17715078592300415,0.019853105768561363
1711550880092064300,10.794064208984375,-0.007024944759905338,0.009773836471140385,-0.07605266571044922
1711550880111023900,10.81302392578125,-0.0461202897131443,0.05742128938436508,-0.19425499439239502
1711550880129983200,10.831983154296875,-0.003970621153712273,0.08857539296150208,-0.3133736252784729
1711550880148942800,10.85094287109375,0.059864748269319534,0.14599667489528656,-0.36132651567459106
1711550880167902500,10.86990234375,0.12217295914888382,0.20647229254245758,-0.3652971386909485
1711550880186861800,10.88886181640625,0.14508038759231567,0.1847866028547287,-0.3176496922969818
1711550880205821400,10.907821533203125,0.10598503798246384,0.17256930470466614,-0.23182319104671478
1711550880224781000,10.926781005859375,0.056810423731803894,0.12125665694475174,-0.12370011955499649
1711550880243740400,10.945740478515624,0.01740964688360691,0.03176496922969818,-0.000305432389723137
1711550880262700000,10.964699951171875,-0.025350889191031456,-0.013133592903614044,0.05558869615197182
1711550880281659600,10.98365966796875,-0.047952886670827866,-0.04367683082818985,0.06719512492418289
1711550880300619300,11.002619384765625,-0.0412333719432354,-0.09682206809520721,0.07360920310020447
1711550880319579000,11.021578857421876,0.010384701192378998,-0.2098320573568344,0.044898562133312225
1711550880338538200,11.040538330078125,0.04062250629067421,-0.3488037884235382,-0.01740964688360691
1711550880357497900,11.059497802734375,0.01649334840476513,-0.4263836145401001,-0.05711585655808449
1711550880376457500,11.07845751953125,-0.010079269297420979,-0.39309149980545044,-0.04276053607463837
1711550880395417000,11.0974169921875,0.010690134018659592,-0.3194822669029236,-0.036651886999607086
1711550880414376700,11.116376708984374,-0.014660755172371864,-0.18784092366695404,-0.02412915788590908
1711550880433336000,11.135336181640625,-0.09346231073141098,-0.048563748598098755,0.014049889519810677
1711550880452295700,11.154295654296876,-0.1026252806186676,-0.004276053514331579,0.018325943499803543
1711550880471255300,11.17325537109375,-0.08796452730894089,0.019853105768561363,0.03298669680953026
1711550880490215000,11.19221484375,-0.0974329337477684,0.025961752980947495,-0.013439024798572063
1711550880509174300,11.21117431640625,-0.1698204129934311,0.047952886670827866,-0.12125665694475174
1711550880528134000,11.2301337890625,-0.2364046722650528,0.05711585655808449,-0.19211697578430176
1711550880547093500,11.249093505859374,-0.18570289015769958,0.15241076052188873,-0.2675587832927704
1711550880566053000,11.26805322265625,-0.006719512399286032,0.32589635252952576,-0.31184646487236023
1711550880585012700,11.2870126953125,0.1130099818110466,0.48075059056282043,-0.31459537148475647
1711550880603972000,11.30597216796875,0.10109812021255493,0.4972439408302307,-0.2513708472251892
1711550880622931700,11.324931640625,0.016798781231045723,0.3488037884235382,-0.1444695144891739
1711550880641891300,11.343891357421874,-0.05803215503692627,0.12247838824987411,-0.0009162971982732415
1711550880660851000,11.362850830078125,-0.03787361457943916,-0.15057817101478577,0.12644900381565094
1711550880679810600,11.381810546875,0.056199558079242706,-0.38728827238082886,0.23915356397628784
1711550880698770000,11.40077001953125,0.10384701192378998,-0.41813695430755615,0.31001389026641846
1711550880717729500,11.4197294921875,0.057726722210645676,-0.35155269503593445,0.3194822669029236
1711550880736689200,11.438689208984375,0.007635809946805239,-0.21991132199764252,0.3017672002315521
1711550880755648800,11.457648681640626,0.0360410213470459,-0.05406153202056885,0.23426663875579834
1711550880774608100,11.476608154296875,0.06291907280683517,0.026878049597144127,0.12675444781780243
1711550880793567700,11.495567626953125,0.0565049909055233,-0.009773836471140385,0.023823726922273636
1711550880812527400,11.51452734375,0.05039634555578232,-0.0409279391169548,-0.06597339361906052
1711550880831487000,11.533487060546875,0.03481929376721382,0.0015271619195118546,-0.1288924664258957
1711550880850446600,11.552446533203126,-0.013439024798572063,0.08857539296150208,-0.13775001466274261
1711550880869406200,11.57140625,-0.043371398001909256,0.18692462146282196,-0.10842850059270859
1711550880888365800,11.59036572265625,-0.021991131827235222,0.2919933497905731,-0.07330377399921417
1711550880907325400,11.609325439453125,-0.021380268037319183,0.3445277214050293,-0.04550942778587341
1711550880926284800,11.628284912109375,-0.05497783049941063,0.32681265473365784,-0.0256563201546669
1711550880945244400,11.647244384765624,-0.08949168771505356,0.22785256803035736,-0.05528326332569122
1711550880964204000,11.6662041015625,-0.14019346237182617,0.12125665694475174,-0.10109812021255493
1711550880983163600,11.68516357421875,-0.2464839369058609,-0.006414080038666725,-0.12247838824987411
1711550881002123300,11.704123291015625,-0.27550002932548523,-0.12156209349632263,-0.060781046748161316
1711550881021083000,11.723082763671876,-0.14630211889743805,-0.15699224174022675,0.014049889519810677
1711550881040042500,11.74204248046875,-0.023212861269712448,-0.10720676928758621,0.09285144507884979
1711550881059002000,11.761002197265626,0.020158538594841957,-0.0308486707508564,0.15515965223312378
1711550881077961500,11.77996142578125,-0.08307760953903198,0.01802051067352295,0.10873392969369888
1711550881096921000,11.798921142578125,-0.29962918162345886,0.0054977829568088055,0.03329212963581085
1711550881115880700,11.817880615234374,-0.3222311735153198,0.01954767294228077,-0.02871064469218254
1711550881134840300,11.83684033203125,-0.10751219838857651,0.0021380267571657896,-0.04581485688686371
1711550881153800000,11.855800048828126,0.09132428467273712,-0.02779434807598591,-0.13194678723812103
1711550881172759600,11.874759521484375,0.07391463965177536,0.010690134018659592,-0.23976442217826843
1711550881191719200,11.89371923828125,-0.1279761642217636,0.09590577334165573,-0.3094030022621155
1711550881210678800,11.9126787109375,-0.28069236874580383,0.12675444781780243,-0.31062474846839905
1711550881229638400,11.931638427734375,-0.3035998046398163,0.09040798991918564,-0.2813032269477844
1711550881248598000,11.950597900390624,-0.2672533392906189,-0.07605266571044922,-0.2101374864578247
1711550881267557600,11.9695576171875,-0.20219624042510986,-0.20708316564559937,-0.06322450190782547
1711550881286517200,11.988517333984374,-0.14813470840454102,-0.2617555558681488,0.10934479534626007
1711550881305476900,12.007476806640625,-0.10598503798246384,-0.30573782324790955,0.2880227565765381
1711550881324436500,12.0264365234375,-0.09498947113752365,-0.26511532068252563,0.4101957082748413
1711550881343395800,12.045395751953125,-0.1331685185432434,-0.1386663019657135,0.4114174246788025
1711550881362355700,12.064355712890626,-0.15821397304534912,-0.1233946830034256,0.32162031531333923
1711550881381315300,12.0833154296875,-0.11514800786972046,-0.22235478460788727,0.18295399844646454
1711550881400274700,12.102274658203125,-0.06352993845939636,-0.32192572951316833,0.05711585655808449
1711550881419234300,12.121234375,-0.07605266571044922,-0.29565855860710144,-0.025045456364750862
1711550881438194200,12.140194091796875,-0.17073670029640198,-0.1792888194322586,-0.044898562133312225
1711550881457153500,12.159153564453124,-0.32681265473365784,-0.0616973415017128,-0.057726722210645676
1711550881476113200,12.178113037109375,-0.3949240744113922,0.07299833744764328,-0.08979712426662445
1711550881495072800,12.19707275390625,-0.2984074354171753,0.16340632736682892,-0.1182023361325264
1711550881514032600,12.21603271484375,-0.1279761642217636,0.18875721096992493,-0.1588248461484909
1711550881532992000,12.234991943359375,0.08857539296150208,0.14599667489528656,-0.20891575515270233
1711550881551951600,12.25395166015625,0.18356487154960632,0.21166464686393738,-0.22479823231697083
1711550881570911200,12.2729111328125,0.14019346237182617,0.43829548358917236,-0.2461785078048706
1711550881589870800,12.291870849609374,0.05436696484684944,0.5827649831771851,-0.24923282861709595
1711550881608830500,12.31083056640625,-0.011606430634856224,0.6068941354751587,-0.24220788478851318
1711550881627790000,12.3297900390625,-0.003970621153712273,0.4725039005279541,-0.23335035145282745
1711550881646749700,12.348749755859375,0.05039634555578232,0.17562362551689148,-0.17195843160152435
1711550881665709300,12.367709228515626,0.12583814561367035,-0.11514800786972046,-0.04245510324835777
1711550881684669000,12.3866689453125,0.19150610268115997,-0.30573782324790955,0.12400554865598679
1711550881703628500,12.405628662109375,0.20189081132411957,-0.3347539007663727,0.32620179653167725
1711550881722588200,12.424588134765624,0.19120067358016968,-0.23915356397628784,0.4401280879974365
1711550881741548000,12.443548095703125,0.18631376326084137,-0.23273947834968567,0.4828886091709137
1711550881760507400,12.46250732421875,0.16218459606170654,-0.2929096519947052,0.4682278633117676
1711550881779467000,12.481467041015625,0.1182023361325264,-0.37232208251953125,0.36835145950317383
1711550881798427000,12.500427001953126,0.08674279600381851,-0.4108065664768219,0.18631376326084137
1711550881817386500,12.519386474609375,0.07788526266813278,-0.29413139820098877,0.021991131827235222
1711550881836346000,12.53834619140625,0.08643736690282822,-0.04917461425065994,-0.1182023361325264
1711550881855305700,12.5573056640625,0.13255766034126282,0.13652828335762024,-0.2360992431640625
1711550881874265300,12.576265380859375,0.2049451321363449,0.22235478460788727,-0.28588470816612244
1711550881893225000,12.595224853515624,0.22479823231697083,0.21685700118541718,-0.2620609998703003
1711550881912184600,12.6141845703125,0.22204934060573578,0.0772743970155716,-0.15668681263923645
1711550881931144200,12.633144287109374,0.2415970265865326,-0.08063415437936783,-0.026572618633508682
1711550881950103800,12.652103759765625,0.22999058663845062,-0.2156352698802948,0.09621120244264603
1711550881969063400,12.6710634765625,0.2110537886619568,-0.3497200906276703,0.21380266547203064
1711550881988023000,12.69002294921875,0.21319180727005005,-0.41233372688293457,0.2935205399990082
1711550882006982700,12.708982666015626,0.20341797173023224,-0.3402516841888428,0.2935205399990082
1711550882025942300,12.7279423828125,0.18784092366695404,-0.2458730787038803,0.2721402645111084
1711550882044902000,12.74690185546875,0.19425499439239502,-0.23793183267116547,0.25534147024154663
1711550882063861500,12.765861572265624,0.19333870708942413,-0.35246896743774414,0.21258094906806946
1711550882082821400,12.7848212890625,0.16126830875873566,-0.4975493550300598,0.19730933010578156
1711550882101780700,12.80378076171875,0.12736530601978302,-0.5494728684425354,0.23884813487529755
1711550882120740600,12.82274072265625,0.1081230640411377,-0.4529562294483185,0.27916520833969116
1711550882139700200,12.8417001953125,0.09132428467273712,-0.3075704276561737,0.30054548382759094
1711550882158659800,12.860659912109375,0.13591741025447845,-0.25961753726005554,0.3078758418560028
1711550882177619500,12.879619384765626,0.18142683804035187,-0.3533852696418762,0.27488914132118225
1711550882196579000,12.8985791015625,0.21380266547203064,-0.4773908257484436,0.1637117564678192
1711550882215538700,12.91753857421875,0.23335035145282745,-0.48044514656066895,0.04673115536570549
1711550882234498300,12.936498291015624,0.22785256803035736,-0.3121519088745117,-0.060781046748161316
1711550882253458000,12.9554580078125,0.2052505612373352,-0.14660754799842834,-0.15760311484336853
1711550882272417500,12.97441748046875,0.16829325258731842,-0.08643736690282822,-0.2260199636220932
1711550882291377200,12.993377197265625,0.1288924664258957,-0.07635809481143951,-0.21655155718326569
1711550882310336800,13.012336669921876,0.15760311484336853,-0.05283980444073677,-0.1740964651107788
1711550882329296600,13.031296630859375,0.1997527778148651,0.12736530601978302,-0.10323614627122879
1711550882348256300,13.05025634765625,0.15638138353824615,0.24556763470172882,-0.05345066636800766
1711550882367215900,13.0692158203125,0.08643736690282822,0.12431098520755768,0.0009162971982732415
1711550882386175500,13.088175537109375,0.07238747924566269,-0.10048725455999374,0.06108647957444191
1711550882405135000,13.107135009765624,0.07757982611656189,-0.2107483446598053,0.1230892539024353
1711550882424094700,13.1260947265625,0.10476330667734146,-0.15760311484336853,0.13988803327083588
1711550882443054300,13.145054443359374,0.07024945318698883,-0.023518294095993042,0.12400554865598679
1711550882462014000,13.164013916015625,0.031154103577136993,0.10751219838857651,0.06383536756038666
1711550882480973600,13.1829736328125,0.003359756199643016,0.2660316228866577,-0.018325943499803543
1711550882499933400,13.201933349609375,-0.009773836471140385,0.35705047845840454,-0.11606431007385254
1711550882518893000,13.22089306640625,-0.001832594396546483,0.3179551064968109,-0.17531819641590118
1711550882537852700,13.239852783203125,0.008552107028663158,0.18631376326084137,-0.1997527778148651
1711550882556812300,13.258812255859375,0.02626718580722809,0.143553227186203,-0.1957821547985077
1711550882575772000,13.27777197265625,-0.02626718580722809,0.19120067358016968,-0.17684535682201385
1711550882594731500,13.2967314453125,-0.12522727251052856,0.27397283911705017,-0.11423171311616898
1711550882613691100,13.315691162109376,-0.1945604383945465,0.26939135789871216,-0.029932374134659767
1711550882632650800,13.334650634765625,-0.17745621502399445,0.17226386070251465,0.05070177838206291
1711550882651610600,13.353610595703126,-0.14233149588108063,0.0977383628487587,0.08491020649671555
1711550882670570200,13.3725703125,-0.12186752259731293,0.006414080038666725,0.09040798991918564
1711550882689529900,13.39152978515625,-0.12950333952903748,-0.05955931544303894,0.12095122784376144
1711550882708489500,13.410489501953125,-0.1233946830034256,-0.09040798991918564,0.1288924664258957
1711550882727449000,13.429448974609375,-0.10567960888147354,-0.11728604137897491,0.11728604137897491
1711550882746408700,13.44840869140625,-0.11606431007385254,-0.12156209349632263,0.10048725455999374
1711550882765368300,13.467368408203125,-0.13530655205249786,-0.08002328872680664,0.05528326332569122
1711550882784328000,13.486327880859376,-0.11698060482740402,-0.024434590712189674,-0.026572618633508682
1711550882803287800,13.505287841796875,-0.11759147047996521,0.05833758786320686,-0.06627883017063141
1711550882822247400,13.524247314453126,-0.1127045527100563,0.1279761642217636,-0.07880155742168427
1711550882841207000,13.54320703125,-0.08032871782779694,0.15241076052188873,-0.09712749719619751
1711550882860166700,13.562166748046875,-0.0873536616563797,0.18723005056381226,-0.12125665694475174
1711550882879126300,13.581126220703124,-0.1389717310667038,0.19883649051189423,-0.1288924664258957
1711550882898086000,13.6000859375,-0.1649334877729416,0.22388194501399994,-0.10934479534626007
1711550882917045500,13.61904541015625,-0.1594357043504715,0.2629773020744324,-0.07116574794054031
1711550882936005000,13.638005126953125,-0.15088360011577606,0.2666424810886383,-0.0360410213470459
1711550882954965000,13.656965087890624,-0.14630211889743805,0.23518294095993042,-0.013133592903614044
1711550882973924600,13.675924560546875,-0.1233946830034256,0.23548837006092072,-0.03451386094093323
1711550882992884200,13.69488427734375,-0.08124501258134842,0.20402882993221283,-0.06811141967773438
1711550883011843800,13.71384375,-0.07483093440532684,0.168904110789299,-0.09896009415388107
1711550883030803500,13.732803466796875,-0.07574722915887833,0.1692095398902893,-0.12614357471466064
1711550883049763000,13.75176318359375,-0.06047561392188072,0.20463970303535461,-0.15149445831775665
1711550883068722700,13.77072265625,-0.02779434807598591,0.22937972843647003,-0.17104214429855347
1711550883087682300,13.789682373046874,-0.010384701192378998,0.25534147024154663,-0.1744018942117691
1711550883106642000,13.808641845703125,-0.008246674202382565,0.2614501118659973,-0.1692095398902893
1711550883125601800,13.827601806640626,-0.00946840364485979,0.24404047429561615,-0.17806708812713623
1711550883144561400,13.8465615234375,-0.008552107028663158,0.20677772164344788,-0.16798780858516693
1711550883163521000,13.86552099609375,-0.0204639695584774,0.2049451321363449,-0.16646064817905426
1711550883182480600,13.884480712890625,-0.04214967042207718,0.231212317943573,-0.15149445831775665
1711550883201440300,13.903440185546875,-0.06994401663541794,0.2562577724456787,-0.14019346237182617
1711550883220399900,13.92239990234375,-0.10384701192378998,0.2559523284435272,-0.12278381735086441
1711550883239359500,13.941359375,-0.11667517572641373,0.2260199636220932,-0.1127045527100563
1711550883258319000,13.960319091796874,-0.09132428467273712,0.2009745091199875,-0.0925460159778595
1711550883277279000,13.979279052734375,-0.08093958348035812,0.18142683804035187,-0.0821613147854805
1711550883296238300,13.99823828125,-0.08888082206249237,0.12950333952903748,-0.08552107214927673
1711550883315198200,14.0171982421875,-0.09560033679008484,0.09560033679008484,-0.08826996386051178
1711550883334157800,14.03615771484375,-0.07971785217523575,0.0925460159778595,-0.09315688163042068
1711550883353117400,14.055117431640625,-0.05589412897825241,0.10354158282279968,-0.0772743970155716
1711550883372077000,14.0740771484375,-0.04001164436340332,0.06994401663541794,-0.0412333719432354
1711550883391036700,14.09303662109375,-0.039706211537122726,0.06536252796649933,-0.03787361457943916
1711550883409996300,14.111996337890625,-0.03451386094093323,0.08124501258134842,-0.04276053607463837
1711550883428956000,14.130955810546874,-0.010690134018659592,0.12156209349632263,-0.04367683082818985
1711550883447915500,14.14991552734375,0.003359756199643016,0.13133592903614044,-0.04062250629067421
1711550883466875100,14.168875244140626,-0.011300998739898205,0.10018182545900345,-0.04673115536570549
1711550883485834800,14.187834716796875,-0.03543015569448471,0.04978547990322113,-0.06047561392188072
1711550883504794600,14.206794677734376,-0.028405211865901947,0.015577051788568497,-0.07788526266813278
1711550883523754000,14.22575390625,0.001221729558892548,0.005192350596189499,-0.059864748269319534
1711550883542713900,14.2447138671875,0.006719512399286032,0.008552107028663158,-0.0360410213470459
1711550883561673500,14.263673583984374,-0.005803215317428112,0.019242240116000175,-0.009773836471140385
1711550883580633000,14.282633056640625,-0.022296564653515816,0.021991131827235222,0.01282816007733345
1711550883599592700,14.3015927734375,-0.026572618633508682,0.0030543238390237093,0.029016077518463135
1711550883618552300,14.32055224609375,-0.016187917441129684,-0.01588248461484909,0.03787361457943916
1711550883637512000,14.339511962890626,0.001221729558892548,-0.016798781231045723,0.029626941308379173
1711550883656471600,14.358471435546875,0.000305432389723137,-0.025961752980947495,0.022296564653515816
1711550883675431200,14.37743115234375,-0.004581485874950886,-0.014660755172371864,0.017715077847242355
1711550883694390800,14.396390869140625,-0.005192350596189499,-0.0027488914784044027,0.011606430634856224
1711550883713350400,14.415350341796875,-0.01588248461484909,0.017715077847242355,0.000305432389723137
1711550883732310000,14.43431005859375,-0.02626718580722809,0.020769402384757996,-0.003359756199643016
1711550883751269600,14.45326953125,-0.016187917441129684,0.020769402384757996,-0.010690134018659592
1711550883770229200,14.472229248046874,-0.000305432389723137,0.014049889519810677,-0.017715077847242355
1711550883789188900,14.49118896484375,0.00946840364485979,0.011911863461136818,-0.02412915788590908
1711550883808148500,14.5101484375,-0.004581485874950886,0.009162971749901772,-0.01802051067352295
1711550883827108000,14.529108154296875,0.001221729558892548,0.03848448023200035,-0.03756818547844887
1711550883846067700,14.548067626953125,0.00946840364485979,0.04825831577181816,-0.05283980444073677
1711550883865027300,14.56702734375,-0.015271619893610477,0.03634645417332649,-0.047036588191986084
1711550883883987000,14.585987060546875,-0.03023780696094036,0.013133592903614044,-0.047952886670827866
1711550883902946600,14.604946533203124,-0.012522728182375431,0.007635809946805239,-0.054672397673130035
1711550883921906200,14.62390625,-0.003359756199643016,0.02626718580722809,-0.06017018109560013
1711550883940865800,14.64286572265625,-0.019242240116000175,0.04917461425065994,-0.04886918142437935
1711550883959825700,14.66182568359375,-0.022907428443431854,0.07422006875276566,-0.036651886999607086
1711550883978785000,14.680784912109376,-0.014966187067329884,0.05558869615197182,-0.022296564653515816
1711550883997744600,14.69974462890625,-0.005803215317428112,0.029016077518463135,-0.01954767294228077
1711550884016704300,14.718704345703125,-0.012522728182375431,0.009773836471140385,-0.02412915788590908
1711550884035664000,14.737663818359374,-0.033597562462091446,-0.004581485874950886,-0.022296564653515816
1711550884054623500,14.75662353515625,-0.03451386094093323,0.013133592903614044,-0.018631376326084137
1711550884073583000,14.7755830078125,-0.03481929376721382,0.026878049597144127,-0.014966187067329884
1711550884092542700,14.794542724609375,-0.036651886999607086,0.03634645417332649,-0.021685699000954628
1711550884111502300,14.81350244140625,-0.029932374134659767,0.043982263654470444,-0.02626718580722809
1711550884130462000,14.8324619140625,-0.021380268037319183,0.027488915249705315,-0.0256563201546669
1711550884149421600,14.851421630859376,-0.015577051788568497,0.005192350596189499,-0.014966187067329884
1711550884168381200,14.870381103515625,-0.014966187067329884,-0.003359756199643016,-0.003665188793092966
1711550884187340800,14.8893408203125,-0.025961752980947495,-0.013744457624852657,0.000610864779446274
1711550884206300400,14.908300537109374,-0.029932374134659767,-0.004886918235570192,-0.001221729558892548
1711550884225260000,14.927260009765625,-0.029626941308379173,-0.003970621153712273,-0.006719512399286032
1711550884244219600,14.9462197265625,-0.029626941308379173,0.003359756199643016,-0.013744457624852657
1711550884263179300,14.96517919921875,-0.028405211865901947,0.004581485874950886,-0.029932374134659767
1711550884282139000,14.984138916015626,-0.021380268037319183,0.012522728182375431,-0.040317077189683914
1711550884301098500,15.003098388671875,-0.02871064469218254,0.0027488914784044027,-0.032681263983249664
1711550884320058000,15.02205810546875,-0.02412915788590908,0.023823726922273636,-0.046425722539424896
1711550884339017700,15.041017822265625,-0.013744457624852657,0.03787361457943916,-0.05711585655808449
1711550884357977000,15.05997705078125,-0.020158538594841957,0.035124726593494415,-0.050090912729501724
1711550884376936700,15.078936767578124,-0.0461202897131443,0.02871064469218254,-0.0308486707508564
1711550884395896300,15.097896240234375,-0.05100720748305321,0.034208428114652634,-0.016187917441129684
1711550884414856000,15.11685595703125,-0.035735588520765305,0.024434590712189674,-0.008552107028663158
1711550884433815600,15.135815673828125,-0.0204639695584774,0.025961752980947495,0.001832594396546483
1711550884452775200,15.154775146484376,-0.022296564653515816,0.03543015569448471,-0.0030543238390237093
1711550884471734800,15.17373486328125,-0.037262752652168274,0.03298669680953026,-0.008857538923621178
1711550884490694400,15.1926943359375,-0.03787361457943916,0.04520399495959282,-0.011606430634856224
1711550884509654000,15.211654052734374,-0.03634645417332649,0.050090912729501724,-0.018325943499803543
1711550884528613600,15.230613525390625,-0.044898562133312225,0.06536252796649933,-0.03390299528837204
1711550884547573200,15.2495732421875,-0.047036588191986084,0.0873536616563797,-0.049480047076940536
1711550884566532600,15.26853271484375,-0.04001164436340332,0.09376774728298187,-0.05589412897825241
1711550884585492200,15.2874921875,-0.0360410213470459,0.09162971377372742,-0.04917461425065994
1711550884604451800,15.306451904296875,-0.035735588520765305,0.0720820426940918,-0.032070402055978775
1711550884623411500,15.325411376953125,-0.04062250629067421,0.06963858753442764,-0.014049889519810677
1711550884642371000,15.34437109375,-0.04673115536570549,0.09132428467273712,-0.011300998739898205
1711550884661330700,15.36333056640625,-0.05742128938436508,0.10903936624526978,-0.007635809946805239
1711550884680290300,15.382290283203124,-0.06505709886550903,0.13133592903614044,-0.007024944759905338
1711550884699250000,15.40125,-0.07086031138896942,0.14599667489528656,0.000305432389723137
1711550884718209300,15.420209228515626,-0.07116574794054031,0.15179990231990814,0.008246674202382565
1711550884737169000,15.4391689453125,-0.05283980444073677,0.1487455666065216,0.010079269297420979
1711550884756128500,15.45812841796875,-0.02779434807598591,0.15271618962287903,-0.001221729558892548
1711550884775088000,15.477088134765625,-0.04367683082818985,0.1649334877729416,-0.025961752980947495
1711550884794047700,15.4960478515625,-0.08429934084415436,0.17715078592300415,-0.035124726593494415
1711550884813007000,15.515007080078124,-0.07880155742168427,0.1792888194322586,-0.04581485688686371
1711550884831966700,15.533966796875,-0.0409279391169548,0.15699224174022675,-0.05833758786320686
1711550884850926300,15.55292626953125,-0.037262752652168274,0.13622283935546875,-0.0665842592716217
1711550884869886000,15.571885986328125,-0.06475166976451874,0.16004657745361328,-0.06597339361906052
1711550884888845600,15.590845458984376,-0.07269290834665298,0.17837251722812653,-0.06230820715427399
1711550884907805000,15.609804931640625,-0.06017018109560013,0.2000582218170166,-0.06475166976451874
1711550884926764500,15.6287646484375,-0.05406153202056885,0.1853974610567093,-0.0665842592716217
1711550884945724200,15.64772412109375,-0.038789913058280945,0.14233149588108063,-0.059864748269319534
1711550884964683800,15.666683837890625,-0.007330377586185932,0.11759147047996521,-0.06963858753442764
1711550884983643400,15.685643310546874,-0.010995565913617611,0.12767073512077332,-0.11759147047996521
1711550885002603000,15.70460302734375,-0.007635809946805239,0.11392628401517868,-0.15607595443725586
1711550885021562400,15.723562255859376,0.02412915788590908,0.005192350596189499,-0.17867794632911682
1711550885040522000,15.74252197265625,0.04306596517562866,-0.06261363625526428,-0.17745621502399445
1711550885059481600,15.761481689453126,0.022907428443431854,-0.019242240116000175,-0.1432477980852127
1711550885078441200,15.780441162109375,0.000305432389723137,0.1185077652335167,-0.11606431007385254
1711550885097400600,15.799400634765625,-0.001221729558892548,0.2464839369058609,-0.09712749719619751
1711550885116360200,15.818360107421874,0.003359756199643016,0.281914085149765,-0.08674279600381851
1711550885135319800,15.83731982421875,-0.004276053514331579,0.26480987668037415,-0.07055488228797913
1711550885154279400,15.856279541015626,0.010995565913617611,0.22235478460788727,-0.03848448023200035
1711550885173238800,15.87523876953125,0.025045456364750862,0.17623448371887207,-0.014049889519810677
1711550885192198400,15.894198486328126,0.015271619893610477,0.18784092366695404,-0.0030543238390237093
1711550885211158000,15.913157958984375,-0.024434590712189674,0.2205221801996231,-0.0030543238390237093
1711550885230117600,15.93211767578125,-0.0412333719432354,0.23182319104671478,0.004581485874950886
1711550885249077000,15.951076904296874,0.02260199747979641,0.2156352698802948,-0.000610864779446274
1711550885268036600,15.97003662109375,0.06872228533029556,0.16340632736682892,-0.000610864779446274
1711550885286996200,15.988996337890624,0.03848448023200035,0.11392628401517868,0.0412333719432354
1711550885305955800,16.007955810546875,0.011606430634856224,0.08796452730894089,0.04245510324835777
1711550885324915500,16.02691552734375,0.013133592903614044,0.08949168771505356,0.011606430634856224
1711550885343874800,16.045874755859376,0.013744457624852657,0.07788526266813278,-0.002443459117785096
1711550885362834400,16.06483447265625,0.02412915788590908,0.040317077189683914,-0.010995565913617611
1711550885381794000,16.0837939453125,0.013744457624852657,-0.01893680728971958,-0.04245510324835777
1711550885400753700,16.102753662109375,0.0204639695584774,-0.09346231073141098,-0.019853105768561363
1711550885419713000,16.121713134765624,0.047036588191986084,-0.0870482325553894,0.010995565913617611
1711550885438672600,16.140672607421877,0.056810423731803894,-0.006719512399286032,0.03787361457943916
1711550885457632300,16.15963232421875,-0.005803215317428112,0.07147117704153061,0.06566796451807022
1711550885476591900,16.178591796875,-0.0720820426940918,0.12400554865598679,0.05711585655808449
1711550885495551200,16.19755126953125,-0.03329212963581085,0.11881320178508759,0.048563748598098755
1711550885514510800,16.2165107421875,0.028099779039621353,0.0766635313630104,0.011606430634856224
1711550885533470500,16.235470458984373,0.016187917441129684,0.06597339361906052,-0.037262752652168274
1711550885552429800,16.254429931640626,-0.0513126403093338,0.09468404203653336,-0.05833758786320686
1711550885571389400,16.273389404296875,-0.06505709886550903,0.1805105358362198,-0.06200277432799339
1711550885590349000,16.29234912109375,-0.023823726922273636,0.26419901847839355,-0.04886918142437935
1711550885609308700,16.31130859375,0.01588248461484909,0.38240134716033936,-0.06383536756038666
1711550885628268000,16.33026806640625,0.02412915788590908,0.4776962697505951,-0.05345066636800766
1711550885647227600,16.3492275390625,-0.011911863461136818,0.45387253165245056,-0.07422006875276566
1711550885666187300,16.368187255859375,-0.03481929376721382,0.3491092324256897,-0.05100720748305321
1711550885685147000,16.38714697265625,-0.018631376326084137,0.21960589289665222,-0.020769402384757996
1711550885704106500,16.4061064453125,0.006108647678047419,0.10965022444725037,-0.003359756199643016
1711550885723065900,16.42506591796875,-0.0027488914784044027,0.06108647957444191,0.007635809946805239
1711550885742025500,16.444025390625,-0.005192350596189499,0.044898562133312225,0.01740964688360691
1711550885760984800,16.46298486328125,0.01802051067352295,0.01954767294228077,0.018325943499803543
1711550885779944400,16.4819443359375,0.048563748598098755,-0.0668896958231926,0.01954767294228077
1711550885798904000,16.500904052734374,0.10231985151767731,-0.17226386070251465,-0.022907428443431854
1711550885817863700,16.51986376953125,0.12003492563962936,-0.27977606654167175,-0.060781046748161316
1711550885836823000,16.538822998046875,0.09040798991918564,-0.29413139820098877,-0.06963858753442764
1711550885855782700,16.55778271484375,0.03756818547844887,-0.21716243028640747,-0.07544180005788803
1711550885874742300,16.5767421875,0.005192350596189499,-0.10109812021255493,-0.07147117704153061
1711550885893702000,16.595701904296874,0.014660755172371864,-0.000610864779446274,-0.04520399495959282
1711550885912661200,16.6146611328125,0.044898562133312225,0.044898562133312225,-0.010995565913617611
1711550885931620900,16.633620849609375,0.05589412897825241,0.013133592903614044,-0.011300998739898205
1711550885950580500,16.65258056640625,0.03237583488225937,-0.014660755172371864,-0.026878049597144127
1711550885969540000,16.6715400390625,-0.000610864779446274,0.03634645417332649,-0.012522728182375431
1711550885988499500,16.69049951171875,-0.04673115536570549,0.06963858753442764,0.04581485688686371
1711550886007459000,16.709458984375,-0.05283980444073677,0.09346231073141098,0.046425722539424896
1711550886026418700,16.728418701171876,-0.013744457624852657,0.0925460159778595,0.036651886999607086
1711550886045378000,16.7473779296875,0.017715077847242355,0.07391463965177536,0.01282816007733345
1711550886064337700,16.766337646484374,-0.0054977829568088055,0.07971785217523575,-0.010995565913617611
1711550886083297300,16.78529736328125,-0.033597562462091446,0.0821613147854805,-0.030543239787220955
1711550886102257000,16.8042568359375,-0.022296564653515816,0.09804379940032959,-0.05039634555578232
1711550886121216300,16.82321630859375,0.005803215317428112,0.15057817101478577,-0.0565049909055233
1711550886140176000,16.84217578125,-0.010079269297420979,0.21685700118541718,-0.04550942778587341
1711550886159135500,16.861135498046874,-0.03451386094093323,0.18875721096992493,-0.031154103577136993
1711550886178095000,16.88009521484375,0.001221729558892548,0.12400554865598679,-0.03237583488225937
1711550886197054500,16.899054443359375,0.015577051788568497,0.09529490768909454,-0.01740964688360691
1711550886216014000,16.91801416015625,-0.04520399495959282,0.10140355676412582,-0.010079269297420979
1711550886234973700,16.9369736328125,-0.0665842592716217,0.12186752259731293,-0.0204639695584774
1711550886253933000,16.95593310546875,-0.01649334840476513,0.10873392969369888,-0.031154103577136993
1711550886272892700,16.974892578125,0.010384701192378998,0.09193515032529831,-0.05864302068948746
1711550886291852300,16.993852294921876,0.037262752652168274,0.08277218043804169,-0.09437860548496246
1711550886310812000,17.01281201171875,0.04520399495959282,0.13958260416984558,-0.10842850059270859
1711550886329771300,17.031771240234374,-0.019853105768561363,0.17653992772102356,-0.11056652665138245
1711550886348731000,17.05073095703125,-0.05436696484684944,0.1692095398902893,-0.09712749719619751
1711550886367690500,17.0696904296875,-0.0027488914784044027,0.1594357043504715,-0.07819069176912308
1711550886386650000,17.088650146484376,0.04764745384454727,0.19822561740875244,-0.06383536756038666
1711550886405609500,17.107609375,0.023823726922273636,0.16676609218120575,-0.07238747924566269
1711550886424569000,17.126569091796874,-0.019242240116000175,0.10690133273601532,-0.03695731982588768
1711550886443528700,17.14552880859375,-0.000610864779446274,0.07116574794054031,-0.007635809946805239
1711550886462488300,17.16448828125,0.028405211865901947,0.01588248461484909,0.013133592903614044
1711550886481447700,17.18344775390625,0.05589412897825241,-0.022296564653515816,0.04673115536570549
1711550886500407300,17.2024072265625,0.08826996386051178,-0.019242240116000175,0.04734202101826668
1711550886519367000,17.221366943359374,0.060781046748161316,-0.03756818547844887,0.023823726922273636
1711550886538326300,17.240326171875,0.016798781231045723,-0.04734202101826668,0.013133592903614044
1711550886557286000,17.259285888671876,-0.005803215317428112,-0.04153880476951599,0.028405211865901947
1711550886576245500,17.27824560546875,0.007635809946805239,-0.07849612087011337,0.036651886999607086
1711550886595205000,17.297205078125,0.07849612087011337,-0.15271618962287903,0.0030543238390237093
1711550886614164500,17.31616455078125,0.143553227186203,-0.18906265497207642,-0.06108647957444191
1711550886633124000,17.3351240234375,0.12247838824987411,-0.22846342623233795,-0.07483093440532684
1711550886652083700,17.354083740234376,0.056810423731803894,-0.2364046722650528,-0.04764745384454727
1711550886671043300,17.373043212890625,0.038789913058280945,-0.22999058663845062,-0.011300998739898205
1711550886690003000,17.3920029296875,0.0565049909055233,-0.22754712402820587,0.02871064469218254
1711550886708962300,17.41096240234375,0.09376774728298187,-0.25411975383758545,0.04581485688686371
1711550886727922000,17.429921875,0.13041962683200836,-0.2932150959968567,0.035124726593494415
1711550886746881500,17.448881591796876,0.10965022444725037,-0.34055712819099426,0.07269290834665298
1711550886765841200,17.467841064453125,0.07360920310020447,-0.318871408700943,0.06841685622930527
1711550886784800800,17.48680078125,0.07238747924566269,-0.2935205399990082,0.05039634555578232
1711550886803760000,17.505760009765623,0.10323614627122879,-0.2669478952884674,0.05803215503692627
1711550886822719700,17.5247197265625,0.09804379940032959,-0.23365578055381775,0.05497783049941063
1711550886841679400,17.543679443359373,0.07574722915887833,-0.2107483446598053,0.03298669680953026
1711550886860638700,17.562638671875,0.07544180005788803,-0.18845178186893463,0.003970621153712273
1711550886879598300,17.581598388671875,0.09468404203653336,-0.2003636509180069,-0.024434590712189674
1711550886898558000,17.600557861328124,0.08857539296150208,-0.21991132199764252,-0.03909534588456154
1711550886917517600,17.619517578125,0.049480047076940536,-0.24892739951610565,-0.04459312930703163
1711550886936477000,17.638476806640625,0.015577051788568497,-0.2889390289783478,-0.05589412897825241
1711550886955436500,17.6574365234375,0,-0.2761108875274658,-0.021380268037319183
1711550886974396200,17.676396240234375,-0.010079269297420979,-0.21807873249053955,0.04306596517562866
1711550886993355500,17.69535546875,0.003665188793092966,-0.1493564397096634,0.10415244847536087
1711550887012315100,17.714315185546877,0.04581485688686371,-0.09712749719619751,0.10690133273601532
1711550887031274800,17.733274658203126,0.05100720748305321,-0.10231985151767731,0.10567960888147354
1711550887050234400,17.752234375,0.003970621153712273,-0.13958260416984558,0.09010255336761475
1711550887069194000,17.771194091796875,-0.016187917441129684,-0.1698204129934311,0.08368847519159317
1711550887088153300,17.7901533203125,0.035124726593494415,-0.16279546916484833,0.032070402055978775
1711550887107113000,17.809113037109373,0.06230820715427399,-0.10690133273601532,-0.03237583488225937
1711550887126072600,17.828072509765626,0.013133592903614044,-0.08796452730894089,-0.04673115536570549
1711550887145032200,17.8470322265625,-0.0308486707508564,-0.09926552325487137,-0.020769402384757996
1711550887163991800,17.86599169921875,0.02412915788590908,-0.1182023361325264,0.0027488914784044027
1711550887182951200,17.884951171875,0.10354158282279968,-0.12583814561367035,-0.0015271619195118546
1711550887201910800,17.903910888671874,0.1078176349401474,-0.12980876863002777,-0.01649334840476513
1711550887220870400,17.922870361328126,0.032681263983249664,-0.17073670029640198,-0.020158538594841957
1711550887239830000,17.941830078125,-0.021991131827235222,-0.1853974610567093,-0.0027488914784044027
1711550887258789400,17.960789306640624,-0.01588248461484909,-0.17073670029640198,0.006414080038666725
1711550887277749000,17.9797490234375,0.023823726922273636,-0.13072505593299866,-0.0054977829568088055
1711550887296708600,17.99870849609375,0.015271619893610477,-0.13011419773101807,-0.01649334840476513
1711550887315668200,18.017668212890626,-0.029626941308379173,-0.13225223124027252,-0.0204639695584774
1711550887334627800,18.0366279296875,-0.047952886670827866,-0.19120067358016968,-0.008246674202382565
1711550887353587200,18.055587158203124,-0.006108647678047419,-0.23793183267116547,0.014966187067329884
1711550887372546800,18.074546875,0.01802051067352295,-0.25411975383758545,0.024740023538470268
1711550887391506400,18.09350634765625,-0.005192350596189499,-0.24251331388950348,0.025350889191031456
1711550887410466000,18.112466064453123,-0.04550942778587341,-0.20433427393436432,0.030543239787220955
1711550887429425700,18.13142578125,-0.0513126403093338,-0.13500112295150757,0.03451386094093323
1711550887448385000,18.150385009765625,-0.04734202101826668,-0.08491020649671555,0.028405211865901947
1711550887467344600,18.1693447265625,-0.04886918142437935,-0.09651663154363632,0.03634645417332649
1711550887486304300,18.18830419921875,-0.021685699000954628,-0.08888082206249237,0.019853105768561363
1711550887505263900,18.207263916015624,-0.01435532234609127,-0.12675444781780243,0.005192350596189499
1711550887524223200,18.22622314453125,-0.04001164436340332,-0.16737695038318634,0.010079269297420979
1711550887543182800,18.245182861328125,-0.04520399495959282,-0.1744018942117691,0.016798781231045723
1711550887562142500,18.264142578125,-0.014966187067329884,-0.1692095398902893,0.024434590712189674
1711550887581102000,18.28310205078125,-0.0027488914784044027,-0.1487455666065216,0.04581485688686371
1711550887600061700,18.302061767578124,-0.012217295356094837,-0.1386663019657135,0.07819069176912308
1711550887619021000,18.32102099609375,-0.001221729558892548,-0.13561198115348816,0.09193515032529831
1711550887637980700,18.339980712890625,0.020158538594841957,-0.1698204129934311,0.10476330667734146
1711550887656940300,18.358940185546874,0.03848448023200035,-0.19792018830776215,0.11728604137897491
1711550887675900000,18.37789990234375,0.007024944759905338,-0.20219624042510986,0.10720676928758621
1711550887694859300,18.396859375,-0.06933315098285675,-0.2415970265865326,0.11056652665138245
1711550887713819000,18.41581884765625,-0.08093958348035812,-0.24342961609363556,0.12125665694475174
1711550887732778500,18.434778564453126,-0.009773836471140385,-0.1798996776342392,0.09590577334165573
1711550887751738000,18.453738037109375,0.05100720748305321,-0.18173226714134216,0.08032871782779694
1711550887770697500,18.472697509765624,0.03329212963581085,-0.20861032605171204,0.06475166976451874
1711550887789657000,18.491656982421876,0.003970621153712273,-0.21930044889450073,0.03787361457943916
1711550887808616700,18.51061669921875,-0.01954767294228077,-0.22815799713134766,0.0009162971982732415
1711550887827576300,18.529576416015626,-0.06108647957444191,-0.19181154668331146,-0.017104214057326317
1711550887846536000,18.548535888671875,-0.10231985151767731,-0.1340848207473755,-0.023212861269712448
1711550887865495300,18.567495361328124,-0.09101885557174683,-0.10537417232990265,0.02260199747979641
1711550887884455000,18.586454833984376,-0.021380268037319183,-0.027488915249705315,0.035124726593494415
1711550887903414500,18.60541455078125,0.010384701192378998,0.06322450190782547,-0.02779434807598591
1711550887922374100,18.6243740234375,-0.007330377586185932,0.0818558782339096,-0.08796452730894089
1711550887941333500,18.64333349609375,0.0021380267571657896,0.001832594396546483,-0.11972949653863907
1711550887960293000,18.662293212890624,0.01282816007733345,-0.07757982611656189,-0.11606431007385254
1711550887979252700,18.681252685546873,-0.004581485874950886,-0.10506874322891235,-0.09560033679008484
1711550887998212400,18.70021240234375,-0.018325943499803543,-0.0668896958231926,-0.07757982611656189
1711550888017171700,18.719171630859375,-0.035735588520765305,0.016798781231045723,-0.06444623321294785
1711550888036131300,18.73813134765625,-0.06108647957444191,0.05070177838206291,-0.036651886999607086
1711550888055091000,18.757091064453125,-0.05436696484684944,-0.0015271619195118546,0.01802051067352295
1711550888074050600,18.776050537109374,-0.006108647678047419,-0.07330377399921417,0.05039634555578232
1711550888093010000,18.795010009765626,0.020769402384757996,-0.10506874322891235,0.06047561392188072
1711550888111969500,18.813969482421875,-0.004886918235570192,-0.0974329337477684,0.038789913058280945
1711550888130929200,18.83292919921875,-0.029932374134659767,-0.04673115536570549,0.007330377586185932
1711550888149888800,18.851888671875,-0.03543015569448471,0.016187917441129684,-0.028405211865901947
1711550888168848100,18.87084814453125,-0.032070402055978775,0.019853105768561363,-0.04764745384454727
1711550888187807700,18.889807861328126,0.008552107028663158,0.03695731982588768,-0.09285144507884979
1711550888206767400,18.908767333984375,0.008552107028663158,0.023518294095993042,-0.13041962683200836
1711550888225727000,18.92772705078125,-0.034208428114652634,0.008552107028663158,-0.1282816082239151
1711550888244686600,18.9466865234375,-0.04245510324835777,0.005192350596189499,-0.10751219838857651
1711550888263646000,18.96564599609375,-0.00946840364485979,-0.005803215317428112,-0.06902772188186646
1711550888282605600,18.98460546875,0.0015271619195118546,-0.02718348242342472,-0.01954767294228077
1711550888301565200,19.003565185546876,-0.013439024798572063,-0.043982263654470444,0.025045456364750862
1711550888320524500,19.022524658203125,-0.01893680728971958,-0.034208428114652634,0.036651886999607086
1711550888339484200,19.041484130859374,-0.01740964688360691,-0.03145953640341759,0.04062250629067421
1711550888358443800,19.06044384765625,-0.019853105768561363,-0.03237583488225937,0.040317077189683914
1711550888377403100,19.079403076171875,-0.009773836471140385,-0.030543239787220955,0.023212861269712448
1711550888396362800,19.09836279296875,-0.007635809946805239,-0.016187917441129684,-0.005192350596189499
1711550888415322400,19.117322265625,-0.015577051788568497,-0.007941242307424545,-0.029016077518463135
1711550888434282000,19.136281982421874,-0.017715077847242355,-0.0054977829568088055,-0.0412333719432354
1711550888453241600,19.15524169921875,-0.0204639695584774,-0.006719512399286032,-0.051618073135614395
1711550888472201000,19.174200927734375,-0.024740023538470268,0.0015271619195118546,-0.06505709886550903
1711550888491160600,19.19316064453125,-0.025961752980947495,0.03543015569448471,-0.07849612087011337
1711550888510120000,19.212119873046873,-0.025350889191031456,0.06291907280683517,-0.08277218043804169
1711550888529079600,19.23107958984375,-0.024740023538470268,0.05100720748305321,-0.07147117704153061
1711550888548039200,19.2500390625,-0.023518294095993042,0.007024944759905338,-0.05253437161445618
1711550888566998800,19.268998779296876,-0.02260199747979641,-0.029016077518463135,-0.0360410213470459
1711550888585958100,19.287958251953125,-0.014660755172371864,-0.04153880476951599,-0.02626718580722809
1711550888604917800,19.306917724609374,-0.016187917441129684,-0.029016077518463135,-0.012217295356094837
1711550888623877400,19.32587744140625,-0.032681263983249664,-0.020158538594841957,0.003359756199643016
1711550888642836700,19.344836669921875,-0.03695731982588768,-0.003970621153712273,0.0021380267571657896
1711550888661796400,19.36379638671875,-0.006414080038666725,0.03023780696094036,-0.025961752980947495
1711550888680756000,19.382755859375,0.010690134018659592,0.014966187067329884,-0.021991131827235222
1711550888699715300,19.40171533203125,-0.00946840364485979,-0.021380268037319183,-0.026572618633508682
1711550888718675000,19.420675048828127,-0.003359756199643016,-0.05864302068948746,-0.04001164436340332
1711550888737634600,19.439634521484376,0.03543015569448471,-0.05925388261675835,-0.057726722210645676
1711550888756594000,19.458593994140625,0.029626941308379173,-0.014966187067329884,-0.06597339361906052
1711550888775553500,19.477553466796873,0.007024944759905338,0.02260199747979641,-0.057726722210645676
1711550888794513200,19.49651318359375,0.007330377586185932,0.043371398001909256,-0.044898562133312225
1711550888813472500,19.515472412109375,0.010995565913617611,0.029016077518463135,-0.022296564653515816
1711550888832432000,19.53443212890625,0.008552107028663158,0.008552107028663158,-0.010079269297420979
1711550888851391700,19.553391845703125,0.016187917441129684,-0.022296564653515816,0.004276053514331579
1711550888870351000,19.57235107421875,0.007024944759905338,-0.056199558079242706,0.023212861269712448
1711550888889310700,19.591310791015626,-0.007024944759905338,-0.060781046748161316,0.03176496922969818
1711550888908270300,19.610270263671875,-0.01435532234609127,-0.05558869615197182,0.00946840364485979
1711550888927229700,19.629229736328124,-0.012217295356094837,-0.0256563201546669,-0.023823726922273636
1711550888946189300,19.648189208984373,-0.028405211865901947,-0.002443459117785096,-0.05711585655808449
1711550888965148700,19.667148681640626,-0.0616973415017128,0.000610864779446274,-0.07299833744764328
1711550888984108300,19.6861083984375,-0.08552107214927673,0.06444623321294785,-0.09315688163042068
1711550889003068000,19.70506787109375,-0.09346231073141098,0.10995566099882126,-0.11575887352228165
1711550889022027300,19.72402734375,-0.09315688163042068,0.09987638890743256,-0.12705987691879272
1711550889040987000,19.74298681640625,-0.05558869615197182,0.05742128938436508,-0.09498947113752365
1711550889059946500,19.761946533203126,0.03298669680953026,0.04214967042207718,-0.0769689604640007
1711550889078905900,19.78090576171875,0.08582650125026703,0.05070177838206291,-0.07910698652267456
1711550889097865500,19.799865478515624,0.05803215503692627,0.05253437161445618,-0.0818558782339096
1711550889116824800,19.818824951171877,0.035124726593494415,0.07574722915887833,-0.10231985151767731
1711550889135784400,19.837784423828126,0.01954767294228077,0.057726722210645676,-0.07941242307424545
1711550889154744000,19.856744140625,0.01802051067352295,0.0030543238390237093,-0.036651886999607086
1711550889173703400,19.875703369140624,0.06627883017063141,-0.05894844979047775,-0.001832594396546483
1711550889192663000,19.8946630859375,0.11056652665138245,-0.08338304609060287,0.01649334840476513
1711550889211622400,19.913622314453125,0.09498947113752365,-0.07819069176912308,0.035124726593494415
1711550889230582000,19.93258203125,0.05894844979047775,-0.05955931544303894,0.03329212963581085
1711550889249541400,19.951541259765627,0.040317077189683914,-0.036651886999607086,0.009162971749901772
1711550889268501000,19.9705009765625,0.03390299528837204,-0.004276053514331579,-0.04459312930703163
1711550889287460600,19.989460693359376,0.02718348242342472,0.021380268037319183,-0.08613193035125732
1711550889306420000,20.008419921875,0.031154103577136993,0.03817904740571976,-0.10048725455999374
1711550889325379600,20.027379638671874,0.04428769648075104,0.04062250629067421,-0.1130099818110466
1711550889344339000,20.0463388671875,0.035124726593494415,0.02718348242342472,-0.09651663154363632
1711550889363298600,20.065298583984376,0.031154103577136993,0.02412915788590908,-0.07513637095689774
1711550889382258000,20.0842578125,0.049480047076940536,0.051618073135614395,-0.07605266571044922
1711550889401217500,20.103217529296874,0.05406153202056885,0.06872228533029556,-0.06994401663541794
1711550889420177000,20.122177001953126,0.050090912729501724,0.08582650125026703,-0.05558869615197182
1711550889439136500,20.141136474609375,0.04214967042207718,0.06750056147575378,-0.025961752980947495
1711550889458095900,20.160095947265624,0.02107483521103859,0.02626718580722809,0.016798781231045723
1711550889477055500,20.179055419921873,-0.007941242307424545,0.0054977829568088055,0.05406153202056885
1711550889496015000,20.19801513671875,-0.01588248461484909,0.001832594396546483,0.05406153202056885
1711550889514974500,20.216974365234375,-0.01802051067352295,-0.030543239787220955,0.05864302068948746
1711550889533934000,20.23593408203125,-0.04520399495959282,0.001832594396546483,0.09804379940032959
1711550889552893400,20.2548935546875,-0.09590577334165573,0.07269290834665298,0.12950333952903748
1711550889571853000,20.27385302734375,-0.09834922850131989,0.13988803327083588,0.11667517572641373
1711550889590812400,20.2928125,-0.0360410213470459,0.18784092366695404,0.05833758786320686
1711550889609772000,20.31177197265625,0.01435532234609127,0.18631376326084137,0.06902772188186646
1711550889628731400,20.3307314453125,0.003665188793092966,0.19944734871387482,0.0821613147854805
1711550889647691000,20.34969091796875,-0.035124726593494415,0.16096286475658417,0.07910698652267456
1711550889666650400,20.368650390625,-0.06200277432799339,0.11545344442129135,0.061391908675432205
1711550889685610000,20.38760986328125,-0.029016077518463135,0.12217295914888382,0.02932151034474373
1711550889704569300,20.4065693359375,0.06108647957444191,0.129197895526886,-0.0027488914784044027
1711550889723529000,20.425529052734376,0.10476330667734146,0.17226386070251465,-0.0513126403093338
1711550889742488300,20.44448828125,0.04428769648075104,0.19853104650974274,-0.12186752259731293
1711550889761448000,20.463447998046874,-0.023823726922273636,0.1588248461484909,-0.17715078592300415
1711550889780407300,20.4824072265625,-0.016187917441129684,0.13072505593299866,-0.21899501979351044
1711550889799367000,20.501366943359375,-0.029016077518463135,0.13469567894935608,-0.22724169492721558
1711550889818326300,20.520326171875,-0.10445787757635117,0.07819069176912308,-0.18845178186893463
1711550889837285600,20.53928564453125,-0.08368847519159317,-0.0030543238390237093,-0.15790854394435883
1711550889856245200,20.558245361328126,0.012217295356094837,-0.039706211537122726,-0.10445787757635117
1711550889875204600,20.57720458984375,0.0461202897131443,-0.007941242307424545,-0.009162971749901772
1711550889894164200,20.596164306640624,0.01588248461484909,0.08552107214927673,0.10629047453403473
1711550889913123600,20.61512353515625,0.046425722539424896,0.18753549456596375,0.18142683804035187
1711550889932083200,20.634083251953125,0.1282816082239151,0.2629773020744324,0.20830489695072174
1711550889951042600,20.65304248046875,0.10903936624526978,0.3170388340950012,0.18845178186893463
1711550889970002200,20.672002197265623,-0.02718348242342472,0.28985533118247986,0.13652828335762024
1711550889988961500,20.69096142578125,-0.1130099818110466,0.19761475920677185,0.05100720748305321
1711550890007921000,20.7099208984375,-0.08979712426662445,0.07544180005788803,-0.04764745384454727
1711550890026880500,20.728880615234374,-0.0461202897131443,0.021380268037319183,-0.1230892539024353
1711550890045840000,20.74783984375,-0.0821613147854805,0.03145953640341759,-0.164322629570961
1711550890064799500,20.766799560546875,-0.11331541836261749,0.05100720748305321,-0.1279761642217636
1711550890083758800,20.7857587890625,-0.07971785217523575,0.06108647957444191,-0.053756099194288254
1711550890102718500,20.804718505859373,-0.03329212963581085,0.07483093440532684,-0.023518294095993042
1711550890121677800,20.823677734375,-0.04825831577181816,0.05436696484684944,0.013744457624852657
1711550890140637200,20.84263720703125,-0.1185077652335167,0.03787361457943916,0.05436696484684944
1711550890159596800,20.8615966796875,-0.12583814561367035,0.03940077871084213,0.0824667438864708
1711550890178556200,20.88055615234375,-0.050090912729501724,0.035735588520765305,0.1029307171702385
1711550890197515500,20.899515625,-0.018631376326084137,0.026572618633508682,0.11117739230394363
1711550890216475100,20.91847509765625,-0.07605266571044922,0.015577051788568497,0.08002328872680664
1711550890235434500,20.9374345703125,-0.09896009415388107,-0.005803215317428112,0.03909534588456154
1711550890254394000,20.95639404296875,-0.03848448023200035,0.009773836471140385,-0.005192350596189499
1711550890273353500,20.975353515625,-0.003665188793092966,0.044898562133312225,-0.03390299528837204
1711550890292312800,20.994312744140625,-0.02871064469218254,0.08032871782779694,-0.06902772188186646
1711550890311272400,21.0132724609375,-0.0766635313630104,0.10079269111156464,-0.059864748269319534
1711550890330231800,21.032231689453123,-0.06261363625526428,0.1646280586719513,-0.04214967042207718
1711550890349191400,21.05119140625,-0.01282816007733345,0.18723005056381226,-0.017104214057326317
1711550890368150800,21.07015087890625,0.02779434807598591,0.19242240488529205,-0.001221729558892548
1711550890387110400,21.0891103515625,-0.013744457624852657,0.17592905461788177,0.013133592903614044
1711550890406069800,21.10806982421875,-0.10109812021255493,0.12003492563962936,0.012217295356094837
1711550890425029000,21.127029052734375,-0.0974329337477684,0.11881320178508759,0.021380268037319183
1711550890443988700,21.14598876953125,-0.019853105768561363,0.09468404203653336,0.014966187067329884
1711550890462948000,21.164947998046873,0.01954767294228077,0.0513126403093338,0.028099779039621353
1711550890481907700,21.18390771484375,0.019242240116000175,0.08826996386051178,-0.013133592903614044
1711550890500867000,21.2028671875,-0.011300998739898205,0.09162971377372742,-0.025350889191031456
1711550890519826400,21.221826416015624,-0.03390299528837204,0.09285144507884979,-0.010384701192378998
1711550890538786000,21.2407861328125,-0.017715077847242355,0.06200277432799339,-0.014049889519810677
1711550890557745400,21.259745361328125,-0.010384701192378998,-0.02871064469218254,-0.015271619893610477
1711550890576705000,21.278705078125,-0.002443459117785096,-0.07055488228797913,-0.029932374134659767
1711550890595664400,21.297664306640623,-0.002443459117785096,-0.08491020649671555,-0.051618073135614395
1711550890614623700,21.316623779296876,0.005803215317428112,-0.0769689604640007,-0.05711585655808449
1711550890633583400,21.335583251953125,0.04153880476951599,-0.021991131827235222,-0.04917461425065994
1711550890652542700,21.354542724609374,0.036651886999607086,0.04459312930703163,-0.05864302068948746
1711550890671502000,21.373502197265626,-0.013439024798572063,0.08124501258134842,-0.05803215503692627
1711550890690461700,21.392461669921875,-0.039706211537122726,0.05436696484684944,-0.060781046748161316
1711550890709421000,21.411421142578124,-0.018325943499803543,-0.0015271619195118546,-0.09560033679008484
1711550890728380400,21.43038037109375,0.021991131827235222,0.012217295356094837,-0.11362084746360779
1711550890747340000,21.449340087890626,0.04062250629067421,0.0977383628487587,-0.11453714966773987
1711550890766299400,21.46829931640625,0.02779434807598591,0.16340632736682892,-0.1026252806186676
1711550890785259000,21.487259033203124,-0.009773836471140385,0.20769402384757996,-0.08582650125026703
1711550890804218400,21.50621826171875,-0.047952886670827866,0.20922118425369263,-0.07910698652267456
1711550890823177700,21.525177734375,-0.0360410213470459,0.19211697578430176,-0.08796452730894089
1711550890842137300,21.544137451171874,-0.002443459117785096,0.1383608728647232,-0.07147117704153061
1711550890861096700,21.5630966796875,0.012217295356094837,0.06719512492418289,-0.0204639695584774
1711550890880056300,21.582056396484376,0.020158538594841957,0.0616973415017128,0.0030543238390237093
1711550890899015700,21.601015625,0,0.07574722915887833,-0.0030543238390237093
1711550890917975000,21.61997509765625,-0.018631376326084137,0.10231985151767731,0.0030543238390237093
1711550890936934700,21.6389345703125,-0.006719512399286032,0.10873392969369888,-0.003665188793092966
1711550890955894000,21.65789404296875,0.03543015569448471,0.01649334840476513,-0.000610864779446274
1711550890974853600,21.676853515625,0.06719512492418289,-0.05253437161445618,-0.009773836471140385
1711550890993813000,21.69581298828125,0.06017018109560013,-0.04581485688686371,-0.03909534588456154
1711550891012772400,21.7147724609375,0.012522728182375431,-0.004276053514331579,-0.03481929376721382
1711550891031732000,21.73373193359375,0.0015271619195118546,0.10140355676412582,-0.016187917441129684
1711550891050691300,21.75269140625,0.02932151034474373,0.17195843160152435,-0.028405211865901947
1711550891069651000,21.77165087890625,0.028099779039621353,0.11423171311616898,-0.05558869615197182
1711550891088610300,21.7906103515625,0.013439024798572063,-0.005803215317428112,-0.047036588191986084
1711550891107569700,21.809569580078126,0.03940077871084213,-0.07849612087011337,-0.009773836471140385
1711550891126529300,21.828529296875,0.05864302068948746,-0.10751219838857651,-0.002443459117785096
1711550891145488600,21.847488525390624,0.021685699000954628,-0.08307760953903198,-0.02260199747979641
1711550891164448300,21.8664482421875,0.0015271619195118546,-0.02932151034474373,-0.05711585655808449
1711550891183407600,21.88540771484375,0.012217295356094837,0.023823726922273636,-0.06872228533029556
1711550891202367000,21.904366943359374,0.01435532234609127,0.04245510324835777,-0.07941242307424545
1711550891221326600,21.92332666015625,0.001221729558892548,0.011911863461136818,-0.1178968995809555
1711550891240286000,21.942285888671876,-0.022296564653515816,0.006414080038666725,-0.1441640853881836
1711550891259245300,21.961245361328125,-0.013133592903614044,0.028099779039621353,-0.16279546916484833
1711550891278205000,21.980204833984374,0.03451386094093323,0.037262752652168274,-0.1701258420944214
1711550891297164300,21.999164306640626,0.04764745384454727,0.034208428114652634,-0.15546508133411407
1711550891316124000,22.0181240234375,0.009773836471140385,-0.0054977829568088055,-0.1444695144891739
1711550891335083300,22.037083251953124,-0.019853105768561363,-0.08277218043804169,-0.10079269111156464
1711550891354043000,22.05604296875,-0.004276053514331579,-0.15790854394435883,-0.0308486707508564
1711550891373002200,22.075002197265626,0.036651886999607086,-0.19272783398628235,0.0412333719432354
1711550891391961600,22.093961669921875,0.07757982611656189,-0.14538581669330597,0.05742128938436508
1711550891410921200,22.112921142578124,0.04825831577181816,-0.11575887352228165,0.09834922850131989
1711550891429880600,22.131880615234376,-0.011300998739898205,-0.13133592903614044,0.16035200655460358
1711550891448840200,22.150840087890625,-0.0054977829568088055,-0.18692462146282196,0.18203771114349365
1711550891467799600,22.169799560546874,0.06597339361906052,-0.2611446976661682,0.18203771114349365
1711550891486759200,22.18875927734375,0.12431098520755768,-0.2614501118659973,0.15302163362503052
1711550891505718500,22.207718505859376,0.0772743970155716,-0.17287473380565643,0.10873392969369888
1711550891524678000,22.226677978515625,-0.029932374134659767,-0.10384701192378998,0.060781046748161316
1711550891543637500,22.245637451171874,-0.0616973415017128,-0.07147117704153061,0.028099779039621353
1711550891562596900,22.264596923828126,0.015271619893610477,-0.050090912729501724,0.015577051788568497
1711550891581556500,22.283556396484375,0.0461202897131443,-0.06933315098285675,-0.008857538923621178
1711550891600515800,22.302515869140624,-0.01282816007733345,-0.11209368705749512,-0.02626718580722809
1711550891619475500,22.321475341796877,-0.07971785217523575,-0.1340848207473755,-0.028099779039621353
1711550891638434800,22.340434814453126,-0.08979712426662445,-0.15027274191379547,0.008246674202382565
1711550891657394200,22.359394287109374,-0.054672397673130035,-0.17165300250053406,0.06811141967773438
1711550891676353800,22.378353759765623,-0.0054977829568088055,-0.16584978997707367,0.1029307171702385
1711550891695313200,22.397313232421876,0.025961752980947495,-0.14080433547496796,0.10231985151767731
1711550891714272500,22.4162724609375,0.005803215317428112,-0.13927717506885529,0.07788526266813278
1711550891733232000,22.435232177734374,-0.013744457624852657,-0.1328630894422531,0.05528326332569122
1711550891752191500,22.45419140625,-0.016187917441129684,-0.11942406743764877,0.06108647957444191
1711550891771151000,22.473151123046875,-0.0054977829568088055,-0.09712749719619751,0.05345066636800766
1711550891790110500,22.4921103515625,0.023518294095993042,-0.07483093440532684,0.02260199747979641
1711550891809070000,22.511070068359373,0.020769402384757996,-0.07086031138896942,-0.009773836471140385
1711550891828029400,22.530029541015626,0.002443459117785096,-0.06719512492418289,-0.024740023538470268
1711550891846989000,22.548989013671875,-0.016798781231045723,-0.06475166976451874,-0.03237583488225937
1711550891865948400,22.567948486328124,-0.017104214057326317,-0.12247838824987411,-0.001221729558892548
1711550891884908000,22.586907958984376,0.010690134018659592,-0.17104214429855347,0.039706211537122726
1711550891903867400,22.605867431640625,0.04306596517562866,-0.16584978997707367,0.07788526266813278
1711550891922827000,22.624826904296874,0.061391908675432205,-0.1438586562871933,0.09346231073141098
1711550891941786400,22.643786376953123,0.035735588520765305,-0.14996729791164398,0.11209368705749512
1711550891960745700,22.662745849609376,-0.0204639695584774,-0.17898337543010712,0.14049890637397766
1711550891979705300,22.681705322265625,-0.0668896958231926,-0.2617555558681488,0.1744018942117691
1711550891998664700,22.700664794921874,-0.056199558079242706,-0.34727662801742554,0.1954767256975174
1711550892017624000,22.7196240234375,-0.025961752980947495,-0.36835145950317383,0.185092031955719
1711550892036583700,22.738583740234375,-0.004886918235570192,-0.3659079968929291,0.16310089826583862
1711550892055543000,22.75754296875,0.0027488914784044027,-0.3536907136440277,0.13255766034126282
1711550892074502700,22.776502685546873,-0.005192350596189499,-0.29596397280693054,0.0974329337477684
1711550892093462000,22.7954619140625,-0.026572618633508682,-0.24709481000900269,0.06383536756038666
1711550892112421600,22.814421630859375,-0.0409279391169548,-0.1951712965965271,0.06597339361906052
1711550892131381000,22.833381103515624,-0.04062250629067421,-0.18112140893936157,0.08888082206249237
1711550892150340600,22.852340576171876,-0.02107483521103859,-0.16096286475658417,0.07635809481143951
1711550892169300000,22.871300048828125,-0.020158538594841957,-0.17287473380565643,0.05192350596189499
1711550892188259600,22.890259521484374,-0.000610864779446274,-0.2052505612373352,0.029626941308379173
1711550892207219000,22.909218994140623,0.054672397673130035,-0.18600831925868988,0.005192350596189499
1711550892226178600,22.928178466796876,0.0720820426940918,-0.14630211889743805,-0.003359756199643016
1711550892245138000,22.947137939453125,0.04764745384454727,-0.129197895526886,-0.004276053514331579
1711550892264097500,22.96609765625,-0.0015271619195118546,-0.14721840620040894,0.009773836471140385
1711550892283057000,22.985056884765626,-0.025045456364750862,-0.18234314024448395,0.004276053514331579
1711550892302016300,23.004016357421875,-0.01802051067352295,-0.22785256803035736,0.021685699000954628
1711550892320976000,23.022975830078124,-0.011606430634856224,-0.24251331388950348,0.05864302068948746
1711550892339935200,23.041935302734377,-0.02412915788590908,-0.24923282861709595,0.11759147047996521
1711550892358894800,23.060894775390626,-0.01649334840476513,-0.2409861534833908,0.1597411334514618
1711550892377854200,23.079854248046875,-0.010690134018659592,-0.2202167510986328,0.1744018942117691
1711550892396813800,23.098813720703124,-0.021380268037319183,-0.17134757339954376,0.17256930470466614
1711550892415773200,23.117773193359376,-0.009162971749901772,-0.13530655205249786,0.16126830875873566
