time,seconds_elapsed,z,y,x
1710956573592558300,0.109558349609375,-0.5946768522262573,-4.319119453430176,-0.21197007596492767
1710956573611517000,0.128516845703125,-1.2693769931793213,-4.345081329345703,-0.3582721948623657
1710956573630475500,0.1474755859375,-1.8671082258224487,-4.305069446563721,-0.6826413869857788
1710956573649434000,0.16643408203125,-1.5515965223312378,-4.000247955322266,-1.0769546031951904
1710956573668392700,0.185392822265625,-1.5277727842330933,-3.4107635021209717,-1.3213005065917969
1710956573687351300,0.204351318359375,-2.1221442222595215,-3.05432391166687,-1.433088779449463
1710956573706310000,0.223309814453125,-2.445291757583618,-3.02286434173584,-1.648418664932251
1710956573725268500,0.2422685546875,-2.6056437492370605,-2.995069980621338,-1.924834966659546
1710956573744227000,0.26122705078125,-2.595869779586792,-3.1108288764953613,-2.235764980316162
1710956573763185700,0.280185546875,-2.514624834060669,-3.322493553161621,-2.618166446685791
1710956573782144300,0.299144287109375,-2.5127923488616943,-3.598299026489258,-3.1120505332946777
1710956573801102800,0.318102783203125,-2.4944663047790527,-3.928471326828003,-3.5417940616607666
1710956573820061400,0.3370615234375,-2.371987819671631,-4.152353286743164,-3.864025115966797
1710956573839020000,0.35602001953125,-2.1520767211914062,-4.134027481079102,-4.032929420471191
1710956573857978600,0.374978515625,-1.9477423429489136,-3.8912086486816406,-4.103484153747559
1710956573876937200,0.393937255859375,-1.7678426504135132,-3.495673656463623,-4.11906099319458
1710956573895895800,0.412895751953125,-1.542128086090088,-2.995986223220825,-4.099819183349609
1710956573914854400,0.4318544921875,-1.3078614473342896,-2.4715588092803955,-3.9825329780578613
1710956573933813200,0.450813232421875,-1.0106757879257202,-1.9520183801651,-3.7907214164733887
1710956573952771600,0.469771484375,-0.6823359727859497,-1.3912445306777954,-3.623955249786377
1710956573971730400,0.48873046875,-0.5974257588386536,-0.8857539296150208,-3.518275737762451
1710956573990688800,0.507688720703125,-0.5427533388137817,-0.34605491161346436,-3.1331255435943604
1710956574009647600,0.526647705078125,-0.5293143391609192,-0.010384701192378998,-2.7901248931884766
1710956574028606000,0.54560595703125,-0.5937605500221252,0.032681263983249664,-2.187812089920044
1710956574047564800,0.564564697265625,-0.4761691093444824,-0.22357651591300964,-1.592524528503418
1710956574066523100,0.583523193359375,-0.16126830875873566,-0.7043271064758301,-1.2235621213912964
1710956574085482000,0.60248193359375,0.04550942778587341,-0.8897245526313782,-0.9184352159500122
1710956574104440300,0.6214404296875,0.09407317638397217,-0.5693259835243225,-0.5757400393486023
1710956574123399000,0.64039892578125,0.09285144507884979,0.0308486707508564,-0.17806708812713623
1710956574142357500,0.659357421875,-0.01740964688360691,0.6224712133407593,0.2528980076313019
1710956574161316400,0.67831640625,-0.09834922850131989,0.9199623465538025,0.6029235124588013
1710956574180274700,0.697274658203125,-0.056810423731803894,0.9178243279457092,0.8723149299621582
1710956574199233500,0.716233642578125,-0.06902772188186646,0.8081740736961365,1.1029163599014282
1710956574218192000,0.73519189453125,-0.05039634555578232,0.6676751971244812,1.194546103477478
1710956574237150700,0.754150634765625,-0.004886918235570192,0.5369501113891602,1.2751802206039429
1710956574256109000,0.773109130859375,-0.014660755172371864,0.45326167345046997,1.3988803625106812
1710956574275068000,0.79206787109375,0.08643736690282822,0.2208276242017746,1.2932007312774658
1710956574294026200,0.811026123046875,0.2889390289783478,0.05283980444073677,0.9126319885253906
1710956574312985000,0.829985107421875,0.28985533118247986,0.08277218043804169,0.5192350745201111
1710956574331943400,0.848943359375,0.19150610268115997,0.27580544352531433,0.1744018942117691
1710956574350902300,0.86790234375,0.21197007596492767,0.5320632457733154,-0.2006690800189972
1710956574369860600,0.886860595703125,0.15821397304534912,0.7076868414878845,-0.6032289862632751
1710956574388819500,0.9058193359375,-0.09040798991918564,0.5174024701118469,-1.0051779747009277
1710956574407778000,0.924778076171875,-0.34208428859710693,0.1588248461484909,-1.2565488815307617
1710956574426736600,0.943736572265625,-0.500298261642456,-0.23976442217826843,-1.3683371543884277
1710956574445695200,0.9626953125,-0.5378664135932922,-0.5320632457733154,-1.4578287601470947
1710956574464653800,0.98165380859375,-0.5180133581161499,-0.7024945020675659,-1.443168044090271
1710956574483612400,1.0006123046875,-0.2577849328517914,-0.5955931544303894,-1.4737112522125244
1710956574502571000,1.019571044921875,0.030543239787220955,-0.07330377399921417,-1.284037709236145
1710956574521529600,1.038529541015625,0.04062250629067421,0.5717694163322449,-1.0118975639343262
1710956574540488200,1.05748828125,-0.1948658674955368,1.1053597927093506,-0.8103121519088745
1710956574559446800,1.07644677734375,-0.3402516841888428,1.2904518842697144,-0.574212908744812
1710956574578405400,1.0954052734375,-0.19272783398628235,1.2541054487228394,-0.2776380479335785
1710956574597364000,1.114364013671875,-0.09040798991918564,1.2828160524368286,0.04367683082818985
1710956574616322800,1.13332275390625,-0.3170388340950012,1.4920371770858765,0.4202749729156494
1710956574635281400,1.152281494140625,-0.6395754218101501,1.9178099632263184,0.842382550239563
1710956574654240000,1.171239990234375,-0.6835576891899109,2.3145666122436523,1.1701115369796753
1710956574673198600,1.190198486328125,-0.7822123765945435,2.2314889430999756,1.3753620386123657
1710956574692157200,1.2091572265625,-0.9495893120765686,1.600771188735962,1.4196497201919556
1710956574711115800,1.22811572265625,-0.8148936033248901,0.6646208763122559,1.3585633039474487
1710956574730074400,1.247074462890625,-0.5681042671203613,-0.07910698652267456,1.1588104963302612
1710956574749033000,1.266032958984375,-0.430659681558609,-0.5943714380264282,1.0290017127990723
1710956574767991600,1.284991455078125,-0.25473061203956604,-0.5479456782341003,0.9034690260887146
1710956574786950400,1.303950439453125,0.10934479534626007,-0.043982263654470444,0.6371319890022278
1710956574805908700,1.32290869140625,0.3087921440601349,0.43860089778900146,0.5293143391609192
1710956574824867600,1.34186767578125,0.5094612240791321,0.6001746654510498,0.5781835317611694
1710956574843826200,1.360826171875,0.7727439403533936,0.630107045173645,0.5482511520385742
1710956574862784800,1.37978466796875,0.8530726432800293,0.37293294072151184,0.43004879355430603
1710956574881743400,1.398743408203125,0.5473348498344421,-0.2419024556875229,0.23365578055381775
1710956574900702200,1.4177021484375,0.24006985127925873,-0.8826996088027954,0.13439024984836578
1710956574919660800,1.436660888671875,0.2364046722650528,-0.952643632888794,0.12278381735086441
1710956574938619400,1.455619384765625,0.22968515753746033,-0.5900954008102417,0.013133592903614044
1710956574957578000,1.474577880859375,0.013439024798572063,-0.2315177470445633,-0.11056652665138245
1710956574976536600,1.49353662109375,-0.24892739951610565,0.04367683082818985,-0.15760311484336853
1710956574995495400,1.512495361328125,-0.2929096519947052,0.2779434621334076,-0.11056652665138245
1710956575014454000,1.5314541015625,-0.20433427393436432,0.4205803871154785,-0.03023780696094036
1710956575033412600,1.55041259765625,-0.1389717310667038,0.3484983444213867,-0.021380268037319183
1710956575052371200,1.56937109375,-0.17104214429855347,0.08063415437936783,-0.010690134018659592
1710956575071329800,1.588329833984375,-0.23823726177215576,-0.10873392969369888,0.07147117704153061
1710956575090288600,1.60728857421875,-0.2110537886619568,-0.05925388261675835,0.06811141967773438
1710956575109247200,1.626247314453125,-0.2009745091199875,0.0668896958231926,0.03329212963581085
1710956575128205800,1.645205810546875,-0.1997527778148651,0.37659814953804016,0.14294235408306122
1710956575147164400,1.664164306640625,-0.47525280714035034,0.8710931539535522,0.2868010103702545
1710956575166123000,1.683123046875,-0.7061597108840942,1.0140355825424194,0.22754712402820587
1710956575185081900,1.702081787109375,-0.7330377101898193,0.880256175994873,0.051618073135614395
1710956575204040400,1.72104052734375,-0.5653553605079651,0.49663305282592773,-0.2000582218170166
1710956575222999000,1.7399990234375,-0.5723803043365479,0.003970621153712273,-0.46547895669937134
1710956575241957600,1.75895751953125,-0.7327322959899902,-0.06750056147575378,-0.6246092319488525
1710956575260916500,1.77791650390625,-0.897665798664093,0.15210533142089844,-0.6178897023200989
1710956575279875000,1.796875,-0.9505056142807007,0.47433650493621826,-0.5662716627120972
1710956575298833700,1.815833740234375,-0.9251546859741211,0.5693259835243225,-0.49480047821998596
1710956575317792500,1.83479248046875,-0.851545512676239,0.2932150959968567,-0.4214966893196106
1710956575336751000,1.853751220703125,-0.6035344004631042,-0.17898337543010712,-0.45509424805641174
1710956575355709700,1.872709716796875,-0.46486809849739075,-0.5894845128059387,-0.4526508152484894
1710956575374668500,1.89166845703125,-0.36774060130119324,-0.7473930716514587,-0.425467312335968
1710956575393627100,1.910627197265625,-0.2516762912273407,-0.7727439403533936,-0.3961458206176758
1710956575412585700,1.929585693359375,-0.006414080038666725,-0.5977311730384827,-0.4425715208053589
1710956575431544300,1.94854443359375,0.23548837006092072,-0.31184646487236023,-0.44990190863609314
1710956575450503200,1.967503173828125,0.28954991698265076,-0.06200277432799339,-0.41447174549102783
1710956575469461800,1.986461669921875,0.42882707715034485,0.14721840620040894,-0.3228420317173004
1710956575488420400,2.00542041015625,0.5873464941978455,0.3335321843624115,-0.24892739951610565
1710956575507379000,2.02437890625,0.6704241037368774,0.4474584460258484,-0.25870123505592346
1710956575526337800,2.043337890625,0.6884446144104004,0.3481929302215576,-0.2779434621334076
1710956575545296400,2.06229638671875,0.6899717450141907,0.2577849328517914,-0.13133592903614044
1710956575564255000,2.0812548828125,0.5335903763771057,0.4361574649810791,0.0412333719432354
1710956575583213800,2.1002138671875,0.24373504519462585,0.4886918365955353,0.09101885557174683
1710956575602172400,2.11917236328125,0.057726722210645676,0.3897317349910736,0.2926042377948761
1710956575621131300,2.13813134765625,-0.07452550530433655,0.1853974610567093,0.49571678042411804
1710956575640089900,2.15708984375,-0.16829325258731842,-0.2309068888425827,0.47097674012184143
1710956575659048400,2.17604833984375,-0.2101374864578247,-0.6414080262184143,0.3949240744113922
1710956575678007300,2.19500732421875,-0.09560033679008484,-0.8674280047416687,0.22174391150474548
1710956575696966000,2.2139658203125,-0.013133592903614044,-0.8967494964599609,0.10048725455999374
1710956575715924500,2.232924560546875,-0.0821613147854805,-0.6777544617652893,0.00946840364485979
1710956575734883300,2.25188330078125,-0.27030766010284424,-0.39370235800743103,-0.07024945318698883
1710956575753842000,2.270842041015625,-0.383928507566452,-0.337808221578598,-0.12156209349632263
1710956575772800500,2.289800537109375,-0.38698282837867737,-0.44409868121147156,-0.18173226714134216
1710956575791759400,2.30875927734375,-0.3283398151397705,-0.6875283122062683,-0.17684535682201385
1710956575810718000,2.327718017578125,-0.32131487131118774,-0.767551600933075,-0.05497783049941063
1710956575829676800,2.3466767578125,-0.3194822669029236,-0.6420188546180725,0.024740023538470268
1710956575848635400,2.365635498046875,-0.28008151054382324,-0.42852163314819336,0.059864748269319534
1710956575867594200,2.38459423828125,-0.21288637816905975,-0.22418737411499023,0.13591741025447845
1710956575886552800,2.403552734375,-0.1081230640411377,-0.03940077871084213,0.22663083672523499
1710956575905511700,2.42251171875,0.015271619893610477,0.10751219838857651,0.3249800503253937
1710956575924470300,2.44147021484375,0.08826996386051178,0.20189081132411957,0.35582873225212097
1710956575943428900,2.460428955078125,0.09651663154363632,0.26542073488235474,0.3814850449562073
1710956575962387700,2.4793876953125,0.10170898586511612,0.33505934476852417,0.42974337935447693
1710956575981346300,2.49834619140625,0.11606431007385254,0.3790415823459625,0.46608981490135193
1710956576000305000,2.517304931640625,0.12522727251052856,0.3894262909889221,0.4923570156097412
1710956576019263700,2.536263671875,0.1130099818110466,0.3222311735153198,0.5128209590911865
1710956576038222300,2.555222412109375,0.11026109009981155,0.2620609998703003,0.528092622756958
1710956576057181200,2.57418115234375,0.15088360011577606,0.22510367631912231,0.5259546041488647
1710956576076139800,2.593139892578125,0.15515965223312378,0.2367101013660431,0.5610793232917786
1710956576095098600,2.6120986328125,0.09865466505289078,0.21319180727005005,0.5491674542427063
1710956576114057200,2.63105712890625,0.03695731982588768,0.11423171311616898,0.4657844007015228
1710956576133015800,2.650015869140625,0.023518294095993042,0.0616973415017128,0.37720900774002075
1710956576151974700,2.668974609375,0.07055488228797913,0.09621120244264603,0.3283398151397705
1710956576170933200,2.687933349609375,0.12492185086011887,0.18692462146282196,0.3402516841888428
1710956576189892000,2.70689208984375,0.13713914155960083,0.23487751185894012,0.3402516841888428
1710956576208850700,2.7258505859375,0.06108647957444191,0.2009745091199875,0.3023780584335327
1710956576227809500,2.7448095703125,-0.03023780696094036,0.13591741025447845,0.23793183267116547
1710956576246768000,2.76376806640625,-0.0256563201546669,0.1233946830034256,0.2110537886619568
1710956576265727000,2.78272705078125,0.04550942778587341,0.10048725455999374,0.19364413619041443
1710956576284685600,2.801685546875,0.0720820426940918,0.024434590712189674,0.17318016290664673
1710956576303644200,2.82064404296875,0.05711585655808449,-0.03145953640341759,0.17134757339954376
1710956576322603000,2.83960302734375,0.046425722539424896,-0.05253437161445618,0.1957821547985077
1710956576341561900,2.858561767578125,0.035735588520765305,-0.10965022444725037,0.20861032605171204
1710956576360520400,2.8775205078125,0.054672397673130035,-0.1698204129934311,0.2205221801996231
1710956576379479000,2.89647900390625,0.1383608728647232,-0.15699224174022675,0.20189081132411957
1710956576398438000,2.91543798828125,0.2052505612373352,-0.1805105358362198,0.21197007596492767
1710956576417396500,2.934396484375,0.168904110789299,-0.17073670029640198,0.26908594369888306
1710956576436355300,2.953355224609375,0.14660754799842834,-0.1331685185432434,0.34788748621940613
1710956576455314200,2.972314208984375,0.15729768574237823,-0.03940077871084213,0.3289506733417511
1710956576474272800,2.991272705078125,0.08857539296150208,-0.10323614627122879,0.32528549432754517
1710956576493231400,3.0102314453125,0.0717766135931015,-0.13255766034126282,0.3555232882499695
1710956576512190200,3.029190185546875,0.09437860548496246,-0.18570289015769958,0.3393353819847107
1710956576531148800,3.048148681640625,0.0668896958231926,-0.2767217457294464,0.281914085149765
1710956576550107600,3.067107666015625,0.030543239787220955,-0.34055712819099426,0.19792018830776215
1710956576569066200,3.086066162109375,0.039706211537122726,-0.3335321843624115,0.13775001466274261
1710956576588025000,3.105025146484375,0.08643736690282822,-0.3136790692806244,0.10537417232990265
1710956576606983700,3.123983642578125,0.10415244847536087,-0.3023780584335327,0.12034036219120026
1710956576625942500,3.142942626953125,0.07391463965177536,-0.3637699782848358,0.09957095980644226
1710956576644901000,3.161901123046875,0.04153880476951599,-0.4783071279525757,0.1078176349401474
1710956576663860000,3.18085986328125,-0.024434590712189674,-0.5451968312263489,0.13072505593299866
1710956576682818600,3.199818603515625,-0.09468404203653336,-0.5174024701118469,0.15118902921676636
1710956576701777400,3.21877734375,-0.13255766034126282,-0.4272999167442322,0.1484401375055313
1710956576720736300,3.237736328125,-0.12125665694475174,-0.33047783374786377,0.1533270627260208
1710956576739694800,3.25669482421875,-0.10354158282279968,-0.24037529528141022,0.1585194170475006
1710956576758653400,3.2756533203125,-0.0772743970155716,-0.12400554865598679,0.18692462146282196
1710956576777612300,3.2946123046875,-0.024434590712189674,-0.004276053514331579,0.26969680190086365
1710956576796571100,3.313571044921875,0.05345066636800766,-0.0021380267571657896,0.3555232882499695
1710956576815529700,3.33252978515625,0.09896009415388107,-0.06902772188186646,0.3860665261745453
1710956576834488300,3.35148828125,0.16859868168830872,-0.11209368705749512,0.4043924808502197
1710956576853447200,3.370447265625,0.3191768527030945,-0.1182023361325264,0.42821621894836426
1710956576872406000,3.389406005859375,0.457843154668808,-0.1588248461484909,0.42455101013183594
1710956576891364600,3.408364501953125,0.4862483739852905,-0.21471896767616272,0.3805687427520752
1710956576910323500,3.427323486328125,0.5467239618301392,-0.24312418699264526,0.37751442193984985
1710956576929282000,3.446281982421875,0.6499601006507874,-0.3585776388645172,0.34666576981544495
1710956576948241000,3.465240966796875,0.5751292109489441,-0.5244274139404297,0.29626941680908203
1710956576967199500,3.484199462890625,0.4575377106666565,-0.6450732350349426,0.2556469142436981
1710956576986158300,3.503158447265625,0.5247328281402588,-0.7932079434394836,0.2519817352294922
1710956577005117200,3.5221171875,0.6172788739204407,-0.989906370639801,0.20372340083122253
1710956577024075800,3.54107568359375,0.6856957077980042,-1.0965023040771484,0.1646280586719513
1710956577043034400,3.560034423828125,0.7892373204231262,-0.9544762372970581,0.1805105358362198
1710956577061993200,3.5789931640625,0.7644972801208496,-0.7464767694473267,0.21319180727005005
1710956577080952000,3.5979521484375,0.6151408553123474,-0.5904008150100708,0.2788597643375397
1710956577099910700,3.61691064453125,0.5222893953323364,-0.4266890585422516,0.27855435013771057
1710956577118869200,3.635869140625,0.4514290690422058,-0.42394015192985535,0.1798996776342392
1710956577137828000,3.654828125,0.35796675086021423,-0.6166679859161377,0.12278381735086441
1710956577156787000,3.673786865234375,0.38759371638298035,-0.7159335017204285,0.015577051788568497
1710956577175745500,3.69274560546875,0.4153880476951599,-0.8206968307495117,-0.1646280586719513
1710956577194704400,3.711704345703125,0.3390299379825592,-0.8717040419578552,-0.26542073488235474
1710956577213663200,3.730663330078125,0.2605338394641876,-0.8176425099372864,-0.33719736337661743
1710956577232621800,3.749621826171875,0.19822561740875244,-0.6484329700469971,-0.39675667881965637
1710956577251580400,3.768580322265625,0.1591302752494812,-0.48502662777900696,-0.4621191918849945
1710956577270539300,3.787539306640625,0.11881320178508759,-0.29626941680908203,-0.4159989058971405
1710956577289498000,3.806498046875,0.0030543238390237093,-0.0974329337477684,-0.2009745091199875
1710956577308456700,3.825456787109375,-0.0360410213470459,0.006719512399286032,-0.06719512492418289
1710956577327415600,3.84441552734375,0.043982263654470444,0.1230892539024353,0.006108647678047419
1710956577346374100,3.8633740234375,0.04886918142437935,0.10323614627122879,0.14477495849132538
1710956577365333000,3.8823330078125,0.11881320178508759,-0.037262752652168274,0.22754712402820587
1710956577384291600,3.90129150390625,0.20799945294857025,-0.18845178186893463,0.2522871494293213
1710956577403250400,3.92025048828125,0.24037529528141022,-0.42791077494621277,0.17623448371887207
1710956577422209300,3.939209228515625,0.20127993822097778,-0.7272345423698425,0.0668896958231926
1710956577441168000,3.95816796875,0.1853974610567093,-1.025336503982544,0.05192350596189499
1710956577460126700,3.977126708984375,0.10567960888147354,-1.2202024459838867,-0.005192350596189499
1710956577479085300,3.996085205078125,0.11484257876873016,-1.147204041481018,-0.04306596517562866
1710956577498044200,4.015044189453125,0.13011419773101807,-0.999069333076477,-0.16737695038318634
1710956577517003000,4.0340029296875,0.10537417232990265,-0.8429933786392212,-0.24373504519462585
1710956577535961600,4.052961669921875,0.2257145345211029,-0.462424635887146,-0.24312418699264526
1710956577554920200,4.071920166015625,0.20189081132411957,-0.13927717506885529,-0.18631376326084137
1710956577573879000,4.090879150390625,0.11575887352228165,0.02718348242342472,-0.16249002516269684
1710956577592838000,4.109837890625,-0.016187917441129684,0.12247838824987411,-0.14813470840454102
1710956577611796500,4.12879638671875,-0.05070177838206291,0.35094180703163147,-0.13194678723812103
1710956577630755300,4.14775537109375,-0.05589412897825241,0.7816014885902405,-0.14172062277793884
1710956577649714200,4.166714111328125,-0.05528326332569122,1.2272273302078247,-0.09804379940032959
1710956577668672800,4.1856728515625,-0.17104214429855347,1.4844014644622803,0.08002328872680664
1710956577687631600,4.204631591796875,-0.33231043815612793,1.426369309425354,0.2528980076313019
1710956577706590200,4.223590087890625,-0.4563159942626953,1.3274091482162476,0.3851502537727356
1710956577725549000,4.242549072265625,-0.5900954008102417,1.220813274383545,0.4276053309440613
1710956577744508000,4.2615078125,-0.6136136651039124,1.2455532550811768,0.5057960152626038
1710956577763466500,4.280466552734375,-0.425467312335968,1.5833615064620972,0.7199041247367859
1710956577782425000,4.299425048828125,-0.129197895526886,1.9034546613693237,0.8261946439743042
1710956577801384000,4.318384033203125,-0.11698060482740402,1.7321070432662964,0.9175189137458801
1710956577820342800,4.3373427734375,-0.3549124300479889,1.517388105392456,1.1615593433380127
1710956577839301400,4.35630126953125,-0.3384190797805786,1.5289945602416992,1.3616175651550293
1710956577858260200,4.37526025390625,-0.3326158821582794,1.3503166437149048,1.3924663066864014
1710956577877219000,4.394218994140625,-0.6047561168670654,1.035110354423523,1.5033382177352905
1710956577896177700,4.413177734375,-0.8084795475006104,0.729983389377594,1.3588687181472778
1710956577915136500,4.432136474609375,-0.6551524996757507,0.7800742983818054,0.9642500281333923
1710956577934095000,4.45109521484375,-0.22663083672523499,1.0949751138687134,0.6349939107894897
1710956577953054000,4.470053955078125,-0.06352993845939636,1.138651967048645,0.3796524703502655
1710956577972012800,4.4890126953125,-0.323452889919281,1.1246020793914795,0.15607595443725586
1710956577990971400,4.507971435546875,-0.5412262082099915,1.1194096803665161,0.017104214057326317
1710956578009930200,4.52693017578125,-0.44837474822998047,0.85918128490448,-0.12431098520755768
1710956578028888800,4.545888916015625,-0.3863719701766968,0.5225948095321655,-0.16310089826583862
1710956578047847700,4.56484765625,-0.5024362802505493,0.3133736252784729,-0.17165300250053406
1710956578066806500,4.583806640625,-0.7150171995162964,0.3298669755458832,-0.22204934060573578
1710956578085765000,4.60276513671875,-0.9169080257415771,0.48563748598098755,-0.28008151054382324
1710956578104724000,4.621723876953125,-1.0418298244476318,0.7064651250839233,-0.3454440236091614
1710956578123682800,4.640682861328125,-1.074205756187439,0.8973603844642639,-0.35705047845840454
1710956578142641400,4.659641357421875,-1.0607666969299316,0.9425643682479858,-0.401949018239975
1710956578161600300,4.678600341796875,-1.005788803100586,0.9169080257415771,-0.4172206521034241
1710956578180558800,4.697558837890625,-0.9175189137458801,0.8710931539535522,-0.389120876789093
1710956578199517700,4.716517578125,-0.8362739086151123,0.8478803038597107,-0.3906480371952057
1710956578218476500,4.7354765625,-0.7541125416755676,0.732121467590332,-0.4630354940891266
1710956578237435100,4.75443505859375,-0.6743947267532349,0.5745183229446411,-0.4612029194831848
1710956578256394000,4.77339404296875,-0.5174024701118469,0.4199695289134979,-0.37751442193984985
1710956578275352800,4.792352783203125,-0.39217519760131836,0.370184063911438,-0.2828303873538971
1710956578294311400,4.8113115234375,-0.39400777220726013,0.3274235129356384,-0.29504770040512085
1710956578313270300,4.830270263671875,-0.411722868680954,0.14080433547496796,-0.3805687427520752
1710956578332228900,4.849228759765625,-0.37201663851737976,-0.05222893878817558,-0.34636032581329346
1710956578351187700,4.868187744140625,-0.2678641974925995,-0.1805105358362198,-0.29474225640296936
1710956578370146600,4.887146484375,-0.14599667489528656,-0.1185077652335167,-0.22815799713134766
1710956578389105200,4.906105224609375,-0.10903936624526978,-0.011911863461136818,-0.12186752259731293
1710956578408064000,4.92506396484375,-0.1490510106086731,-0.005803215317428112,-0.07391463965177536
1710956578427022600,4.944022705078125,-0.19425499439239502,0.06505709886550903,-0.01282816007733345
1710956578445981400,4.9629814453125,-0.21960589289665222,0.15668681263923645,0.001221729558892548
1710956578464940300,4.981940185546875,-0.1853974610567093,0.14660754799842834,-0.06811141967773438
1710956578483899000,5.00089892578125,-0.1698204129934311,0.13713914155960083,-0.026572618633508682
1710956578502857700,5.019857666015625,-0.1902843713760376,0.1805105358362198,0.012217295356094837
1710956578521816600,5.038816650390625,-0.20830489695072174,0.28405213356018066,0.09498947113752365
1710956578540775200,5.057775146484375,-0.2306014597415924,0.40714138746261597,0.10354158282279968
1710956578559734000,5.076734130859375,-0.17165300250053406,0.5027416944503784,0.006414080038666725
1710956578578692600,5.095692626953125,-0.10598503798246384,0.6246092319488525,0.039706211537122726
1710956578597651500,5.1146513671875,-0.14049890637397766,0.6517927050590515,0.2562577724456787
1710956578616610300,5.1336103515625,-0.19089524447917938,0.5207622051239014,0.1545487940311432
1710956578635569000,5.15256884765625,-0.2159406989812851,0.3494146466255188,0.08979712426662445
1710956578654527700,5.17152783203125,-0.1444695144891739,0.2993237376213074,0.07391463965177536
1710956578673486600,5.190486572265625,-0.08155044913291931,0.3249800503253937,0.04917461425065994
1710956578692445200,5.209445068359375,-0.16004657745361328,0.2666424810886383,0.09529490768909454
1710956578711404000,5.228404052734375,-0.22754712402820587,0.26450446248054504,0.1029307171702385
1710956578730363000,5.24736279296875,-0.19822561740875244,0.2965748608112335,0.0824667438864708
1710956578749321500,5.266321533203125,-0.08002328872680664,0.2052505612373352,0.1130099818110466
1710956578768280300,5.2852802734375,0.007024944759905338,0.07055488228797913,0.2458730787038803
1710956578787239200,5.3042392578125,-0.022296564653515816,-0.11239911615848541,0.22235478460788727
1710956578806197800,5.32319775390625,-0.05222893878817558,-0.18845178186893463,0.1695149689912796
1710956578825156600,5.342156494140625,-0.011300998739898205,-0.15607595443725586,0.16249002516269684
1710956578844115200,5.361115234375,0.1029307171702385,-0.09040798991918564,0.1178968995809555
1710956578863074000,5.380073974609375,0.2159406989812851,-0.09651663154363632,0.04367683082818985
1710956578882033000,5.399032958984375,0.2556469142436981,-0.17653992772102356,0.0054977829568088055
1710956578900991700,5.41799169921875,0.24862197041511536,-0.11423171311616898,0.001832594396546483
1710956578919950300,5.436950439453125,0.2458730787038803,0.06627883017063141,0.04062250629067421
1710956578938909200,5.4559091796875,0.2461785078048706,0.3029889166355133,0.06902772188186646
1710956578957868000,5.474867919921875,0.23762640357017517,0.46944957971572876,0.01893680728971958
1710956578976826600,5.49382666015625,0.20616686344146729,0.4251618981361389,-0.059864748269319534
1710956578995785500,5.512785400390625,0.08521563559770584,0.29993459582328796,-0.004886918235570192
1710956579014744000,5.531744140625,0.02718348242342472,0.2254091054201126,-0.000610864779446274
1710956579033703000,5.550702880859375,0.01954767294228077,0.10903936624526978,-0.016798781231045723
1710956579052661800,5.569661865234375,0.011606430634856224,-0.0769689604640007,-0.0256563201546669
1710956579071620600,5.58862060546875,-0.015271619893610477,-0.15210533142089844,-0.06017018109560013
1710956579090579200,5.6075791015625,-0.05345066636800766,-0.06291907280683517,-0.07757982611656189
1710956579109538000,5.6265380859375,-0.04367683082818985,-0.007024944759905338,-0.07147117704153061
1710956579128496600,5.64549658203125,0.001832594396546483,-0.015577051788568497,-0.05406153202056885
1710956579147455500,5.66445556640625,0.04581485688686371,-0.11759147047996521,-0.0665842592716217
1710956579166414300,5.683414306640625,0.13530655205249786,-0.21991132199764252,-0.11606431007385254
1710956579185373200,5.702373291015625,0.15179990231990814,-0.31184646487236023,-0.05803215503692627
1710956579204331800,5.721331787109375,0.07910698652267456,-0.2874118685722351,-0.0009162971982732415
1710956579223290600,5.74029052734375,0.013744457624852657,-0.10170898586511612,-0.017715077847242355
1710956579242249500,5.75924951171875,-0.0412333719432354,-0.07483093440532684,-0.023518294095993042
1710956579261208000,5.7782080078125,-0.07819069176912308,-0.11728604137897491,0.014660755172371864
1710956579280167000,5.7971669921875,-0.07757982611656189,0.003970621153712273,0.0616973415017128
1710956579299125800,5.816125732421875,-0.025045456364750862,0.07422006875276566,0.11728604137897491
1710956579318084400,5.83508447265625,0.033597562462091446,-0.005803215317428112,0.17745621502399445
1710956579337043200,5.854043212890625,0.0873536616563797,0.01893680728971958,0.2306014597415924
1710956579356002000,5.873001953125,0.10384701192378998,0.14599667489528656,0.2528980076313019
1710956579374961000,5.8919609375,0.03237583488225937,0.27519458532333374,0.24526220560073853
1710956579393919500,5.91091943359375,-0.0824667438864708,0.3790415823459625,0.22876885533332825
1710956579412878300,5.92987841796875,-0.1386663019657135,0.3381136655807495,0.18264856934547424
1710956579431837200,5.948837158203125,-0.14569124579429626,0.0720820426940918,0.12553271651268005
1710956579450795800,5.967795654296875,-0.16279546916484833,-0.21258094906806946,0.09101885557174683
1710956579469754600,5.986754638671875,-0.17256930470466614,-0.2977965772151947,0.03909534588456154
1710956579488713500,6.00571337890625,-0.22510367631912231,-0.23487751185894012,-0.010995565913617611
1710956579507672000,6.024672119140625,-0.24923282861709595,-0.16157373785972595,-0.08918625861406326
1710956579526631000,6.043630859375,-0.23029601573944092,-0.1545487940311432,-0.10567960888147354
1710956579545589800,6.06258984375,-0.22388194501399994,-0.07024945318698883,-0.11636973917484283
1710956579564548600,6.081548583984375,-0.23518294095993042,0.030543239787220955,-0.11575887352228165
1710956579583507200,6.100507080078125,-0.24465134739875793,-0.0021380267571657896,-0.11759147047996521
1710956579602466000,6.119466064453125,-0.23273947834968567,-0.08765909820795059,-0.1178968995809555
1710956579621425000,6.1384248046875,-0.22449280321598053,-0.18387030065059662,-0.10873392969369888
1710956579640383700,6.1573837890625,-0.20127993822097778,-0.24709481000900269,-0.07299833744764328
1710956579659342600,6.176342529296875,-0.29016077518463135,-0.12095122784376144,-0.11667517572641373
1710956579678301200,6.19530126953125,-0.36163195967674255,-0.13194678723812103,-0.10659590363502502
1710956579697260000,6.214260009765625,-0.2910770773887634,-0.31581708788871765,-0.07238747924566269
1710956579716219000,6.233218994140625,-0.16218459606170654,-0.37843072414398193,-0.12767073512077332
1710956579735177700,6.252177734375,-0.15485422313213348,-0.2822195291519165,-0.11667517572641373
1710956579754136300,6.27113623046875,-0.08643736690282822,-0.15790854394435883,-0.06505709886550903
1710956579773095200,6.29009521484375,0.037262752652168274,0.07238747924566269,-0.05436696484684944
1710956579792054000,6.309053955078125,0.025961752980947495,0.21807873249053955,-0.009162971749901772
1710956579811012900,6.328012939453125,-0.015577051788568497,0.22266021370887756,-0.015271619893610477
1710956579829971500,6.346971435546875,0.01435532234609127,0.17043127119541168,-0.05711585655808449
1710956579848930300,6.365930419921875,-0.02932151034474373,0.15546508133411407,-0.06352993845939636
1710956579867889200,6.38488916015625,-0.09437860548496246,0.12370011955499649,-0.0256563201546669
1710956579886848000,6.403847900390625,-0.09315688163042068,0.07055488228797913,-0.03543015569448471
1710956579905806800,6.422806884765625,-0.026878049597144127,-0.15027274191379547,-0.03329212963581085
1710956579924765400,6.441765380859375,0.03787361457943916,-0.4776962697505951,-0.012217295356094837
1710956579943724300,6.460724365234375,0.06108647957444191,-0.4841103255748749,0.01802051067352295
1710956579962683100,6.47968310546875,0.09498947113752365,-0.35674503445625305,-0.017104214057326317
1710956579981642000,6.49864208984375,0.16768237948417664,-0.26908594369888306,-0.06750056147575378
1710956580000600800,6.517600830078125,0.16096286475658417,-0.003359756199643016,-0.08765909820795059
1710956580019559700,6.5365595703125,0.1081230640411377,0.36835145950317383,-0.07819069176912308
1710956580038518300,6.555518310546875,0.12767073512077332,0.6227766275405884,-0.09560033679008484
1710956580057477000,6.57447705078125,0.06933315098285675,0.685084879398346,-0.024434590712189674
1710956580076436000,6.59343603515625,-0.04001164436340332,0.41294458508491516,-0.11056652665138245
1710956580095394800,6.612394775390625,-0.03237583488225937,0.12186752259731293,-0.17623448371887207
1710956580114353700,6.631353759765625,0.07483093440532684,-0.08582650125026703,-0.15699224174022675
1710956580133312500,6.6503125,0.12125665694475174,-0.06230820715427399,-0.06505709886550903
1710956580152271400,6.669271240234375,0.07391463965177536,0.23396120965480804,0.06872228533029556
1710956580171230000,6.68822998046875,0.041844237595796585,0.3796524703502655,0.17165300250053406
1710956580190188800,6.707188720703125,-0.0021380267571657896,0.08429934084415436,0.16584978997707367
1710956580209147600,6.726147705078125,0.08796452730894089,-0.06261363625526428,0.06750056147575378
1710956580228106500,6.7451064453125,0.13133592903614044,-0.13958260416984558,0.02779434807598591
1710956580247065300,6.7640654296875,0.02626718580722809,0.16737695038318634,-0.009162971749901772
1710956580266024200,6.783024169921875,-0.06750056147575378,0.5271763205528259,-0.06963858753442764
1710956580284983000,6.801983154296875,-0.12705987691879272,0.657290518283844,-0.06414080411195755
1710956580303942000,6.82094189453125,0.007024944759905338,0.35766133666038513,-0.08521563559770584
1710956580322900700,6.839900634765625,0.08857539296150208,-0.013744457624852657,-0.14080433547496796
1710956580341859600,6.858859619140625,0.10690133273601532,-0.049480047076940536,-0.11239911615848541
1710956580360818200,6.877818115234375,0.12767073512077332,0.2208276242017746,-0.029016077518463135
1710956580379777000,6.896777099609375,0.07635809481143951,0.43432486057281494,-0.1029307171702385
1710956580398736000,6.91573583984375,-0.09162971377372742,0.48594292998313904,-0.10354158282279968
1710956580417694700,6.93469482421875,-0.18173226714134216,0.1792888194322586,-0.10506874322891235
1710956580436653600,6.953653564453125,-0.04825831577181816,-0.09712749719619751,-0.059864748269319534
1710956580455612400,6.9726123046875,-0.0204639695584774,-0.19700388610363007,-0.035124726593494415
1710956580474571300,6.9915712890625,-0.07849612087011337,-0.16035200655460358,-0.050090912729501724
1710956580493530000,7.010530029296875,-0.07849612087011337,0.01802051067352295,-0.05955931544303894
1710956580512489000,7.029489013671875,-0.06536252796649933,0.18570289015769958,-0.02779434807598591
1710956580531447800,7.04844775390625,-0.1484401375055313,0.049480047076940536,-0.06505709886550903
1710956580550406700,7.06740673828125,-0.24312418699264526,-0.06872228533029556,-0.07238747924566269
1710956580569365500,7.086365478515625,-0.318871408700943,-0.23976442217826843,-0.08521563559770584
1710956580588324400,7.105324462890625,-0.3433060050010681,-0.4862483739852905,-0.15577052533626556
1710956580607283200,7.124283203125,-0.3539961278438568,-0.6646208763122559,-0.1539379209280014
1710956580626242000,7.143241943359375,-0.3845393657684326,-0.7244856357574463,-0.08155044913291931
1710956580645201000,7.162200927734375,-0.3814850449562073,-0.5632173418998718,-0.021380268037319183
1710956580664159500,7.181159423828125,-0.43310311436653137,-0.2617555558681488,0.053756099194288254
1710956580683118300,7.200118408203125,-0.4557051360607147,-0.1737910360097885,0.07757982611656189
1710956580702077200,7.2190771484375,-0.3179551064968109,-0.19669845700263977,0.1585194170475006
1710956580721036000,7.2380361328125,-0.1594357043504715,-0.29443681240081787,0.20708316564559937
1710956580739995000,7.256994873046875,0.031154103577136993,-0.4218021333217621,0.16065743565559387
1710956580758953700,7.27595361328125,0.06902772188186646,-0.21930044889450073,0.14538581669330597
1710956580777912800,7.294912841796875,0.05345066636800766,0.23212862014770508,0.16646064817905426
1710956580796871700,7.31387158203125,0.06047561392188072,0.5067123174667358,0.0821613147854805
1710956580815830500,7.33283056640625,0.10323614627122879,0.5910117030143738,-0.00946840364485979
1710956580834789400,7.351789306640625,0.09162971377372742,0.7250964641571045,-0.03176496922969818
1710956580853748200,7.370748291015625,0.017715077847242355,0.739757239818573,-0.04917461425065994
1710956580872707000,7.38970703125,-0.01282816007733345,0.48930269479751587,-0.08979712426662445
1710956580891666000,7.408666015625,0.05436696484684944,0.18723005056381226,-0.05864302068948746
1710956580910624800,7.427624755859375,0.03909534588456154,-0.07605266571044922,0.012217295356094837
1710956580929583600,7.44658349609375,-0.011606430634856224,-0.2919933497905731,0.0030543238390237093
1710956580948542500,7.46554248046875,0.010995565913617611,-0.360410213470459,-0.007330377586185932
1710956580967501300,7.484501220703125,0.015271619893610477,-0.2993237376213074,0.001221729558892548
1710956580986460200,7.503460205078125,0.010384701192378998,-0.19669845700263977,-0.017715077847242355
1710956581005419000,7.5224189453125,0.03145953640341759,-0.002443459117785096,-0.036651886999607086
1710956581024377900,7.5413779296875,0.033597562462091446,0.1441640853881836,-0.028099779039621353
1710956581043336700,7.560336669921875,0.02718348242342472,0.22418737411499023,-0.03787361457943916
1710956581062295600,7.579295654296875,0.04520399495959282,0.2657261788845062,-0.010995565913617611
1710956581081254400,7.59825439453125,0.09071341902017593,0.2052505612373352,0.010384701192378998
1710956581100213500,7.617213623046875,0.14172062277793884,0.1386663019657135,0.007635809946805239
1710956581119172400,7.63617236328125,0.13683371245861053,0.10384701192378998,0.028099779039621353
1710956581138131200,7.655131103515625,0.1178968995809555,0.07086031138896942,0.053756099194288254
1710956581157090000,7.674090087890625,0.1182023361325264,0.02932151034474373,0.04520399495959282
1710956581176049000,7.693048828125,0.14172062277793884,-0.023823726922273636,0.05253437161445618
1710956581195007700,7.7120078125,0.1893680840730667,-0.11026109009981155,0.07238747924566269
1710956581213966600,7.730966552734375,0.2516762912273407,-0.14019346237182617,0.11087195575237274
1710956581232925400,7.749925537109375,0.2669478952884674,-0.09926552325487137,0.09712749719619751
1710956581251884300,7.76888427734375,0.2510654330253601,-0.01588248461484909,0.024740023538470268
1710956581270843400,7.787843505859375,0.19120067358016968,0.10690133273601532,-0.025045456364750862
1710956581289802200,7.80680224609375,0.1127045527100563,0.31581708788871765,-0.04214967042207718
1710956581308761000,7.825760986328125,0.07391463965177536,0.39309149980545044,-0.05742128938436508
1710956581327720000,7.844719970703125,0.07757982611656189,0.27488914132118225,-0.06566796451807022
1710956581346678800,7.8636787109375,0.06933315098285675,0.13744457066059113,-0.060781046748161316
1710956581365637600,7.8826376953125,0.050090912729501724,0.09040798991918564,-0.06200277432799339
1710956581384596500,7.901596435546875,0.0009162971982732415,0.1127045527100563,-0.056810423731803894
1710956581403555600,7.9205556640625,-0.029016077518463135,0.0922405794262886,-0.049480047076940536
1710956581422514400,7.939514404296875,-0.035735588520765305,-0.008552107028663158,-0.06597339361906052
1710956581441473300,7.958473388671875,-0.06444623321294785,-0.12705987691879272,-0.10903936624526978
1710956581460432100,7.97743212890625,-0.08888082206249237,-0.22296564280986786,-0.11209368705749512
1710956581479391000,7.996390869140625,-0.054672397673130035,-0.22846342623233795,-0.08491020649671555
1710956581498350000,8.01535009765625,0.0409279391169548,-0.15149445831775665,-0.0461202897131443
1710956581517309000,8.034308837890626,0.08093958348035812,0.04459312930703163,-0.006108647678047419
1710956581536267800,8.053267822265624,0.029932374134659767,0.20616686344146729,0.008857538923621178
1710956581555226600,8.0722265625,-0.0027488914784044027,0.22479823231697083,0.009162971749901772
1710956581574185500,8.091185546875,0.017715077847242355,0.09376774728298187,0.010690134018659592
1710956581593144600,8.11014453125,0.02412915788590908,-0.0824667438864708,0.04459312930703163
1710956581612103400,8.129103515625,0.000305432389723137,-0.20311254262924194,0.06994401663541794
1710956581631062300,8.148062255859376,-0.020158538594841957,-0.24251331388950348,0.0668896958231926
1710956581650021000,8.167021240234375,-0.03756818547844887,-0.2306014597415924,0.04367683082818985
1710956581668980000,8.18597998046875,-0.006719512399286032,-0.2260199636220932,0.025045456364750862
1710956581687939000,8.20493896484375,0.02107483521103859,-0.16279546916484833,0.021380268037319183
1710956581706898000,8.22389794921875,0.01588248461484909,-0.05864302068948746,0.001221729558892548
1710956581725856800,8.242856689453125,-0.012522728182375431,0.007941242307424545,-0.07757982611656189
1710956581744815600,8.261815673828124,-0.07055488228797913,0.0015271619195118546,-0.19639302790164948
1710956581763774500,8.2807744140625,-0.2202167510986328,-0.01740964688360691,-0.1798996776342392
1710956581782733300,8.2997333984375,-0.3225366175174713,-0.13958260416984558,-0.20250166952610016
1710956581801692400,8.3186923828125,-0.2864955961704254,-0.4221075773239136,-0.30482152104377747
1710956581820651300,8.3376513671875,-0.22999058663845062,-0.6466003656387329,-0.3753764033317566
1710956581839610000,8.356610107421876,-0.2629773020744324,-0.7021890878677368,-0.3454440236091614
1710956581858569000,8.37556884765625,-0.3744601011276245,-0.35735589265823364,-0.17837251722812653
1710956581877528000,8.394528076171875,-0.4101957082748413,0.04764745384454727,-0.010690134018659592
1710956581896487000,8.41348681640625,-0.1945604383945465,0.05742128938436508,0.10598503798246384
1710956581915445800,8.43244580078125,0.09162971377372742,-0.19700388610363007,0.15729768574237823
1710956581934404900,8.45140478515625,0.31642794609069824,-0.49144071340560913,0.2205221801996231
1710956581953363700,8.47036376953125,0.3503309488296509,-0.35063639283180237,0.24923282861709595
1710956581972322600,8.489322509765625,0.3426951467990875,0.16584978997707367,0.27030766010284424
1710956581991281400,8.508281494140626,0.3344484567642212,0.6145299673080444,0.2214384824037552
1710956582010240500,8.527240478515624,0.32039856910705566,0.8429933786392212,0.14141519367694855
1710956582029199400,8.546199462890625,0.24526220560073853,0.8148936033248901,0.05833758786320686
1710956582048158200,8.565158203125,0.14996729791164398,0.5708531141281128,0.008246674202382565
1710956582067117000,8.584116943359374,0.13469567894935608,0.19669845700263977,-0.017104214057326317
1710956582086076200,8.603076171875,0.12522727251052856,-0.16768237948417664,-0.021685699000954628
1710956582105035000,8.622034912109376,0.09162971377372742,-0.37843072414398193,-0.014049889519810677
1710956582123993900,8.640993896484375,0.05192350596189499,-0.40897396206855774,-0.019853105768561363
1710956582142952700,8.65995263671875,0.06352993845939636,-0.34788748621940613,0.014966187067329884
1710956582161911800,8.678911865234374,0.12614357471466064,-0.17653992772102356,0.044898562133312225
1710956582180870700,8.69787060546875,0.11026109009981155,0.12095122784376144,0.01740964688360691
1710956582199829500,8.71682958984375,0.04214967042207718,0.3631591200828552,0.007941242307424545
1710956582218788400,8.735788330078124,0.03390299528837204,0.48960810899734497,0.016798781231045723
1710956582237747500,8.75474755859375,0.046425722539424896,0.46914416551589966,0.010079269297420979
1710956582256706300,8.773706298828126,0.048563748598098755,0.30604326725006104,0.007941242307424545
1710956582275665200,8.7926650390625,0.023212861269712448,0.13194678723812103,0.03787361457943916
1710956582294624300,8.811624267578125,-0.025350889191031456,0.0412333719432354,0.025045456364750862
1710956582313583000,8.8305830078125,-0.022907428443431854,-0.018631376326084137,0.013744457624852657
1710956582332542000,8.8495419921875,0.023823726922273636,-0.08918625861406326,0.023518294095993042
1710956582351501000,8.8685009765625,0.0766635313630104,-0.13072505593299866,0.06352993845939636
1710956582370460000,8.8874599609375,0.13041962683200836,-0.04428769648075104,0.13225223124027252
1710956582389418800,8.906418701171875,0.16157373785972595,0.06750056147575378,0.164322629570961
1710956582408377600,8.925377685546875,0.12950333952903748,0.09865466505289078,0.14538581669330597
1710956582427336400,8.94433642578125,0.07635809481143951,0.08674279600381851,0.07024945318698883
1710956582446295600,8.963295654296875,0.03817904740571976,0.19364413619041443,-0.002443459117785096
1710956582465254400,8.98225439453125,-0.04978547990322113,0.14019346237182617,-0.05558869615197182
1710956582484213200,9.001213134765624,-0.11972949653863907,0.05070177838206291,-0.06963858753442764
1710956582503172400,9.02017236328125,-0.09590577334165573,-0.006414080038666725,-0.061391908675432205
1710956582522131200,9.039131103515626,-0.013439024798572063,0.0027488914784044027,-0.014049889519810677
1710956582541090000,9.058090087890625,0.004276053514331579,0.05406153202056885,0.017715077847242355
1710956582560049000,9.077048828125,-0.03848448023200035,0.0824667438864708,0.043371398001909256
1710956582579008000,9.096008056640626,-0.03023780696094036,0.007330377586185932,0.04550942778587341
1710956582597966800,9.114966796875,0.03329212963581085,-0.08674279600381851,0.08032871782779694
1710956582616925700,9.13392578125,0.12217295914888382,-0.21319180727005005,0.1328630894422531
1710956582635884800,9.152884765625,0.1695149689912796,-0.5794052481651306,0.189673513174057
1710956582654843600,9.17184375,0.23945899307727814,-0.887891948223114,0.17318016290664673
1710956582673802500,9.190802490234375,0.2464839369058609,-0.6860011219978333,0.08002328872680664
1710956582692761300,9.20976123046875,0.16249002516269684,-0.28038692474365234,0.09407317638397217
1710956582711720200,9.22872021484375,0.0616973415017128,0.10873392969369888,0.10415244847536087
1710956582730679300,9.24767919921875,0.08674279600381851,0.12095122784376144,0.05406153202056885
1710956582749638100,9.26663818359375,0.09621120244264603,-0.043982263654470444,0.021380268037319183
1710956582768597000,9.285596923828125,0.11484257876873016,-0.09712749719619751,0.0054977829568088055
1710956582787556000,9.30455615234375,0.10018182545900345,-0.09926552325487137,-0.035735588520765305
1710956582806515000,9.323514892578125,0.07055488228797913,-0.12705987691879272,-0.027488915249705315
1710956582825473800,9.342473876953125,-0.016187917441129684,-0.22479823231697083,-0.03543015569448471
1710956582844433000,9.361432861328124,0.04001164436340332,-0.14721840620040894,-0.06811141967773438
1710956582863391700,9.380391845703125,0.059864748269319534,0.04276053607463837,-0.053145237267017365
1710956582882350600,9.3993505859375,0.007330377586185932,0.15607595443725586,-0.07299833744764328
1710956582901309400,9.418309326171874,0.006414080038666725,0.19242240488529205,-0.0256563201546669
1710956582920268500,9.4372685546875,-0.032070402055978775,0.0766635313630104,0.09682206809520721
1710956582939227400,9.456227294921876,-0.09590577334165573,-0.20769402384757996,0.11453714966773987
1710956582958186200,9.475186279296874,-0.13530655205249786,-0.3814850449562073,0.09101885557174683
1710956582977145000,9.49414501953125,-0.2254091054201126,-0.416304349899292,-0.008246674202382565
1710956582996104000,9.51310400390625,-0.20952661335468292,-0.3597993552684784,-0.015271619893610477
1710956583015063000,9.53206298828125,-0.15149445831775665,-0.21166464686393738,-0.013133592903614044
1710956583034022000,9.55102197265625,-0.18203771114349365,0.09621120244264603,-0.08491020649671555
1710956583052980700,9.569980712890626,-0.13164135813713074,0.5064069032669067,-0.11331541836261749
1710956583071939800,9.58893994140625,-0.06963858753442764,0.8329141139984131,-0.08460476994514465
1710956583090898700,9.607898681640625,-0.13225223124027252,0.7418952584266663,-0.10231985151767731
1710956583109857500,9.626857421875,-0.1487455666065216,0.5949822664260864,-0.16584978997707367
1710956583128816400,9.64581640625,-0.06536252796649933,0.3964512348175049,-0.1899789422750473
1710956583147775500,9.664775390625,0.01802051067352295,0.11911863088607788,-0.2055560052394867
1710956583166734300,9.683734375,0.09957095980644226,0.04673115536570549,-0.14019346237182617
1710956583185693200,9.702693115234375,0.17867794632911682,-0.10323614627122879,-0.1383608728647232
1710956583204652300,9.72165234375,0.22724169492721558,-0.27580544352531433,-0.08613193035125732
1710956583223611100,9.740611083984374,0.25961753726005554,-0.18814635276794434,-0.07788526266813278
1710956583242570000,9.759570068359375,0.2809978127479553,0.09529490768909454,-0.08521563559770584
1710956583261528800,9.77852880859375,0.2461785078048706,0.4889972507953644,-0.1288924664258957
1710956583280488000,9.797488037109375,0.14752385020256042,0.7733548283576965,-0.16249002516269684
1710956583299446800,9.81644677734375,-0.01802051067352295,0.5693259835243225,-0.13927717506885529
1710956583318405600,9.835405517578126,-0.05864302068948746,0.006108647678047419,-0.1178968995809555
1710956583337364500,9.854364501953125,0.015577051788568497,-0.4776962697505951,-0.11606431007385254
1710956583356323300,9.8733232421875,0.17256930470466614,-0.7480039000511169,-0.05803215503692627
1710956583375282400,9.892282470703124,0.22296564280986786,-0.5497782826423645,0.022907428443431854
1710956583394241300,9.9112412109375,0.12247838824987411,-0.12950333952903748,-0.01649334840476513
1710956583413200100,9.9302001953125,0.04276053607463837,0.389120876789093,-0.05345066636800766
1710956583432159000,9.949158935546874,0.06933315098285675,0.462424635887146,-0.041844237595796585
1710956583451118000,9.9681181640625,0.15149445831775665,0.16279546916484833,0.007635809946805239
1710956583470077000,9.987076904296876,0.2205221801996231,-0.18723005056381226,0.09590577334165573
1710956583489035800,10.006035888671875,0.205861434340477,-0.406530499458313,0.10751219838857651
1710956583507994600,10.02499462890625,0.16829325258731842,-0.32162031531333923,0.1340848207473755
1710956583526953700,10.04395361328125,0.08857539296150208,0.16584978997707367,0.12247838824987411
1710956583545912600,10.06291259765625,0.011606430634856224,0.5525271892547607,0.03176496922969818
1710956583564871400,10.081871337890625,-0.05497783049941063,0.547029435634613,-0.00946840364485979
1710956583583830500,10.10083056640625,-0.07605266571044922,0.34238970279693604,-0.02626718580722809
1710956583602789400,10.119789306640625,-0.04581485688686371,-0.010384701192378998,0.06536252796649933
1710956583621748200,10.138748291015625,0.025350889191031456,-0.33719736337661743,0.07849612087011337
1710956583640707000,10.15770703125,0.10079269111156464,-0.5219839811325073,0.05864302068948746
1710956583659666000,10.176666015625,0.01802051067352295,-0.3753764033317566,-0.01435532234609127
1710956583678624800,10.195624755859376,-0.0766635313630104,-0.06536252796649933,-0.020158538594841957
1710956583697583900,10.214583984375,-0.06597339361906052,0.16279546916484833,-0.01954767294228077
1710956583716542700,10.233542724609375,-0.02626718580722809,0.13652828335762024,-0.028099779039621353
1710956583735501600,10.25250146484375,-0.03176496922969818,-0.03176496922969818,-0.05039634555578232
1710956583754460400,10.27146044921875,-0.07055488228797913,-0.11514800786972046,0.006108647678047419
1710956583773419500,10.29041943359375,-0.0925460159778595,-0.14233149588108063,0.06383536756038666
1710956583792378400,10.30937841796875,-0.12614357471466064,-0.19303326308727264,0.06414080411195755
1710956583811337200,10.328337158203125,-0.16615521907806396,-0.2880227565765381,0.14049890637397766
1710956583830296000,10.347296142578125,-0.22846342623233795,-0.7229584455490112,-0.05864302068948746
1710956583849255200,10.366255126953124,-0.2684750556945801,-0.8671225309371948,-0.16187916696071625
1710956583868214000,10.385214111328125,-0.08552107214927673,-0.32528549432754517,-0.033597562462091446
1710956583887172900,10.4041728515625,-0.09834922850131989,0.16096286475658417,-0.13622283935546875
1710956583906131700,10.423131591796874,-0.3646862804889679,0.3347539007663727,-0.2458730787038803
1710956583925090600,10.442090576171875,-0.17715078592300415,0.1740964651107788,-0.20311254262924194
1710956583944049700,10.461049560546876,0.010384701192378998,0.4718930423259735,-0.1844811588525772
1710956583963008500,10.480008544921875,-0.17715078592300415,0.39767298102378845,-0.1802051067352295
1710956583981967400,10.49896728515625,-0.29596397280693054,0.0772743970155716,-0.20127993822097778
1710956584000926200,10.51792626953125,-0.1026252806186676,-0.31154105067253113,-0.17287473380565643
1710956584019885300,10.53688525390625,0.1127045527100563,-0.14813470840454102,-0.20677772164344788
1710956584038844200,10.55584423828125,0.05711585655808449,0.3533852696418762,-0.2156352698802948
1710956584057803000,10.574802978515624,-0.09101885557174683,0.7513636946678162,-0.1337793916463852
1710956584076761900,10.593761962890625,-0.21655155718326569,0.8118392825126648,-0.22479823231697083
1710956584095720700,10.612720703125,-0.2461785078048706,0.5458076596260071,-0.27519458532333374
1710956584114679800,10.6316796875,-0.21227550506591797,0.23396120965480804,-0.24037529528141022
1710956584133638700,10.650638671875,-0.11545344442129135,0.13194678723812103,-0.2000582218170166
1710956584152597500,10.669597412109376,0.0616973415017128,0.3185659945011139,-0.185092031955719
1710956584171556400,10.688556396484374,0.1334739476442337,0.46517354249954224,-0.13194678723812103
1710956584190515200,10.70751513671875,0.05253437161445618,0.4221075773239136,-0.0665842592716217
1710956584209474000,10.72647412109375,-0.04764745384454727,-0.0204639695584774,0.031154103577136993
1710956584228433200,10.74543310546875,0.21227550506591797,-0.7211259007453918,0.10415244847536087
1710956584247392000,10.76439208984375,0.5174024701118469,-1.1224640607833862,0.17348559200763702
1710956584266350800,10.783350830078126,0.32589635252952576,-0.9502001404762268,0.15668681263923645
1710956584285309700,10.802309814453125,0.015577051788568497,-0.5907062292098999,0.09071341902017593
1710956584304268500,10.8212685546875,0.039706211537122726,-0.2309068888425827,0.09010255336761475
1710956584323227600,10.8402275390625,0.11759147047996521,-0.03634645417332649,0.15699224174022675
1710956584342186500,10.8591865234375,0.1487455666065216,-0.13041962683200836,0.1594357043504715
1710956584361145300,10.878145263671875,0.17837251722812653,-0.25503605604171753,0.09865466505289078
1710956584380104200,10.897104248046874,0.129197895526886,-0.19089524447917938,0.0769689604640007
1710956584399063300,10.916063232421875,0.0720820426940918,-0.08918625861406326,0.0720820426940918
1710956584418022100,10.935022216796876,0.025045456364750862,-0.05192350596189499,0.07360920310020447
1710956584436981000,10.95398095703125,0.013439024798572063,-0.17104214429855347,0.051618073135614395
1710956584455939800,10.97293994140625,0.0308486707508564,-0.2779434621334076,0.0821613147854805
1710956584474899000,10.99189892578125,-0.027488915249705315,-0.37171122431755066,0.0873536616563797
1710956584493857800,11.01085791015625,-0.08429934084415436,-0.47586366534233093,0.009162971749901772
1710956584512816600,11.029816650390625,-0.0360410213470459,-0.5201513767242432,0.02779434807598591
1710956584531775500,11.048775390625,-0.0717766135931015,-0.471587598323822,-0.008552107028663158
1710956584550734600,11.067734619140625,-0.20738859474658966,-0.08002328872680664,-0.018325943499803543
1710956584569693400,11.086693359375,-0.2981020212173462,0.2877173125743866,0.024740023538470268
1710956584588652300,11.10565234375,-0.272751122713089,0.2868010103702545,0.048563748598098755
1710956584607611100,11.124611083984375,-0.20158538222312927,-0.005803215317428112,-0.003970621153712273
1710956584626570000,11.143570068359375,-0.12553271651268005,-0.30543237924575806,-0.009162971749901772
1710956584645528800,11.16252880859375,-0.10109812021255493,-0.37659814953804016,0.016798781231045723
1710956584664488000,11.181488037109375,-0.1380554437637329,-0.16065743565559387,0.04214967042207718
1710956584683446800,11.20044677734375,-0.143553227186203,0.1747073233127594,0.021685699000954628
1710956584702405600,11.219405517578124,-0.0665842592716217,0.3017672002315521,0.04520399495959282
1710956584721364500,11.238364501953125,-0.0461202897131443,0.2513708472251892,0.029932374134659767
1710956584740323600,11.257323486328126,-0.04153880476951599,0.19120067358016968,0.05528326332569122
1710956584759282400,11.276282470703125,-0.08460476994514465,0.0665842592716217,0.019242240116000175
1710956584778241300,11.2952412109375,-0.11056652665138245,0.010690134018659592,-0.011911863461136818
1710956584797200400,11.314200439453124,-0.07971785217523575,0.07452550530433655,-0.023212861269712448
1710956584816159200,11.3331591796875,-0.008857538923621178,0.24740023910999298,0.018325943499803543
1710956584835118000,11.3521181640625,0.006108647678047419,0.3402516841888428,-0.004581485874950886
1710956584854077000,11.371076904296874,-0.048563748598098755,0.32528549432754517,-0.05253437161445618
1710956584873036000,11.3900361328125,-0.06963858753442764,0.19730933010578156,-0.06536252796649933
1710956584891995000,11.408994873046876,-0.047952886670827866,0.12125665694475174,-0.08155044913291931
1710956584910953200,11.427953125,-0.00946840364485979,0.1545487940311432,-0.11362084746360779
1710956584929912800,11.446912841796875,0.02718348242342472,0.19669845700263977,-0.14294235408306122
1710956584948871700,11.46587158203125,0.030543239787220955,0.15729768574237823,-0.15821397304534912
1710956584967830500,11.48483056640625,0.019853105768561363,0.1337793916463852,-0.14263692498207092
1710956584986789400,11.503789306640625,0.014660755172371864,0.16065743565559387,-0.12614357471466064
1710956585005748200,11.522748291015626,0.0308486707508564,0.2110537886619568,-0.10537417232990265
1710956585024707300,11.541707275390625,0.06108647957444191,0.1747073233127594,-0.08063415437936783
1710956585043666200,11.560666259765625,0.05345066636800766,0.028405211865901947,-0.07269290834665298
1710956585062625000,11.579625,0.009162971749901772,-0.05894844979047775,-0.08032871782779694
1710956585081584000,11.598584228515625,-0.013439024798572063,-0.07086031138896942,-0.02779434807598591
1710956585100543000,11.61754296875,0.009162971749901772,-0.10079269111156464,0.006719512399286032
1710956585119501800,11.636501708984374,0.04978547990322113,-0.14538581669330597,0.021380268037319183
1710956585138461000,11.6554609375,0.04978547990322113,-0.21807873249053955,0.024434590712189674
1710956585157419800,11.674419677734376,0.043371398001909256,-0.2162461280822754,0.028099779039621353
1710956585176378600,11.693378662109374,0.031154103577136993,-0.15149445831775665,0.0308486707508564
1710956585195337700,11.712337646484375,0.012522728182375431,-0.07544180005788803,0.031154103577136993
1710956585214296600,11.731296630859376,-0.006414080038666725,-0.060781046748161316,0.019242240116000175
1710956585233255400,11.75025537109375,-0.014966187067329884,-0.15485422313213348,-0.0021380267571657896
1710956585252214500,11.769214599609375,-0.015577051788568497,-0.18600831925868988,-0.02107483521103859
1710956585271173400,11.78817333984375,-0.008552107028663158,-0.13988803327083588,-0.036651886999607086
1710956585290132200,11.80713232421875,-0.01954767294228077,-0.05742128938436508,-0.03695731982588768
1710956585309091300,11.82609130859375,-0.04886918142437935,0.02871064469218254,-0.046425722539424896
1710956585328050200,11.84505029296875,-0.057726722210645676,0.0772743970155716,-0.05283980444073677
1710956585347009300,11.86400927734375,-0.0360410213470459,0.053145237267017365,-0.030543239787220955
1710956585365968100,11.882968017578126,-0.03451386094093323,-0.010995565913617611,0.000610864779446274
1710956585384927000,11.901927001953124,-0.05528326332569122,-0.03756818547844887,0.008246674202382565
1710956585403885800,11.9208857421875,-0.07819069176912308,-0.051618073135614395,0.017715077847242355
1710956585422845000,11.939844970703126,-0.08399390429258347,-0.07880155742168427,0.02260199747979641
1710956585441803800,11.9588037109375,-0.08613193035125732,-0.030543239787220955,0.01588248461484909
1710956585460763000,11.977762939453125,-0.10537417232990265,0.08032871782779694,0.029626941308379173
1710956585479721700,11.9967216796875,-0.12247838824987411,0.1957821547985077,0.016798781231045723
1710956585498680600,12.0156806640625,-0.12064579129219055,0.2712239623069763,0.006719512399286032
1710956585517639700,12.0346396484375,-0.10842850059270859,0.3191768527030945,-0.012217295356094837
1710956585536598500,12.0535986328125,-0.08918625861406326,0.3292561173439026,-0.017104214057326317
1710956585555557400,12.072557373046875,-0.08368847519159317,0.272751122713089,-0.020769402384757996
1710956585574516500,12.0915166015625,-0.07299833744764328,0.19211697578430176,-0.010690134018659592
1710956585593475300,12.110475341796874,-0.06597339361906052,0.10445787757635117,-0.000305432389723137
1710956585612434400,12.129434326171875,-0.06505709886550903,0.02871064469218254,-0.0021380267571657896
1710956585631393300,12.148393310546876,-0.06261363625526428,-0.008857538923621178,-0.006108647678047419
1710956585650352400,12.167352294921875,-0.05833758786320686,0.015271619893610477,0.014660755172371864
1710956585669311200,12.186311279296875,-0.09285144507884979,0.04673115536570549,0.02107483521103859
1710956585688270000,12.20527001953125,-0.09315688163042068,0.07024945318698883,0.02718348242342472
1710956585707229200,12.224229248046875,-0.10018182545900345,0.08338304609060287,0.004276053514331579
1710956585726188000,12.24318798828125,-0.12461641430854797,0.10476330667734146,-0.001221729558892548
1710956585745147100,12.262147216796874,-0.12705987691879272,0.08979712426662445,-0.02626718580722809
1710956585764106000,12.28110595703125,-0.12675444781780243,0.05711585655808449,-0.056199558079242706
1710956585783065000,12.300065185546876,-0.10690133273601532,0.0015271619195118546,-0.05436696484684944
1710956585802024000,12.31902392578125,-0.12614357471466064,-0.09498947113752365,-0.004581485874950886
1710956585820983000,12.337983154296875,-0.15729768574237823,-0.1432477980852127,0.028405211865901947
1710956585839942000,12.35694189453125,-0.15546508133411407,-0.14110976457595825,-0.0030543238390237093
1710956585858900700,12.375900634765625,-0.11575887352228165,-0.08521563559770584,-0.0021380267571657896
1710956585877859800,12.39485986328125,-0.10109812021255493,-0.08613193035125732,0.000305432389723137
1710956585896818700,12.413818603515624,-0.06200277432799339,-0.06261363625526428,0.017104214057326317
1710956585915777800,12.43277783203125,-0.04581485688686371,-0.08063415437936783,-0.006719512399286032
1710956585934736600,12.451736572265625,-0.016187917441129684,0.009162971749901772,0.053145237267017365
1710956585953695700,12.47069580078125,0.02779434807598591,0.11636973917484283,0.12614357471466064
1710956585972654600,12.489654541015625,0.08765909820795059,0.15546508133411407,0.16707152128219604
1710956585991613400,12.508613525390626,0.12675444781780243,0.13072505593299866,0.2974911332130432
1710956586010572500,12.527572509765625,0.07086031138896942,0.060781046748161316,0.42088583111763
1710956586029531400,12.546531494140625,0.017715077847242355,0.04245510324835777,0.5009090900421143
1710956586048490500,12.565490478515626,0.11881320178508759,-0.028099779039621353,0.5641336441040039
1710956586067449600,12.58444970703125,0.3439168632030487,-0.8561269640922546,0.45937031507492065
1710956586086408400,12.603408447265625,0.20647229254245758,-1.7482949495315552,0.6734784245491028
1710956586105367300,12.6223671875,-0.2562577724456787,-1.34237539768219,0.4712821841239929
1710956586124326400,12.641326416015625,-0.15088360011577606,-0.2107483446598053,0.19914191961288452
1710956586143285200,12.66028515625,-0.09651663154363632,0.5033525824546814,0.10506874322891235
1710956586162244400,12.679244384765624,0.03695731982588768,0.554665207862854,-0.053145237267017365
1710956586181203500,12.698203369140625,0.12003492563962936,0.3347539007663727,-0.12125665694475174
1710956586200162300,12.717162353515626,0.007330377586185932,-0.21685700118541718,-0.09468404203653336
1710956586219121200,12.73612109375,-0.09590577334165573,-0.861319363117218,-0.0513126403093338
1710956586238080300,12.755080322265625,0.13041962683200836,-1.130099892616272,0.11117739230394363
1710956586257039000,12.7740390625,0.2663370370864868,-0.6499601006507874,0.11575887352228165
1710956586275998200,12.792998291015625,0.07391463965177536,0.18142683804035187,-0.014049889519810677
1710956586294957000,12.81195703125,0.061391908675432205,0.2974911332130432,0.018325943499803543
1710956586313916200,12.830916259765624,0.13622283935546875,-0.12461641430854797,0.11423171311616898
1710956586332875000,12.849875,0.2260199636220932,-0.4407389461994171,0.19242240488529205
1710956586351834000,12.868834228515626,0.1695149689912796,-0.23548837006092072,-0.011606430634856224
1710956586370793200,12.887793212890625,-0.08368847519159317,-0.17043127119541168,-0.04276053607463837
1710956586389752000,12.906751953125,-0.034208428114652634,-0.13225223124027252,0.006719512399286032
1710956586408711000,12.9257109375,0.21349723637104034,0.268169641494751,0.06841685622930527
1710956586427670000,12.944669921875,0.17348559200763702,0.40317076444625854,-0.13927717506885529
1710956586446629000,12.963629150390625,-0.0256563201546669,-0.29596397280693054,-0.15027274191379547
1710956586465588000,12.982587890625,0.08460476994514465,-0.6053670048713684,0.007330377586185932
1710956586484547000,13.001547119140625,0.1899789422750473,-0.26022839546203613,0.08949168771505356
1710956586503506000,13.020505859375,0.06322450190782547,0.3271180987358093,-0.09712749719619751
1710956586522465000,13.039465087890624,0.0256563201546669,0.21868959069252014,-0.2208276242017746
1710956586541424000,13.058424072265625,-0.0015271619195118546,-0.05039634555578232,-0.10873392969369888
1710956586560383000,13.077383056640626,-0.04428769648075104,-0.24495677649974823,0.0030543238390237093
1710956586579342000,13.096342041015625,-0.1331685185432434,0.1282816082239151,-0.1029307171702385
1710956586598301000,13.115301025390625,-0.0015271619195118546,0.6194168925285339,-0.2205221801996231
1710956586617260000,13.134260009765624,0.044898562133312225,0.4834994673728943,-0.1750127524137497
1710956586636219100,13.15321923828125,0.10415244847536087,-0.20341797173023224,0.01588248461484909
1710956586655178000,13.172177978515625,0.0021380267571657896,-0.31551164388656616,-0.03634645417332649
1710956586674137000,13.19113720703125,0.0256563201546669,0.016798781231045723,-0.16187916696071625
1710956586693096000,13.210095947265625,0.009773836471140385,0.12736530601978302,-0.18081597983837128
1710956586712055000,13.229054931640626,0.3231474757194519,-0.08582650125026703,0.11239911615848541
1710956586731014100,13.24801416015625,0.3436114490032196,-0.39889469742774963,0.30024003982543945
1710956586749973000,13.266972900390625,0.04428769648075104,-0.01588248461484909,0.05955931544303894
1710956586768932000,13.28593212890625,0.1340848207473755,-0.22327107191085815,-0.0717766135931015
1710956586787891000,13.304890869140625,0.46608981490135193,-0.5980366468429565,0.1233946830034256
1710956586806850000,13.32385009765625,0.5296197533607483,-0.3836230933666229,0.2367101013660431
1710956586825809200,13.34280908203125,0.5036579966545105,-0.4560105502605438,0.1484401375055313
1710956586844768000,13.36176806640625,0.21258094906806946,-0.9880737662315369,0.12186752259731293
1710956586863727000,13.38072705078125,0.5940660238265991,-0.8167262077331543,0.20647229254245758
1710956586882686000,13.39968603515625,1.101083755493164,-0.943175196647644,0.2364046722650528
1710956586901645000,13.41864501953125,1.194240689277649,-0.8805615901947021,0.4828886091709137
1710956586920604200,13.437604248046876,0.9236275553703308,-0.1585194170475006,0.17165300250053406
1710956586939563000,13.45656298828125,0.8640682101249695,-0.34116798639297485,0.06108647957444191
1710956586958522000,13.475522216796875,1.1508692502975464,-0.8463531732559204,0.057726722210645676
1710956586977481200,13.494481201171874,1.562286615371704,-0.7987056970596313,0.318871408700943
1710956586996440000,13.513440185546875,1.4935643672943115,-0.10903936624526978,0.5335903763771057
1710956587015399200,13.532399169921876,1.5039490461349487,0.05345066636800766,0.35277441143989563
1710956587034358000,13.55135791015625,1.28556489944458,0.010690134018659592,0.4667007029056549
1710956587053317000,13.570317138671875,1.082452416419983,-0.89705491065979,0.5354229807853699
1710956587072276200,13.589276123046876,1.3045017719268799,-1.9889757633209229,0.30634868144989014
1710956587091235300,13.6082353515625,1.8283182382583618,-1.9941680431365967,0.3277289569377899
1710956587110194200,13.627194091796875,1.6511675119400024,-1.2009601593017578,0.5534434914588928
1710956587129153300,13.6461533203125,1.3057234287261963,-0.9257655739784241,0.8347467184066772
1710956587148112400,13.6651123046875,1.201570987701416,-1.6224569082260132,0.9700532555580139
1710956587167071200,13.6840712890625,1.6172645092010498,-1.904065489768982,0.8775072693824768
1710956587186030300,13.7030302734375,1.8771874904632568,-1.7846415042877197,0.7464767694473267
1710956587204989200,13.7219892578125,1.1679733991622925,-1.0580178499221802,0.8491020202636719
1710956587223948300,13.7409482421875,0.5797106623649597,-0.4056142270565033,0.8820887207984924
1710956587242907400,13.759907470703125,0.62857985496521,0.205861434340477,0.8637627959251404
1710956587261866200,13.7788662109375,0.7422007322311401,0.7171552777290344,0.868955135345459
1710956587280825300,13.797825439453124,0.5317577719688416,0.8414662480354309,0.8197805285453796
1710956587299784400,13.816784423828125,0.31184646487236023,0.21807873249053955,0.6789761781692505
1710956587318743600,13.83574365234375,0.3347539007663727,-0.13958260416984558,0.39828383922576904
1710956587337702400,13.854702392578124,0.31642794609069824,0.40347617864608765,0.2528980076313019
1710956587356661500,13.87366162109375,0.16035200655460358,0.5766563415527344,0.19303326308727264
1710956587375620600,13.89262060546875,0.29443681240081787,0.06902772188186646,0.1737910360097885
1710956587394579500,13.911579345703124,0.2715294063091278,-0.3130682110786438,0.11056652665138245
1710956587413538600,13.93053857421875,0.12461641430854797,-0.3484983444213867,0.006414080038666725
1710956587432497400,13.949497314453126,0.09101885557174683,-0.4263836145401001,0.011606430634856224
1710956587451456500,13.96845654296875,0.060781046748161316,-0.08857539296150208,0.07299833744764328
1710956587470415600,13.98741552734375,0.010079269297420979,0.2309068888425827,0.033597562462091446
1710956587489374500,14.00637451171875,-0.015271619893610477,0.023823726922273636,-0.06475166976451874
1710956587508333600,14.02533349609375,0.0030543238390237093,0.002443459117785096,-0.054672397673130035
1710956587527292700,14.044292724609376,-0.04001164436340332,0.11911863088607788,0.047952886670827866
1710956587546251800,14.063251708984374,-0.11423171311616898,0.06444623321294785,0.13775001466274261
1710956587565210600,14.082210693359375,-0.06841685622930527,0.35613417625427246,0.12522727251052856
1710956587584169700,14.101169677734376,0.010384701192378998,0.4874700903892517,0.020158538594841957
1710956587603128800,14.12012890625,-0.0513126403093338,0.12400554865598679,-0.06750056147575378
1710956587622088000,14.139087890625,-0.12278381735086441,0.007635809946805239,-0.026572618633508682
1710956587641046800,14.158046875,-0.12156209349632263,0.13775001466274261,0.0054977829568088055
1710956587660006000,14.177005859375,0.02260199747979641,0.17073670029640198,-0.04550942778587341
1710956587678965000,14.195965087890626,-0.0021380267571657896,-0.05497783049941063,-0.08002328872680664
1710956587697923800,14.214923828125,-0.05406153202056885,-0.03695731982588768,-0.03237583488225937
1710956587716883000,14.233883056640625,-0.03909534588456154,0.028099779039621353,-0.016187917441129684
1710956587735842000,14.252842041015626,-0.041844237595796585,-0.22327107191085815,-0.09804379940032959
1710956587754801000,14.27180078125,-0.08429934084415436,-0.19730933010578156,-0.13927717506885529
1710956587773760000,14.290760009765625,-0.03634645417332649,0.08460476994514465,-0.16096286475658417
1710956587792718800,14.30971875,-0.09712749719619751,0.0308486707508564,-0.14202606678009033
1710956587811678000,14.328677978515625,-0.17715078592300415,-0.1081230640411377,-0.1230892539024353
1710956587830637000,14.347636962890626,-0.1905898153781891,0.018631376326084137,-0.1701258420944214
1710956587849596200,14.36659619140625,-0.21716243028640747,0.189673513174057,-0.22937972843647003
1710956587868555000,14.385554931640625,-0.29046618938446045,0.06414080411195755,-0.277332603931427
1710956587887514000,14.40451416015625,-0.3588830530643463,0.0720820426940918,-0.23732095956802368
1710956587906473200,14.42347314453125,-0.32162031531333923,0.2370155304670334,-0.2562577724456787
1710956587925432000,14.44243212890625,-0.40714138746261597,-0.06444623321294785,-0.40958482027053833
1710956587944391200,14.46139111328125,-0.48105600476264954,-0.19242240488529205,-0.45906487107276917
1710956587963350300,14.480350341796875,-0.49144071340560913,0.4260781705379486,-0.38301220536231995
1710956587982309400,14.499309326171876,-0.5036579966545105,0.4367683231830597,-0.4059196412563324
1710956588001268200,14.518268310546874,-0.667064368724823,-0.009773836471140385,-0.4535670876502991
1710956588020227300,14.537227294921875,-0.7082977294921875,0.3032943606376648,-0.45875945687294006
1710956588039186400,14.5561865234375,-0.7079922556877136,0.5256491303443909,-0.5647444725036621
1710956588058145500,14.5751455078125,-0.8943060636520386,0.08674279600381851,-0.675616443157196
1710956588077104400,14.5941044921875,-1.0494656562805176,0.13775001466274261,-0.7095194458961487
1710956588096063500,14.6130634765625,-1.1820234060287476,0.6600393652915955,-0.7141009569168091
1710956588115022600,14.632022705078125,-1.2727367877960205,1.0219768285751343,-0.7681624889373779
1710956588133981400,14.6509814453125,-1.214093804359436,1.286481261253357,-0.8075632452964783
1710956588152940500,14.6699404296875,-1.1517854928970337,1.468213438987732,-0.8762855529785156
1710956588171899600,14.688899658203125,-1.1988221406936646,1.2803726196289062,-0.9932661056518555
1710956588190858500,14.7078583984375,-0.9126319885253906,0.9138537049293518,-1.1585050821304321
1710956588209817600,14.726817626953125,-0.6114756464958191,0.2712239623069763,-1.0613775253295898
1710956588228776700,14.745776611328125,-0.8539889454841614,0.22388194501399994,-0.7226530313491821
1710956588247735600,14.764735595703126,-0.711046576499939,0.11759147047996521,-0.48044514656066895
1710956588266694700,14.783694580078125,-0.6343830823898315,-0.12156209349632263,-0.23304490745067596
1710956588285653800,14.80265380859375,-0.7226530313491821,0.11026109009981155,-0.018325943499803543
1710956588304612600,14.821612548828124,-0.9208786487579346,0.17104214429855347,-0.09926552325487137
1710956588323571700,14.84057177734375,-0.8255837559700012,-0.6258309483528137,-0.13988803327083588
1710956588342530800,14.85953076171875,-0.31551164388656616,-0.4111120104789734,-0.004276053514331579
1710956588361489700,14.87848974609375,-0.24801109731197357,0.7015781998634338,-0.20830489695072174
1710956588380448800,14.89744873046875,-0.5439751148223877,1.276707410812378,0.001221729558892548
1710956588399407900,14.916407958984376,-0.25992295145988464,1.2333359718322754,0.22815799713134766
1710956588418367000,14.935366943359375,-0.22999058663845062,0.5079340934753418,-0.024740023538470268
1710956588437325800,14.954325927734375,-0.5445859432220459,0.1081230640411377,-0.06322450190782547
1710956588456285000,14.973284912109374,-0.10140355676412582,0.19700388610363007,0.2306014597415924
1710956588475244000,14.992244140625,-0.05497783049941063,0.7220421433448792,0.19669845700263977
1710956588494203100,15.011203125,-0.6142245531082153,0.7574723362922668,0.02260199747979641
1710956588513162000,15.030161865234374,-0.2764163017272949,0.29046618938446045,-0.24006985127925873
1710956588532121000,15.04912109375,-0.02626718580722809,-0.16737695038318634,-0.17623448371887207
1710956588551080200,15.068080078125,-0.12003492563962936,0.17898337543010712,-0.009773836471140385
1710956588570039000,15.0870390625,-0.3384190797805786,0.18631376326084137,0.029932374134659767
1710956588588998100,15.105998046875,-0.016798781231045723,-0.1496618688106537,0.09010255336761475
1710956588607957200,15.124957275390624,0.21135921776294708,-0.2513708472251892,0.0665842592716217
1710956588626916000,15.143916015625,-0.23976442217826843,0.24709481000900269,-0.08796452730894089
1710956588645875200,15.162875244140626,-0.3814850449562073,0.3023780584335327,0.14477495849132538
1710956588664834300,15.181834228515624,-0.024434590712189674,0.291687935590744,0.14202606678009033
1710956588683793200,15.200793212890625,0.1230892539024353,0.39797839522361755,0.038789913058280945
1710956588702752300,15.219752197265626,-0.15485422313213348,0.8988875150680542,-0.05100720748305321
1710956588721711400,15.23871142578125,-0.14782927930355072,0.46975502371788025,-0.01435532234609127
1710956588740670200,15.257670166015625,0.09132428467273712,0.07849612087011337,-0.17531819641590118
1710956588759629300,15.27662939453125,-0.14477495849132538,-0.3289506733417511,-0.29504770040512085
1710956588778588400,15.29558837890625,-0.09193515032529831,0.053756099194288254,0.09468404203653336
1710956588797547500,15.314547607421876,0.36254823207855225,0.32559093832969666,0.14110976457595825
1710956588816506400,15.33350634765625,-0.1649334877729416,0.1795942485332489,-0.1802051067352295
1710956588835465500,15.352465576171875,-0.3842339515686035,-0.05803215503692627,-0.1288924664258957
1710956588854424600,15.371424560546876,0.09529490768909454,-0.08399390429258347,-0.1997527778148651
1710956588873383400,15.390383544921875,0.16126830875873566,0.12431098520755768,-0.1905898153781891
1710956588892342500,15.409342529296875,-0.26939135789871216,0.05528326332569122,-0.07880155742168427
1710956588911301400,15.42830126953125,-0.31031930446624756,-0.3042106628417969,0.1740964651107788
1710956588930260500,15.447260498046875,-0.010690134018659592,-0.11117739230394363,0.17745621502399445
1710956588949219600,15.466219482421875,-0.10384701192378998,0.347582072019577,-0.11117739230394363
1710956588968178400,15.485178466796874,-0.1649334877729416,0.6209440231323242,-0.31551164388656616
1710956588987137500,15.504137451171875,-0.2828303873538971,0.2889390289783478,-0.07452550530433655
1710956589006096600,15.5230966796875,-0.16646064817905426,-0.09804379940032959,-0.0204639695584774
1710956589025055700,15.5420556640625,0.129197895526886,-0.49663305282592773,-0.14477495849132538
1710956589044014600,15.5610146484375,0.20250166952610016,-0.09132428467273712,-0.10751219838857651
1710956589062973700,15.5799736328125,0.02718348242342472,1.0091485977172852,-0.3237583339214325
1710956589081932500,15.5989326171875,0.011911863461136818,0.7229584455490112,-0.20372340083122253
1710956589100891600,15.6178916015625,-0.08826996386051178,-0.12736530601978302,-0.1127045527100563
1710956589119850500,15.6368505859375,-0.0717766135931015,-0.471587598323822,-0.20127993822097778
1710956589138809600,15.6558095703125,0.02412915788590908,-0.21258094906806946,-0.1844811588525772
1710956589157768700,15.674768798828126,0.01588248461484909,0.2611446976661682,-0.33597561717033386
1710956589176727800,15.693727783203125,-0.18081597983837128,0.3533852696418762,-0.39370235800743103
1710956589195686700,15.712686767578125,-0.3326158821582794,0.5668824911117554,-0.32192572951316833
1710956589214645800,15.731645751953126,0.08277218043804169,0.27855435013771057,-0.4789179861545563
1710956589233604900,15.75060498046875,-0.4838049113750458,-0.4883863925933838,0.07513637095689774
1710956589252563700,15.769563720703125,0.043982263654470444,-1.5412118434906006,0.39675667881965637
1710956589271522800,15.788522705078124,0.35277441143989563,-3.3402085304260254,1.2977821826934814
1710956589290481700,15.807481689453125,0.18173226714134216,-2.4291038513183594,1.3240493535995483
1710956589309440800,15.826440673828126,-0.4172206521034241,1.3362667560577393,0.36804601550102234
1710956589328400000,15.84539990234375,-0.5109884142875671,2.738812208175659,0.4221075773239136
1710956589347359000,15.86435888671875,-0.34605491161346436,2.4287984371185303,-0.06566796451807022
1710956589366317800,15.88331787109375,-0.2516762912273407,-0.05711585655808449,-0.00946840364485979
1710956589385277000,15.90227685546875,-0.5131264328956604,-1.0705405473709106,0.04917461425065994
1710956589404236000,15.921236083984375,-0.24495677649974823,-0.8720094561576843,0.06963858753442764
1710956589423195000,15.94019482421875,0.006414080038666725,-0.44470956921577454,0.10629047453403473
1710956589442154000,15.959154052734375,-0.09101885557174683,-0.36193737387657166,0.17134757339954376
1710956589461112800,15.97811279296875,-0.32681265473365784,0.21258094906806946,-0.08521563559770584
1710956589480072000,15.997072021484374,-0.2822195291519165,0.16126830875873566,-0.13683371245861053
1710956589499031000,16.016031005859375,0.1490510106086731,0.1795942485332489,-0.16249002516269684
1710956589517990000,16.034989990234376,-0.20127993822097778,-0.1279761642217636,-0.13927717506885529
1710956589536949000,16.053948974609376,-0.4166097939014435,-0.13011419773101807,-0.09498947113752365
1710956589555908000,16.072908203125,-0.2831358313560486,-0.5564978122711182,0.11514800786972046
1710956589574867200,16.0918671875,0.11209368705749512,-0.37293294072151184,-0.13164135813713074
1710956589593826000,16.110825927734375,-0.12278381735086441,0.21227550506591797,-0.3601047992706299
1710956589612785200,16.12978515625,-0.13469567894935608,0.5256491303443909,-0.3689623177051544
1710956589631744300,16.148744140625,-0.1438586562871933,-0.09651663154363632,-0.08002328872680664
1710956589650703000,16.167703125,0.01588248461484909,-0.9471458196640015,0.005803215317428112
1710956589669662200,16.186662109375,0.007330377586185932,-1.0506874322891235,-0.14263692498207092
1710956589688621000,16.20562109375,0.11056652665138245,-0.04581485688686371,-0.2724456787109375
1710956589707580200,16.224580078125,0.4740310609340668,0.09437860548496246,-0.2464839369058609
1710956589726539300,16.243539306640624,0.16737695038318634,-0.2779434621334076,-0.13103049993515015
1710956589745498000,16.262498046875,-0.13500112295150757,-0.3686569035053253,-0.14691297709941864
1710956589764457200,16.281457275390625,0.4712821841239929,-0.7544180154800415,0.0513126403093338
1710956589783416300,16.300416259765626,0.722347617149353,-0.8051197528839111,0.12278381735086441
1710956589802375400,16.31937548828125,0.3842339515686035,-0.5381718873977661,-0.011911863461136818
1710956589821334300,16.338334228515624,0.4877755343914032,0.01649334840476513,-0.011300998739898205
1710956589840293400,16.35729345703125,0.8949168920516968,0.2889390289783478,0.012217295356094837
1710956589859252500,16.37625244140625,0.9169080257415771,0.01282816007733345,0.03848448023200035
1710956589878211300,16.39521142578125,0.8258891701698303,-0.4422661066055298,0.210442915558815
1710956589897170400,16.41417041015625,1.0396918058395386,-0.2254091054201126,0.37751442193984985
1710956589916129500,16.433129638671875,1.2104285955429077,0.051618073135614395,0.4114174246788025
1710956589935088600,16.452088623046876,1.3585633039474487,0.24312418699264526,0.29443681240081787
1710956589954047500,16.471047607421873,1.110552191734314,-0.43860089778900146,0.35063639283180237
1710956589973006600,16.490006591796874,1.0528254508972168,-1.2342523336410522,0.6172788739204407
1710956589991965700,16.508965576171875,1.4223986864089966,-1.3151918649673462,0.7770199775695801
1710956590010924500,16.527924560546875,1.6404774188995361,-0.6783653497695923,0.49052441120147705
1710956590029883600,16.546883544921876,1.5244131088256836,-1.007315993309021,0.574212908744812
1710956590048842800,16.5658427734375,1.3371829986572266,-1.1575887203216553,0.8573487401008606
1710956590067801900,16.5848017578125,1.4550799131393433,-1.8674136400222778,1.2104285955429077
1710956590086760700,16.6037607421875,1.7434080839157104,-2.1591014862060547,1.007315993309021
1710956590105719800,16.6227197265625,1.7223331928253174,-2.1587960720062256,1.0109812021255493
1710956590124679000,16.641678955078124,1.5302162170410156,-1.6746858358383179,0.9434806704521179
1710956590143638000,16.660637939453125,1.0830632448196411,-1.3472622632980347,1.127350926399231
1710956590162596900,16.679596923828125,0.9395100474357605,-0.5513054728507996,1.0760383605957031
1710956590181556000,16.698555908203126,0.8643736839294434,0.09407317638397217,1.0790926218032837
1710956590200515000,16.71751513671875,0.8078686594963074,0.8851430416107178,0.8524618148803711
1710956590219474200,16.73647412109375,0.4633409380912781,0.29504770040512085,0.6142245531082153
1710956590238433000,16.75543310546875,0.2556469142436981,-0.10842850059270859,0.545502245426178
1710956590257392000,16.77439208984375,0.42271843552589417,0.38209593296051025,0.5464185476303101
1710956590276351200,16.793351318359374,0.4046979248523712,0.2886336147785187,0.3185659945011139
1710956590295310000,16.81231005859375,0.11148282140493393,-0.21746785938739777,0.19394956529140472
1710956590314269200,16.831269287109375,0.1997527778148651,-0.21258094906806946,0.1380554437637329
1710956590333228300,16.850228271484376,0.22327107191085815,0.000610864779446274,0.06566796451807022
1710956590352187400,16.8691875,0.05039634555578232,-0.18234314024448395,-0.04734202101826668
1710956590371146200,16.888146240234374,-0.06047561392188072,-0.14141519367694855,-0.027488915249705315
1710956590390105300,16.907105224609374,0.1328630894422531,0.21288637816905975,-0.03298669680953026
1710956590409064400,16.926064453125,0.08888082206249237,0.2412915825843811,-0.04764745384454727
1710956590428023600,16.9450234375,-0.06383536756038666,0.05833758786320686,-0.024434590712189674
1710956590446982400,16.963982421875,-0.09285144507884979,0.21349723637104034,0.04459312930703163
1710956590465941500,16.98294140625,-0.04001164436340332,0.17318016290664673,0.06902772188186646
1710956590484900600,17.001900634765626,-0.07055488228797913,-0.026878049597144127,-0.006719512399286032
1710956590503859700,17.020859619140627,-0.13591741025447845,0.19394956529140472,-0.06811141967773438
1710956590522818800,17.03981884765625,-0.0513126403093338,0.37232208251953125,-0.11362084746360779
1710956590541778000,17.05877783203125,-0.09071341902017593,0.09132428467273712,-0.06475166976451874
1710956590560736800,17.07773681640625,-0.1792888194322586,-0.09346231073141098,-0.02412915788590908
1710956590579695900,17.09669580078125,-0.13561198115348816,0.08307760953903198,-0.08063415437936783
1710956590598655000,17.115655029296875,-0.08032871782779694,0.19944734871387482,-0.10537417232990265
1710956590617614000,17.134614013671875,-0.1334739476442337,0.20189081132411957,-0.11698060482740402
1710956590636573000,17.153572998046876,-0.2257145345211029,0.1533270627260208,-0.18203771114349365
1710956590655532000,17.172531982421877,-0.22204934060573578,0.12767073512077332,-0.25503605604171753
1710956590674491100,17.1914912109375,-0.18906265497207642,0.16676609218120575,-0.25442516803741455
1710956590693450200,17.2104501953125,-0.20341797173023224,0.17745621502399445,-0.27427828311920166
1710956590712409300,17.229409423828123,-0.21746785938739777,0.14569124579429626,-0.3121519088745117
1710956590731368400,17.248368408203124,-0.26450446248054504,0.14049890637397766,-0.28924447298049927
1710956590750327300,17.267327392578125,-0.31581708788871765,0.18264856934547424,-0.28435754776000977
1710956590769286400,17.286286376953125,-0.2935205399990082,0.1701258420944214,-0.34238970279693604
1710956590788245500,17.30524560546875,-0.370184063911438,0.24740023910999298,-0.3842339515686035
1710956590807204600,17.32420458984375,-0.40866854786872864,0.1737910360097885,-0.44348782300949097
1710956590826163700,17.343163818359375,-0.45448338985443115,-0.02779434807598591,-0.45967575907707214
1710956590845122800,17.362122802734376,-0.5158752799034119,0.051618073135614395,-0.5174024701118469
1710956590864081700,17.38108154296875,-0.6881392002105713,0.2984074354171753,-0.5256491303443909
1710956590883040800,17.400040771484374,-0.7348703145980835,0.43829548358917236,-0.5488619804382324
1710956590901999900,17.418999755859375,-0.776103675365448,0.45509424805641174,-0.5913171172142029
1710956590920959000,17.437958984375,-0.9288198947906494,0.6545416116714478,-0.6166679859161377
1710956590939918000,17.45691796875,-1.1536180973052979,1.174692988395691,-0.6829468011856079
1710956590958877200,17.475877197265625,-1.156977891921997,1.2330305576324463,-0.9505056142807007
1710956590977836000,17.4948359375,-1.036332130432129,0.6453786492347717,-0.9950987100601196
1710956590996795100,17.513795166015626,-0.7147117853164673,0.6331613659858704,-0.8988875150680542
1710956591015754500,17.53275439453125,-0.9691369533538818,1.3616175651550293,-0.7877101302146912
1710956591034713300,17.55171337890625,-1.3093886375427246,1.286786675453186,-0.7904590368270874
1710956591053672400,17.57067236328125,-1.0488548278808594,0.5390881896018982,-0.8032872080802917
1710956591072631600,17.589631591796874,-0.5907062292098999,-0.19303326308727264,-0.7229584455490112
1710956591091590700,17.608590576171874,-0.8075632452964783,-0.3759872615337372,-0.5030471682548523
1710956591110549800,17.6275498046875,-1.08978271484375,-0.05222893878817558,-0.3481929302215576
1710956591129508900,17.6465087890625,-0.850018322467804,-0.054672397673130035,-0.3640754222869873
1710956591148467700,17.6654677734375,-0.5757400393486023,-0.32559093832969666,-0.374765545129776
1710956591167426800,17.6844267578125,-0.7244856357574463,-0.5030471682548523,-0.33108872175216675
1710956591186386000,17.703385986328126,-0.8851430416107178,-0.17531819641590118,-0.281914085149765
1710956591205345000,17.722344970703126,-0.36224281787872314,0.4358520209789276,-0.1795942485332489
1710956591224304000,17.74130419921875,-0.5635227560997009,0.8032872080802917,-0.10842850059270859
1710956591243263200,17.76026318359375,-0.8002328872680664,0.6087267398834229,-0.10903936624526978
1710956591262222300,17.779222412109377,-0.5513054728507996,-0.3433060050010681,-0.21685700118541718
1710956591281181400,17.798181396484374,-0.38850998878479004,-0.6380482912063599,-0.18203771114349365
1710956591300140500,17.817140625,-0.23396120965480804,-0.08826996386051178,-0.22204934060573578
1710956591319099600,17.836099609375,-0.35582873225212097,0.9828814268112183,0.12186752259731293
1710956591338058800,17.855058837890624,-0.3610210716724396,1.517388105392456,0.026572618633508682
1710956591357017600,17.874017578125,-0.34238970279693604,0.8637627959251404,-0.12156209349632263
1710956591375977000,17.89297705078125,-0.08552107214927673,0.06383536756038666,-0.05925388261675835
1710956591394935800,17.911935791015626,-0.06505709886550903,-0.1591302752494812,0.011300998739898205
1710956591413895000,17.93089501953125,-0.4370737373828888,0.5115992426872253,0.0717766135931015
1710956591432854000,17.94985400390625,-0.10537417232990265,0.9407317638397217,0.10873392969369888
1710956591451813000,17.968813232421876,0.2156352698802948,0.544891357421875,0.059864748269319534
1710956591470772200,17.987772216796873,-0.16584978997707367,0.06322450190782547,0.03176496922969818
1710956591489731300,18.0067314453125,-0.13041962683200836,0.05742128938436508,0.28435754776000977
1710956591508690400,18.0256904296875,0.19089524447917938,0.15149445831775665,0.1285870373249054
1710956591527649500,18.0446494140625,0.17653992772102356,-0.18234314024448395,-0.05253437161445618
1710956591546608600,18.063608642578124,0.044898562133312225,-0.001832594396546483,0.13255766034126282
1710956591565567700,18.082567626953125,0.028405211865901947,0.09896009415388107,-0.05283980444073677
1710956591584526800,18.10152685546875,0.2208276242017746,0.09285144507884979,0.09040798991918564
1710956591603486000,18.12048583984375,0.287106454372406,0.3949240744113922,-0.03237583488225937
1710956591622445000,18.139445068359375,-0.1279761642217636,0.5057960152626038,-0.26389357447624207
1710956591641404200,18.158404052734376,-0.24281874299049377,-0.06108647957444191,-0.379347026348114
1710956591660363300,18.17736328125,-0.018631376326084137,-0.05925388261675835,-0.14782927930355072
1710956591679322400,18.196322265625,0.0665842592716217,0.8921679854393005,-0.013133592903614044
1710956591698281500,18.215281494140626,0.02107483521103859,1.2147046327590942,-0.04673115536570549
1710956591717240600,18.234240478515623,-0.09896009415388107,0.7232639193534851,-0.0873536616563797
1710956591736199700,18.25319970703125,-0.10567960888147354,0.015577051788568497,-0.17592905461788177
1710956591755158500,18.272158447265625,-0.2003636509180069,0.16004657745361328,-0.2984074354171753
1710956591774118000,18.291117919921874,-0.05283980444073677,0.32650721073150635,0.016187917441129684
1710956591793077000,18.310076904296874,0.17837251722812653,0.5045742988586426,0.08093958348035812
1710956591812036000,18.3290361328125,-0.16126830875873566,0.13683371245861053,-0.09315688163042068
1710956591830995200,18.3479951171875,-0.22327107191085815,-0.03756818547844887,-0.02779434807598591
1710956591849954000,18.3669541015625,-0.061391908675432205,-0.1130099818110466,-0.09346231073141098
1710956591868913400,18.385913330078125,-0.09712749719619751,-0.04673115536570549,0.13744457066059113
1710956591887872500,18.40487255859375,-0.1026252806186676,0.06017018109560013,0.32620179653167725
1710956591906831400,18.423831298828127,0.09437860548496246,-0.6356047987937927,-0.235793799161911
1710956591925790700,18.442790771484376,0.21960589289665222,-0.7461713552474976,-0.20433427393436432
1710956591944749600,18.46174951171875,-0.1597411334514618,0.9260709881782532,-0.03298669680953026
1710956591963709000,18.480708984375,-0.09834922850131989,0.5940660238265991,0.12217295914888382
1710956591982668000,18.49966796875,0.13561198115348816,-0.8894191384315491,0.0616973415017128
1710956592001627000,18.518626953125,-0.08582650125026703,-1.0867284536361694,-0.07330377399921417
1710956592020586200,18.537586181640624,-0.18570289015769958,-0.01588248461484909,0.06811141967773438
1710956592039545000,18.556545166015624,-0.14569124579429626,0.8875865340232849,0.28527384996414185
1710956592058504200,18.575504150390625,-0.22266021370887756,0.4309650957584381,-0.13011419773101807
1710956592077463600,18.594463623046874,-0.6175842881202698,-0.4471530318260193,-0.5537489056587219
1710956592096422400,18.61342236328125,-0.5424479246139526,-0.8402445316314697,-0.30024003982543945
1710956592115381800,18.6323818359375,-0.22693626582622528,-0.401949018239975,0.26022839546203613
1710956592134340600,18.651340576171876,0.5436696410179138,0.12095122784376144,0.6136136651039124
1710956592153299700,18.6702998046875,0.8967494964599609,-0.8729257583618164,0.2868010103702545
1710956592172259000,18.689259033203125,-0.3191768527030945,-1.0571014881134033,0.7418952584266663
1710956592191218000,18.708218017578126,-0.6829468011856079,0.2205221801996231,0.7528908252716064
1710956592210177000,18.727177001953127,-0.1905898153781891,0.2837466895580292,0.6829468011856079
1710956592229136100,18.74613623046875,-0.23548837006092072,-0.1282816082239151,0.26542073488235474
1710956592248095200,18.76509521484375,-0.3039052188396454,0.3964512348175049,0.022296564653515816
1710956592267054600,18.7840546875,-0.337808221578598,0.6102539300918579,-0.20891575515270233
1710956592286013400,18.803013427734374,-0.2718348205089569,0.5436696410179138,-0.04550942778587341
1710956592304972500,18.82197265625,-0.0461202897131443,-0.09468404203653336,-0.11331541836261749
1710956592323931600,18.840931640625,-0.20708316564559937,-0.8219185471534729,0.003359756199643016
1710956592342890800,18.859890869140624,-0.1233946830034256,-0.35582873225212097,0.10201441496610641
1710956592361849900,18.878849853515625,-0.19853104650974274,0.6667588949203491,-0.16096286475658417
1710956592380809000,18.89780908203125,-0.09804379940032959,0.5155698657035828,-0.10842850059270859
1710956592399768000,18.91676806640625,0.04673115536570549,-0.24434591829776764,-0.010690134018659592
1710956592418727200,18.93572705078125,-0.11667517572641373,-0.4862483739852905,0.0461202897131443
1710956592437686300,18.954686279296876,-0.1545487940311432,-0.2513708472251892,0.08093958348035812
1710956592456645400,18.973645263671877,-0.004886918235570192,-0.3271180987358093,-0.01954767294228077
1710956592475604500,18.9926044921875,0.07941242307424545,-0.2675587832927704,-0.023823726922273636
1710956592494563600,19.0115634765625,0.011606430634856224,0.007941242307424545,-0.03634645417332649
1710956592513522700,19.030522705078123,0.047036588191986084,-0.07574722915887833,-0.035124726593494415
1710956592532481800,19.049481689453124,0.15638138353824615,-0.6609556674957275,0.03481929376721382
1710956592551441000,19.06844091796875,0.2153298407793045,-0.907439649105072,0.007635809946805239
1710956592570400000,19.08739990234375,0.3035998046398163,-0.4917461574077606,-0.01649334840476513
1710956592589359000,19.106359130859374,0.35063639283180237,0.12553271651268005,-0.060781046748161316
1710956592608318200,19.125318115234375,0.5674933791160583,0.12400554865598679,-0.004276053514331579
1710956592627277300,19.14427734375,0.48044514656066895,-0.5174024701118469,0.08277218043804169
1710956592646236400,19.163236328125,0.2919933497905731,-1.0021237134933472,0.09132428467273712
1710956592665195500,19.182195556640625,0.5937605500221252,-0.8206968307495117,0.1997527778148651
1710956592684154600,19.201154541015626,0.9208786487579346,-0.3857611119747162,0.24892739951610565
1710956592703113700,19.22011376953125,0.7544180154800415,0.11239911615848541,0.05925388261675835
1710956592722072800,19.23907275390625,0.6096430420875549,0.33169957995414734,-0.040317077189683914
1710956592741032000,19.258031982421876,0.9101884961128235,-0.0009162971982732415,0.006108647678047419
1710956592759991000,19.276990966796873,1.2318087816238403,-0.5815432667732239,0.03634645417332649
1710956592778950100,19.2959501953125,1.0134246349334717,-0.831997811794281,0.2409861534833908
1710956592797909200,19.3149091796875,0.9382883310317993,-0.6117810606956482,0.4199695289134979
1710956592816868400,19.333868408203124,1.2104285955429077,-0.536644697189331,0.5558869242668152
1710956592835827500,19.352827392578124,1.2647955417633057,-0.8023709058761597,0.6243038177490234
1710956592854786600,19.37178662109375,1.0497710704803467,-1.0989457368850708,0.5739074349403381
1710956592873745700,19.39074560546875,1.0390809774398804,-1.2983931303024292,0.619722306728363
1710956592892704800,19.409704833984375,1.2470804452896118,-1.2886192798614502,0.7754928469657898
1710956592911663900,19.428663818359375,1.3301581144332886,-1.5659518241882324,0.8683443069458008
1710956592930623000,19.447623046875,1.588248372077942,-1.9886702299118042,0.6911935210227966
1710956592949582000,19.46658203125,1.9000948667526245,-1.9682062864303589,0.3860665261745453
1710956592968541000,19.485541015625,1.3964369297027588,-2.0720534324645996,0.17531819641590118
1710956592987500000,19.5045,0.5122101306915283,-1.8387030363082886,0.3393353819847107
1710956593006459400,19.52345947265625,0.6322450637817383,-0.44990190863609314,0.48930269479751587
1710956593025418200,19.542418212890624,0.8564324378967285,0.9175189137458801,0.8481857180595398
1710956593044377300,19.56137744140625,0.5986474752426147,0.6490437984466553,0.9560033679008484
1710956593063336400,19.58033642578125,0.11636973917484283,-0.3249800503253937,0.907439649105072
1710956593082295600,19.599295654296874,0.30146175622940063,0.01649334840476513,0.7159335017204285
1710956593101254700,19.618254638671875,0.5213730931282043,0.7605266571044922,0.5314523577690125
1710956593120213800,19.6372138671875,0.0873536616563797,0.45051276683807373,0.4416552484035492
1710956593139172900,19.6561728515625,-0.10598503798246384,0.08307760953903198,0.4053087830543518
1710956593158132000,19.675132080078125,0.07483093440532684,0.27397283911705017,0.3601047992706299
1710956593177091000,19.694091064453126,0.3173442482948303,0.12522727251052856,0.13561198115348816
1710956593196050200,19.71305029296875,0.05589412897825241,-0.4218021333217621,0.06536252796649933
1710956593215009300,19.73200927734375,0.04764745384454727,-0.3857611119747162,0.07757982611656189
1710956593233968400,19.750968505859376,0.15699224174022675,-0.0360410213470459,0.08643736690282822
1710956593252927500,19.769927490234377,0.11636973917484283,0.01649334840476513,0.05711585655808449
1710956593271886300,19.78888623046875,0.08032871782779694,-0.21410810947418213,-0.018325943499803543
1710956593290845400,19.807845458984374,0.09529490768909454,-0.18356487154960632,-0.013439024798572063
1710956593309804800,19.8268046875,0.07635809481143951,0.2211330533027649,0.11362084746360779
1710956593328763600,19.845763671875,0.04550942778587341,0.3637699782848358,0.10598503798246384
1710956593347722800,19.86472265625,-0.014049889519810677,-0.011911863461136818,0.002443459117785096
1710956593366681900,19.883681884765625,0.03848448023200035,0.0766635313630104,0.0030543238390237093
1710956593385641000,19.902640869140626,0.012217295356094837,0.36254823207855225,0.08307760953903198
1710956593404600000,19.92160009765625,-0.09560033679008484,0.2006690800189972,0.0565049909055233
1710956593423559200,19.94055908203125,-0.10629047453403473,-0.021685699000954628,0.03176496922969818
1710956593442518300,19.959518310546876,0.0054977829568088055,0.20799945294857025,-0.006108647678047419
1710956593461477400,19.978477294921873,-0.016798781231045723,0.24923282861709595,-0.05436696484684944
1710956593480436200,19.997436279296874,-0.021380268037319183,-0.08429934084415436,-0.09468404203653336
1710956593499395600,20.0163955078125,-0.09987638890743256,-0.13744457066059113,-0.03329212963581085
1710956593518354700,20.035354736328124,-0.013744457624852657,0.05222893878817558,0.01588248461484909
1710956593537313500,20.0543134765625,-0.07086031138896942,-0.11026109009981155,-0.019853105768561363
1710956593556272600,20.073272705078125,-0.08826996386051178,-0.04978547990322113,-0.06352993845939636
1710956593575231700,20.092231689453126,-0.04886918142437935,0.18081597983837128,-0.0360410213470459
1710956593594190800,20.11119091796875,-0.09071341902017593,0.053756099194288254,-0.04428769648075104
1710956593613150000,20.13014990234375,-0.1740964651107788,-0.21288637816905975,-0.03817904740571976
1710956593632109000,20.149109130859376,-0.17531819641590118,0.056810423731803894,-0.030543239787220955
1710956593651068200,20.168068115234377,-0.15027274191379547,0.4004218578338623,-0.012522728182375431
1710956593670027300,20.18702734375,-0.17898337543010712,0.24801109731197357,-0.06200277432799339
1710956593688986400,20.205986328125,-0.2919933497905731,0.028405211865901947,-0.09621120244264603
1710956593707945200,20.2249453125,-0.22357651591300964,0.22388194501399994,-0.14569124579429626
1710956593726904300,20.243904296875,-0.21930044889450073,0.23548837006092072,-0.17256930470466614
1710956593745863400,20.262863525390625,-0.25411975383758545,0.023212861269712448,-0.17165300250053406
1710956593764822500,20.281822509765625,-0.2883281707763672,0.11117739230394363,-0.16615521907806396
1710956593783781600,20.30078173828125,-0.3170388340950012,0.2409861534833908,-0.2107483446598053
1710956593802740700,20.31974072265625,-0.34605491161346436,0.18661919236183167,-0.2412915825843811
1710956593821699800,20.338699951171876,-0.3481929302215576,0.13439024984836578,-0.3228420317173004
1710956593840659000,20.357658935546876,-0.43921178579330444,0.13683371245861053,-0.36132651567459106
1710956593859617800,20.37661767578125,-0.4465421438217163,0.31031930446624756,-0.34636032581329346
1710956593878577000,20.395576904296874,-0.4789179861545563,0.250149130821228,-0.4269944727420807
1710956593897536000,20.414535888671875,-0.6322450637817383,0.025350889191031456,-0.535728394985199
1710956593916495000,20.4334951171875,-0.6606502532958984,0.17562362551689148,-0.6047561168670654
1710956593935454200,20.4524541015625,-0.6692023873329163,0.48991355299949646,-0.5955931544303894
1710956593954413300,20.471413330078125,-0.7984002828598022,0.6661480665206909,-0.61117023229599
1710956593973372400,20.490372314453126,-0.96180659532547,0.4935787320137024,-0.7553343176841736
1710956593992331300,20.509331298828126,-0.9199623465538025,0.3753764033317566,-0.7608320713043213
1710956594011290400,20.528290283203123,-0.7849612236022949,0.6139190793037415,-0.778241753578186
1710956594030249500,20.54724951171875,-0.8063415288925171,1.0699297189712524,-0.7831286191940308
1710956594049208600,20.56620849609375,-1.0671807527542114,0.9669989347457886,-0.8927788734436035
1710956594068167700,20.585167724609374,-0.9385937452316284,0.6233875155448914,-0.8390227556228638
1710956594087126800,20.604126708984374,-0.4828886091709137,0.22968515753746033,-0.8090903759002686
1710956594106085600,20.623085693359375,-0.7504473924636841,-0.3127627670764923,-0.6863065958023071
1710956594125045000,20.642044921875,-1.044884204864502,-0.6212494969367981,-0.5583304166793823
1710956594144003800,20.66100390625,-0.8860593438148499,-0.48991355299949646,-0.43279770016670227
1710956594162963000,20.679962890625,-0.5314523577690125,0.3396408259868622,-0.45020735263824463
1710956594181922000,20.698922119140626,-0.7226530313491821,0.7764091491699219,-0.5128209590911865
1710956594200881200,20.717881103515627,-0.8200859427452087,0.3237583339214325,-0.5558869242668152
1710956594219840300,20.73684033203125,-0.42424559593200684,-0.1331685185432434,-0.46608981490135193
1710956594238799400,20.75579931640625,-0.16126830875873566,0.16859868168830872,-0.22204934060573578
1710956594257758200,20.77475830078125,-0.6524035930633545,0.18356487154960632,-0.13469567894935608
1710956594276717300,20.79371728515625,-0.610559344291687,0.4462367296218872,-0.17776164412498474
1710956594295676400,20.812676513671875,-0.4001164436340332,0.5403099060058594,-0.24984370172023773
1710956594314635500,20.831635498046875,-0.3970620930194855,1.089477300643921,-0.15027274191379547
1710956594333594600,20.8505947265625,-0.022296564653515816,0.9434806704521179,0.029626941308379173
1710956594352553700,20.8695537109375,-0.014660755172371864,0.23396120965480804,0.01893680728971958
1710956594371512800,20.888512939453125,-0.24831652641296387,-0.5467239618301392,-0.0565049909055233
1710956594390471700,20.9074716796875,-0.1389717310667038,-0.4101957082748413,-0.14721840620040894
1710956594409430800,20.9264306640625,0.268169641494751,0.5210676789283752,0.0665842592716217
1710956594428390000,20.945389892578124,0.21319180727005005,1.7314962148666382,0.3017672002315521
1710956594447349000,20.964348876953125,-0.07116574794054031,1.9822561740875244,0.27091851830482483
1710956594466308000,20.98330810546875,-0.028099779039621353,0.9159917235374451,0.3445277214050293
1710956594485267200,21.00226708984375,0.21655155718326569,-0.8527672290802002,0.34086254239082336
1710956594504226000,21.02122607421875,0.048563748598098755,-0.999069333076477,0.3543015718460083
1710956594523185200,21.04018505859375,0.1957821547985077,-0.15638138353824615,0.23029601573944092
1710956594542144300,21.059144287109376,0.35155269503593445,0.9092722535133362,0.22754712402820587
1710956594561103400,21.078103271484373,0.3601047992706299,1.619097113609314,0.13133592903614044
1710956594580062500,21.0970625,0.3130682110786438,0.7339540123939514,-0.03481929376721382
1710956594599021600,21.116021484375,0.36804601550102234,-0.6331613659858704,0.021380268037319183
1710956594617980400,21.13498046875,0.19303326308727264,-1.0491602420806885,0.16615521907806396
1710956594636939500,21.153939453125,-0.039706211537122726,-0.13194678723812103,0.2159406989812851
1710956594655898600,21.172898681640625,0.19242240488529205,0.4981602132320404,0.231212317943573
1710956594674857700,21.191857666015625,0.016798781231045723,0.7012727856636047,0.07299833744764328
1710956594693816800,21.21081689453125,-0.16035200655460358,0.712573766708374,0.047952886670827866
1710956594712776000,21.22977587890625,0.0027488914784044027,0.7574723362922668,-0.0409279391169548
1710956594731734800,21.24873486328125,-0.03634645417332649,-0.04978547990322113,-0.06322450190782547
1710956594750694000,21.26769384765625,-0.0922405794262886,-0.33505934476852417,-0.0668896958231926
1710956594769653000,21.286653076171874,0.02412915788590908,0.23243404924869537,-0.12675444781780243
1710956594788612000,21.305612060546874,0.02260199747979641,0.6777544617652893,-0.16798780858516693
1710956594807571200,21.3245712890625,-0.050090912729501724,0.7440332770347595,-0.13927717506885529
1710956594826530300,21.3435302734375,0.16004657745361328,0.13500112295150757,-0.4199695289134979
1710956594845489400,21.362489501953124,0.3903425931930542,-0.31673339009284973,-0.27580544352531433
1710956594864448500,21.381448486328125,-0.1954767256975174,0.9434806704521179,-0.3500255048274994
1710956594883407600,21.40040771484375,-0.24404047429561615,0.924238383769989,-0.0977383628487587
1710956594902366500,21.419366455078126,0.08888082206249237,0.10018182545900345,-0.16004657745361328
1710956594921325600,21.43832568359375,-0.15515965223312378,-0.11209368705749512,-0.08277218043804169
1710956594940284700,21.45728466796875,-0.13500112295150757,0.1698204129934311,-0.004581485874950886
1710956594959243800,21.476243896484377,-0.16126830875873566,-0.3078758418560028,-0.11392628401517868
1710956594978203000,21.495202880859374,-0.07910698652267456,-0.7202095985412598,-0.1597411334514618
1710956594997162000,21.514161865234374,0.11881320178508759,0.002443459117785096,-0.16279546916484833
1710956595016121000,21.53312109375,0.3756818473339081,0.5412262082099915,-0.3249800503253937
1710956595035080200,21.552080078125,-0.4269944727420807,0.6811142563819885,-0.1288924664258957
1710956595054039000,21.5710390625,-0.46028661727905273,0.2788597643375397,0.08491020649671555
1710956595072998100,21.589998046875,0.38240134716033936,-1.5146392583847046,0.630107045173645
1710956595091957200,21.608957275390626,0.7171552777290344,-2.7030766010284424,0.9966259002685547
1710956595110916400,21.627916259765627,-0.5549706816673279,-0.11911863088607788,0.5051851868629456
1710956595129875500,21.64687548828125,-0.9682206511497498,0.7153226733207703,0.25809037685394287
1710956595148834600,21.66583447265625,-0.31520622968673706,0.7770199775695801,0.1957821547985077
1710956595167793700,21.684793701171873,-0.056810423731803894,0.5109884142875671,0.09498947113752365
1710956595186752800,21.703752685546874,-0.08491020649671555,-0.1542433500289917,-0.08674279600381851
1710956595205712000,21.7227119140625,-0.41355544328689575,-0.6084213256835938,0.08674279600381851
1710956595224670700,21.741670654296875,-0.19608759880065918,0.23365578055381775,0.13041962683200836
1710956595243629800,21.7606298828125,-0.24404047429561615,0.40744680166244507,-0.08155044913291931
1710956595262589200,21.779589111328125,-0.4569268524646759,0.1747073233127594,-0.061391908675432205
1710956595281548000,21.798548095703126,-0.2822195291519165,0.5244274139404297,0.12186752259731293
1710956595300507100,21.817507080078126,-0.26939135789871216,0.18570289015769958,0.08582650125026703
1710956595319466200,21.83646630859375,-0.3607156574726105,-0.7089085578918457,0.0030543238390237093
1710956595338425300,21.85542529296875,-0.5412262082099915,-0.41447174549102783,-0.009162971749901772
1710956595357384400,21.874384521484377,-0.17806708812713623,0.29504770040512085,-0.07971785217523575
1710956595376343600,21.893343505859374,-0.22449280321598053,0.38759371638298035,-0.16157373785972595
1710956595395302700,21.912302734375,-0.3652971386909485,-0.18234314024448395,-0.005803215317428112
1710956595414261800,21.93126171875,-0.24556763470172882,-0.3707949221134186,0.027488915249705315
1710956595433220900,21.950220947265624,-0.053145237267017365,-0.2767217457294464,-0.04550942778587341
1710956595452180000,21.969179931640625,-0.1282816082239151,0.2205221801996231,-0.14508038759231567
1710956595471139000,21.98813916015625,-0.0412333719432354,0.3946186602115631,-0.20402882993221283
1710956595490098200,22.00709814453125,-0.03543015569448471,-0.1081230640411377,-0.13683371245861053
1710956595509057300,22.026057373046875,-0.11209368705749512,-0.6902772188186646,-0.060781046748161316
1710956595528016100,22.04501611328125,0.021685699000954628,-0.8185588121414185,-0.06597339361906052
1710956595546975200,22.063975341796876,0.3078758418560028,-0.38728827238082886,-0.056199558079242706
1710956595565934600,22.0829345703125,0.4205803871154785,-0.03787361457943916,-0.1288924664258957
1710956595584893400,22.1018935546875,0.41355544328689575,0.4474584460258484,-0.2159406989812851
1710956595603852500,22.1208525390625,0.26022839546203613,0.35124725103378296,-0.14569124579429626
1710956595622811600,22.139811767578124,0.07086031138896942,-0.4889972507953644,0.008552107028663158
1710956595641770800,22.158770751953124,0.4358520209789276,-0.9159917235374451,0.09468404203653336
1710956595660730000,22.177730224609373,0.9853248596191406,-0.8753692507743835,0.14263692498207092
1710956595679689000,22.19668896484375,0.7861829996109009,-0.17531819641590118,0.13927717506885529
1710956595698648000,22.21564794921875,0.4056142270565033,0.14080433547496796,0.07880155742168427
1710956595717607200,22.234607177734375,0.4828886091709137,0.09101885557174683,0.029626941308379173
1710956595736566300,22.253566162109376,0.906828761100769,-0.05589412897825241,-0.09896009415388107
1710956595755525400,22.272525390625,1.1911863088607788,-0.48013970255851746,-0.15729768574237823
1710956595774484500,22.291484375,1.2534945011138916,-0.7724385261535645,0.07147117704153061
1710956595793443600,22.310443603515626,1.146898627281189,-0.8249728679656982,0.35124725103378296
1710956595812402700,22.329402587890623,1.109330415725708,-1.1059707403182983,0.42271843552589417
1710956595831361800,22.34836181640625,1.117882490158081,-1.6221513748168945,0.5174024701118469
1710956595850321000,22.36732080078125,1.2654063701629639,-1.5992439985275269,0.5885682106018066
1710956595869280000,22.386280029296874,1.4373648166656494,-1.6197079420089722,0.5925388336181641
1710956595888239000,22.405239013671874,1.416290044784546,-2.170707941055298,0.43371400237083435
1710956595907198200,22.4241982421875,1.4853177070617676,-2.495687961578369,0.5375609993934631
1710956595926157300,22.4431572265625,1.536630392074585,-1.4813470840454102,0.5867356061935425
1710956595945116700,22.46211669921875,1.288313865661621,-0.5506945848464966,0.6814196705818176
1710956595964075500,22.481075439453125,0.8857539296150208,-0.5479456782341003,1.0983349084854126
1710956595983035000,22.500034912109374,0.8023709058761597,0.23915356397628784,1.4291181564331055
1710956596001993700,22.51899365234375,0.9682206511497498,0.5403099060058594,1.0891718864440918
1710956596020952800,22.537952880859375,0.6160571575164795,-0.21746785938739777,0.6496546864509583
1710956596039912200,22.556912109375,0.5112938284873962,-0.13194678723812103,0.5876519083976746
1710956596058871000,22.57587109375,0.6447677612304688,0.3912588953971863,0.6404917240142822
1710956596077830400,22.594830322265626,0.5403099060058594,-0.17684535682201385,0.6148353815078735
1710956596096789200,22.613789306640626,0.324063777923584,-0.4783071279525757,0.4944950342178345
1710956596115748600,22.63274853515625,0.21685700118541718,0.056810423731803894,0.3949240744113922
1710956596134707700,22.651707763671876,0.2993237376213074,0.7339540123939514,0.31154105067253113
1710956596153666800,22.670666748046877,0.1701258420944214,0.37751442193984985,0.22846342623233795
1710956596172626000,22.6896259765625,0.10445787757635117,-0.10720676928758621,0.18173226714134216
1710956596191585000,22.7085849609375,0.10690133273601532,-0.04245510324835777,0.10934479534626007
1710956596210544000,22.727544189453123,0.16737695038318634,0.12980876863002777,0.05589412897825241
1710956596229503200,22.746503173828124,0.06811141967773438,-0.032070402055978775,0.05253437161445618
1710956596248462300,22.76546240234375,-0.003970621153712273,-0.15302163362503052,-0.0015271619195118546
1710956596267421400,22.78442138671875,-0.005803215317428112,-0.02107483521103859,-0.06750056147575378
1710956596286380500,22.803380615234374,0.05894844979047775,0.014660755172371864,-0.02871064469218254
1710956596305339600,22.822339599609375,0.007024944759905338,0.0256563201546669,0.008857538923621178
1710956596324298800,22.841298828125,-0.1444695144891739,-0.04459312930703163,-0.0616973415017128
1710956596343258000,22.860258056640625,-0.13439024984836578,-0.0360410213470459,-0.11148282140493393
1710956596362217000,22.879217041015625,-0.016798781231045723,0.05436696484684944,-0.03145953640341759
1710956596381176300,22.89817626953125,-0.0461202897131443,0.14202606678009033,0.010384701192378998
1710956596400135400,22.917135498046875,-0.18325942754745483,0.12675444781780243,-0.029626941308379173
1710956596419094500,22.936094482421876,-0.09010255336761475,0.01954767294228077,-0.10537417232990265
1710956596438053600,22.9550537109375,-0.014966187067329884,-0.0054977829568088055,-0.11331541836261749
1710956596457012700,22.9740126953125,-0.15088360011577606,0.10537417232990265,-0.08491020649671555
1710956596475971800,22.992971923828126,-0.20616686344146729,0.2938259541988373,-0.09865466505289078
1710956596494931000,23.011930908203126,-0.13958260416984558,0.29993459582328796,-0.09407317638397217
1710956596513890000,23.03089013671875,-0.11148282140493393,0.2306014597415924,-0.11209368705749512
1710956596532849200,23.04984912109375,-0.185092031955719,0.14508038759231567,-0.17562362551689148
1710956596551808500,23.06880859375,-0.24404047429561615,0.036651886999607086,-0.22937972843647003
1710956596570767600,23.087767578125,-0.1542433500289917,0.12980876863002777,-0.21410810947418213
1710956596589726700,23.106726806640626,-0.10629047453403473,0.20127993822097778,-0.19700388610363007
1710956596608685800,23.125685791015623,-0.25534147024154663,0.0974329337477684,-0.2055560052394867
1710956596627645000,23.14464501953125,-0.3643808364868164,0.0616973415017128,-0.2409861534833908
1710956596646604000,23.16360400390625,-0.28527384996414185,0.16310089826583862,-0.2730565667152405
1710956596665563100,23.182563232421874,-0.30543237924575806,0.15729768574237823,-0.30451610684394836
1710956596684522500,23.2015224609375,-0.448069304227829,0.35766133666038513,-0.2864955961704254
1710956596703481300,23.2204814453125,-0.508544921875,0.45478883385658264,-0.3170388340950012
1710956596722440700,23.239440673828124,-0.5048797130584717,0.20189081132411957,-0.35613417625427246
1710956596741399800,23.25839990234375,-0.6508764028549194,0.17287473380565643,-0.39828383922576904
1710956596760359000,23.27735888671875,-0.7959567904472351,0.45875945687294006,-0.4419606626033783
