time,seconds_elapsed,z,y,x
1710956573593665500,0.11066552734375,2.8737800121307373,7.478767395019531,5.257031440734863
1710956573612624000,0.129623779296875,2.5567309856414795,9.951749801635742,5.782256126403809
1710956573631582700,0.148582763671875,1.817348837852478,9.534201622009277,5.563312530517578
1710956573650541000,0.167541015625,2.517249345779419,6.649653911590576,6.719046115875244
1710956573669500000,0.1865,3.2004003524780273,8.388039588928223,8.688339233398438
1710956573688458200,0.205458251953125,2.3976082801818848,9.592825889587402,8.036294937133789
1710956573707417000,0.2244169921875,1.5948163270950317,9.489934921264648,7.441678524017334
1710956573726375400,0.24337548828125,0.6149554252624512,9.369096755981445,7.263412952423096
1710956573745334300,0.262334228515625,-0.7058826684951782,10.14437198638916,7.018148899078369
1710956573764292600,0.281292724609375,-1.8652052879333496,11.685349464416504,6.896114826202393
1710956573783251500,0.30025146484375,-2.187039852142334,11.997612953186035,6.674778938293457
1710956573802209800,0.319209716796875,-1.7419748306274414,11.198410034179688,6.508477687835693
1710956573821168600,0.338168701171875,-0.760917603969574,10.549955368041992,6.558726787567139
1710956573840127000,0.357126953125,0.059820566326379776,10.403992652893066,7.189235687255859
1710956573859085800,0.3760859375,0.7345965504646301,10.053443908691406,7.905886173248291
1710956573878044200,0.395044189453125,1.368694543838501,9.445667266845703,8.161917686462402
1710956573897003000,0.4140029296875,2.204986095428467,8.714659690856934,7.899903774261475
1710956573915961300,0.43296142578125,2.840280532836914,8.441878318786621,7.3675007820129395
1710956573934920200,0.451920166015625,3.1310083866119385,8.467002868652344,6.783652305603027
1710956573953878500,0.47087841796875,2.857030153274536,8.116454124450684,7.296912670135498
1710956573972837400,0.48983740234375,4.071387767791748,7.405786037445068,7.4464640617370605
1710956573991795700,0.508795654296875,3.9326040744781494,6.613761901855469,5.414957523345947
1710956574010754600,0.527754638671875,4.124029636383057,6.068198204040527,4.825126647949219
1710956574029713000,0.546712890625,3.9349968433380127,5.513063430786133,3.10109806060791
1710956574048671700,0.565671630859375,3.0448668003082275,5.264209747314453,2.799602508544922
1710956574067630000,0.584630126953125,2.781656265258789,5.0356950759887695,3.9840497970581055
1710956574086589000,0.6035888671875,3.7016966342926025,4.481756687164307,5.446064472198486
1710956574105547300,0.62254736328125,4.634897232055664,3.900300979614258,6.5766730308532715
1710956574124505900,0.641505859375,5.326423168182373,3.775874137878418,6.674778938293457
1710956574143464700,0.660464599609375,5.034498691558838,4.01037073135376,5.638686656951904
1710956574162423300,0.67942333984375,4.357329845428467,4.156332969665527,4.286741733551025
1710956574181382000,0.6983818359375,3.6095728874206543,4.4961137771606445,3.7016966342926025
1710956574200340500,0.717340576171875,3.456432342529297,5.258227825164795,3.724428415298462
1710956574219299000,0.736299072265625,3.924229145050049,6.246463298797607,3.8189449310302734
1710956574238257700,0.755257568359375,5.0907301902771,7.122236728668213,4.144368648529053
1710956574257216300,0.77421630859375,5.212764263153076,7.823333740234375,4.0833516120910645
1710956574276174800,0.7931748046875,5.039284706115723,7.836493968963623,4.677968502044678
1710956574295133400,0.812133544921875,6.394818305969238,7.94297456741333,6.297909259796143
1710956574314092000,0.831092041015625,8.062616348266602,8.258827209472656,7.134200572967529
1710956574333050600,0.850050537109375,8.900103569030762,8.508877754211426,5.918646812438965
1710956574352009200,0.86900927734375,8.878568649291992,8.841479301452637,3.8979079723358154
1710956574370967800,0.8879677734375,7.899903774261475,9.06999397277832,2.5351955890655518
1710956574389926400,0.906926513671875,7.332805156707764,8.806783676147461,2.1858434677124023
1710956574408885000,0.925885009765625,6.577869415283203,8.400003433227539,1.7455641031265259
1710956574427843600,0.944843505859375,5.6925249099731445,7.978867053985596,1.5026925802230835
1710956574446802200,0.96380224609375,5.443671703338623,7.263412952423096,2.4299113750457764
1710956574465760800,0.9827607421875,5.302495002746582,6.049055576324463,3.7471601963043213
1710956574484719400,1.00171923828125,6.40438985824585,5.298905849456787,5.000999450683594
1710956574503678000,1.020677978515625,6.97986364364624,6.16391134262085,5.802595138549805
1710956574522636500,1.039636474609375,5.942574977874756,7.751548767089844,5.791827201843262
1710956574541595100,1.05859521484375,4.856233596801758,7.829315662384033,4.5583271980285645
1710956574560553700,1.0775537109375,4.658825874328613,5.84446907043457,2.9970104694366455
1710956574579512300,1.09651220703125,4.380061626434326,4.332205295562744,1.934597134590149
1710956574598471000,1.115470947265625,4.9292144775390625,4.928018093109131,2.5399811267852783
1710956574617429800,1.1344296875,5.605186939239502,6.15553617477417,3.5772697925567627
1710956574636388400,1.153388427734375,5.418546676635742,5.643472194671631,2.3090739250183105
1710956574655347000,1.172346923828125,4.542773723602295,5.8133625984191895,0.8877372145652771
1710956574674305500,1.191305419921875,3.245863914489746,6.153143405914307,-0.7226324677467346
1710956574693264100,1.21026416015625,3.025724172592163,5.556134223937988,-2.854637384414673
1710956574712222700,1.22922265625,4.077369689941406,5.959324836730957,-3.1764719486236572
1710956574731181300,1.248181396484375,4.8059844970703125,7.767102241516113,-1.7587246894836426
1710956574750140000,1.267139892578125,6.150750637054443,8.62732219696045,0.8805587291717529
1710956574769098800,1.2860986328125,6.965506553649902,9.075976371765137,2.416750907897949
1710956574788057300,1.305057373046875,7.439285755157471,9.170493125915527,2.926422119140625
1710956574807016000,1.324015869140625,7.8388872146606445,8.325826644897461,1.7958134412765503
1710956574825974500,1.342974609375,6.957131862640381,7.898707389831543,-0.05623133108019829
1710956574844933000,1.36193310546875,5.730810165405273,8.408378601074219,-1.3495519161224365
1710956574863891700,1.3808916015625,4.701896667480469,10.378868103027344,-1.6462619304656982
1710956574882850300,1.399850341796875,4.7401814460754395,10.949556350708008,-1.4847464561462402
1710956574901809200,1.41880908203125,5.949753284454346,9.223134994506836,-0.9643075466156006
1710956574920767700,1.437767822265625,6.234499454498291,8.531609535217285,0.1746760457754135
1710956574939726300,1.456726318359375,5.522634506225586,8.96231746673584,1.4632110595703125
1710956574958685000,1.475684814453125,5.136193752288818,8.927620887756348,1.5146567821502686
1710956574977643500,1.4946435546875,5.169693470001221,8.01356315612793,0.48813581466674805
1710956574996602400,1.513602294921875,4.980660438537598,7.542177200317383,-0.22492532432079315
1710956575015561000,1.53256103515625,4.572684288024902,7.977670669555664,-0.8195417523384094
1710956575034519600,1.55151953125,4.327419757843018,8.647661209106445,-1.0217353105545044
1710956575053478100,1.57047802734375,4.693521499633789,8.828319549560547,-0.7872386574745178
1710956575072437000,1.58943701171875,5.01296329498291,8.315058708190918,-0.5527420043945312
1710956575091395600,1.6083955078125,4.839483737945557,8.57468032836914,-0.19621145725250244
1710956575110354200,1.627354248046875,4.865804672241211,9.263813018798828,0.5910272002220154
1710956575129312800,1.646312744140625,5.5106706619262695,9.682557106018066,1.454836130142212
1710956575148271400,1.665271240234375,4.125226020812988,9.339186668395996,1.5302101373672485
1710956575167230200,1.684230224609375,3.7770705223083496,8.492127418518066,0.04666004329919815
1710956575186188800,1.703188720703125,3.978067636489868,7.786244869232178,-1.6235301494598389
1710956575205147400,1.7221474609375,4.752145767211914,8.679964065551758,-1.7443677186965942
1710956575224106000,1.74110595703125,6.177071571350098,10.02592658996582,-0.7154539823532104
1710956575243064600,1.760064697265625,7.599604606628418,10.14437198638916,0.3565305769443512
1710956575262023400,1.7790234375,7.372286796569824,9.609575271606445,0.9224331378936768
1710956575280982000,1.79798193359375,6.339783668518066,9.024530410766602,0.5407779216766357
1710956575299940600,1.816940673828125,5.578866004943848,7.616354465484619,-0.32662028074264526
1710956575318899500,1.8358994140625,4.883750915527344,6.833901405334473,-1.8580267429351807
1710956575337858000,1.854858154296875,4.931607246398926,6.591030120849609,-1.8915263414382935
1710956575356816600,1.873816650390625,6.055037498474121,6.405586242675781,-1.0528420209884644
1710956575375775500,1.892775390625,7.020541667938232,6.798008918762207,0.06580262631177902
1710956575394734000,1.911734130859375,7.694121360778809,7.135396957397461,1.1461620330810547
1710956575413692700,1.930692626953125,8.270791053771973,7.64028263092041,1.9166508913040161
1710956575432651300,1.9496513671875,8.726624488830566,7.929814338684082,2.8043880462646484
1710956575451610000,1.968610107421875,8.799605369567871,7.203592777252197,2.0745773315429688
1710956575470568700,1.987568603515625,8.525627136230469,6.580262184143066,1.1270195245742798
1710956575489527300,2.00652734375,7.908278942108154,6.669992923736572,0.727418065071106
1710956575508486100,2.025486083984375,7.423732280731201,6.7178497314453125,0.07896314561367035
1710956575527444700,2.04444482421875,7.53858757019043,6.311069488525391,-0.5288137793540955
1710956575546403300,2.0634033203125,8.194221496582031,6.034698486328125,-0.2356930375099182
1710956575565362200,2.082362060546875,6.86261510848999,6.531209468841553,-0.46420758962631226
1710956575584320800,2.10132080078125,7.0683979988098145,6.288337707519531,-1.4297115802764893
1710956575603279400,2.120279296875,6.22492790222168,5.7511491775512695,-2.1571295261383057
1710956575622238200,2.13923828125,5.131408214569092,5.362315654754639,-2.0961127281188965
1710956575641196800,2.15819677734375,5.497509956359863,4.749752998352051,-1.7599210739135742
1710956575660155400,2.1771552734375,6.742974281311035,4.353740692138672,-1.0815558433532715
1710956575679114200,2.1961142578125,7.89631462097168,5.276174068450928,-0.003589233849197626
1710956575698072800,2.21507275390625,8.34736156463623,6.39601469039917,1.2430713176727295
1710956575717031700,2.23403173828125,8.539983749389648,7.301698207855225,1.8963119983673096
1710956575735990300,2.252990234375,8.141578674316406,7.856832981109619,1.5050854682922363
1710956575754948900,2.271948974609375,7.645068168640137,7.859225749969482,0.6580262184143066
1710956575773907700,2.29090771484375,6.894918441772461,7.747959613800049,0.29312077164649963
1710956575792866300,2.3098662109375,6.39721155166626,7.507481098175049,1.3040883541107178
1710956575811825000,2.328824951171875,5.9198431968688965,6.825526714324951,2.187039852142334
1710956575830783700,2.34778369140625,5.822933673858643,6.447460651397705,2.557927370071411
1710956575849742300,2.366742431640625,6.181857109069824,6.320641040802002,2.5567309856414795
1710956575868701200,2.385701171875,6.632904529571533,5.973681926727295,2.5435705184936523
1710956575887659800,2.40465966796875,6.87099027633667,5.828916072845459,2.355733871459961
1710956575906618600,2.42361865234375,6.38165807723999,6.128018856048584,2.3018953800201416
1710956575925577200,2.4425771484375,6.300302028656006,6.551548480987549,2.196611166000366
1710956575944535800,2.461535888671875,6.477370738983154,6.660421848297119,1.832902193069458
1710956575963494700,2.48049462890625,6.594619274139404,6.740581512451172,1.3639088869094849
1710956575982453200,2.499453369140625,6.555137634277344,6.766902446746826,1.022931694984436
1710956576001412000,2.518412109375,6.114858150482178,7.007380962371826,0.6532405614852905
1710956576020370700,2.53737060546875,5.946164131164551,7.0995049476623535,0.2835494875907898
1710956576039329300,2.556329345703125,5.710471153259277,7.284948348999023,-0.02392822690308094
1710956576058288000,2.5752880859375,5.741578102111816,7.477570533752441,0.04187439754605293
1710956576077246700,2.594246826171875,5.4628143310546875,7.8041911125183105,-0.037088751792907715
1710956576096205600,2.61320556640625,4.631308078765869,8.616554260253906,-0.16271193325519562
1710956576115164200,2.6321640625,4.314259052276611,8.848658561706543,-0.4139583110809326
1710956576134123000,2.651123046875,4.393222332000732,8.782855987548828,-0.6149554252624512
1710956576153081600,2.67008154296875,4.701896667480469,8.937192916870117,-0.8075776696205139
1710956576172040200,2.689040283203125,4.671986103057861,9.407382011413574,-1.2299108505249023
1710956576190999000,2.7079990234375,4.432703971862793,10.130014419555664,-1.384247899055481
1710956576209957600,2.72695751953125,4.274777889251709,10.594222068786621,-1.1617153882980347
1710956576228916500,2.74591650390625,4.631308078765869,10.04267692565918,-1.2418749332427979
1710956576247875300,2.764875244140625,4.813162803649902,9.32722282409668,-1.5852450132369995
1710956576266834000,2.783833984375,4.567898273468018,9.230313301086426,-1.6223337650299072
1710956576285792500,2.80279248046875,4.232903480529785,9.266205787658691,-1.4632110595703125
1710956576304751400,2.82175146484375,4.193421840667725,9.087940216064453,-1.5146567821502686
1710956576323710000,2.8407099609375,3.900300979614258,9.144171714782715,-1.628315806388855
1710956576342668800,2.859668701171875,3.5844483375549316,9.072386741638184,-1.674975872039795
1710956576361627400,2.87862744140625,3.6610186100006104,9.052047729492188,-1.7910277843475342
1710956576380586200,2.897586181640625,3.6598222255706787,9.226723670959473,-1.801795482635498
1710956576399544800,2.916544921875,3.978067636489868,9.370293617248535,-1.373480200767517
1710956576418503400,2.93550341796875,4.177868366241455,9.32004451751709,-1.062413215637207
1710956576437462300,2.954462158203125,4.086941242218018,9.431310653686523,-1.0372886657714844
1710956576456421000,2.973421142578125,3.8608193397521973,10.009177207946777,-0.9439685344696045
1710956576475379700,2.992379638671875,4.409972190856934,10.097711563110352,-0.9427721500396729
1710956576494338600,3.011338623046875,4.549952030181885,9.961320877075195,-1.0193424224853516
1710956576513297200,3.030297119140625,4.291527271270752,9.868000984191895,-0.6891329288482666
1710956576532255700,3.049255859375,4.179064750671387,9.944570541381836,-0.3433700501918793
1710956576551214600,3.068214599609375,4.3896331787109375,9.431310653686523,-0.12921242415905
1710956576570173400,3.08717333984375,4.6408796310424805,8.927620887756348,-0.04307080805301666
1710956576589132000,3.106132080078125,4.801198482513428,8.622536659240723,0.01196411345154047
1710956576608090600,3.125090576171875,4.3752760887146,8.62612533569336,0.15074782073497772
1710956576627049500,3.144049560546875,4.280759811401367,8.639286041259766,0.18065811693668365
1710956576646008300,3.16300830078125,4.524827480316162,8.429914474487305,0.6687939167022705
1710956576664967000,3.181966796875,4.794020175933838,8.273183822631836,1.430907964706421
1710956576683925500,3.200925537109375,4.955535888671875,8.248059272766113,2.0482561588287354
1710956576702884400,3.21988427734375,5.039284706115723,8.062616348266602,2.258824586868286
1710956576721843200,3.23884326171875,5.08355188369751,7.750352382659912,2.2683959007263184
1710956576740801800,3.2578017578125,5.108676433563232,7.724031448364258,2.4023938179016113
1710956576759760600,3.2767607421875,5.4041900634765625,8.011170387268066,2.3150558471679688
1710956576778719200,3.29571923828125,5.447260856628418,8.285148620605469,1.9405791759490967
1710956576797678000,3.314677978515625,4.951946258544922,8.520841598510742,1.7467604875564575
1710956576816636700,3.33363671875,4.76530647277832,8.840283393859863,1.7228323221206665
1710956576835595500,3.352595458984375,5.107480049133301,9.017352104187012,1.482353687286377
1710956576854554000,3.37155419921875,5.052444934844971,8.825926780700684,1.3160524368286133
1710956576873513000,3.390512939453125,4.540380954742432,8.687142372131348,1.4093725681304932
1710956576892471600,3.409471435546875,4.504488468170166,8.825926780700684,1.0995019674301147
1710956576911430400,3.428430419921875,4.177868366241455,8.72901725769043,0.4211367964744568
1710956576930389000,3.447388916015625,3.1920254230499268,8.827122688293457,0.6089733839035034
1710956576949347800,3.466347900390625,3.0113673210144043,9.168100357055664,1.0995019674301147
1710956576968306400,3.485306396484375,3.2063822746276855,8.834300994873047,0.7848458290100098
1710956576987265300,3.504265380859375,2.8139593601226807,8.193024635314941,0.8099704384803772
1710956577006224100,3.52322412109375,2.592623233795166,8.032705307006836,1.6965112686157227
1710956577025182700,3.5421826171875,2.8354947566986084,8.319844245910645,2.520838737487793
1710956577044141600,3.5611416015625,2.8223342895507812,8.858229637145996,3.0101709365844727
1710956577063100200,3.58010009765625,2.6847469806671143,9.145368576049805,3.2350962162017822
1710956577082059000,3.59905908203125,2.510071039199829,9.157332420349121,3.032902717590332
1710956577101017600,3.618017578125,2.0518453121185303,9.442078590393066,2.5351955890655518
1710956577119976400,3.6369765625,1.8352949619293213,9.5533447265625,2.3258235454559326
1710956577138935000,3.65593505859375,2.1750757694244385,9.525827407836914,2.3641088008880615
1710956577157894000,3.674893798828125,2.124826431274414,9.930213928222656,2.551945447921753
1710956577176852500,3.6938525390625,2.6799614429473877,9.722038269042969,3.2063822746276855
1710956577195811300,3.712811279296875,3.098705291748047,9.438488960266113,3.542573928833008
1710956577214770200,3.731770263671875,2.799602508544922,9.439684867858887,3.7770705223083496
1710956577233728800,3.750728759765625,2.3473589420318604,9.022137641906738,4.156332969665527
1710956577252687600,3.7696875,1.9824535846710205,8.725427627563477,4.206582069396973
1710956577271646200,3.788646240234375,2.586641311645508,8.554341316223145,4.199403762817383
1710956577290605000,3.80760498046875,2.0099709033966064,8.182256698608398,4.022335052490234
1710956577309563600,3.826563720703125,1.4368900060653687,7.76470947265625,3.1692936420440674
1710956577328522500,3.8455224609375,1.9860427379608154,8.336593627929688,2.9802606105804443
1710956577347481300,3.8644814453125,2.5878376960754395,8.572287559509277,3.078366279602051
1710956577366440000,3.88343994140625,2.9347970485687256,8.717052459716797,2.812762975692749
1710956577385398500,3.9023984375,2.8689942359924316,9.219545364379883,2.2683959007263184
1710956577404357400,3.921357421875,2.562713146209717,10.077372550964355,2.152343988418579
1710956577423316200,3.940316162109375,3.1310083866119385,9.686145782470703,1.6965112686157227
1710956577442274800,3.95927490234375,2.5878376960754395,9.1716890335083,2.3497519493103027
1710956577461233700,3.978233642578125,2.83669114112854,8.368897438049316,3.2099716663360596
1710956577480192500,3.997192626953125,1.9860427379608154,8.912068367004395,3.893122434616089
1710956577499151000,4.016151123046875,1.765903115272522,9.018548965454102,4.711467742919922
1710956577518110000,4.03510986328125,2.2947168350219727,7.3639116287231445,5.422136306762695
1710956577537068500,4.054068603515625,2.5471596717834473,7.849654674530029,5.808577060699463
1710956577556027400,4.07302734375,2.032702922821045,7.922635555267334,5.464010715484619
1710956577574986000,4.091986083984375,1.6929219961166382,7.667799949645996,4.78803825378418
1710956577593944800,4.11094482421875,1.9369899034500122,6.6484575271606445,5.5381879806518555
1710956577612903400,4.1299033203125,1.710868239402771,6.376872539520264,5.874379634857178
1710956577631862300,4.1488623046875,1.9824535846710205,6.842276573181152,5.467599868774414
1710956577650821000,4.167821044921875,2.6500511169433594,7.317251682281494,4.435096740722656
1710956577669779700,4.18677978515625,2.2408783435821533,7.816154956817627,4.137190341949463
1710956577688738600,4.205738525390625,1.6666009426116943,7.311269760131836,3.517449378967285
1710956577707697400,4.224697509765625,1.2406785488128662,6.531209468841553,3.314059257507324
1710956577726656000,4.243656005859375,1.046859860420227,5.8097734451293945,3.238685369491577
1710956577745614800,4.26261474609375,2.2671995162963867,5.387440204620361,3.2937204837799072
1710956577764573400,4.281573486328125,2.400001049041748,6.131608009338379,2.3294129371643066
1710956577783532300,4.3005322265625,0.8374879360198975,7.688138961791992,1.0959128141403198
1710956577802491000,4.319490966796875,1.022931694984436,9.486345291137695,1.2251251935958862
1710956577821449700,4.33844970703125,2.20737886428833,11.45803165435791,0.8015955686569214
1710956577840408300,4.357408203125,1.3519448041915894,13.420145988464355,0.45104706287384033
1710956577859367200,4.3763671875,2.6261229515075684,13.03490161895752,1.2239288091659546
1710956577878326000,4.395325927734375,3.623929977416992,11.502298355102539,2.365305185317993
1710956577897284600,4.41428466796875,3.3547372817993164,10.803594589233398,2.7326035499572754
1710956577916243500,4.433243408203125,3.882354736328125,10.467402458190918,2.8941190242767334
1710956577935202300,4.452202392578125,3.2267212867736816,9.561718940734863,3.2853455543518066
1710956577954161000,4.471160888671875,1.6067804098129272,10.194621086120605,3.702893018722534
1710956577973119700,4.49011962890625,0.9607182741165161,10.409975051879883,2.451446771621704
1710956577992078300,4.509078369140625,0.1256231814622879,9.505488395690918,0.49651068449020386
1710956578011037200,4.528037109375,-0.08135596662759781,8.592626571655273,-0.28953152894973755
1710956578029996000,4.54699609375,0.4486542344093323,8.566305160522461,0.42711883783340454
1710956578048954600,4.56595458984375,0.5611169338226318,8.621339797973633,1.7718851566314697
1710956578067913500,4.58491357421875,0.6317051649093628,8.124829292297363,2.4358935356140137
1710956578086872000,4.6038720703125,0.8602197170257568,7.502695560455322,2.335394859313965
1710956578105831000,4.622830810546875,1.2849457263946533,6.882954120635986,1.8616160154342651
1710956578124789800,4.641789794921875,1.1222338676452637,6.34217643737793,1.3818551301956177
1710956578143748400,4.660748291015625,1.1772687435150146,5.962913990020752,0.7226324677467346
1710956578162707200,4.679707275390625,1.3962119817733765,5.575276851654053,0.08614161610603333
1710956578181666000,4.698666015625,1.6342978477478027,5.364708423614502,-0.2955136001110077
1710956578200624600,4.717624755859375,1.2550355195999146,5.654240131378174,-0.7704889178276062
1710956578219583500,4.73658349609375,1.2323036193847656,5.933003902435303,-1.113858938217163
1710956578238542000,4.7555419921875,1.8951154947280884,5.948556900024414,-1.6007983684539795
1710956578257501000,4.7745009765625,2.0506489276885986,6.215356826782227,-1.6067804098129272
1710956578276459800,4.793459716796875,1.9621145725250244,7.012166976928711,-1.490728497505188
1710956578295418400,4.81241845703125,1.2921242713928223,7.891529083251953,-1.6821542978286743
1710956578314377200,4.831377197265625,1.7670994997024536,8.15234661102295,-2.1583259105682373
1710956578333335800,4.850335693359375,2.4634108543395996,7.77188777923584,-2.2396819591522217
1710956578352294700,4.869294677734375,2.6979074478149414,7.940581798553467,-1.8640087842941284
1710956578371253500,4.88825341796875,3.152543783187866,8.999405860900879,-1.8161523342132568
1710956578390212000,4.907212158203125,2.551945447921753,10.339386940002441,-1.683350682258606
1710956578409171000,4.9261708984375,2.744567632675171,11.10628604888916,-1.5290136337280273
1710956578428129800,4.9451298828125,3.311666488647461,11.233105659484863,-1.4464613199234009
1710956578447088400,4.96408837890625,2.999403238296509,10.941181182861328,-1.4739787578582764
1710956578466047200,4.983047119140625,3.291327476501465,10.462616920471191,-1.4297115802764893
1710956578485005800,5.002005859375,3.565305709838867,10.077372550964355,-1.5756736993789673
1710956578503964700,5.020964599609375,3.284149169921875,10.316655158996582,-1.7204394340515137
1710956578522923500,5.039923583984375,3.249453067779541,11.045269012451172,-1.6713865995407104
1710956578541882000,5.058882080078125,2.764906644821167,11.334800720214844,-1.9800606966018677
1710956578560841000,5.077841064453125,3.001796007156372,11.179266929626465,-1.9860427379608154
1710956578579799800,5.0967998046875,4.572684288024902,11.139785766601562,-2.2504496574401855
1710956578598758400,5.11575830078125,2.7553353309631348,11.248659133911133,-2.317448616027832
1710956578617717200,5.13471728515625,2.386840581893921,11.261819839477539,-2.531606435775757
1710956578636675800,5.15367578125,2.8941190242767334,10.469795227050781,-2.740978240966797
1710956578655634700,5.172634765625,2.884547710418701,10.389636039733887,-2.8905298709869385
1710956578674593500,5.191593505859375,3.1106693744659424,10.904092788696289,-2.7122645378112793
1710956578693552400,5.210552490234375,2.6141586303710938,10.890932083129883,-2.20737886428833
1710956578712511000,5.229510986328125,2.328216314315796,10.313065528869629,-2.0518453121185303
1710956578731469800,5.2484697265625,2.2947168350219727,10.01874828338623,-2.4885356426239014
1710956578750428400,5.267428466796875,2.6057839393615723,10.102497100830078,-2.939582586288452
1710956578769387300,5.28638720703125,2.146361827850342,10.344172477722168,-2.4562325477600098
1710956578788346000,5.30534619140625,1.6474584341049194,10.753344535827637,-1.8771693706512451
1710956578807304700,5.3243046875,2.427518606185913,10.28195858001709,-1.6055840253829956
1710956578826263600,5.343263671875,2.9383862018585205,10.04148006439209,-1.688136339187622
1710956578845222400,5.362222412109375,3.0927233695983887,10.336994171142578,-1.9166508913040161
1710956578864181200,5.38118115234375,2.8941190242767334,10.572687149047852,-1.7204394340515137
1710956578883139800,5.400139892578125,2.449054002761841,10.222138404846191,-0.9810572862625122
1710956578902098700,5.4190986328125,2.33180570602417,9.952945709228516,-0.6819544434547424
1710956578921057300,5.438057373046875,2.26959228515625,9.963713645935059,-0.8530412912368774
1710956578940016000,5.45701611328125,2.115255117416382,9.974481582641602,-1.3232308626174927
1710956578958975000,5.47597509765625,1.5194423198699951,10.077372550964355,-1.6785650253295898
1710956578977933600,5.49493359375,1.947757601737976,9.772287368774414,-1.9884356260299683
1710956578996892400,5.513892333984375,2.2911276817321777,9.387042999267578,-1.9262222051620483
1710956579015851300,5.532851318359375,2.225325107574463,9.641879081726074,-2.338984251022339
1710956579034810000,5.55181005859375,2.2121646404266357,9.982855796813965,-2.6979074478149414
1710956579053768700,5.570768798828125,2.021935224533081,10.258030891418457,-2.3461625576019287
1710956579072727600,5.5897275390625,2.3090739250183105,10.62413215637207,-1.797009825706482
1710956579091686100,5.60868603515625,2.555534601211548,10.847861289978027,-1.5876377820968628
1710956579110645000,5.62764501953125,2.2540390491485596,10.479366302490234,-1.5852450132369995
1710956579129603800,5.646603759765625,1.8376877307891846,10.080962181091309,-1.9058831930160522
1710956579148562400,5.6655625,1.5182459354400635,10.13479995727539,-2.306680917739868
1710956579167521300,5.684521240234375,1.7826528549194336,10.067801475524902,-2.121237277984619
1710956579186480000,5.703480224609375,2.1882362365722656,9.659825325012207,-1.4069796800613403
1710956579205439000,5.72243896484375,2.170290231704712,9.689735412597656,-0.9188438653945923
1710956579224397600,5.7413974609375,2.115255117416382,9.730413436889648,-1.2131611108779907
1710956579243356400,5.7603564453125,2.1236300468444824,9.707681655883789,-1.6115660667419434
1710956579262315000,5.77931494140625,2.2360928058624268,9.751948356628418,-1.4021940231323242
1710956579281273900,5.79827392578125,2.293520450592041,9.538987159729004,-1.301695466041565
1710956579300232700,5.817232666015625,1.7168502807617188,9.107083320617676,-1.4739787578582764
1710956579319191600,5.836191650390625,1.7419748306274414,8.678768157958984,-1.2059825658798218
1710956579338150100,5.855150146484375,1.92741858959198,8.434700012207031,-0.7716853022575378
1710956579357109000,5.87410888671875,2.0542383193969727,8.470592498779297,-0.8350951075553894
1710956579376067800,5.89306787109375,2.1571295261383057,8.651249885559082,-1.2562319040298462
1710956579395026400,5.9120263671875,2.0853450298309326,8.86062240600586,-1.9334007501602173
1710956579413985300,5.9309853515625,1.526620864868164,9.016156196594238,-2.803191661834717
1710956579432944000,5.949944091796875,1.4524433612823486,9.388239860534668,-3.142972469329834
1710956579451902700,5.96890283203125,1.867598056793213,9.905089378356934,-2.5746772289276123
1710956579470861600,5.987861572265625,2.348555326461792,10.30469036102295,-1.9525432586669922
1710956579489820400,6.0068203125,2.2372891902923584,10.432706832885742,-1.8388842344284058
1710956579508779300,6.025779296875,2.059023857116699,10.213763236999512,-2.032702922821045
1710956579527737900,6.04473779296875,1.8951154947280884,9.856036186218262,-1.872383713722229
1710956579546696700,6.06369677734375,1.8807586431503296,9.949356079101562,-1.734796404838562
1710956579565655600,6.082655517578125,1.8556339740753174,9.840482711791992,-2.0446670055389404
1710956579584614100,6.1016142578125,1.8305093050003052,9.779465675354004,-2.2707886695861816
1710956579603573200,6.1205732421875,1.8807586431503296,9.913464546203613,-2.1056840419769287
1710956579622531800,6.13953173828125,1.7994025945663452,9.975677490234375,-2.100898265838623
1710956579641490700,6.15849072265625,1.2993026971817017,9.731609344482422,-1.4321043491363525
1710956579660449500,6.177449462890625,1.604387640953064,9.454042434692383,-1.8137595653533936
1710956579679408000,6.196408203125,1.7336000204086304,8.882157325744629,-2.541177749633789
1710956579698367000,6.215366943359375,1.592423439025879,8.47178840637207,-2.23848557472229
1710956579717325800,6.234325927734375,2.1068804264068604,8.658429145812988,-1.521835207939148
1710956579736284700,6.25328466796875,2.400001049041748,8.684749603271484,-1.3627125024795532
1710956579755243300,6.2722431640625,1.9250258207321167,8.562715530395508,-1.2490534782409668
1710956579774202000,6.2912021484375,1.9513468742370605,8.894122123718262,-1.1377872228622437
1710956579793161000,6.310160888671875,1.6785650253295898,8.895318031311035,-1.552941918373108
1710956579812119800,6.329119873046875,1.4895321130752563,8.840283393859863,-2.200200319290161
1710956579831078700,6.34807861328125,2.053041934967041,8.909674644470215,-2.166700839996338
1710956579850037200,6.367037353515625,2.2504496574401855,9.038887977600098,-2.2504496574401855
1710956579868996000,6.38599609375,1.9669002294540405,9.256634712219238,-2.5591237545013428
1710956579887955000,6.404954833984375,1.8544375896453857,9.528220176696777,-3.0592236518859863
1710956579906913800,6.423913818359375,1.5361921787261963,9.41336441040039,-3.2757742404937744
1710956579925872400,6.442872314453125,2.007578134536743,9.41336441040039,-2.376072883605957
1710956579944831200,6.461831298828125,1.939382791519165,9.425328254699707,-1.714457392692566
1710956579963790000,6.4807900390625,1.6893328428268433,9.489934921264648,-1.8352949619293213
1710956579982749000,6.4997490234375,2.2959132194519043,9.324830055236816,-1.6378871202468872
1710956580001707800,6.518707763671875,2.720639228820801,9.504291534423828,-1.0995019674301147
1710956580020666600,6.53766650390625,2.6261229515075684,9.33559799194336,-0.8901300430297852
1710956580039625200,6.556625244140625,2.871387243270874,9.345169067382812,-1.8137595653533936
1710956580058584000,6.575583984375,1.734796404838562,9.675378799438477,-2.809173822402954
1710956580077543000,6.59454296875,1.537388563156128,9.90269660949707,-3.972085475921631
1710956580096501800,6.613501708984375,2.1439690589904785,9.524630546569824,-3.451646566390991
1710956580115460600,6.632460693359375,2.796013355255127,9.55214786529541,-2.513660192489624
1710956580134419500,6.65141943359375,2.3976082801818848,9.735198974609375,-1.3423734903335571
1710956580153378300,6.67037841796875,2.4670002460479736,9.7064847946167,-1.7670994997024536
1710956580172337000,6.6893369140625,1.6558332443237305,9.578469276428223,-2.146361827850342
1710956580191295700,6.708295654296875,1.1545369625091553,9.591629981994629,-2.5256242752075195
1710956580210254600,6.727254638671875,1.8436698913574219,8.928817749023438,-2.5016961097717285
1710956580229213400,6.74621337890625,2.338984251022339,8.952746391296387,-0.9882357716560364
1710956580248172300,6.76517236328125,2.7349963188171387,9.139386177062988,-0.8159525394439697
1710956580267131100,6.784131103515625,2.937189817428589,8.941978454589844,-1.7419748306274414
1710956580286090000,6.803090087890625,2.6596224308013916,9.084351539611816,-2.994617462158203
1710956580305048800,6.822048828125,1.23589289188385,9.627521514892578,-3.5401811599731445
1710956580324007700,6.841007568359375,2.2025933265686035,9.20159912109375,-2.6213371753692627
1710956580342966500,6.859966552734375,3.2315070629119873,8.915657043457031,-1.628315806388855
1710956580361925000,6.878925048828125,2.149951219558716,9.19442081451416,-1.1174482107162476
1710956580380884000,6.897884033203125,2.218146562576294,9.215956687927246,-1.8532410860061646
1710956580399842800,6.9168427734375,1.703689694404602,8.519644737243652,-3.232703447341919
1710956580418801700,6.9358017578125,1.7790635824203491,8.545966148376465,-3.930211305618286
1710956580437760500,6.954760498046875,1.7324036359786987,8.623732566833496,-2.8666014671325684
1710956580456719400,6.97371923828125,2.169093608856201,9.290133476257324,-2.091326951980591
1710956580475678200,6.99267822265625,2.500499725341797,9.69212818145752,-2.060220241546631
1710956580494637000,7.011636962890625,2.926422119140625,9.865608215332031,-2.368894338607788
1710956580513596000,7.030595947265625,1.94297194480896,9.923035621643066,-2.662015199661255
1710956580532554800,7.0495546875,1.8616160154342651,9.716055870056152,-2.792423963546753
1710956580551513600,7.068513671875,1.9202401638031006,9.516255378723145,-3.0340991020202637
1710956580570472400,7.087472412109375,1.6713865995407104,9.730413436889648,-3.4025938510894775
1710956580589431300,7.106431396484375,2.1308085918426514,9.863214492797852,-3.45882511138916
1710956580608390100,7.12539013671875,2.5770699977874756,9.80937671661377,-2.9934210777282715
1710956580627349000,7.144348876953125,2.5842485427856445,9.643074989318848,-2.421536445617676
1710956580646307800,7.163307861328125,2.8701908588409424,9.797411918640137,-1.8975083827972412
1710956580665266400,7.182266357421875,2.231307029724121,9.55214786529541,-1.7635103464126587
1710956580684225500,7.2012255859375,1.934597134590149,8.679964065551758,-2.2157537937164307
1710956580703184400,7.220184326171875,1.8939191102981567,7.459624767303467,-2.5878376960754395
1710956580722143200,7.239143310546875,1.4464613199234009,7.3160552978515625,-2.8079774379730225
1710956580741102000,7.25810205078125,1.6654045581817627,8.634500503540039,-1.332802176475525
1710956580760061000,7.27706103515625,2.5878376960754395,8.971888542175293,-0.30508488416671753
1710956580779019800,7.296019775390625,2.221735715866089,8.796015739440918,-0.9547362327575684
1710956580797978600,7.314978515625,2.0673987865448,8.935996055603027,-1.7431713342666626
1710956580816937500,7.3339375,2.5674986839294434,8.986245155334473,-2.1607189178466797
1710956580835896300,7.352896240234375,2.640479803085327,9.139386177062988,-2.7696921825408936
1710956580854855200,7.371855224609375,1.9848463535308838,9.430113792419434,-3.6167514324188232
1710956580873814000,7.39081396484375,1.6474584341049194,9.460023880004883,-4.493721008300781
1710956580892772900,7.40977294921875,1.8783657550811768,9.286544799804688,-4.590630054473877
1710956580911731700,7.428731689453125,1.511067509651184,9.223134994506836,-4.070191383361816
1710956580930690600,7.447690673828125,1.841277003288269,9.205188751220703,-3.634697675704956
1710956580949649400,7.4666494140625,2.3054845333099365,9.067601203918457,-2.9276185035705566
1710956580968608300,7.485608154296875,2.2719850540161133,8.915657043457031,-2.3605196475982666
1710956580987567000,7.504567138671875,2.266003131866455,9.065208435058594,-2.076970100402832
1710956581006526000,7.52352587890625,2.3198416233062744,9.203991889953613,-2.0578274726867676
1710956581025484800,7.54248486328125,2.104487419128418,9.129815101623535,-2.121237277984619
1710956581044443600,7.561443603515625,2.0303099155426025,9.010173797607422,-2.4993033409118652
1710956581063402500,7.580402587890625,1.932204246520996,8.653642654418945,-2.909672260284424
1710956581082361300,7.599361328125,1.714457392692566,8.81396198272705,-3.074777126312256
1710956581101320400,7.618320556640625,1.8831514120101929,9.134600639343262,-2.991028308868408
1710956581120279300,7.637279296875,2.042274236679077,9.286544799804688,-3.0029923915863037
1710956581139238100,7.656238037109375,2.0159530639648438,9.591629981994629,-3.0628130435943604
1710956581158197000,7.675197021484375,2.093719720840454,9.554540634155273,-2.953939437866211
1710956581177155800,7.69415576171875,2.0039889812469482,9.18006420135498,-2.950350284576416
1710956581196114700,7.71311474609375,1.9405791759490967,8.691927909851074,-2.7696921825408936
1710956581215073500,7.732073486328125,1.7982062101364136,8.490931510925293,-2.289931297302246
1710956581234032400,7.751032470703125,1.820937991142273,8.788837432861328,-2.1164517402648926
1710956581252991200,7.7699912109375,2.2372891902923584,9.073583602905273,-2.0207388401031494
1710956581271950300,7.788950439453125,2.6668007373809814,9.186046600341797,-1.7312071323394775
1710956581290909200,7.8079091796875,2.187039852142334,8.96112060546875,-1.765903115272522
1710956581309868000,7.826867919921875,1.648654818534851,8.469395637512207,-2.249253273010254
1710956581328827000,7.845826904296875,1.4225330352783203,8.343772888183594,-2.6632115840911865
1710956581347785700,7.86478564453125,1.7790635824203491,8.809176445007324,-2.909672260284424
1710956581366744600,7.88374462890625,2.1846470832824707,9.353543281555176,-2.9491539001464844
1710956581385703400,7.902703369140625,2.3270199298858643,9.531808853149414,-3.095116138458252
1710956581404662500,7.92166259765625,2.135594129562378,9.267401695251465,-2.9718856811523438
1710956581423621400,7.940621337890625,2.1068804264068604,9.591629981994629,-2.8522446155548096
1710956581442580200,7.959580322265625,2.2683959007263184,9.840482711791992,-2.6763720512390137
1710956581461539000,7.9785390625,2.2372891902923584,9.748359680175781,-2.4705893993377686
1710956581480498000,7.997497802734375,2.0650060176849365,9.944570541381836,-2.1930220127105713
1710956581499457000,8.01645703125,2.135594129562378,9.955338478088379,-1.7288143634796143
1710956581518416000,8.035415771484375,2.179861545562744,9.44327449798584,-1.6510475873947144
1710956581537374700,8.054374755859374,2.118844509124756,9.305686950683594,-2.2504496574401855
1710956581556333600,8.07333349609375,1.9166508913040161,9.424132347106934,-2.8151557445526123
1710956581575292400,8.09229248046875,1.8604196310043335,9.358329772949219,-3.0592236518859863
1710956581594251500,8.11125146484375,1.8113667964935303,9.336793899536133,-3.1477582454681396
1710956581613210400,8.13021044921875,1.828116536140442,9.408578872680664,-2.8498518466949463
1710956581632169200,8.149169189453126,2.007578134536743,9.519845008850098,-2.486142635345459
1710956581651128000,8.168128173828125,2.276770830154419,9.621540069580078,-2.3676979541778564
1710956581670087000,8.1870869140625,2.4981069564819336,9.754341125488281,-2.3030917644500732
1710956581689046000,8.2060458984375,2.4466612339019775,9.748359680175781,-1.9250258207321167
1710956581708004900,8.2250048828125,2.1260228157043457,9.546165466308594,-1.9202401638031006
1710956581726963700,8.243963623046875,1.6606189012527466,9.488738059997559,-2.181057929992676
1710956581745922600,8.262922607421874,2.2337000370025635,9.389435768127441,-2.733799934387207
1710956581764881700,8.281881591796875,2.251646041870117,9.1657075881958,-3.421736478805542
1710956581783840500,8.300840576171876,1.5038890838623047,9.175278663635254,-3.62153697013855
1710956581802799400,8.31979931640625,1.6761722564697266,9.096315383911133,-3.418147087097168
1710956581821758200,8.33875830078125,2.2779672145843506,9.290133476257324,-2.8319056034088135
1710956581840717300,8.35771728515625,3.263810157775879,9.286544799804688,-1.9465612173080444
1710956581859676200,8.37667626953125,2.9599215984344482,8.461020469665527,-1.592423439025879
1710956581878635000,8.395635009765625,1.576870083808899,7.844869136810303,-1.6845471858978271
1710956581897593900,8.41459375,0.7968099117279053,7.8113694190979,-2.2157537937164307
1710956581916552700,8.433552734375,1.073180913925171,8.810373306274414,-2.3880369663238525
1710956581935511800,8.45251171875,1.8963119983673096,9.265008926391602,-1.317248821258545
1710956581954470700,8.471470703125,2.8079774379730225,9.309276580810547,-0.1746760457754135
1710956581973429500,8.490429443359375,2.851048231124878,9.265008926391602,-0.18544375896453857
1710956581992388400,8.509388427734375,2.7517459392547607,9.497113227844238,-1.2095718383789062
1710956582011347500,8.528347412109374,2.544766902923584,9.869196891784668,-2.2791635990142822
1710956582030306300,8.547306396484375,2.152343988418579,9.597611427307129,-3.2889347076416016
1710956582049265200,8.56626513671875,1.9010975360870361,9.160921096801758,-4.297509670257568
1710956582068224300,8.585224365234374,1.7431713342666626,9.110671997070312,-4.566701889038086
1710956582087183000,8.60418310546875,1.7647067308425903,9.134600639343262,-4.035495281219482
1710956582106142000,8.623141845703126,1.8819550275802612,9.273384094238281,-3.0544381141662598
1710956582125100800,8.642100830078125,2.1164517402648926,9.534201622009277,-2.122433662414551
1710956582144060000,8.661059814453125,1.994417667388916,9.470791816711426,-1.5230315923690796
1710956582163018800,8.680018798828126,2.001596212387085,9.515059471130371,-0.8841479420661926
1710956582181977600,8.6989775390625,2.2360928058624268,9.580862045288086,-0.6795616149902344
1710956582200936400,8.7179365234375,2.421536445617676,9.316454887390137,-1.231107234954834
1710956582219895300,8.736895263671874,2.146361827850342,9.255437850952148,-2.029113531112671
1710956582238854400,8.7558544921875,1.9716858863830566,9.144171714782715,-2.7014968395233154
1710956582257813200,8.774813232421875,2.17627215385437,8.96949577331543,-3.1788649559020996
1710956582276772000,8.793772216796874,2.1308085918426514,9.280562400817871,-3.0759735107421875
1710956582295731200,8.812731201171875,2.018345832824707,9.396614074707031,-2.9288148880004883
1710956582314690000,8.83168994140625,2.0374884605407715,8.96231746673584,-2.7433712482452393
1710956582333649000,8.85064892578125,1.812563180923462,8.547162055969238,-2.249253273010254
1710956582352608000,8.86960791015625,1.7371892929077148,8.791230201721191,-1.6055840253829956
1710956582371566800,8.88856689453125,1.6187444925308228,8.890532493591309,-1.4644074440002441
1710956582390525700,8.907525634765625,1.672582983970642,8.597412109375,-1.8400806188583374
1710956582409484500,8.926484619140625,1.7647067308425903,8.623732566833496,-2.053041934967041
1710956582428443600,8.945443603515624,2.242074728012085,8.707481384277344,-2.1272194385528564
1710956582447402500,8.964402587890625,2.266003131866455,8.7505521774292,-2.1714866161346436
1710956582466361300,8.983361328125,2.038684844970703,9.287740707397461,-2.4873390197753906
1710956582485320200,9.0023203125,1.7240287065505981,9.891928672790527,-2.719442844390869
1710956582504279300,9.021279296875,1.7563318014144897,9.89432144165039,-2.562713146209717
1710956582523238100,9.040238037109376,1.6450655460357666,10.195816993713379,-2.4598217010498047
1710956582542197000,9.059197021484374,1.9405791759490967,10.615757942199707,-2.5220351219177246
1710956582561155800,9.07815576171875,1.9956140518188477,10.293923377990723,-2.8115665912628174
1710956582580115000,9.097114990234376,1.867598056793213,9.602396965026855,-2.7696921825408936
1710956582599073800,9.11607373046875,1.7371892929077148,9.053244590759277,-2.720639228820801
1710956582618032600,9.13503271484375,1.3519448041915894,8.635697364807129,-2.7254250049591064
1710956582636991700,9.15399169921875,1.2921242713928223,8.551948547363281,-2.9898319244384766
1710956582655950600,9.17295068359375,1.4572290182113647,9.291330337524414,-2.2947168350219727
1710956582674909400,9.191909423828125,1.9609181880950928,9.737591743469238,-0.7166503667831421
1710956582693868500,9.21086865234375,2.3700907230377197,9.728020668029785,-0.3242274820804596
1710956582712827400,9.229827392578125,2.1236300468444824,9.542576789855957,-1.537388563156128
1710956582731786200,9.2487861328125,1.7850457429885864,9.241081237792969,-2.0554347038269043
1710956582750745000,9.2677451171875,1.7132610082626343,9.017352104187012,-2.1882362365722656
1710956582769704000,9.286703857421875,1.5158531665802002,9.306883811950684,-2.0159530639648438
1710956582788663000,9.3056630859375,1.6390835046768188,9.69093132019043,-1.94297194480896
1710956582807622000,9.324621826171875,1.781456470489502,9.542576789855957,-1.734796404838562
1710956582826580700,9.343580810546875,1.8149559497833252,9.142974853515625,-1.6007983684539795
1710956582845539800,9.362539794921876,2.389233350753784,9.357132911682129,-1.306481122970581
1710956582864498700,9.381498779296875,2.029113531112671,9.841679573059082,-1.1976077556610107
1710956582883457500,9.40045751953125,1.6977076530456543,9.644271850585938,-1.521835207939148
1710956582902416400,9.41941650390625,1.8436698913574219,9.269794464111328,-2.1774685382843018
1710956582921375500,9.43837548828125,0.7058826684951782,9.65384292602539,-2.4813570976257324
1710956582940334300,9.457334228515625,0.7058826684951782,9.590433120727539,-3.1716864109039307
1710956582959293200,9.476293212890624,1.5601203441619873,9.186046600341797,-2.693121910095215
1710956582978252300,9.495252197265625,1.9010975360870361,9.373882293701172,-2.2995026111602783
1710956582997211100,9.514211181640626,1.7288143634796143,9.010173797607422,-1.2813565731048584
1710956583016170000,9.533169921875,1.8807586431503296,9.749555587768555,-0.07058826833963394
1710956583035128800,9.55212890625,2.348555326461792,9.991230964660645,0.27397820353507996
1710956583054088000,9.571087890625,2.472982168197632,9.811769485473633,-0.27397820353507996
1710956583073046800,9.590046875,1.867598056793213,10.083354949951172,-1.4476577043533325
1710956583092005600,9.609005615234375,1.0301101207733154,9.832108497619629,-2.550748825073242
1710956583110964500,9.627964599609374,1.6654045581817627,8.873783111572266,-3.4947173595428467
1710956583129923300,9.64692333984375,1.317248821258545,9.17886734008789,-3.672982692718506
1710956583148882400,9.66588232421875,1.5385849475860596,9.689735412597656,-3.239881753921509
1710956583167841300,9.68484130859375,1.4093725681304932,9.868000984191895,-3.403790235519409
1710956583186800000,9.703800048828125,1.7048860788345337,9.739984512329102,-2.909672260284424
1710956583205759200,9.72275927734375,1.8711873292922974,9.595218658447266,-1.4416756629943848
1710956583224718000,9.741718017578124,1.7647067308425903,8.837890625,-0.47976094484329224
1710956583243677000,9.760677001953125,1.781456470489502,8.023134231567383,-0.4426721930503845
1710956583262635800,9.7796357421875,2.368894338607788,8.572287559509277,-1.470389485359192
1710956583281595000,9.798594970703125,2.458625316619873,9.579665184020996,-2.9455647468566895
1710956583300553700,9.8175537109375,1.5649060010910034,9.498309135437012,-4.035495281219482
1710956583319512600,9.8365126953125,1.0372886657714844,9.20279598236084,-3.84765887260437
1710956583338471700,9.8554716796875,1.3698909282684326,8.906085968017578,-3.298506021499634
1710956583357430500,9.874430419921875,2.4777679443359375,9.10827922821045,-2.506481647491455
1710956583376389400,9.893389404296874,2.451446771621704,10.28315544128418,-0.605384111404419
1710956583395348200,9.91234814453125,2.871387243270874,10.264012336730957,-0.12921242415905
1710956583414307000,9.93130712890625,2.8462624549865723,10.053443908691406,-1.3148560523986816
1710956583433266000,9.950265869140624,1.7682958841323853,9.88833999633789,-2.462214469909668
1710956583452225000,9.96922509765625,0.6999006271362305,9.079565048217773,-2.4263222217559814
1710956583471184000,9.988183837890626,0.4307080805301666,7.975277900695801,-1.9070796966552734
1710956583490142700,10.007142822265624,1.3483555316925049,7.621140003204346,-0.9224331378936768
1710956583509101600,10.0261015625,2.366501569747925,8.023134231567383,-0.039481572806835175
1710956583528060700,10.045060791015626,2.5639095306396484,9.052047729492188,-0.22971096634864807
1710956583547019500,10.06401953125,2.5423741340637207,10.192228317260742,-1.5852450132369995
1710956583565978400,10.082978271484375,2.3437697887420654,10.024730682373047,-2.693121910095215
1710956583584937500,10.1019375,2.087737798690796,9.656235694885254,-3.273381471633911
1710956583603896300,10.120896240234375,1.3758729696273804,9.028120040893555,-3.335594654083252
1710956583622855200,10.139855224609375,1.2299108505249023,8.967103004455566,-3.0305099487304688
1710956583641814000,10.15881396484375,1.801795482635498,9.577272415161133,-1.755135416984558
1710956583660773000,10.177773193359375,2.8115665912628174,9.742377281188965,-0.672383189201355
1710956583679732000,10.19673193359375,2.8498518466949463,9.080761909484863,-0.7824530005455017
1710956583698690800,10.21569091796875,2.2995026111602783,9.511469841003418,-1.552941918373108
1710956583717649700,10.234649658203125,1.420140266418457,10.098908424377441,-1.9489539861679077
1710956583736608800,10.25360888671875,1.8089739084243774,9.942177772521973,-1.8305093050003052
1710956583755567600,10.272567626953125,1.7922241687774658,9.475577354431152,-1.9130617380142212
1710956583774526500,10.2915263671875,1.664208173751831,9.533005714416504,-2.321038007736206
1710956583793485300,10.3104853515625,1.8592232465744019,9.8871431350708,-2.3461625576019287
1710956583812444200,10.329444091796875,0.867398202419281,9.578469276428223,-1.9022940397262573
1710956583831403000,10.348403076171875,-0.10289137065410614,9.21715259552002,-1.215553879737854
1710956583850362000,10.367362060546874,3.087937593460083,8.572287559509277,-0.01196411345154047
1710956583869321000,10.386321044921875,2.2504496574401855,10.185050010681152,0.058624155819416046
1710956583888279800,10.40527978515625,0.19980068504810333,11.060822486877441,-0.6017948985099792
1710956583907238700,10.42423876953125,2.3880369663238525,8.420342445373535,-1.892722725868225
1710956583926197500,10.443197509765625,3.487539052963257,8.194221496582031,-1.8604196310043335
1710956583945156600,10.462156494140626,2.5663022994995117,10.522438049316406,-2.1092731952667236
1710956583964115500,10.481115478515624,0.13160525262355804,10.133604049682617,-3.672982692718506
1710956583983074300,10.50007421875,1.4883357286453247,7.840083599090576,-3.5258240699768066
1710956584002033200,10.519033203125,2.775674343109131,8.22413158416748,-1.7479569911956787
1710956584020992300,10.5379921875,3.3475589752197266,9.745966911315918,-0.14476576447486877
1710956584039951000,10.556951171875,3.304488182067871,9.964909553527832,-0.37088751792907715
1710956584058910000,10.575909912109376,1.6354942321777344,9.76391315460205,-2.0159530639648438
1710956584077868800,10.594868896484375,2.172683000564575,9.096315383911133,-2.994617462158203
1710956584096827600,10.61382763671875,2.5256242752075195,8.38564682006836,-3.1860432624816895
1710956584115786800,10.632786865234374,2.2755744457244873,8.282755851745605,-2.5986053943634033
1710956584134745600,10.65174560546875,1.92741858959198,8.556734085083008,-2.7661030292510986
1710956584153704400,10.670704345703125,2.447857618331909,9.184849739074707,-2.775674343109131
1710956584172663300,10.689663330078124,2.586641311645508,10.130014419555664,-2.9874391555786133
1710956584191622400,10.708622314453125,2.1655044555664062,9.626325607299805,-3.9194436073303223
1710956584210581200,10.727581298828126,1.6307085752487183,8.019545555114746,-4.949553489685059
1710956584229540000,10.7465400390625,1.6211373805999756,7.88913631439209,-5.387440204620361
1710956584248499000,10.7654990234375,1.714457392692566,9.80817985534668,-3.001796007156372
1710956584267457800,10.784457763671876,2.4430718421936035,10.462616920471191,-0.7322037220001221
1710956584286416600,10.803416748046875,3.6047873497009277,9.347561836242676,-1.0552347898483276
1710956584305375700,10.822375732421875,3.649054527282715,8.82233715057373,-1.3794622421264648
1710956584324334600,10.84133447265625,2.5052852630615234,9.440881729125977,-1.5146567821502686
1710956584343293400,10.86029345703125,1.7742780447006226,9.531808853149414,-1.9381862878799438
1710956584362252300,10.879252197265625,2.2169501781463623,9.395418167114258,-1.4584254026412964
1710956584381211100,10.898211181640624,2.7050859928131104,9.369096755981445,-1.4476577043533325
1710956584400170200,10.917170166015625,2.7421748638153076,9.369096755981445,-1.9848463535308838
1710956584419129000,10.936129150390625,2.3736801147460938,9.075976371765137,-2.3186452388763428
1710956584438088000,10.955087890625,1.9130617380142212,8.967103004455566,-2.4323041439056396
1710956584457046800,10.974046875,1.7407784461975098,9.125029563903809,-2.2337000370025635
1710956584476006000,10.993005859375,1.054038405418396,9.822537422180176,-1.688136339187622
1710956584494964700,11.01196484375,1.7874385118484497,9.58325481414795,-1.9680966138839722
1710956584513923600,11.030923583984375,2.2229323387145996,9.486345291137695,-1.2454642057418823
1710956584532882400,11.04988232421875,2.128415822982788,9.986445426940918,-0.21296121180057526
1710956584551841500,11.068841552734375,2.214557409286499,9.220742225646973,-0.11964113265275955
1710956584570800400,11.08780029296875,2.0925233364105225,8.791230201721191,-1.0767701864242554
1710956584589759200,11.10675927734375,1.5936198234558105,9.097511291503906,-2.4538395404815674
1710956584608718000,11.125718017578125,1.4644074440002441,9.438488960266113,-2.537588357925415
1710956584627677200,11.14467724609375,1.9597218036651611,9.556933403015137,-1.9908283948898315
1710956584646636000,11.163635986328124,2.152343988418579,9.7064847946167,-1.2801600694656372
1710956584665595000,11.182594970703125,1.7766708135604858,9.528220176696777,-0.3840480446815491
1710956584684553700,11.2015537109375,2.1332013607025146,9.382257461547852,-1.3148560523986816
1710956584703512800,11.220512939453124,1.7718851566314697,9.554540634155273,-2.045863389968872
1710956584722471700,11.2394716796875,1.734796404838562,9.501898765563965,-2.1296122074127197
1710956584741430500,11.258430419921876,1.8077775239944458,9.104690551757812,-2.344966173171997
1710956584760389400,11.277389404296875,1.7001005411148071,9.385847091674805,-2.1068804264068604
1710956584779348200,11.29634814453125,1.8233308792114258,9.169296264648438,-2.0685951709747314
1710956584798307300,11.315307373046876,2.4083759784698486,9.116654396057129,-2.014756679534912
1710956584817266200,11.33426611328125,2.2193429470062256,9.579665184020996,-1.9154545068740845
1710956584836225000,11.35322509765625,2.1403799057006836,9.578469276428223,-1.828116536140442
1710956584855184000,11.372183837890624,2.0853450298309326,9.022137641906738,-2.3856441974639893
1710956584874143000,11.39114306640625,2.166700839996338,8.882157325744629,-2.7828526496887207
1710956584893101800,11.410101806640625,1.9154545068740845,9.32004451751709,-2.713460922241211
1710956584912060400,11.429060302734374,2.11405873298645,9.29611587524414,-2.53399920463562
1710956584931019800,11.448019775390625,2.1786649227142334,9.168100357055664,-2.3748764991760254
1710956584949978600,11.466978515625,2.4562325477600098,9.049654960632324,-2.2887349128723145
1710956584968937500,11.4859375,2.334198474884033,9.140582084655762,-2.328216314315796
1710956584987896600,11.504896484375,2.053041934967041,9.42173957824707,-2.3162522315979004
1710956585006855400,11.52385546875,2.056631088256836,9.489934921264648,-2.4705893993377686
1710956585025814300,11.542814208984375,2.1260228157043457,9.139386177062988,-2.717050075531006
1710956585044773000,11.561773193359375,2.097309112548828,9.07717227935791,-2.555534601211548
1710956585063732000,11.58073193359375,2.3473589420318604,8.937192916870117,-2.50289249420166
1710956585082691000,11.599691162109375,2.358126640319824,8.920442581176758,-2.688336133956909
1710956585101650000,11.61864990234375,2.2612173557281494,9.42173957824707,-2.7254250049591064
1710956585120608800,11.63760888671875,2.2301106452941895,9.506684303283691,-2.561516523361206
1710956585139567900,11.65656787109375,2.181057929992676,9.291330337524414,-2.179861545562744
1710956585158526700,11.675526611328126,2.3054845333099365,9.126225471496582,-2.0027925968170166
1710956585177485800,11.69448583984375,2.287538528442383,9.20997428894043,-1.934597134590149
1710956585196444700,11.713444580078125,2.1092731952667236,9.322437286376953,-2.001596212387085
1710956585215403500,11.732403564453126,1.7958134412765503,9.45882797241211,-2.1678972244262695
1710956585234362400,11.7513623046875,1.908276081085205,9.339186668395996,-2.091326951980591
1710956585253321500,11.770321533203125,2.204986095428467,9.138189315795898,-1.8640087842941284
1710956585272280300,11.7892802734375,2.4263222217559814,9.136993408203125,-1.7958134412765503
1710956585291239200,11.8082392578125,2.4873390197753906,9.379864692687988,-1.7994025945663452
1710956585310198300,11.8271982421875,2.3820550441741943,9.389435768127441,-1.94297194480896
1710956585329157000,11.8461572265625,2.383251428604126,9.198010444641113,-2.2241287231445312
1710956585348116200,11.8651162109375,2.3054845333099365,9.298508644104004,-2.341377019882202
1710956585367075000,11.884074951171876,2.0650060176849365,9.395418167114258,-2.2097716331481934
1710956585386034000,11.903033935546874,2.0518453121185303,9.30449104309082,-2.0757737159729004
1710956585404993000,11.921992919921875,2.1236300468444824,9.235098838806152,-2.0171494483947754
1710956585423952000,11.940951904296876,2.1930220127105713,9.259027481079102,-1.8161523342132568
1710956585442910700,11.95991064453125,2.2911276817321777,9.396614074707031,-1.6079767942428589
1710956585461869800,11.978869873046875,2.2743778228759766,9.408578872680664,-1.6151553392410278
1710956585480828700,11.99782861328125,2.2683959007263184,9.351150512695312,-1.9070796966552734
1710956585499787500,12.01678759765625,2.3569302558898926,9.298508644104004,-2.1750757694244385
1710956585518746600,12.03574658203125,2.4059832096099854,9.166903495788574,-2.3808584213256836
1710956585537705500,12.05470556640625,2.2325034141540527,9.09990406036377,-2.620140790939331
1710956585556664600,12.07366455078125,2.0243279933929443,9.160921096801758,-2.7254250049591064
1710956585575623400,12.09262353515625,1.9728822708129883,8.986245155334473,-2.8007988929748535
1710956585594582300,12.111582275390624,1.8855443000793457,9.203991889953613,-2.7804598808288574
1710956585613541400,12.130541259765625,1.970489501953125,9.316454887390137,-2.7397818565368652
1710956585632500200,12.149500244140626,2.155933141708374,9.156135559082031,-2.520838737487793
1710956585651459300,12.168459228515625,2.2444677352905273,9.022137641906738,-2.183450698852539
1710956585670418200,12.187418212890625,2.0745773315429688,9.160921096801758,-2.2360928058624268
1710956585689377300,12.206377197265626,2.049452543258667,9.136993408203125,-2.372483730316162
1710956585708336000,12.225336181640625,2.090130567550659,9.227920532226562,-2.5076780319213867
1710956585727295000,12.244294921875,2.166700839996338,9.29611587524414,-2.6009981632232666
1710956585746254000,12.263254150390624,2.0398812294006348,9.248259544372559,-2.6536402702331543
1710956585765213000,12.282212890625,2.0171494483947754,9.280562400817871,-2.93001127243042
1710956585784172000,12.301172119140626,2.1571295261383057,9.290133476257324,-3.111865758895874
1710956585803131000,12.320130859375,1.9956140518188477,9.384650230407715,-2.9623143672943115
1710956585822090000,12.339090087890625,1.8867406845092773,9.066405296325684,-2.8833513259887695
1710956585841048800,12.358048828125,2.1236300468444824,9.037691116333008,-2.9204399585723877
1710956585860008000,12.377008056640625,2.4598217010498047,9.126225471496582,-2.6632115840911865
1710956585878966800,12.395966796875,2.1930220127105713,9.251849174499512,-2.4741785526275635
1710956585897925600,12.414925537109376,2.0398812294006348,9.538987159729004,-2.4370899200439453
1710956585916884700,12.433884765625,1.8472590446472168,9.688538551330566,-2.313859462738037
1710956585935843600,12.452843505859375,2.025524377822876,8.971888542175293,-2.572284460067749
1710956585954802700,12.471802734375,1.5242279767990112,8.828319549560547,-2.9718856811523438
1710956585973761500,12.490761474609375,1.2646067142486572,9.280562400817871,-3.748356580734253
1710956585992720600,12.509720703125,1.8436698913574219,9.714859962463379,-4.618147850036621
1710956586011679500,12.528679443359374,1.6307085752487183,9.734002113342285,-4.884947299957275
1710956586030638300,12.547638427734375,1.9764715433120728,10.614561080932617,-5.326423168182373
1710956586049597400,12.566597412109376,0.46899324655532837,9.615557670593262,-5.375475883483887
1710956586068556500,12.585556640625,0.15912270545959473,8.451449394226074,-4.535595417022705
1710956586087515400,12.604515380859375,1.9525432586669922,11.885149955749512,0.25722843408584595
1710956586106474500,12.623474609375,3.5461630821228027,8.319844245910645,1.4428720474243164
1710956586125433300,12.642433349609375,4.406383037567139,6.766902446746826,0.8578268885612488
1710956586144392200,12.66139208984375,1.3004990816116333,9.170493125915527,-0.5862415432929993
1710956586163351300,12.680351318359374,1.246660590171814,6.728617191314697,-2.2504496574401855
1710956586182310400,12.699310302734375,1.856830358505249,9.4061861038208,-5.161318302154541
1710956586201269200,12.718269287109376,2.5567309856414795,9.695717811584473,-7.39980411529541
1710956586220228400,12.737228271484375,0.8949156403541565,8.526823043823242,-5.650650501251221
1710956586239187200,12.756187255859375,0.7848458290100098,8.919246673583984,-0.9427721500396729
1710956586258146000,12.77514599609375,2.410768747329712,10.478170394897461,0.882951557636261
1710956586277105200,12.794105224609375,1.4261223077774048,9.067601203918457,-1.23589289188385
1710956586296064300,12.813064208984375,1.5649060010910034,8.422736167907715,-3.9972102642059326
1710956586315023000,12.832023193359374,0.7501499056816101,9.268598556518555,-5.197210788726807
1710956586333982200,12.850982177734375,0.9475577473640442,10.125228881835938,-2.6464617252349854
1710956586352941000,12.869941162109376,1.6115660667419434,10.185050010681152,-1.1700903177261353
1710956586371900200,12.888900146484374,1.6534404754638672,10.350153923034668,-1.978864312171936
1710956586390859000,12.90785888671875,1.2969099283218384,10.768898010253906,-1.719243049621582
1710956586409818000,12.926818115234376,1.5948163270950317,10.798809051513672,-0.9655039310455322
1710956586428777000,12.94577685546875,2.3952155113220215,9.617950439453125,-3.4995031356811523
1710956586447736000,12.964736083984375,0.6364908218383789,10.717453002929688,-4.435096740722656
1710956586466695000,12.98369482421875,0.6448656916618347,11.998808860778809,-2.6368906497955322
1710956586485654000,13.002654052734375,2.5328028202056885,12.21655559539795,0.49172505736351013
1710956586504613000,13.021613037109375,3.047259569168091,12.04068374633789,-2.0829520225524902
1710956586523572000,13.040572021484374,2.045863389968872,10.664810180664062,-3.761517286300659
1710956586542531000,13.059531005859375,0.8482556343078613,11.057233810424805,-3.377469062805176
1710956586561490000,13.078489990234376,2.0709879398345947,12.52164077758789,-1.8795621395111084
1710956586580449000,13.097448974609375,3.7256247997283936,12.027523040771484,-1.4644074440002441
1710956586599408000,13.116408203125,1.8400806188583374,11.23190975189209,-2.0817556381225586
1710956586618367000,13.135366943359376,2.4011974334716797,11.048858642578125,-5.207978248596191
1710956586637326000,13.154326171875,0.711864709854126,11.730813026428223,-4.716253280639648
1710956586656285000,13.173284912109375,3.8045880794525146,11.60399341583252,-2.66560435295105
1710956586675244000,13.192244140625,2.376072883605957,11.770294189453125,-2.4011974334716797
1710956586694203100,13.211203125,1.9764715433120728,11.01296615600586,-3.7052857875823975
1710956586713162000,13.230161865234376,2.2540390491485596,10.601400375366211,-4.8538408279418945
1710956586732121000,13.24912109375,1.506281852722168,12.781262397766113,-2.365305185317993
1710956586751080000,13.268079833984375,3.7603209018707275,12.120842933654785,-2.9240293502807617
1710956586770039000,13.2870390625,3.077169895172119,9.847661972045898,-4.229313850402832
1710956586788998100,13.305998046875,1.9764715433120728,10.3681001663208,-2.4993033409118652
1710956586807957000,13.32495703125,2.3736801147460938,11.745169639587402,-4.133601188659668
1710956586826916000,13.343916015625,1.8664016723632812,12.55992603302002,-4.563112735748291
1710956586845875000,13.362875,2.92283296585083,9.426525115966797,-1.8185452222824097
1710956586864834000,13.381833984375,1.8604196310043335,7.7802629470825195,-2.1619153022766113
1710956586883793000,13.40079296875,3.3379876613616943,9.431310653686523,-0.7932206988334656
1710956586902752000,13.419751953125,2.675175666809082,10.626524925231934,-0.09451649338006973
1710956586921711000,13.438711181640626,3.8608193397521973,8.300702095031738,-2.9730820655822754
1710956586940670200,13.457670166015625,3.291327476501465,6.082555294036865,-5.431707382202148
1710956586959629000,13.476629150390625,1.5086746215820312,7.587640762329102,-3.1453654766082764
1710956586978588200,13.495588134765624,3.5473594665527344,8.082955360412598,2.20737886428833
1710956586997547000,13.514547119140625,1.6534404754638672,7.128218650817871,0.8638089895248413
1710956587016506000,13.533506103515625,1.007378339767456,5.994020938873291,-3.9936211109161377
1710956587035465200,13.55246533203125,0.2021935135126114,5.9306111335754395,-4.89691162109375
1710956587054424000,13.571424072265625,-1.0863415002822876,5.760720729827881,-2.7661030292510986
1710956587073383200,13.590383056640626,-0.2679961323738098,2.799602508544922,-1.129412293434143
1710956587092342300,13.60934228515625,0.8039883971214294,3.513859987258911,1.5876377820968628
1710956587111301000,13.628301025390625,0.2153540402650833,6.205785751342773,1.5278172492980957
1710956587130260200,13.64726025390625,-2.293520450592041,4.662415027618408,0.5216353535652161
1710956587149219300,13.66621923828125,-3.4396824836730957,1.368694543838501,0.776470959186554
1710956587168178200,13.68517822265625,-2.1930220127105713,1.6965112686157227,1.7874385118484497
1710956587187137300,13.70413720703125,0.3720839321613312,6.3529438972473145,5.461617469787598
1710956587206096100,13.72309619140625,-1.734796404838562,7.762316703796387,8.187042236328125
1710956587225055200,13.74205517578125,-2.1655044555664062,6.625725746154785,7.897511005401611
1710956587244014300,13.761014404296875,-2.1068804264068604,8.286344528198242,7.144968509674072
1710956587262973400,13.779973388671875,-1.1222338676452637,8.58903694152832,6.571887493133545
1710956587281932300,13.798932373046876,-1.552941918373108,8.714659690856934,3.4396824836730957
1710956587300891400,13.817891357421875,-2.2468605041503906,8.484949111938477,3.067598581314087
1710956587319850500,13.8368505859375,-0.8997012972831726,8.96829891204834,5.970092296600342
1710956587338809300,13.855809326171874,-1.5385849475860596,11.349157333374023,6.252445697784424
1710956587357768400,13.8747685546875,-1.8005990982055664,9.274580955505371,2.431107759475708
1710956587376727600,13.8937275390625,-1.511067509651184,8.617751121520996,1.8819550275802612
1710956587395686400,13.912686279296874,-1.566102385520935,9.305686950683594,3.601198196411133
1710956587414645500,13.9316455078125,-2.3222343921661377,9.659825325012207,3.4983067512512207
1710956587433604400,13.950604248046876,-2.121237277984619,8.839086532592773,4.728217601776123
1710956587452563500,13.9695634765625,-0.6795616149902344,8.331808090209961,6.333801746368408
1710956587471522600,13.9885224609375,-1.3268201351165771,9.294919967651367,4.109673023223877
1710956587490481700,14.007481689453124,-1.545763373374939,9.290133476257324,3.981656789779663
1710956587509440500,14.0264404296875,-1.7826528549194336,8.664410591125488,4.427918434143066
1710956587528399600,14.045399658203126,-2.2372891902923584,8.50289535522461,3.793820381164551
1710956587547358700,14.064358642578124,-1.1904292106628418,9.113064765930176,5.511867046356201
1710956587566317800,14.08331787109375,-0.9104689955711365,8.790034294128418,5.595615863800049
1710956587585276700,14.102276611328126,-1.8352949619293213,8.967103004455566,2.520838737487793
1710956587604235800,14.12123583984375,-1.755135416984558,8.846264839172363,2.0853450298309326
1710956587623195000,14.14019482421875,-1.1545369625091553,8.638090133666992,3.841676712036133
1710956587642153700,14.15915380859375,-1.3591232299804688,8.403593063354492,4.185046672821045
1710956587661112800,14.17811279296875,-1.6151553392410278,9.145368576049805,2.8414769172668457
1710956587680072000,14.197072021484376,-1.5026925802230835,8.979066848754883,2.9826533794403076
1710956587699030800,14.21603076171875,-1.3663017749786377,8.242077827453613,3.649054527282715
1710956587717990000,14.234989990234375,-1.6546368598937988,8.894122123718262,2.8905298709869385
1710956587736949000,14.253948974609376,-1.171286702156067,9.221938133239746,3.985246181488037
1710956587755907800,14.272907958984375,-0.7968099117279053,8.952746391296387,5.79063081741333
1710956587774867000,14.291866943359375,-1.5864413976669312,9.415757179260254,4.570291042327881
1710956587793826000,14.310825927734374,-2.094916343688965,8.798408508300781,3.8488552570343018
1710956587812785000,14.329784912109375,-1.7419748306274414,8.361719131469727,4.705485820770264
1710956587831744000,14.348743896484375,-1.2083754539489746,9.481559753417969,5.5860443115234375
1710956587850703000,14.367703125,-1.7336000204086304,9.842875480651855,4.595416069030762
1710956587869662200,14.386662109375,-1.9226330518722534,8.72183895111084,4.036691665649414
1710956587888621000,14.40562109375,-1.1066805124282837,8.5100736618042,4.705485820770264
1710956587907580200,14.424580078125,-1.5433706045150757,9.810572624206543,3.9290146827697754
1710956587926539300,14.443539306640625,-1.4919248819351196,9.203991889953613,3.421736478805542
1710956587945498000,14.462498046875,-0.589830756187439,8.560322761535645,6.0610198974609375
1710956587964457200,14.481457275390625,-1.301695466041565,8.952746391296387,5.343173027038574
1710956587983416300,14.500416259765625,-2.3880369663238525,9.850054740905762,2.5746772289276123
1710956588002375400,14.51937548828125,-0.9810572862625122,8.630910873413086,4.115654945373535
1710956588021334300,14.538334228515625,-0.8027920126914978,8.768498420715332,5.251049518585205
1710956588040293400,14.55729345703125,-2.135594129562378,9.126225471496582,2.9563324451446533
1710956588059252500,14.57625244140625,-1.552941918373108,9.33440113067627,3.5437703132629395
1710956588078211300,14.59521142578125,-1.074377417564392,8.543573379516602,5.5728840827941895
1710956588097170400,14.61417041015625,-0.9200403094291687,7.977670669555664,5.203192710876465
1710956588116129500,14.633129638671875,-1.3483555316925049,5.513063430786133,4.132404804229736
1710956588135088400,14.65208837890625,0.28953152894973755,4.158725738525391,2.616551637649536
1710956588154047500,14.671047607421874,0.7046862840652466,4.934000492095947,0.4342973232269287
1710956588173006600,14.690006591796875,2.0303099155426025,5.552545070648193,-1.8340985774993896
1710956588191965400,14.70896533203125,1.6845471858978271,7.060023307800293,-3.9146578311920166
1710956588210924500,14.727924560546874,1.9728822708129883,7.533802032470703,-2.118844509124756
1710956588229883600,14.746883544921875,0.25244277715682983,5.763113498687744,-1.9154545068740845
1710956588248842500,14.765842529296876,0.2871387302875519,6.794419765472412,-2.338984251022339
1710956588267801600,14.784801513671875,2.8223342895507812,8.161917686462402,-0.4163511395454407
1710956588286760700,14.8037607421875,3.7471601963043213,9.184849739074707,0.16749759018421173
1710956588305719800,14.8227197265625,2.847458839416504,8.260024070739746,-2.094916343688965
1710956588324678700,14.8416787109375,2.1164517402648926,6.634100914001465,-0.5850451588630676
1710956588343637800,14.8606376953125,2.118844509124756,9.913464546203613,3.078366279602051
1710956588362596900,14.879596923828124,3.597608804702759,10.670792579650879,2.163111686706543
1710956588381555700,14.8985556640625,3.2709884643554688,7.891529083251953,-1.557727575302124
1710956588400514800,14.917514892578126,2.427518606185913,10.73300552368164,-1.770688772201538
1710956588419474000,14.936473876953125,-1.6546368598937988,12.173484802246094,-2.3330020904541016
1710956588438433000,14.95543310546875,1.5026925802230835,7.083951473236084,-0.02273181453347206
1710956588457391900,14.974391845703124,2.7433712482452393,11.036894798278809,-0.6604190468788147
1710956588476351000,14.99335107421875,1.9286150932312012,12.306286811828613,0.6759724020957947
1710956588495310000,15.01231005859375,3.212364435195923,7.99800968170166,-1.588834285736084
1710956588514269000,15.03126904296875,1.4799607992172241,8.98385238647461,-2.376072883605957
1710956588533228000,15.05022802734375,3.0245277881622314,9.430113792419434,-1.6199408769607544
1710956588552187100,15.069187255859376,0.9858429431915283,10.922039031982422,-2.3198416233062744
1710956588571146000,15.08814599609375,1.333998680114746,8.116454124450684,-3.434896945953369
1710956588590105000,15.10710498046875,2.383251428604126,7.886743545532227,-1.8915263414382935
1710956588609064200,15.126064208984374,0.16390834748744965,11.650653839111328,0.8793623447418213
1710956588628023000,15.14502294921875,3.5018959045410156,9.997213363647461,1.6941183805465698
1710956588646982100,15.163982177734376,1.1976077556610107,8.37966537475586,0.11246266216039658
1710956588665941200,15.182941162109374,1.1617153882980347,11.869596481323242,-0.6580262184143066
1710956588684900000,15.201900146484375,1.1784651279449463,11.83609676361084,0.37806597352027893
1710956588703859200,15.220859130859376,2.830709218978882,6.7178497314453125,-3.1166515350341797
1710956588722818300,15.239818359375,3.2482566833496094,8.617751121520996,-3.050848960876465
1710956588741777400,15.25877734375,-0.6149554252624512,13.703695297241211,-2.730210542678833
1710956588760736300,15.277736328125,1.9728822708129883,9.28893756866455,-0.6472585201263428
1710956588779695400,15.2966953125,1.633101463317871,7.848458290100098,-1.0923235416412354
1710956588798654500,15.315654541015626,0.9080761671066284,12.472587585449219,-0.534795880317688
1710956588817613300,15.33461328125,1.9310078620910645,7.520641803741455,-0.38644084334373474
1710956588836572400,15.353572509765625,3.208775281906128,7.703692436218262,-0.37447673082351685
1710956588855531500,15.372531494140626,2.8630123138427734,13.875978469848633,-2.0685951709747314
1710956588874490400,15.391490478515625,0.26081767678260803,10.671989440917969,-1.2083754539489746
1710956588893449500,15.410449462890625,-1.2418749332427979,5.998806476593018,-1.6821542978286743
1710956588912408300,15.429408203125,1.0360921621322632,9.129815101623535,0.259621262550354
1710956588931367400,15.448367431640625,3.809373617172241,13.348361015319824,2.6249263286590576
1710956588950326500,15.467326416015625,3.451646566390991,11.661420822143555,0.38763725757598877
1710956588969285600,15.48628564453125,1.7048860788345337,7.637889862060547,-2.091326951980591
1710956588988244500,15.505244384765625,-1.3663017749786377,8.384450912475586,-3.328416347503662
1710956589007203600,15.52420361328125,0.7956135272979736,11.328819274902344,-2.4610180854797363
1710956589026162700,15.54316259765625,4.425525665283203,12.424731254577637,1.8652052879333496
1710956589045121500,15.56212158203125,2.231307029724121,9.89432144165039,3.0185458660125732
1710956589064080600,15.58108056640625,1.6247265338897705,6.8171515464782715,-1.8448662757873535
1710956589083039500,15.60003955078125,1.6235301494598389,7.64028263092041,-2.6536402702331543
1710956589101998600,15.61899853515625,0.9367900490760803,9.291330337524414,-1.7228323221206665
1710956589120957700,15.637957763671874,1.6701902151107788,9.387042999267578,-1.0336993932724
1710956589139916500,15.65691650390625,4.211368083953857,9.138189315795898,-1.222732424736023
1710956589158875600,15.675875732421876,3.8835511207580566,14.072190284729004,-1.9226330518722534
1710956589177834800,15.694834716796874,4.537988185882568,12.818350791931152,-1.5278172492980957
1710956589196793900,15.7137939453125,1.1784651279449463,5.389832973480225,-3.1788649559020996
1710956589215752700,15.732752685546876,6.007181167602539,34.00679397583008,-7.451249599456787
1710956589234711800,15.7517119140625,0.24646073579788208,24.153152465820312,-13.14975643157959
1710956589253670700,15.770670654296875,-4.602594375610352,-5.1768717765808105,-8.666803359985352
1710956589272629800,15.789629638671874,1.26699960231781,3.2506494522094727,4.082155227661133
1710956589291588900,15.8085888671875,1.8616160154342651,17.505889892578125,11.255837440490723
1710956589310547700,15.827547607421875,6.131608009338379,12.933206558227539,7.149754047393799
1710956589329506800,15.8465068359375,4.417150497436523,11.042876243591309,0.8386843204498291
1710956589348466000,15.8654658203125,0.03349951654672623,9.105886459350586,-7.731209754943848
1710956589367424800,15.8844248046875,1.4213366508483887,10.931610107421875,-7.380661487579346
1710956589386384000,15.9033837890625,1.454836130142212,13.944173812866211,-4.566701889038086
1710956589405343000,15.922343017578125,0.5467599630355835,13.60917854309082,-0.6125625967979431
1710956589424301800,15.9413017578125,0.2727817893028259,9.480362892150879,0.4701896607875824
1710956589443261000,15.960260986328125,1.789831280708313,13.179667472839355,0.3888336718082428
1710956589462219800,15.9792197265625,2.7529425621032715,13.310075759887695,-0.07417750358581543
1710956589481179000,15.998178955078124,3.6155550479888916,9.926624298095703,-0.8781659007072449
1710956589500138000,16.017137939453125,1.0971091985702515,11.196017265319824,-2.2755744457244873
1710956589519097000,16.03609716796875,-1.0492527484893799,11.559725761413574,-4.18145751953125
1710956589538056000,16.055055908203126,0.4019941985607147,9.766305923461914,-3.6263227462768555
1710956589557015000,16.07401513671875,1.9692929983139038,10.39202880859375,-0.02512463741004467
1710956589575974100,16.09297412109375,5.1218366622924805,13.447663307189941,1.8580267429351807
1710956589594933000,16.11193310546875,3.3918261528015137,10.707880973815918,-1.1365907192230225
1710956589613892000,16.13089208984375,0.4773681163787842,8.23130989074707,-5.411368370056152
1710956589632851200,16.149851318359374,0.7728816866874695,11.070393562316895,-6.114858150482178
1710956589651810000,16.16881005859375,0.3278166949748993,12.020344734191895,-1.6737794876098633
1710956589670769200,16.18776904296875,3.425325632095337,9.943374633789062,2.2791635990142822
1710956589689728000,16.20672802734375,4.4614176750183105,7.478767395019531,-1.0037890672683716
1710956589708687000,16.22568701171875,3.696911096572876,10.85025405883789,-3.276970624923706
1710956589727646200,16.244646240234374,0.15194423496723175,12.696316719055176,-3.1202406883239746
1710956589746605300,16.263605224609375,1.698904037475586,6.531209468841553,-4.512863636016846
1710956589765564200,16.282564208984375,1.92741858959198,6.208178520202637,-2.8677978515625
1710956589784523300,16.301523193359376,4.018745422363281,11.243873596191406,-0.8063812255859375
1710956589803482400,16.320482421875,4.938786029815674,10.179067611694336,0.22133609652519226
1710956589822441500,16.33944140625,3.726821184158325,6.7417778968811035,-2.0889341831207275
1710956589841400300,16.358400390625,1.5086746215820312,7.759923934936523,-4.89691162109375
1710956589860359400,16.377359375,2.913261651992798,9.4121675491333,-2.6739792823791504
1710956589879318500,16.396318603515624,3.9696927070617676,8.48016357421875,0.08973085135221481
1710956589898277400,16.41527734375,2.4047868251800537,5.7786664962768555,-0.6855437159538269
1710956589917236500,16.434236572265625,1.9728822708129883,7.098308563232422,-2.575873613357544
1710956589936195600,16.453195556640626,2.341377019882202,9.748359680175781,-4.1144585609436035
1710956589955154400,16.472154541015627,2.5459632873535156,6.853044033050537,-3.704089403152466
1710956589974113500,16.491113525390624,0.37806597352027893,4.455435752868652,-0.3086741268634796
1710956589993072600,16.51007275390625,1.1186445951461792,6.228517532348633,1.8747764825820923
1710956590012031500,16.529031494140625,1.9680966138839722,6.330212116241455,-0.8374879360198975
1710956590030990600,16.547990478515626,3.073580741882324,6.269195556640625,-2.644068956375122
1710956590049949700,16.56694970703125,-0.040677983313798904,5.398207664489746,-1.124626636505127
1710956590068908800,16.58590869140625,-2.89890456199646,2.4705893993377686,-0.537188708782196
1710956590087867600,16.60486767578125,-0.2955136001110077,3.5090744495391846,0.259621262550354
1710956590106826800,16.62382666015625,0.8279166221618652,5.976074695587158,2.414358139038086
1710956590125785900,16.642785888671874,-2.214557409286499,7.269395351409912,4.593023300170898
1710956590144745000,16.661744873046874,-3.157329559326172,6.836294174194336,7.691728591918945
1710956590163703800,16.680703857421875,-3.0891339778900146,4.954339504241943,7.599604606628418
1710956590182663000,16.699662841796876,-1.0648061037063599,7.978867053985596,9.562915802001953
1710956590201622000,16.7186220703125,-2.92283296585083,10.325029373168945,5.289334297180176
1710956590220581000,16.7375810546875,-2.6045875549316406,9.834501266479492,2.5770699977874756
1710956590239540000,16.7565400390625,-2.073380708694458,7.502695560455322,5.8337016105651855
1710956590258499000,16.7754990234375,-2.4873390197753906,8.851051330566406,6.835097789764404
1710956590277458200,16.794458251953124,-2.8342983722686768,10.908878326416016,3.737588882446289
1710956590296417300,16.813417236328124,-2.0039889812469482,9.363115310668945,3.7698919773101807
1710956590315376000,16.832376220703125,-2.3569302558898926,8.014759063720703,4.716253280639648
1710956590334335200,16.851335205078126,-2.6907291412353516,9.602396965026855,3.4947173595428467
1710956590353294300,16.87029443359375,-2.0745773315429688,10.022337913513184,3.9421753883361816
1710956590372253400,16.88925341796875,-1.3674981594085693,7.8795647621154785,5.905486106872559
1710956590391212300,16.90821240234375,-1.5696916580200195,8.182256698608398,4.924428939819336
1710956590410171400,16.92717138671875,-1.9166508913040161,8.970691680908203,2.647658348083496
1710956590429130500,16.946130615234374,-1.215553879737854,8.928817749023438,3.6466617584228516
1710956590448089600,16.965089599609374,-1.3256237506866455,8.397610664367676,4.455435752868652
1710956590467048400,16.98404833984375,-1.277767300605774,8.550751686096191,2.843869686126709
1710956590486007600,17.003007568359376,-0.9044869542121887,9.110671997070312,4.652843475341797
1710956590504966700,17.021966552734376,-1.3052847385406494,9.572486877441406,5.938985824584961
1710956590523925800,17.04092578125,-1.7802600860595703,8.798408508300781,3.219542980194092
1710956590542884900,17.059884765625,-1.908276081085205,8.677571296691895,2.6572296619415283
1710956590561844000,17.078843994140627,-1.8065811395645142,9.555737495422363,4.789234638214111
1710956590580802800,17.097802734375,-2.063809633255005,8.930013656616211,5.456831932067871
1710956590599762000,17.116761962890624,-1.9286150932312012,8.584251403808594,4.238885402679443
1710956590618721000,17.135720947265625,-1.451246976852417,9.615557670593262,3.513859987258911
1710956590637679900,17.154679931640626,-1.5182459354400635,9.716055870056152,3.7124643325805664
1710956590656639000,17.173638916015626,-1.648654818534851,8.14636516571045,4.286741733551025
1710956590675598000,17.19259814453125,-1.750349760055542,8.748159408569336,4.439882278442383
1710956590694557200,17.21155712890625,-1.0839486122131348,9.302098274230957,3.7674992084503174
1710956590713516300,17.230516357421877,-0.9978070259094238,9.357132911682129,3.7770705223083496
1710956590732475400,17.249475341796874,-1.4344971179962158,8.687142372131348,4.01754903793335
1710956590751434500,17.2684345703125,-1.7934205532073975,8.597412109375,4.033102512359619
1710956590770393300,17.287393310546875,-0.8542376756668091,9.596415519714355,4.159922122955322
1710956590789352400,17.3063525390625,-0.7393822073936462,9.378668785095215,3.9122650623321533
1710956590808311600,17.3253115234375,-1.384247899055481,8.61176872253418,3.108276605606079
1710956590827270700,17.344270751953125,-1.4608181715011597,9.365508079528809,3.9038901329040527
1710956590846229800,17.363229736328126,-1.0133603811264038,9.841679573059082,5.136193752288818
1710956590865188900,17.38218896484375,-0.9475577473640442,8.318648338317871,4.9399824142456055
1710956590884147700,17.401147705078124,-1.6259230375289917,8.140382766723633,4.157529354095459
1710956590903106800,17.42010693359375,-1.3304094076156616,8.545966148376465,4.356133460998535
1710956590922066000,17.43906591796875,-0.3433700501918793,8.810373306274414,5.730810165405273
1710956590941025000,17.45802490234375,-0.4163511395454407,8.219346046447754,4.707878589630127
1710956590959984000,17.476984130859375,-1.0205388069152832,5.509474277496338,0.916451096534729
1710956590978943200,17.495943115234375,-0.4175475537776947,4.844269275665283,-0.1339980661869049
1710956590997902000,17.514902099609376,1.8340985774993896,6.6484575271606445,1.9142581224441528
1710956591016861400,17.533861328125,1.3387842178344727,8.367700576782227,0.97148597240448
1710956591035820300,17.5528203125,0.5575276613235474,6.727420806884766,-2.9838497638702393
1710956591054779400,17.571779296875,0.6735795736312866,5.6207404136657715,-4.485345840454102
1710956591073738500,17.590738525390623,0.5599204897880554,7.901100158691406,-2.3808584213256836
1710956591092697600,17.609697509765624,2.774477958679199,8.824729919433594,1.368694543838501
1710956591111656700,17.62865673828125,2.764906644821167,6.620940208435059,0.23330020904541016
1710956591130615800,17.64761572265625,2.458625316619873,7.263412952423096,-1.4787644147872925
1710956591149575000,17.666574951171874,2.5902304649353027,11.006983757019043,-1.4380863904953003
1710956591168533800,17.68553369140625,2.92283296585083,9.41336441040039,2.1583259105682373
1710956591187493000,17.7044931640625,3.675375461578369,6.823133945465088,3.152543783187866
1710956591206452000,17.723451904296876,1.5170495510101318,8.981459617614746,1.222732424736023
1710956591225411000,17.7424111328125,3.6981074810028076,9.247062683105469,-1.2873386144638062
1710956591244370200,17.7613701171875,2.0027925968170166,9.312865257263184,-4.607379913330078
1710956591263329300,17.780329345703127,2.7122645378112793,8.651249885559082,-1.6187444925308228
1710956591282288400,17.799288330078124,0.6281159520149231,8.256434440612793,1.6630117893218994
1710956591301247500,17.81824755859375,3.978067636489868,9.731609344482422,2.447857618331909
1710956591320206600,17.83720654296875,3.6119658946990967,9.912267684936523,0.9667003750801086
1710956591339165700,17.856165771484374,0.35054850578308105,10.113265037536621,-0.9619147181510925
1710956591358124800,17.875124755859375,1.7012969255447388,7.59362268447876,-2.5974090099334717
1710956591377084000,17.894083984375,1.8448662757873535,8.555537223815918,-4.015156269073486
1710956591396043000,17.91304296875,1.5146567821502686,12.239287376403809,-1.5493526458740234
1710956591415001900,17.932001953125,4.374079704284668,9.018548965454102,0.9200403094291687
1710956591433961000,17.9509609375,4.182653903961182,6.519245147705078,-0.8279166221618652
1710956591452920300,17.96992041015625,-0.22133609652519226,9.9469633102417,-3.1417760848999023
1710956591471879200,17.988879150390623,1.797009825706482,10.088140487670898,-3.2470602989196777
1710956591490838300,18.00783837890625,2.0003998279571533,8.14516830444336,-2.706282377243042
1710956591509797400,18.02679736328125,1.9860427379608154,9.475577354431152,-2.7493531703948975
1710956591528756500,18.045756591796874,3.9804604053497314,8.912068367004395,-0.6221339106559753
1710956591547715600,18.064715576171874,0.3924229145050049,10.109675407409668,-0.9655039310455322
1710956591566674700,18.0836748046875,1.7874385118484497,10.374082565307617,-0.3924229145050049
1710956591585633800,18.1026337890625,1.8652052879333496,8.877371788024902,1.1497513055801392
1710956591604593000,18.121593017578125,1.828116536140442,10.395618438720703,-0.27038896083831787
1710956591623552000,18.140552001953125,2.053041934967041,10.316655158996582,-1.6893328428268433
1710956591642511000,18.159510986328126,2.2133610248565674,11.583654403686523,0.39960137009620667
1710956591661470200,18.17847021484375,1.0301101207733154,12.025130271911621,3.294916868209839
1710956591680429300,18.19742919921875,-0.2787638306617737,11.343175888061523,-0.11246266216039658
1710956591699388400,18.216388427734376,0.7345965504646301,7.92861795425415,-3.730410575866699
1710956591718347500,18.235347412109373,4.7365922927856445,8.361719131469727,-3.6705899238586426
1710956591737306600,18.254306640625,3.451646566390991,13.63908863067627,-1.1341979503631592
1710956591756265700,18.273265625,3.1214370727539062,10.133604049682617,0.31465616822242737
1710956591775224800,18.292224853515624,1.8580267429351807,7.451249599456787,-0.760917603969574
1710956591794184000,18.311183837890624,0.7800601720809937,10.195816993713379,-2.148754835128784
1710956591813143000,18.33014306640625,3.445664644241333,9.308079719543457,-2.977867841720581
1710956591832102100,18.34910205078125,2.306680917739868,10.039087295532227,-1.368694543838501
1710956591851061200,18.368061279296874,2.1655044555664062,11.962916374206543,0.15074782073497772
1710956591870020400,18.387020263671875,2.2719850540161133,8.782855987548828,-0.3122633695602417
1710956591888979500,18.4059794921875,0.3696911036968231,8.58185863494873,-3.10109806060791
1710956591907938600,18.4249384765625,4.76530647277832,11.564512252807617,0.5706881880760193
1710956591926897700,18.443897705078125,4.6301116943359375,10.25324535369873,5.050052165985107
1710956591945856800,18.462856689453126,0.13639089465141296,9.34875774383545,-2.825923442840576
1710956591964816000,18.48181591796875,-0.6867401003837585,8.934800148010254,-5.661418437957764
1710956591983775000,18.50077490234375,1.6342978477478027,11.447263717651367,0.623330295085907
1710956592002734000,18.519734130859376,2.3916261196136475,8.172685623168945,2.82951283454895
1710956592021693200,18.538693115234373,2.937189817428589,7.313662528991699,-0.7058826684951782
1710956592040652300,18.55765234375,0.6424728631973267,11.101500511169434,-3.3236305713653564
1710956592059611100,18.576611083984375,1.588834285736084,19.101903915405273,-6.1435723304748535
1710956592078570500,18.595570556640624,8.02074146270752,27.85006332397461,-4.372883319854736
1710956592097529600,18.614529541015624,4.095315933227539,7.974081516265869,-2.823530673980713
1710956592116488700,18.63348876953125,-0.836291491985321,-2.5387847423553467,1.0504491329193115
1710956592135447800,18.65244775390625,-0.8566305041313171,7.1820573806762695,-4.928018093109131
1710956592154406700,18.67140673828125,1.3148560523986816,22.912473678588867,-1.9836499691009521
1710956592173366000,18.690365966796875,2.7840490341186523,15.938591957092285,0.5324030518531799
1710956592192325000,18.7093251953125,2.6967110633850098,2.796013355255127,-3.160918712615967
1710956592211284000,18.728283935546877,1.100698471069336,10.206584930419922,-0.7322037220001221
1710956592230243300,18.747243408203126,2.819941520690918,10.898110389709473,3.1788649559020996
1710956592249202200,18.7662021484375,3.260220766067505,13.854443550109863,-1.978864312171936
1710956592268161500,18.78516162109375,4.130012035369873,13.739587783813477,-3.8249270915985107
1710956592287120600,18.80412060546875,2.3509483337402344,11.042876243591309,-3.555734395980835
1710956592306079500,18.82307958984375,-0.8027920126914978,13.246665954589844,-4.238885402679443
1710956592325038800,18.842038818359374,1.6247265338897705,10.906485557556152,-1.5541383028030396
1710956592343997700,18.860997802734374,3.570091485977173,13.17248821258545,0.8793623447418213
1710956592362956800,18.879956787109375,3.792623996734619,12.738191604614258,-0.778863787651062
1710956592381916200,18.898916259765624,1.490728497505188,11.933006286621094,-3.3750762939453125
1710956592400875000,18.917875,-0.23210379481315613,11.911471366882324,-4.329812526702881
1710956592419834400,18.93683447265625,1.3256237506866455,9.401400566101074,-3.049652576446533
1710956592438793200,18.955793212890626,2.3569302558898926,12.652050018310547,-2.939582586288452
1710956592457752300,18.97475244140625,3.136990547180176,13.196416854858398,-1.6271194219589233
1710956592476711700,18.993711669921876,2.5112674236297607,11.478370666503906,-0.35533416271209717
1710956592495670500,19.01267041015625,2.3676979541778564,11.018948554992676,-2.912065267562866
1710956592514629600,19.031629638671873,0.8458628058433533,9.91825008392334,-4.934000492095947
1710956592533588700,19.050588623046874,1.073180913925171,11.261819839477539,-3.2518460750579834
1710956592552547800,19.0695478515625,2.620140790939331,11.157732009887695,-0.13878370821475983
1710956592571507000,19.0885068359375,3.150151014328003,10.941181182861328,0.778863787651062
1710956592590466000,19.107466064453124,3.2518460750579834,9.007781028747559,-2.4083759784698486
1710956592609425200,19.126425048828125,1.0683952569961548,8.718249320983887,-5.565705299377441
1710956592628384300,19.14538427734375,0.19262222945690155,10.307083129882812,-3.8632121086120605
1710956592647343400,19.16434326171875,1.911865234375,8.390432357788086,-0.5647061467170715
1710956592666302500,19.183302490234375,3.8763725757598877,6.197410583496094,-0.4043870270252228
1710956592685261600,19.202261474609376,3.8775691986083984,9.601201057434082,-1.0959128141403198
1710956592704220700,19.221220703125,3.1094729900360107,10.461421012878418,-2.528017044067383
1710956592723179800,19.2401796875,3.308077335357666,6.39601469039917,-2.4646072387695312
1710956592742139000,19.259138916015626,1.0863415002822876,4.734199523925781,-2.084148406982422
1710956592761098000,19.278097900390627,0.12442677468061447,7.1988067626953125,-1.2658032178878784
1710956592780057000,19.29705712890625,1.2275179624557495,7.118647575378418,-0.7190431952476501
1710956592799016200,19.31601611328125,1.7922241687774658,4.823930263519287,-1.8747764825820923
1710956592817975300,19.334975341796873,1.5828521251678467,5.623133182525635,-1.6067804098129272
1710956592836934400,19.353934326171874,0.9798609018325806,6.723831653594971,-0.4139583110809326
1710956592855893500,19.3728935546875,1.0444670915603638,5.076373100280762,-0.22133609652519226
1710956592874852600,19.3918525390625,0.38763725757598877,4.480560302734375,-1.3710874319076538
1710956592893811700,19.410811767578124,-0.13878370821475983,5.513063430786133,0.020338991656899452
1710956592912770800,19.429770751953125,-1.8951154947280884,3.893122434616089,0.43549370765686035
1710956592931730000,19.44872998046875,-2.1954147815704346,1.698904037475586,-0.8506484627723694
1710956592950689000,19.46768896484375,-2.053041934967041,6.588637351989746,-0.46899324655532837
1710956592969648000,19.486648193359375,-0.2189432680606842,10.01994514465332,4.731806755065918
1710956592988607000,19.50560693359375,-1.3663017749786377,6.570691108703613,7.720442295074463
1710956593007566300,19.52456640625,-0.4654040038585663,5.335994720458984,10.786844253540039
1710956593026525200,19.543525146484374,-3.4480574131011963,7.219145774841309,6.179464340209961
1710956593045484300,19.562484375,-2.0853450298309326,11.48794174194336,1.5708880424499512
1710956593064443600,19.581443603515623,-0.5778666734695435,9.317651748657227,5.279763221740723
1710956593083402500,19.600402587890624,-0.4342973232269287,7.726424217224121,8.640482902526855
1710956593102361600,19.619361572265625,-1.5672988891601562,11.26062297821045,4.510470867156982
1710956593121320700,19.63832080078125,-1.994417667388916,11.131410598754883,2.2193429470062256
1710956593140279800,19.65727978515625,-0.7046862840652466,9.357132911682129,3.8739798069000244
1710956593159239000,19.676239013671875,-1.0887342691421509,8.559126853942871,3.207578659057617
1710956593178198000,19.695197998046876,-1.7623138427734375,10.145567893981934,0.8733802437782288
1710956593197157000,19.7141572265625,-1.8735800981521606,8.9312105178833,0.8315058946609497
1710956593216116200,19.7331162109375,-1.2681959867477417,8.489734649658203,3.625126361846924
1710956593235075300,19.752075439453126,-1.4871392250061035,8.689535140991211,3.9792640209198
1710956593254034400,19.771034423828127,-1.8747764825820923,9.608379364013672,2.909672260284424
1710956593272993500,19.78999365234375,-2.1164517402648926,8.80798053741455,3.5341989994049072
1710956593291952400,19.808952392578124,-1.7395820617675781,8.336593627929688,4.9435715675354
1710956593310911700,19.827911865234373,-1.710868239402771,8.688339233398438,5.255835056304932
1710956593329870800,19.846870849609374,-2.0374884605407715,9.696913719177246,3.480360507965088
1710956593348829700,19.86582958984375,-1.404586911201477,9.183652877807617,3.631108283996582
1710956593367788800,19.884788818359375,-0.9643075466156006,8.276773452758789,5.024927616119385
1710956593386748000,19.903747802734376,-1.4536397457122803,8.958727836608887,3.5533416271209717
1710956593405707000,19.92270703125,-1.6701902151107788,9.877572059631348,2.218146562576294
1710956593424666000,19.941666015625,-0.7178468108177185,9.047262191772461,4.113262176513672
1710956593443625200,19.960625244140626,-0.5072783827781677,8.933603286743164,4.296313285827637
1710956593462584300,19.979584228515623,-0.9678967595100403,9.046066284179688,2.1308085918426514
1710956593481543400,19.99854345703125,-0.9332008361816406,9.704092025756836,2.4358935356140137
1710956593500502500,20.01750244140625,-0.6149554252624512,8.586644172668457,3.955335855484009
1710956593519461600,20.036461669921874,-1.179661512374878,8.997013092041016,3.4779677391052246
1710956593538420700,20.055420654296874,-1.164108157157898,9.463613510131836,3.579662561416626
1710956593557379600,20.074379638671875,-0.8817551732063293,8.949156761169434,4.900500774383545
1710956593576338700,20.093338623046876,-1.5672988891601562,9.146564483642578,3.9984066486358643
1710956593595297800,20.1122978515625,-1.8855443000793457,9.017352104187012,2.4849462509155273
1710956593614257000,20.1312568359375,-1.561316728591919,9.059226989746094,4.126422882080078
1710956593633216000,20.150216064453126,-1.6378871202468872,9.058030128479004,5.511867046356201
1710956593652175000,20.169175048828127,-1.9525432586669922,9.038887977600098,3.8572301864624023
1710956593671134200,20.18813427734375,-1.7587246894836426,9.364311218261719,2.4335005283355713
1710956593690093300,20.20709326171875,-1.1102696657180786,8.784051895141602,3.8213376998901367
1710956593709052400,20.226052490234373,-1.3986048698425293,9.461220741271973,4.296313285827637
1710956593728011300,20.24501123046875,-1.8640087842941284,9.174081802368164,2.8977081775665283
1710956593746970400,20.263970458984375,-1.5002998113632202,9.10110092163086,3.3164522647857666
1710956593765929500,20.282929443359375,-1.262213945388794,9.610772132873535,3.923032760620117
1710956593784888600,20.301888671875,-1.5194423198699951,9.31047248840332,3.7016966342926025
1710956593803847700,20.32084765625,-1.5553346872329712,9.230313301086426,3.8608193397521973
1710956593822806800,20.339806884765625,-1.6929219961166382,9.949356079101562,3.864408493041992
1710956593841766000,20.358765869140626,-1.1808580160140991,8.738588333129883,4.3657050132751465
1710956593860725000,20.37772509765625,-1.521835207939148,9.31166934967041,3.8632121086120605
1710956593879683800,20.396683837890624,-1.5948163270950317,10.205389022827148,2.8139593601226807
1710956593898643000,20.415642822265625,-1.25144624710083,9.028120040893555,4.029513359069824
1710956593917602000,20.43460205078125,-1.3806586265563965,8.325826644897461,4.823930263519287
1710956593936561200,20.45356103515625,-1.5026925802230835,8.751749038696289,4.2592244148254395
1710956593955520300,20.472520263671875,-1.7216359376907349,9.32722282409668,2.7361927032470703
1710956593974479400,20.491479248046875,-1.4476577043533325,6.790830612182617,2.438286304473877
1710956593993438200,20.510438232421876,-0.2883351147174835,5.635097503662109,2.89172625541687
1710956594012397300,20.529397216796873,0.9810572862625122,6.786045074462891,2.1403799057006836
1710956594031356400,20.5483564453125,0.22492532432079315,8.300702095031738,0.4977070987224579
1710956594050315500,20.5673154296875,0.5958128571510315,5.971288681030273,-1.3519448041915894
1710956594069274600,20.586274658203124,0.7405785918235779,4.675575256347656,-2.5184457302093506
1710956594088233700,20.605233642578124,-0.3684946894645691,8.323433876037598,-1.9094724655151367
1710956594107192800,20.62419287109375,0.11006984114646912,8.307880401611328,0.11605189740657806
1710956594126152000,20.64315185546875,0.8279166221618652,6.007181167602539,1.0516455173492432
1710956594145111000,20.662111083984374,2.785245656967163,7.366304397583008,2.076970100402832
1710956594164070000,20.68106982421875,3.456432342529297,10.426724433898926,1.5756736993789673
1710956594183029000,20.700029052734376,2.7146573066711426,9.385847091674805,-0.5826523303985596
1710956594201988000,20.718988037109376,1.6055840253829956,7.161718368530273,-2.1607189178466797
1710956594220947200,20.737947265625,3.1585259437561035,7.946564197540283,-1.1569297313690186
1710956594239906300,20.75690625,1.6390835046768188,10.303494453430176,-0.013160524889826775
1710956594258865400,20.775865478515627,2.4095723628997803,10.417153358459473,-0.20578274130821228
1710956594277824300,20.79482421875,3.0412776470184326,8.47896671295166,-0.19142581522464752
1710956594296783400,20.813783447265624,3.1860432624816895,9.095118522644043,2.390429735183716
1710956594315742500,20.832742431640625,4.865804672241211,7.378268718719482,-1.710868239402771
1710956594334701600,20.85170166015625,0.778863787651062,8.585447311401367,-5.489135265350342
1710956594353660700,20.87066064453125,1.073180913925171,10.900503158569336,-5.355136871337891
1710956594372619800,20.889619873046875,1.4727823734283447,9.726823806762695,-0.8350951075553894
1710956594391578600,20.90857861328125,2.4670002460479736,9.090332984924316,3.06999135017395
1710956594410537700,20.927537841796877,3.748356580734253,10.378868103027344,2.6189444065093994
1710956594429496800,20.946496826171874,1.1736794710159302,12.226127624511719,-0.7704889178276062
1710956594448456000,20.9654560546875,2.2337000370025635,6.966702938079834,-6.417550563812256
1710956594467415000,20.9844150390625,-1.0253244638442993,5.304887771606445,-7.008577346801758
1710956594486374100,21.0033740234375,1.2346965074539185,10.247262954711914,-1.7371892929077148
1710956594505333200,21.022333251953125,1.8340985774993896,10.73539924621582,1.9920248985290527
1710956594524292000,21.0412919921875,4.019941806793213,8.331808090209961,3.5377883911132812
1710956594543251200,21.060251220703126,3.5533416271209717,8.651249885559082,1.215553879737854
1710956594562210300,21.079210205078127,0.4989035129547119,9.7005033493042,-4.433900356292725
1710956594581169400,21.09816943359375,0.8626125454902649,7.980063438415527,-5.784648895263672
1710956594600128500,21.11712841796875,1.2454642057418823,9.635896682739258,-0.7752745151519775
1710956594619087600,21.136087646484373,-0.10887342691421509,9.595218658447266,1.867598056793213
1710956594638046500,21.15504638671875,1.6857435703277588,8.394021987915039,3.4025938510894775
1710956594657005600,21.174005615234375,2.4610180854797363,12.308679580688477,0.8183453679084778
1710956594675964700,21.192964599609375,1.6295121908187866,12.129218101501465,0.6185446381568909
1710956594694923800,21.211923828125,0.15553347766399384,7.617550849914551,-0.4019941985607147
1710956594713883000,21.2308828125,0.5383850932121277,7.456035137176514,-2.840280532836914
1710956594732842000,21.249842041015626,1.3471591472625732,10.228120803833008,-1.2335001230239868
1710956594751800800,21.26880078125,2.4646072387695312,13.969298362731934,-0.05024927482008934
1710956594770760000,21.287760009765623,1.32921302318573,11.440085411071777,2.1774685382843018
1710956594789719000,21.306718994140624,0.5958128571510315,7.085147857666016,0.49292147159576416
1710956594808678100,21.32567822265625,1.664208173751831,9.565308570861816,-1.8029918670654297
1710956594827637200,21.34463720703125,3.867997884750366,13.709677696228027,0.3756731450557709
1710956594846596400,21.363596435546874,1.576870083808899,12.539587020874023,3.9457645416259766
1710956594865555500,21.382555419921875,0.6089733839035034,7.665407180786133,-1.6450655460357666
1710956594884514600,21.4015146484375,0.31824541091918945,8.213363647460938,-4.1383867263793945
1710956594903473700,21.4204736328125,2.9108686447143555,12.665210723876953,-0.05024927482008934
1710956594922432500,21.4394326171875,2.2959132194519043,11.383853912353516,-0.3170489966869354
1710956594941391600,21.4583916015625,-0.6436693072319031,9.826126098632812,-3.377469062805176
1710956594960350700,21.477350830078127,2.612962245941162,15.183655738830566,-3.4468610286712646
1710956594979309800,21.496309814453124,5.636293888092041,15.393028259277344,0.8865407705307007
1710956594998269000,21.51526904296875,2.5423741340637207,7.4847493171691895,2.6189444065093994
1710956595017228000,21.53422802734375,7.050451755523682,32.47419357299805,-3.0999016761779785
1710956595036187100,21.553187255859374,0.6197410821914673,14.860625267028809,-5.795416355133057
1710956595055146200,21.572146240234375,-4.711467742919922,-5.066802024841309,-6.643671989440918
1710956595074105000,21.59110498046875,-0.31824541091918945,0.2967100143432617,-2.3700907230377197
1710956595093064200,21.610064208984376,0.6975077986717224,16.147964477539062,6.035895347595215
1710956595112023300,21.629023193359377,2.1894326210021973,14.246866226196289,1.8843477964401245
1710956595130982400,21.647982421875,5.491528034210205,10.728219985961914,-0.1698904037475586
1710956595149941500,21.66694140625,2.6297121047973633,11.996416091918945,1.384247899055481
1710956595168900600,21.685900634765623,1.1270195245742798,11.321640014648438,-2.179861545562744
1710956595187859700,21.704859619140624,1.384247899055481,13.01934814453125,-3.4923245906829834
1710956595206818800,21.72381884765625,0.5886343717575073,10.795219421386719,-0.22851456701755524
1710956595225778000,21.74277783203125,0.865005373954773,11.25344467163086,0.3314059376716614
1710956595244736800,21.76173681640625,1.3399807214736938,12.664013862609863,-1.1593226194381714
1710956595263696100,21.780696044921875,5.84566593170166,12.483355522155762,-0.3038884699344635
1710956595282655000,21.799655029296876,-0.2356930375099182,13.161721229553223,-3.1202406883239746
1710956595301614000,21.818614013671876,-0.20458634197711945,11.160124778747559,-4.3310089111328125
1710956595320573200,21.8375732421875,2.2671995162963867,12.095718383789062,-0.23210379481315613
1710956595339532300,21.8565322265625,2.475374937057495,10.273584365844727,2.03629207611084
1710956595358491400,21.875491455078127,1.2693923711776733,14.511273384094238,-0.9248259663581848
1710956595377450500,21.894450439453124,1.7527425289154053,11.980862617492676,-3.8883368968963623
1710956595396409600,21.91340966796875,-0.26919254660606384,11.648261070251465,-3.4683964252471924
1710956595415368700,21.93236865234375,1.7742780447006226,10.039087295532227,-0.9750752449035645
1710956595434327800,21.951327880859374,2.1068804264068604,11.748759269714355,0.6735795736312866
1710956595453287000,21.970286865234375,2.5459632873535156,12.53839111328125,-1.332802176475525
1710956595472246000,21.98924609375,1.1461620330810547,9.352347373962402,-4.731806755065918
1710956595491205000,22.008205078125,1.4799607992172241,10.115657806396484,-4.096512317657471
1710956595510164200,22.027164306640625,1.7324036359786987,12.06341552734375,-2.0506489276885986
1710956595529123300,22.046123291015626,1.0755738019943237,10.179067611694336,0.22612173855304718
1710956595548082200,22.065082275390626,1.534995675086975,8.307880401611328,0.45942193269729614
1710956595567041500,22.08404150390625,2.7625136375427246,8.739784240722656,-1.2011969089508057
1710956595586000600,22.103000732421876,4.462614059448242,10.546365737915039,-3.851248025894165
1710956595604959500,22.12195947265625,1.4787644147872925,10.375279426574707,-4.4482574462890625
1710956595623918800,22.1409189453125,0.13160525262355804,8.23848819732666,-2.968296527862549
1710956595642877700,22.159877685546874,0.39960137009620667,6.535995006561279,-1.3746765851974487
1710956595661837000,22.178837158203127,2.5088746547698975,7.539783954620361,0.33379876613616943
1710956595680796200,22.197796142578124,2.764906644821167,8.952746391296387,-0.24287149310112
1710956595699755000,22.216755126953124,3.9768712520599365,8.306683540344238,-1.7419748306274414
1710956595718714400,22.23571435546875,2.554338216781616,6.866204738616943,-2.737389087677002
1710956595737673200,22.254673095703126,0.6963114142417908,5.682953834533691,-2.462214469909668
1710956595756632300,22.27363232421875,0.26081767678260803,6.39601469039917,-1.7982062101364136
1710956595775591700,22.292591796875,0.5168496966362,5.91505765914917,-1.454836130142212
1710956595794550500,22.311550537109376,0.46420758962631226,5.674578666687012,-0.5814558863639832
1710956595813510000,22.330510009765625,-0.14835500717163086,5.284548759460449,-1.0971091985702515
1710956595832468700,22.34946875,1.3519448041915894,5.412564754486084,-1.506281852722168
1710956595851427800,22.368427734375,1.9932212829589844,5.016552448272705,-0.9475577473640442
1710956595870387200,22.38738720703125,0.6771687865257263,5.36351203918457,-1.5182459354400635
1710956595889346000,22.406345947265624,-0.8937192559242249,6.642475605010986,-0.5611169338226318
1710956595908305400,22.425305419921877,-0.6556333899497986,4.938786029815674,3.28773832321167
1710956595927264300,22.44426416015625,-0.24167509377002716,5.877968788146973,5.624329566955566
1710956595946223600,22.4632236328125,0.550349235534668,7.274180889129639,2.495713949203491
1710956595965182700,22.4821826171875,-1.9513468742370605,7.776673793792725,4.776073932647705
1710956595984141800,22.501141845703124,-1.042074203491211,6.428318023681641,7.288537979125977
1710956596003101000,22.520100830078125,-1.4009976387023926,10.73539924621582,3.9397823810577393
1710956596022059800,22.539059814453125,0.2153540402650833,9.564111709594727,3.8919260501861572
1710956596041019100,22.55801904296875,-0.4247260093688965,9.08674430847168,7.122236728668213
1710956596059978200,22.576978271484375,-3.16331148147583,8.7445707321167,3.473181962966919
1710956596078937300,22.595937255859376,-2.1379871368408203,9.205188751220703,2.0231316089630127
1710956596097896400,22.614896484375,-2.0985054969787598,9.663414001464844,6.403193473815918
1710956596116855600,22.63385546875,-1.7982062101364136,9.638289451599121,8.226524353027344
1710956596135814700,22.652814697265626,-3.0520453453063965,9.061619758605957,4.377668857574463
1710956596154773800,22.671773681640627,-2.310270309448242,9.091529846191406,1.4943177700042725
1710956596173732900,22.69073291015625,-2.581855535507202,8.598608016967773,2.748156785964966
1710956596192692000,22.70969189453125,-1.6773686408996582,8.583054542541504,5.219942569732666
1710956596211651000,22.728651123046873,-1.3208380937576294,8.057829856872559,3.572484254837036
1710956596230610200,22.747610107421874,-1.3040883541107178,8.780462265014648,2.4945175647735596
1710956596249569300,22.7665693359375,-1.4141582250595093,9.647860527038574,4.6301116943359375
1710956596268528400,22.7855283203125,-1.7682958841323853,8.23250675201416,4.609772682189941
1710956596287487500,22.804487548828124,-1.277767300605774,7.307680130004883,3.6981074810028076
1710956596306446600,22.823446533203125,-1.2370892763137817,9.584450721740723,3.008974552154541
1710956596325406000,22.842406005859374,-1.5302101373672485,10.652846336364746,4.388436794281006
1710956596344365000,22.861364990234375,-1.8305093050003052,8.390432357788086,4.766502857208252
1710956596363324200,22.88032421875,-1.5960127115249634,7.521838188171387,4.118047714233398
1710956596382283300,22.899283203125,-1.3280165195465088,10.120443344116211,3.6574294567108154
1710956596401242400,22.918242431640625,-1.2681959867477417,10.554740905761719,3.7256247997283936
1710956596420201500,22.937201416015625,-1.3914263248443604,7.904689788818359,3.70767879486084
1710956596439160600,22.95616064453125,-1.3435698747634888,8.956335067749023,3.8045880794525146
1710956596458119700,22.97511962890625,-0.8757730722427368,10.25204849243164,4.080958843231201
1710956596477078800,22.994078857421876,-1.1700903177261353,9.828518867492676,4.386044025421143
1710956596496038100,23.0130380859375,-1.2406785488128662,8.693124771118164,3.9122650623321533
1710956596514997000,23.0319970703125,-0.9451649188995361,8.774480819702148,3.080759048461914
1710956596533956400,23.050956298828126,-0.9559326171875,10.047462463378906,3.2207393646240234
1710956596552915500,23.06991552734375,-1.0516455173492432,9.383454322814941,4.529613494873047
1710956596571874600,23.08887451171875,-1.3782658576965332,8.019545555114746,4.356133460998535
1710956596590833700,23.107833740234376,-1.5936198234558105,9.08674430847168,3.1692936420440674
1710956596609792800,23.126792724609373,-1.129412293434143,9.56052303314209,3.1860432624816895
1710956596628752000,23.145751953125,-1.0612168312072754,9.638289451599121,4.268795490264893
1710956596647711000,23.1647109375,-1.576870083808899,8.62014389038086,4.267599105834961
1710956596666670000,23.183670166015624,-1.129412293434143,8.700303077697754,4.374079704284668
1710956596685629400,23.20262939453125,-0.7345965504646301,9.701699256896973,4.395615100860596
1710956596704588500,23.221588623046873,-1.3040883541107178,9.492327690124512,3.5270206928253174
1710956596723547600,23.240547607421874,-1.415354609489441,9.223134994506836,3.6095728874206543
1710956596742506800,23.2595068359375,-0.9451649188995361,9.170493125915527,4.722235679626465
1710956596761465900,23.2784658203125,-0.8590233325958252,8.86062240600586,5.0907301902771
1710956596780425000,23.297425048828124,-1.1748759746551514,8.678768157958984,4.302295207977295
1710956596799384000,23.316384033203125,-0.5826523303985596,8.455039024353027,3.988835334777832
1710956596818343400,23.335343505859374,-0.9523434042930603,7.0169525146484375,2.0398812294006348
1710956596837302300,23.35430224609375,0.12323036789894104,5.516652584075928,0.48095735907554626
1710956596856261600,23.37326171875,1.317248821258545,5.0811591148376465,-0.37088751792907715
1710956596875220700,23.392220703125,1.2574282884597778,7.537391185760498,-1.2598211765289307
1710956596894179800,23.411179931640625,0.4426721930503845,8.73619556427002,-1.0049854516983032
1710956596913139000,23.430138916015625,-0.137587308883667,6.166304111480713,-2.3736801147460938
1710956596932098000,23.44909814453125,0.27397820353507996,4.104887008666992,-0.7214360237121582
1710956596951057400,23.468057373046875,0.914058268070221,6.867401123046875,1.9537396430969238
1710956596970016500,23.4870166015625,2.4526431560516357,9.701699256896973,1.6893328428268433
1710956596988975600,23.5059755859375,2.163111686706543,7.683353424072266,0.29790642857551575
1710956597007934700,23.524934814453125,3.0867412090301514,6.035895347595215,-0.16031911969184875
1710956597026893800,23.543893798828126,0.9583254456520081,8.973084449768066,0.48095735907554626
1710956597045853000,23.56285302734375,0.3122633695602417,10.170692443847656,-1.7623138427734375
1710956597064812300,23.581812255859376,2.2887349128723145,8.708678245544434,-0.13040883839130402
1710956597083771400,23.600771484375,3.3858439922332764,9.083154678344727,3.2554352283477783
1710956597102730500,23.61973046875,1.1030912399291992,9.791430473327637,1.4656038284301758
1710956597121689600,23.638689697265626,1.9489539861679077,10.091729164123535,-3.469592809677124
1710956597140648700,23.657648681640627,2.4981069564819336,8.151150703430176,-3.978067636489868
1710956597159607800,23.67660791015625,2.210968017578125,10.637292861938477,0.6101697683334351
1710956597178567200,23.695567138671876,0.41515472531318665,11.364710807800293,3.513859987258911
1710956597197526000,23.714526123046873,2.8654050827026367,7.089933395385742,1.466800332069397
1710956597216485400,23.7334853515625,2.2540390491485596,10.63968563079834,-1.00259268283844
1710956597235444500,23.752444580078127,0.19980068504810333,11.959327697753906,-2.3294129371643066
1710956597254403600,23.771403564453124,3.3750762939453125,5.578866004943848,-4.744967460632324
1710956597273362700,23.79036279296875,2.5878376960754395,7.657032489776611,-5.1876397132873535
1710956597292321800,23.80932177734375,1.8687944412231445,12.921242713928223,-1.397408366203308
1710956597311281200,23.82828125,2.152343988418579,9.891928672790527,0.9595218896865845
1710956597330240300,23.847240234375,2.159522533416748,6.553941249847412,0.8913264274597168
1710956597349199400,23.866199462890624,-0.6125625967979431,10.079765319824219,-0.7848458290100098
1710956597368158500,23.885158447265624,2.8103702068328857,9.858428955078125,-0.007178467698395252
1710956597387117600,23.90411767578125,2.568695068359375,9.784252166748047,0.22971096634864807
1710956597406076700,23.92307666015625,2.200200319290161,12.439088821411133,0.7238288521766663
1710956597425036000,23.9420361328125,0.13639089465141296,9.986445426940918,3.056830883026123
1710956597443995100,23.9609951171875,3.284149169921875,7.336394309997559,0.003589233849197626
1710956597462954200,23.979954345703124,1.7742780447006226,8.819944381713867,-5.832505226135254
1710956597481913300,23.998913330078125,-0.9320043921470642,10.768898010253906,-3.7543387413024902
1710956597500872400,24.01787255859375,0.7465606927871704,12.597014427185059,-2.7553353309631348
1710956597519831600,24.03683154296875,-0.20338992774486542,10.302297592163086,2.245664119720459
1710956597538791000,24.055791015625,0.009571290574967861,8.790034294128418,4.930410861968994
1710956597557750000,24.07475,3.1549365520477295,9.609575271606445,4.277170658111572
1710956597576709000,24.093709228515625,2.117648124694824,10.84427261352539,-2.0231316089630127
1710956597595668200,24.112668212890625,1.3782658576965332,11.755937576293945,-3.9290146827697754
1710956597614627300,24.13162744140625,0.900897741317749,11.895917892456055,-0.5718846321105957
1710956597633586400,24.15058642578125,2.638087034225464,10.18026351928711,5.55733060836792
1710956597652545500,24.169545654296876,0.2632105052471161,8.300702095031738,3.1178479194641113
1710956597671505000,24.1885048828125,0.6556333899497986,9.558130264282227,-0.7046862840652466
1710956597690464000,24.207464111328125,1.144965648651123,11.522637367248535,-2.196611166000366
1710956597709423000,24.226423095703126,0.3158525824546814,11.258230209350586,-1.3674981594085693
1710956597728382200,24.24538232421875,-0.2105683982372284,8.930013656616211,-1.0241280794143677
1710956597747341300,24.26434130859375,1.664208173751831,8.47896671295166,0.623330295085907
1710956597766300400,24.283300537109376,1.726421594619751,10.802397727966309,0.6400800347328186
1710956597785259800,24.302259765625,0.5826523303985596,11.399407386779785,0.7992027401924133
1710956597804219000,24.321218994140626,2.262413740158081,8.749356269836426,1.2885349988937378
1710956597823178000,24.340177978515626,0.40797626972198486,9.93978500366211,0.97148597240448
1710956597842137000,24.35913720703125,0.8027920126914978,8.883354187011719,-3.142972469329834
