time,seconds_elapsed,z,y,x
1710953282878804500,0.049804443359375,0,0,0
1710953282897762600,0.068762451171875,-0.3949728012084961,0.2654271125793457,-0.24240756034851074
1710953282916720400,0.087720458984375,-0.3878908157348633,0.2535834312438965,-0.5462039709091187
1710953282935678500,0.106678466796875,-0.22151541709899902,0.1086268424987793,-0.39705419540405273
1710953282954636300,0.12563623046875,-0.18793869018554688,1.2291264533996582,0.6917767524719238
1710953282973594400,0.144594482421875,-1.2390021085739136,3.565880298614502,0.745471715927124
1710953282992552200,0.16355224609375,-1.1292619705200195,0.42092227935791016,-1.1321532726287842
1710953283011510000,0.182510009765625,-0.4694868326187134,0.7642726898193359,1.3632943630218506
1710953283030468000,0.201468017578125,0.008208513259887695,2.3578648567199707,4.297063827514648
1710953283049426200,0.22042626953125,0.34997236728668213,2.084073543548584,4.075885772705078
1710953283068384000,0.239384033203125,-0.6897488832473755,1.9526281356811523,2.867276668548584
1710953283087341800,0.258341796875,-1.690974235534668,2.7419843673706055,3.161301851272583
1710953283106300000,0.2772998046875,-2.3302764892578125,3.159780502319336,3.5577592849731445
1710953283125257700,0.2962578125,-2.112522602081299,2.917433738708496,3.2021682262420654
1710953283144215800,0.3152158203125,-1.9189581871032715,2.578184127807617,3.029691696166992
1710953283163173600,0.334173583984375,-1.9008994102478027,2.1098270416259766,3.2992591857910156
1710953283182131700,0.353131591796875,-1.989449143409729,1.7785758972167969,3.6633481979370117
1710953283201089500,0.372089599609375,-1.8974578380584717,2.1082229614257812,3.958719253540039
1710953283220047600,0.391047607421875,-1.044634461402893,1.6502809524536133,4.211094379425049
1710953283239005400,0.41000537109375,-0.14738869667053223,1.084610939025879,5.232407569885254
1710953283257963500,0.428963623046875,-0.15303349494934082,0.8779811859130859,5.972467422485352
1710953283276921300,0.44792138671875,-0.4387385845184326,0.35431957244873047,5.711428165435791
1710953283295879200,0.466879150390625,-0.6060080528259277,0.08626747131347656,4.6673126220703125
1710953283314837200,0.485837158203125,-0.708139181137085,-0.7856283187866211,3.0584046840667725
1710953283333795300,0.50479541015625,-1.1229276657104492,-1.94865083694458,1.4071975946426392
1710953283352753200,0.523753173828125,-1.3489599227905273,-2.470736026763916,-0.08522379398345947
1710953283371711000,0.5427109375,-2.877110004425049,-2.843477725982666,-1.5192413330078125
1710953283390669000,0.5616689453125,-3.945486068725586,-2.795538902282715,-2.2040207386016846
1710953283409627000,0.580626953125,-2.693507194519043,-2.8134994506835938,-2.8269643783569336
1710953283428585000,0.5995849609375,-2.0981740951538086,-2.700136661529541,-2.213247060775757
1710953283447542800,0.618542724609375,-0.6518831253051758,-2.3799428939819336,0.004828453063964844
1710953283466500900,0.6375009765625,-0.35271215438842773,-1.9218473434448242,2.0663371086120605
1710953283485458700,0.656458740234375,2.163447856903076,-1.5165128707885742,3.301255702972412
1710953283504416800,0.675416748046875,2.4553017616271973,-1.346261978149414,2.751155376434326
1710953283523374600,0.69437451171875,2.0941176414489746,-1.4246149063110352,1.4990670680999756
1710953283542332400,0.71333251953125,1.5294742584228516,-1.423290729522705,0.46706724166870117
1710953283561290500,0.73229052734375,0.6087851524353027,-1.2001476287841797,-0.21570217609405518
1710953283580248300,0.751248291015625,0.841400146484375,-1.389556884765625,-0.6604152917861938
1710953283599206400,0.770206298828125,0.6046538352966309,-1.0570240020751953,-0.3050691485404968
1710953283618164200,0.789164306640625,-0.627532958984375,-0.6351327896118164,-2.169250726699829
1710953283637122300,0.808122314453125,-0.7559022903442383,-0.4104423522949219,-3.4727375507354736
1710953283656080100,0.827080078125,0.3522181510925293,-1.0351085662841797,-3.3861522674560547
1710953283675038200,0.8460380859375,1.6970410346984863,-0.6307373046875,-2.4967732429504395
1710953283693996000,0.86499609375,3.066094398498535,0.4565544128417969,-1.6667070388793945
1710953283712954000,0.8839541015625,3.4876785278320312,1.9059391021728516,-1.174547791481018
1710953283731912000,0.902911865234375,2.324354648590088,1.7985877990722656,-0.6965401768684387
1710953283750870000,0.9218701171875,1.3532357215881348,0.6089181900024414,-0.012228012084960938
1710953283769827800,0.940827880859375,0.7933406829833984,0.3580923080444336,0.879847526550293
1710953283788786000,0.959785888671875,0.36874818801879883,-0.16649913787841797,1.1161338090896606
1710953283807743700,0.97874365234375,-0.33267974853515625,-0.7171030044555664,1.1227033138275146
1710953283826701800,0.997701904296875,-0.4713296890258789,-0.9592390060424805,1.1770981550216675
1710953283845659600,1.01665966796875,-0.3273158073425293,-0.791041374206543,1.5905401706695557
1710953283864617700,1.03561767578125,-0.057646751403808594,-0.6314210891723633,1.8767335414886475
1710953283883575600,1.054575439453125,0.08111047744750977,-0.9337701797485352,2.104423999786377
1710953283902533600,1.07353369140625,-0.41048192977905273,-1.1675314903259277,2.2486977577209473
1710953283921491500,1.092491455078125,-0.46538496017456055,-1.4351487159729004,1.7834908962249756
1710953283940449500,1.111449462890625,-0.3479452133178711,-2.045106887817383,1.634704828262329
1710953283959407400,1.130407470703125,0.4917564392089844,-1.801530361175537,2.670989751815796
1710953283978365400,1.149365478515625,-1.486006736755371,-1.8222951889038086,2.0480797290802
1710953283997323300,1.1683232421875,-2.6122283935546875,-2.122889518737793,-0.1312808096408844
1710953284016281300,1.18728125,-3.226569652557373,-2.4396138191223145,-2.2039635181427
1710953284035239200,1.2062392578125,-2.577326774597168,-2.176168918609619,-2.8789501190185547
1710953284054197200,1.225197265625,-1.0203471183776855,-1.5571699142456055,-2.5112788677215576
1710953284073155300,1.2441552734375,0.7427105903625488,-0.27661609649658203,-1.4516217708587646
1710953284092113200,1.263113037109375,1.9821105003356934,1.391676902770996,-0.35303211212158203
1710953284111071200,1.2820712890625,1.8704676628112793,1.7558012008666992,0.865401029586792
1710953284130029000,1.301029052734375,2.3118553161621094,1.453476905822754,1.8414995670318604
1710953284148987100,1.319987060546875,2.284942150115967,0.22253990173339844,1.9916191101074219
1710953284167945200,1.3389453125,2.285099983215332,-0.5376682281494141,1.5858298540115356
1710953284186903000,1.357903076171875,1.5348963737487793,-0.6839118003845215,0.9652807712554932
1710953284205861000,1.376861083984375,0.9830513000488281,-0.6059122085571289,1.09530508518219
1710953284224819000,1.39581884765625,0.43953561782836914,-0.2925386428833008,0.381925106048584
1710953284243777000,1.414777099609375,0.006527900695800781,-0.14665889739990234,-0.2737919092178345
1710953284262734800,1.43373486328125,0.10640478134155273,-0.5747270584106445,-0.5232843160629272
1710953284281693000,1.45269287109375,0.5603070259094238,-0.9949245452880859,-0.3369981348514557
1710953284300651000,1.471651123046875,0.4329862594604492,-1.0902962684631348,-0.011086523532867432
1710953284319608800,1.49060888671875,-0.048136234283447266,-0.46316051483154297,-0.040661394596099854
1710953284338567000,1.50956689453125,0.11163902282714844,0.21849346160888672,-0.06507107615470886
1710953284357525000,1.52852490234375,0.4371147155761719,0.4965553283691406,0.06405439972877502
1710953284376482800,1.54748291015625,0.26712846755981445,0.04285240173339844,0.3134393095970154
1710953284395441000,1.56644091796875,0.10650110244750977,-0.4342327117919922,0.3468187153339386
1710953284414399000,1.58539892578125,0.15373563766479492,-0.3031778335571289,0.06462270021438599
1710953284433356800,1.604356689453125,-0.2193603515625,-0.034646034240722656,-0.06227490305900574
1710953284452315000,1.62331494140625,-0.3075566291809082,0.00675201416015625,0.004116743803024292
1710953284471272700,1.642272705078125,-0.13460922241210938,-0.12273216247558594,0.29562264680862427
1710953284490230800,1.661230712890625,-0.5297937393188477,-0.03608417510986328,0.6801030039787292
1710953284509188900,1.68018896484375,-0.9852790832519531,0.36206912994384766,1.0463919639587402
1710953284528146700,1.699146728515625,-1.0220611095428467,0.5451011657714844,1.117769718170166
1710953284547104800,1.718104736328125,-1.0073704719543457,0.4357738494873047,0.6356443762779236
1710953284566062800,1.737062744140625,-1.0023002624511719,0.5845746994018555,0.030713781714439392
1710953284585021000,1.75602099609375,-1.0997262001037598,0.8445901870727539,-0.22133126854896545
1710953284603978800,1.774978759765625,-0.5354561805725098,0.6316556930541992,-0.6168943047523499
1710953284622936800,1.793936767578125,0.18757200241088867,0.5439863204956055,-0.8967504501342773
1710953284641895000,1.81289501953125,0.2915780544281006,0.6118383407592773,-1.1470637321472168
1710953284660852700,1.831852783203125,-0.20050668716430664,0.9528789520263672,-1.4057148694992065
1710953284679810800,1.850810791015625,0.032689571380615234,1.183943748474121,-1.4768658876419067
1710953284698769000,1.869768798828125,0.5216999053955078,0.9574499130249023,-1.7842200994491577
1710953284717727000,1.88872705078125,0.20050525665283203,0.30666637420654297,-2.2050750255584717
1710953284736684800,1.907684814453125,-0.5024886131286621,-0.15871620178222656,-2.5210213661193848
1710953284755643000,1.926642822265625,-1.0930588245391846,-0.3677177429199219,-2.2762527465820312
1710953284774601000,1.94560107421875,-1.2427904605865479,0.013630867004394531,-1.628827452659607
1710953284793559000,1.96455908203125,-0.9304087162017822,0.1223745346069336,-1.2482340335845947
1710953284812516900,1.983516845703125,-0.8059070110321045,-0.11487293243408203,-0.9173647165298462
1710953284831475000,2.002474853515625,-0.6353356838226318,-0.05064201354980469,-0.05169028043746948
1710953284850433000,2.02143310546875,-0.2835395336151123,0.553553581237793,0.9474860429763794
1710953284869391000,2.04039111328125,-0.1622483730316162,0.6055269241333008,1.2541275024414062
1710953284888349200,2.05934912109375,-0.3165004253387451,-0.0746603012084961,1.2538273334503174
1710953284907307000,2.07830712890625,-0.3776583671569824,-0.40757274627685547,0.9792639017105103
1710953284926265000,2.09726513671875,-0.2970595359802246,-0.8183355331420898,0.6113481521606445
1710953284945223200,2.11622314453125,-0.24150681495666504,-1.019282341003418,0.49442028999328613
1710953284964181200,2.13518115234375,0.068206787109375,-0.6300449371337891,0.5397047996520996
1710953284983139300,2.154139404296875,0.6060905456542969,-0.09409141540527344,0.540435791015625
1710953285002097400,2.173097412109375,0.9167234897613525,-0.09669971466064453,0.4247100353240967
1710953285021055200,2.19205517578125,1.1250338554382324,0.02411937713623047,-0.012583732604980469
1710953285040013300,2.211013427734375,0.9837439060211182,0.34403324127197266,-0.2290191650390625
1710953285058971400,2.229971435546875,1.1974501609802246,0.6118478775024414,-0.05891299247741699
1710953285077929500,2.248929443359375,1.2839066982269287,0.6686334609985352,-0.03452706336975098
1710953285096887600,2.267887451171875,1.1407771110534668,0.5034637451171875,-0.17763638496398926
1710953285115845600,2.286845703125,0.7301228046417236,0.13275814056396484,-0.3016629219055176
1710953285134803700,2.3058037109375,0.37037205696105957,-0.2469329833984375,-0.39053988456726074
1710953285153761800,2.32476171875,0.021095752716064453,-0.6149959564208984,-0.6081173419952393
1710953285172719600,2.3437197265625,-0.24181151390075684,-1.087411880493164,-0.8504776954650879
1710953285191677700,2.362677734375,-0.4001121520996094,-1.0539512634277344,-0.941648006439209
1710953285210635800,2.3816357421875,-0.5934183597564697,-0.47304534912109375,-0.6531589031219482
1710953285229593900,2.40059375,-0.452193021774292,0.07134723663330078,-0.14136910438537598
1710953285248552000,2.419552001953125,-0.2599635124206543,0.31266307830810547,0.3660411834716797
1710953285267510000,2.438510009765625,-0.05470418930053711,0.20862674713134766,0.6720752716064453
1710953285286468000,2.457468017578125,0.02364182472229004,0.02717113494873047,0.7480049133300781
1710953285305426200,2.47642626953125,0.16263461112976074,-0.0900430679321289,0.7651169300079346
1710953285324384300,2.49538427734375,0.3160741329193115,-0.15581893920898438,0.7697901725769043
1710953285343342300,2.51434228515625,0.31403493881225586,-0.13281917572021484,0.8260085582733154
1710953285362300400,2.533300537109375,0.24662470817565918,-0.2665557861328125,0.7891688346862793
1710953285381258500,2.552258544921875,-0.023427486419677734,-0.29014015197753906,0.5001192092895508
1710953285400216600,2.571216552734375,-0.35410356521606445,-0.20282649993896484,0.23185944557189941
1710953285419174700,2.590174560546875,-0.33797597885131836,-0.2122955322265625,0.08137202262878418
1710953285438132700,2.6091328125,-0.08686113357543945,-0.3056488037109375,-0.0867619514465332
1710953285457090800,2.6280908203125,0.1197657585144043,-0.17572689056396484,-0.16152143478393555
1710953285476048600,2.647048583984375,0.17984271049499512,0.10109806060791016,-0.13779973983764648
1710953285495007000,2.666007080078125,0.07579302787780762,0.2485036849975586,0.046825408935546875
1710953285513964800,2.68496484375,0.1824204921722412,0.22443008422851562,0.13921093940734863
1710953285532923100,2.703923095703125,0.33530259132385254,0.12859344482421875,-0.0889132022857666
1710953285551881000,2.722880859375,0.30625271797180176,-0.09672164916992188,-0.37064599990844727
1710953285570839300,2.74183935546875,0.03110218048095703,-0.26987171173095703,-0.6933070421218872
1710953285589797400,2.76079736328125,-0.511798620223999,-0.20061683654785156,-0.8203279972076416
1710953285608755200,2.779755126953125,-0.5275157690048218,-0.07341575622558594,-0.7697101831436157
1710953285627713500,2.798713623046875,-0.29816293716430664,0.08256244659423828,-0.6265273094177246
1710953285646671600,2.817671630859375,-0.09994840621948242,0.10381221771240234,-0.33883213996887207
1710953285665629700,2.836629638671875,-0.007684230804443359,0.04868793487548828,-0.02901935577392578
1710953285684587800,2.855587890625,-0.12464761734008789,0.07196044921875,0.10708117485046387
1710953285703545900,2.8745458984375,-0.3972012996673584,0.21490192413330078,0.06536591053009033
1710953285722504000,2.89350390625,-0.3632180690765381,0.4333219528198242,-0.20069599151611328
1710953285741462000,2.9124619140625,-0.09600520133972168,0.22188377380371094,-0.5258979797363281
1710953285760420000,2.931420166015625,0.13850092887878418,0.03084850311279297,-0.2718675136566162
1710953285779378200,2.950378173828125,-0.044496774673461914,-0.03128814697265625,0.2587822675704956
1710953285798336300,2.969336181640625,0.09673666954040527,-0.029241561889648438,0.40493595600128174
1710953285817294300,2.98829443359375,-0.07052278518676758,-0.44222068786621094,-0.032021403312683105
1710953285836252400,3.00725244140625,-0.5528818368911743,-0.7684268951416016,-0.2778329849243164
1710953285855210800,3.026210693359375,-1.3141677379608154,-0.8182697296142578,-0.17544925212860107
1710953285874168800,3.0451689453125,-1.2815502882003784,-0.7760105133056641,0.10905814170837402
1710953285893127000,3.064126953125,-0.2965836524963379,-0.5944204330444336,0.8454258441925049
1710953285912085000,3.0830849609375,0.4439513683319092,0.08199024200439453,1.64201021194458
1710953285931043000,3.10204296875,0.8471871614456177,0.7916030883789062,2.1542797088623047
1710953285950001200,3.121001220703125,0.8905587196350098,1.0436248779296875,1.6430025100708008
1710953285968959200,3.139959228515625,0.7106869220733643,0.8891210556030273,0.6626324653625488
1710953285987917300,3.158917236328125,0.6557079553604126,0.5979795455932617,-0.46334075927734375
1710953286006875600,3.177875732421875,0.747032880783081,0.30455875396728516,-1.2972652912139893
1710953286025833700,3.196833740234375,0.795783519744873,0.4705953598022461,-1.5356886386871338
1710953286044791800,3.215791748046875,0.8435423374176025,0.890045166015625,-0.9057879447937012
1710953286063750000,3.23475,1.2537065744400024,0.7431268692016602,-0.5475993156433105
1710953286082708000,3.2537080078125,1.2572782039642334,0.45251941680908203,-0.5106806755065918
1710953286101666000,3.272666015625,0.7849482297897339,0.15756702423095703,-0.7912442684173584
1710953286120624400,3.291624267578125,0.33284127712249756,-0.06234169006347656,-0.9713811874389648
1710953286139582500,3.31058251953125,-0.11441779136657715,-0.06562519073486328,-0.8368136882781982
1710953286158540500,3.32954052734375,-0.25116705894470215,-0.1592273712158203,-0.2916748523712158
1710953286177498600,3.34849853515625,-0.1930675506591797,-0.20871925354003906,0.10110759735107422
1710953286196456700,3.367456787109375,-0.31680917739868164,-0.2191324234008789,0.3525712490081787
1710953286215414800,3.386414794921875,-0.3609130382537842,-0.39461708068847656,0.44819045066833496
1710953286234373000,3.405373046875,-0.3595970869064331,-0.6149711608886719,0.5578842163085938
1710953286253331200,3.424331298828125,-0.33929264545440674,-0.5617094039916992,0.9424433708190918
1710953286272289300,3.443289306640625,-0.04043447971343994,-0.0881500244140625,1.235860824584961
1710953286291247400,3.462247314453125,-0.14465153217315674,0.12378883361816406,1.0454974174499512
1710953286310205400,3.481205322265625,-0.018916845321655273,-0.09069633483886719,0.5353226661682129
1710953286329163800,3.500163818359375,-0.11662936210632324,-0.14638042449951172,0.5277626514434814
1710953286348121900,3.519121826171875,-0.06964385509490967,0.0810232162475586,0.7784700393676758
1710953286367080000,3.538079833984375,0.0038483142852783203,0.12138938903808594,0.7494208812713623
1710953286386038000,3.5570380859375,-0.10602068901062012,-0.21988391876220703,0.5879573822021484
1710953286404996400,3.575996337890625,-0.20662188529968262,-0.3159608840942383,0.12401580810546875
1710953286423954400,3.594954345703125,-0.2688937187194824,-0.08941173553466797,-0.39653873443603516
1710953286442912500,3.61391259765625,-0.30005359649658203,0.1573038101196289,-0.6288141012191772
1710953286461870600,3.63287060546875,-0.2777925729751587,0.15509891510009766,-0.5115165710449219
1710953286480828700,3.65182861328125,-0.11317825317382812,0.13271236419677734,-0.4768192768096924
1710953286499787000,3.670787109375,-0.029900312423706055,0.5017375946044922,-0.48756909370422363
1710953286518745000,3.6897451171875,0.13376188278198242,0.786717414855957,-0.140907883644104
1710953286537703200,3.708703125,0.3390069007873535,0.6044082641601562,0.041145920753479004
1710953286556661200,3.7276611328125,0.292283296585083,0.3431863784790039,-0.30270493030548096
1710953286575619600,3.74661962890625,0.1087501049041748,0.24309635162353516,-0.4863494634628296
1710953286594577700,3.76557763671875,-0.1093297004699707,0.13831138610839844,-0.5331946015357971
1710953286613535700,3.78453564453125,-0.027695655822753906,-0.0055942535400390625,-0.5597022771835327
1710953286632494000,3.803494140625,0.15250706672668457,-0.33557796478271484,-0.6200534105300903
1710953286651452200,3.8224521484375,0.15549111366271973,-0.6536903381347656,-0.5152682662010193
1710953286670410200,3.84141015625,0.18866467475891113,-0.721954345703125,-0.3072861433029175
1710953286689368300,3.860368408203125,0.2318739891052246,-0.6838169097900391,-0.10463309288024902
1710953286708326700,3.87932666015625,0.23326444625854492,-0.6547632217407227,-0.0857611894607544
1710953286727284700,3.89828466796875,0.2241194248199463,-0.5916261672973633,-0.24942541122436523
1710953286746242800,3.917242919921875,0.09443283081054688,-0.40631866455078125,-0.3070222735404968
1710953286765201200,3.936201171875,0.02117156982421875,-0.15878009796142578,-0.21906274557113647
1710953286784159200,3.9551591796875,0.07956504821777344,-0.040678977966308594,-0.1783590316772461
1710953286803117300,3.974117431640625,0.09201955795288086,-0.07277679443359375,-0.13582968711853027
1710953286822075400,3.993075439453125,-0.02233719825744629,-0.00032806396484375,0.0765160322189331
1710953286841033700,4.01203369140625,-0.01829385757446289,0.19063568115234375,0.34322476387023926
1710953286859991800,4.03099169921875,0.14053869247436523,0.22429656982421875,0.34279441833496094
1710953286878950000,4.049949951171875,0.1668241024017334,0.14916324615478516,0.12706506252288818
1710953286897908200,4.068908203125,0.03644371032714844,0.1938343048095703,0.01718318462371826
1710953286916866300,4.0878662109375,-0.09014928340911865,0.2018289566040039,-0.036182403564453125
1710953286935824400,4.106824462890625,-0.23609983921051025,0.14874649047851562,-0.0825575590133667
1710953286954782500,4.125782470703125,-0.25306153297424316,0.12781620025634766,0.00036847591400146484
1710953286973740800,4.14474072265625,-0.10916459560394287,0.03503704071044922,0.16156864166259766
1710953286992699000,4.163698974609375,-0.059923529624938965,-0.1424579620361328,0.30961012840270996
1710953287011657000,4.182656982421875,-0.0366283655166626,-0.30690765380859375,0.3833456039428711
1710953287030615300,4.201615234375,-0.056104183197021484,-0.5375499725341797,0.3636002540588379
1710953287049573400,4.220573486328125,-0.004120826721191406,-0.7268943786621094,0.2040952444076538
1710953287068531500,4.239531494140625,-0.04728388786315918,-0.7921838760375977,0.019027233123779297
1710953287087489800,4.25848974609375,-0.0413745641708374,-0.606053352355957,-0.36737942695617676
1710953287106448000,4.27744775390625,0.19483280181884766,-0.4406871795654297,-0.7701948881149292
1710953287125406000,4.296406005859375,0.21694934368133545,-0.20817089080810547,-1.1909279823303223
1710953287144364300,4.3153642578125,0.05252110958099365,0.1992015838623047,-1.4717522859573364
1710953287163322400,4.334322265625,0.22063636779785156,0.6368494033813477,-1.8007311820983887
1710953287182280400,4.353280517578125,0.30597054958343506,0.8910665512084961,-2.1662561893463135
1710953287201238500,4.372238525390625,0.04241526126861572,1.113271713256836,-2.096517562866211
1710953287220196900,4.39119677734375,-0.25989842414855957,1.3219213485717773,-1.5760170221328735
1710953287239155000,4.410155029296875,-0.5821256637573242,1.5101099014282227,-1.0354626178741455
1710953287258113000,4.429113037109375,-0.7408003211021423,1.7011699676513672,-0.2827187776565552
1710953287277071400,4.4480712890625,-0.602141261100769,1.4038076400756836,0.35885322093963623
1710953287296029400,4.467029541015625,-0.3689364194869995,1.1045894622802734,0.8474048972129822
1710953287314987500,4.485987548828125,-0.39609575271606445,0.9631404876708984,1.2005971670150757
1710953287333945900,4.50494580078125,-0.48882007598876953,0.8614988327026367,1.3190690279006958
1710953287352904000,4.523904052734375,-0.545333981513977,0.6204423904418945,1.2213664054870605
1710953287371862300,4.5428623046875,-0.31382668018341064,0.03137683868408203,1.0965542793273926
1710953287390820400,4.5618203125,-0.07969474792480469,-0.5245275497436523,1.000744342803955
1710953287409778400,4.5807783203125,-0.03165125846862793,-0.7428140640258789,0.9584953784942627
1710953287428736800,4.59973681640625,0.24278783798217773,-0.7111663818359375,0.8328969478607178
1710953287447694800,4.61869482421875,0.46524786949157715,-0.6922340393066406,0.6202147006988525
1710953287466653000,4.63765283203125,0.9959473609924316,-0.8978643417358398,0.2510818541049957
1710953287485611300,4.656611328125,0.9957938194274902,-1.0901002883911133,-0.10438496619462967
1710953287504569300,4.6755693359375,0.9044547080993652,-0.9386682510375977,-0.29576173424720764
1710953287523527400,4.69452734375,0.9188761711120605,-0.7897663116455078,-0.14992523193359375
1710953287542485800,4.71348583984375,0.9095742702484131,-0.7461767196655273,0.08321176469326019
1710953287561443800,4.73244384765625,0.8263163566589355,-0.6096067428588867,0.3939547538757324
1710953287580402000,4.75140185546875,0.7928891181945801,-0.43652820587158203,0.7236649394035339
1710953287599360300,4.7703603515625,0.8616795539855957,-0.4650382995605469,0.973825216293335
1710953287618318300,4.789318359375,0.8961007595062256,-0.5822372436523438,1.029983639717102
1710953287637276700,4.808276611328125,0.8136978149414062,-0.6017599105834961,0.97556471824646
1710953287656234800,4.82723486328125,0.6632366180419922,-0.5096025466918945,0.7594712376594543
1710953287675192800,4.84619287109375,0.6449522972106934,-0.49227428436279297,0.5771200060844421
1710953287694151200,4.865151123046875,0.7058844566345215,-0.44928646087646484,0.4827274680137634
1710953287713109200,4.884109130859375,0.6623003482818604,-0.2270641326904297,0.5692655444145203
1710953287732067300,4.9030673828125,0.7341065406799316,-0.07563114166259766,0.6297997236251831
1710953287751025700,4.922025634765625,0.8258638381958008,-0.13157367706298828,0.471221387386322
1710953287769983700,4.940983642578125,0.7995882034301758,-0.2258586883544922,0.2321951687335968
1710953287788942000,4.959942138671875,0.799586296081543,-0.22144031524658203,0.14917975664138794
1710953287807900200,4.978900146484375,0.674628734588623,-0.2576484680175781,0.24913346767425537
1710953287826858200,4.997858154296875,0.47029995918273926,-0.10810089111328125,0.2086421251296997
1710953287845816600,5.016816650390625,0.22190046310424805,0.3299093246459961,0.1419771909713745
1710953287864774700,5.035774658203125,0.05998635292053223,0.2882728576660156,0.07588666677474976
1710953287883732700,5.054732666015625,-0.0863497257232666,-0.11191844940185547,0.19052451848983765
1710953287902691000,5.073691162109375,-0.16720843315124512,-0.5391845703125,0.32215091586112976
1710953287921649200,5.092649169921875,-0.4161806106567383,-0.6522283554077148,0.2702628970146179
1710953287940607500,5.111607421875,-0.7130385637283325,-0.3746757507324219,-0.015133202075958252
1710953287959565600,5.130565673828125,-0.9117039442062378,0.17627620697021484,-0.30767208337783813
1710953287978523600,5.149523681640625,-0.9496841430664062,0.7066545486450195,-0.3835175633430481
1710953287997482000,5.16848193359375,-0.8055520057678223,1.0513324737548828,-0.3957620859146118
1710953288016440000,5.187440185546875,-0.6800457239151001,1.177699089050293,-0.3101518154144287
1710953288035398100,5.206398193359375,-0.6594486236572266,1.1286373138427734,-0.13247966766357422
1710953288054356500,5.2253564453125,-0.7072163820266724,1.0703697204589844,-0.04891073703765869
1710953288073314600,5.244314453125,-0.7633380889892578,0.8654928207397461,-0.20025241374969482
1710953288092273000,5.26327294921875,-0.7064681053161621,0.3829765319824219,-0.5426726341247559
1710953288111231000,5.28223095703125,-0.6419553756713867,0.11104202270507812,-0.7826628684997559
1710953288130189000,5.30118896484375,-0.5619411468505859,0.1768207550048828,-0.9289356470108032
1710953288149147400,5.3201474609375,-0.5323408842086792,0.29355812072753906,-1.0190414190292358
1710953288168105500,5.33910546875,-0.6460239887237549,0.3897123336791992,-1.2062608003616333
1710953288187063600,5.3580634765625,-0.6218146085739136,0.4816112518310547,-1.4301016330718994
1710953288206022000,5.37702197265625,-0.5907437801361084,0.5397911071777344,-1.6081935167312622
1710953288224980200,5.395980224609375,-0.6313819885253906,0.4745445251464844,-1.6682287454605103
1710953288243938300,5.414938232421875,-0.6457104682922363,0.2171192169189453,-1.63203763961792
1710953288262896400,5.433896484375,-0.6907951831817627,0.1269550323486328,-1.5188305377960205
1710953288281854700,5.452854736328125,-0.7042741775512695,0.21253585815429688,-1.299952745437622
1710953288300812800,5.471812744140625,-0.6520862579345703,0.3345985412597656,-1.054329752922058
1710953288319771000,5.49077099609375,-0.3551151752471924,0.41466712951660156,-0.5719165802001953
1710953288338729200,5.509729248046875,-0.20639467239379883,0.3440380096435547,-0.17602169513702393
1710953288357687300,5.528687255859375,-0.24383020401000977,0.32706356048583984,0.140954852104187
1710953288376645600,5.547645751953125,-0.16625261306762695,0.12492942810058594,0.5242176055908203
1710953288395603700,5.566603759765625,-0.1222236156463623,-0.22382545471191406,0.7697031497955322
1710953288414561800,5.585561767578125,-0.24871015548706055,-0.30547332763671875,0.8383824825286865
1710953288433520000,5.60452001953125,-0.3270072937011719,-0.2278900146484375,0.8298835754394531
1710953288452478200,5.623478271484375,-0.064544677734375,-0.33652305603027344,0.8660860657691956
1710953288471436500,5.6424365234375,-0.06345796585083008,-0.4259490966796875,0.8293123245239258
1710953288490394600,5.66139453125,-0.20572137832641602,-0.24277210235595703,0.7853724360466003
1710953288509352700,5.680352783203125,-0.07028937339782715,-0.05475139617919922,0.7562349438667297
1710953288528311000,5.69931103515625,0.10272359848022461,-0.049015045166015625,0.7249385118484497
1710953288547269000,5.71826904296875,0.11468648910522461,-0.06144905090332031,0.7328035831451416
1710953288566227500,5.7372275390625,0.18574118614196777,-0.08196544647216797,0.8103137016296387
1710953288585185500,5.756185546875,0.21557331085205078,-0.13857650756835938,0.6939175128936768
1710953288604143900,5.775143798828125,0.28154921531677246,-0.13608837127685547,0.5855716466903687
1710953288623102000,5.79410205078125,0.35918188095092773,-0.2679443359375,0.3792712092399597
1710953288642060000,5.81306005859375,0.45072078704833984,-0.4439563751220703,0.23554517328739166
1710953288661018400,5.832018310546875,0.3958299160003662,-0.30391502380371094,0.1152922660112381
1710953288679976400,5.8509765625,0.3030834197998047,0.05851554870605469,0.05969826877117157
1710953288698934800,5.869934814453125,0.30635690689086914,0.1759195327758789,0.057558298110961914
1710953288717892900,5.888892822265625,0.3915278911590576,0.06764507293701172,0.07243487238883972
1710953288736851000,5.907850830078125,0.41187357902526855,0.030478477478027344,0.13136903941631317
1710953288755809300,5.926809326171875,0.30757975578308105,-0.006173133850097656,0.05293593555688858
1710953288774767600,5.945767578125,0.18186306953430176,0.02693939208984375,-0.018630817532539368
1710953288793725700,5.9647255859375,0.20918965339660645,0.05231666564941406,-0.012228116393089294
1710953288812683800,5.983683837890625,0.22490406036376953,-0.06684589385986328,0.07119899988174438
1710953288831642000,6.00264208984375,0.18776297569274902,0.0030241012573242188,0.17189240455627441
1710953288850600200,6.02160009765625,0.18732452392578125,0.22672176361083984,0.17243799567222595
1710953288869558500,6.04055859375,0.22347044944763184,0.22176647186279297,-0.05081292986869812
1710953288888516600,6.0595166015625,0.23995113372802734,0.058465003967285156,-0.2718544006347656
1710953288907474700,6.078474609375,0.15112733840942383,0.04433727264404297,-0.4629577696323395
1710953288926433000,6.09743310546875,0.16268658638000488,0.04790973663330078,-0.45107197761535645
1710953288945391400,6.116391357421875,0.2158646583557129,0.026472091674804688,-0.4740431010723114
1710953288964349400,6.135349365234375,0.1932990550994873,-0.08811092376708984,-0.4060373306274414
1710953288983307500,6.1543076171875,0.17818617820739746,-0.10030651092529297,-0.4349637031555176
1710953289002265900,6.173265869140625,0.07326459884643555,-0.1589498519897461,-0.4038565158843994
1710953289021224200,6.19222412109375,0.00807642936706543,-0.22490501403808594,-0.3017338514328003
1710953289040182300,6.211182373046875,-0.08875703811645508,-0.11929798126220703,-0.22193536162376404
1710953289059140600,6.230140625,-0.09571564197540283,0.015073776245117188,-0.14663565158843994
1710953289078098700,6.2490986328125,0.08142805099487305,0.08516502380371094,-0.07404904067516327
1710953289097056800,6.268056884765625,0.06257152557373047,0.10165786743164062,-0.017513588070869446
1710953289116015000,6.28701513671875,-0.04343128204345703,0.08723163604736328,0.008129298686981201
1710953289134973400,6.305973388671875,-0.02619004249572754,0.07467174530029297,0.051132649183273315
1710953289153931500,6.324931640625,0.08666610717773438,0.03678417205810547,0.1718710958957672
1710953289172889600,6.3438896484375,0.13430488109588623,-0.026419639587402344,0.2530803680419922
1710953289191848000,6.362847900390625,0.10788047313690186,0.0030412673950195312,0.1843189299106598
1710953289210806300,6.38180615234375,0.05159866809844971,0.03208637237548828,0.12322470545768738
1710953289229764400,6.400764404296875,0.0100938081741333,0.06299114227294922,0.030001461505889893
1710953289248722700,6.41972265625,-0.03605985641479492,0.09441280364990234,0.012406498193740845
1710953289267680800,6.4386806640625,-0.06221580505371094,0.16847991943359375,0.05385309457778931
1710953289286639000,6.45763916015625,-0.021300435066223145,0.16414260864257812,0.13850447535514832
1710953289305597200,6.47659716796875,-0.008117914199829102,0.08644866943359375,0.1532765030860901
1710953289324555500,6.495555419921875,-0.07504761219024658,0.022772789001464844,0.14626818895339966
1710953289343513900,6.514513916015625,-0.11522173881530762,0.02207183837890625,0.1473686695098877
1710953289362472000,6.533471923828125,-0.10637354850769043,0.058913230895996094,0.19700533151626587
1710953289381430300,6.55243017578125,-0.007504105567932129,0.06814861297607422,0.2155897319316864
1710953289400388400,6.571388427734375,0.016623497009277344,0.00563812255859375,0.21731001138687134
1710953289419346700,6.5903466796875,-0.04958057403564453,0.01810169219970703,0.15744450688362122
1710953289438305000,6.609304931640625,-0.08926975727081299,0.015040397644042969,0.08462560176849365
1710953289457263000,6.62826318359375,-0.052297353744506836,-0.06451416015625,0.009691715240478516
1710953289476221400,6.647221435546875,-0.06118643283843994,0.0014629364013671875,-0.06995820999145508
1710953289495179500,6.666179443359375,-0.0055539608001708984,0.07475662231445312,-0.09402355551719666
1710953289514137900,6.685137939453125,0.0458451509475708,0.01593494415283203,-0.14161762595176697
1710953289533096000,6.704095947265625,-0.029173851013183594,-0.09624576568603516,-0.14537540078163147
1710953289552054300,6.72305419921875,-0.06355082988739014,-0.1828746795654297,-0.23730719089508057
1710953289571012600,6.7420126953125,-0.07863020896911621,-0.24884319305419922,-0.2956840395927429
1710953289589970700,6.760970703125,-0.06886136531829834,-0.21705245971679688,-0.28571516275405884
1710953289608929000,6.779928955078125,-0.0319819450378418,-0.12162971496582031,-0.2501494586467743
1710953289627887000,6.79888720703125,-0.04805397987365723,-0.012883186340332031,-0.14011827111244202
1710953289646845400,6.817845458984375,-0.0290907621383667,0.06709003448486328,-0.0410650372505188
1710953289665803800,6.8368037109375,-0.020202159881591797,0.04979228973388672,0.013120025396347046
1710953289684762000,6.85576220703125,-0.016162633895874023,-0.0067615509033203125,0.04223597049713135
1710953289703720200,6.87472021484375,-0.0013546943664550781,-0.03435993194580078,0.02449783682823181
1710953289722678500,6.893678466796875,0.02141869068145752,0.040198326110839844,0.056475162506103516
1710953289741636600,6.91263671875,-0.0036023855209350586,0.062053680419921875,0.10912534594535828
1710953289760595000,6.931594970703125,0.023119688034057617,0.06159687042236328,0.09236180782318115
1710953289779553000,6.950552978515625,0.029980063438415527,0.04259777069091797,0.11101898550987244
1710953289798511400,6.969511474609375,0.012684106826782227,0.046631813049316406,0.10104835033416748
1710953289817469700,6.9884697265625,-0.04763221740722656,0.07789421081542969,0.05303579568862915
1710953289836428000,7.007427978515625,-0.06508052349090576,0.11171245574951172,0.02563387155532837
1710953289855386000,7.02638623046875,-0.07544314861297607,0.14097118377685547,0.06925332546234131
1710953289874344400,7.045344482421875,-0.04168987274169922,0.13383769989013672,0.1412709355354309
1710953289893302800,7.064302734375,-0.02339649200439453,0.09816837310791016,0.1493704915046692
1710953289912260900,7.0832607421875,-0.05314624309539795,0.08641338348388672,0.14115893840789795
1710953289931219200,7.10221923828125,-0.05732583999633789,0.0643463134765625,0.1207251250743866
1710953289950177500,7.121177490234375,-0.04173862934112549,0.017630577087402344,0.13472670316696167
1710953289969135600,7.140135498046875,-0.047074079513549805,0.0019283294677734375,0.14518257975578308
1710953289988094000,7.159093994140625,-0.07098138332366943,0.004580497741699219,0.18247559666633606
1710953290007052300,7.17805224609375,-0.0816793441772461,-0.07098770141601562,0.12748804688453674
1710953290026010600,7.1970107421875,-0.13187026977539062,0.0025997161865234375,0.08516311645507812
1710953290044968700,7.21596875,-0.07466089725494385,0.04475688934326172,0.059358805418014526
1710953290063927000,7.234927001953125,-0.006269693374633789,-0.021146774291992188,0.08901426196098328
1710953290082885400,7.253885498046875,0.026254892349243164,-0.06477737426757812,0.14845827221870422
1710953290101843500,7.272843505859375,-0.017559051513671875,-0.047118186950683594,0.07843175530433655
1710953290120801800,7.2918017578125,-0.04052865505218506,-0.07288742065429688,0.05737912654876709
1710953290139760000,7.310760009765625,-0.027610063552856445,0.026987075805664062,0.1100536584854126
1710953290158718500,7.329718505859375,-0.01655268669128418,0.10853290557861328,0.16343149542808533
1710953290177676800,7.3486767578125,0.03621351718902588,0.10931396484375,0.1815161108970642
1710953290196635000,7.367634765625,0.03956639766693115,0.09163761138916016,0.1127249002456665
1710953290215593200,7.38659326171875,0.045739173889160156,0.06443214416503906,-0.011189639568328857
1710953290234551600,7.405551513671875,-0.002360224723815918,0.0834817886352539,-0.08900538086891174
1710953290253510000,7.424510009765625,0.010251998901367188,-0.015779495239257812,-0.16941972076892853
1710953290272468000,7.443468017578125,0.002545595169067383,-0.06505012512207031,-0.17325258255004883
1710953290291426300,7.46242626953125,-0.00829470157623291,-0.08039474487304688,-0.15501028299331665
1710953290310384600,7.481384521484375,0.02995622158050537,-0.11372661590576172,-0.0789753645658493
1710953290329342700,7.5003427734375,0.0663151741027832,-0.12748241424560547,-0.039151519536972046
1710953290348301000,7.519301025390625,0.03815925121307373,-0.100006103515625,-0.06565630435943604
1710953290367259400,7.53825927734375,0.011508703231811523,-0.0924978256225586,-0.17891757190227509
1710953290386217700,7.5572177734375,-0.06347763538360596,-0.04076099395751953,-0.2527925372123718
1710953290405176000,7.576176025390625,-0.015930652618408203,-0.05206871032714844,-0.22047007083892822
1710953290424134400,7.595134521484375,0.055623531341552734,-0.09246826171875,-0.18598544597625732
1710953290443092700,7.6140927734375,0.08489525318145752,-0.11892318725585938,-0.16690677404403687
1710953290462050800,7.63305078125,0.10321521759033203,-0.04723358154296875,-0.16959427297115326
1710953290481009200,7.652009033203125,0.13492608070373535,0.06656646728515625,-0.16592340171337128
1710953290499967500,7.670967529296875,0.17602300643920898,0.09524154663085938,-0.17228887975215912
1710953290518925800,7.68992578125,0.1639343500137329,0.01817607879638672,-0.21347850561141968
1710953290537884200,7.70888427734375,0.09428596496582031,-0.017473220825195312,-0.2596682906150818
1710953290556842200,7.72784228515625,0.027333498001098633,-0.06760501861572266,-0.21820800006389618
1710953290575800600,7.746800537109375,0.08849918842315674,-0.06172752380371094,-0.10619711875915527
1710953290594759000,7.765759033203125,0.051233887672424316,0.06516742706298828,-0.08172029256820679
1710953290613717200,7.78471728515625,0.038680195808410645,0.09590625762939453,0.025425970554351807
1710953290632675600,7.803675537109375,0.02243959903717041,0.0686502456665039,0.06052863597869873
1710953290651633700,7.822633544921875,-0.03956735134124756,0.1051788330078125,-0.007177203893661499
1710953290670592000,7.841592041015625,-0.08577108383178711,0.13077163696289062,-0.005972415208816528
1710953290689550300,7.86055029296875,-0.024747133255004883,0.06932830810546875,0.06742104887962341
1710953290708508700,7.8795087890625,0.020668506622314453,-0.00151824951171875,0.11704039573669434
1710953290727467000,7.898467041015625,-0.013706088066101074,0.014501571655273438,0.13766679167747498
1710953290746425300,7.91742529296875,-0.06357395648956299,0.0986623764038086,0.13246819376945496
1710953290765383400,7.936383544921875,-0.09420442581176758,0.10967731475830078,0.11615604162216187
1710953290784341800,7.955341796875,-0.10153257846832275,0.04927539825439453,0.13221263885498047
1710953290803300000,7.974300048828125,-0.04208934307098389,0.04224681854248047,0.21588167548179626
1710953290822258400,7.993258544921875,-0.0019210577011108398,0.056618690490722656,0.2640652358531952
1710953290841216800,8.012216796875,0.01029670238494873,0.08791828155517578,0.29653969407081604
1710953290860175000,8.031175048828125,-0.015811800956726074,0.07118034362792969,0.2442072033882141
1710953290879133400,8.050133544921875,-0.014670729637145996,0.02599334716796875,0.14389574527740479
1710953290898091800,8.069091796875,-0.039049744606018066,0.01723957061767578,0.05559879541397095
1710953290917050000,8.088050048828125,-0.03219771385192871,-0.0049533843994140625,0.01793450117111206
1710953290936008400,8.107008544921875,0.018944382667541504,-0.04851341247558594,0.03721466660499573
1710953290954966800,8.125966796875,0.011963367462158203,-0.0784454345703125,0.01606661081314087
1710953290973925000,8.144925048828124,-0.048708200454711914,-0.11632823944091797,-0.06148654222488403
1710953290992883500,8.163883544921875,-0.06044328212738037,-0.11020088195800781,-0.10925015807151794
1710953291011841800,8.182841796875,-0.04388833045959473,-0.08448505401611328,-0.033108144998550415
1710953291030800000,8.2017998046875,-0.10720217227935791,-0.0072479248046875,0.0834132730960846
1710953291049758200,8.22075830078125,-0.1649491786956787,0.039306640625,0.14684483408927917
1710953291068716500,8.239716552734375,-0.10619854927062988,0.05662727355957031,0.18717780709266663
1710953291087675000,8.2586748046875,-0.1107027530670166,0.04670238494873047,0.18484434485435486
1710953291106633200,8.27763330078125,-0.13402855396270752,0.06631946563720703,0.18237638473510742
1710953291125591600,8.296591552734375,-0.08627820014953613,0.05868339538574219,0.16824769973754883
1710953291144550000,8.3155498046875,-0.056784987449645996,0.0029582977294921875,0.12806594371795654
1710953291163508200,8.33450830078125,-0.05012345314025879,0.06414604187011719,0.14124462008476257
1710953291182466600,8.353466552734375,-0.06097102165222168,-0.00623321533203125,0.08076822757720947
1710953291201425000,8.3724248046875,-0.08588099479675293,-0.08973979949951172,0.012524843215942383
1710953291220383200,8.39138330078125,-0.06688642501831055,-0.12901973724365234,-0.12271386384963989
1710953291239341600,8.410341552734375,-0.05700957775115967,-0.17493152618408203,-0.12891066074371338
1710953291258300000,8.4292998046875,-0.052907347679138184,-0.1378803253173828,-0.11300846934318542
1710953291277258200,8.44825830078125,-0.16512846946716309,-0.0074367523193359375,-0.050894081592559814
1710953291296216600,8.467216552734374,-0.23131728172302246,0.04258441925048828,0.017350435256958008
1710953291315175000,8.4861748046875,-0.16368210315704346,-0.013898849487304688,0.15599969029426575
1710953291334133000,8.505133056640625,-0.07879197597503662,-0.14635753631591797,0.3029879331588745
1710953291353091300,8.52409130859375,-0.215134859085083,-0.22316932678222656,0.44833463430404663
1710953291372049700,8.543049560546875,-0.3189520835876465,-0.22817516326904297,0.4933163821697235
1710953291391008000,8.562008056640625,-0.31086182594299316,-0.1913766860961914,0.5615202188491821
1710953291409966300,8.58096630859375,-0.3706401586532593,-0.12546062469482422,0.7486061453819275
1710953291428924700,8.599924560546874,-0.5282535552978516,-0.07493209838867188,0.9111752510070801
1710953291447883000,8.618883056640625,-0.7189158797264099,-0.10150337219238281,0.8965297937393188
1710953291466841300,8.63784130859375,-0.9030696153640747,-0.14262962341308594,0.7968637347221375
1710953291485799700,8.656799560546874,-0.8857042193412781,-0.17985916137695312,0.7536147236824036
1710953291504758000,8.675758056640625,-0.8861285448074341,-0.10200309753417969,0.7277050614356995
1710953291523716400,8.69471630859375,-0.8561090230941772,-0.0005922317504882812,0.8092411756515503
1710953291542674700,8.7136748046875,-0.7712230682373047,0.1438426971435547,0.9594053030014038
1710953291561633000,8.732633056640625,-0.7965560555458069,0.22664642333984375,1.0314719676971436
1710953291580591400,8.75159130859375,-0.9312516450881958,0.24171829223632812,1.0557115077972412
1710953291599549700,8.7705498046875,-0.7274324893951416,0.3481788635253906,1.0752606391906738
1710953291618508000,8.789508056640624,-0.2964200973510742,0.3184995651245117,0.8802506923675537
1710953291637466400,8.80846630859375,-0.6711125373840332,0.6572704315185547,0.9136236906051636
1710953291656424700,8.8274248046875,-0.6673765778541565,0.9121465682983398,0.9736788272857666
1710953291675383000,8.846383056640626,-0.3115057945251465,0.08810997009277344,1.1509249210357666
1710953291694341400,8.86534130859375,0.34319746494293213,-0.2956838607788086,1.4023211002349854
1710953291713299700,8.8842998046875,0.3818451166152954,-0.5940046310424805,1.652639627456665
1710953291732258000,8.903258056640626,0.27381443977355957,-1.1290779113769531,1.775585412979126
1710953291751216400,8.92221630859375,-0.0030499696731567383,-1.4813356399536133,1.572363257408142
1710953291770174700,8.9411748046875,-0.28512001037597656,-1.3733291625976562,1.03506338596344
1710953291789132800,8.9601328125,-0.20329737663269043,-0.9777402877807617,0.7263933420181274
1710953291808091100,8.979091064453126,0.39754772186279297,-0.46209144592285156,1.382530927658081
1710953291827049500,8.998049560546875,0.5267682075500488,-0.29689884185791016,2.4308722019195557
1710953291846007800,9.0170078125,0.07371115684509277,-1.53084135055542,3.0674290657043457
1710953291864966100,9.035966064453126,-0.5060440301895142,-3.59824275970459,2.8117358684539795
1710953291883924500,9.054924560546874,-0.5313555002212524,-5.280606269836426,1.5789706707000732
1710953291902882800,9.0738828125,0.38567447662353516,-5.955371856689453,0.3574744462966919
1710953291921841200,9.092841064453125,1.1576030254364014,-3.6367616653442383,0.6541135311126709
1710953291940799500,9.111799560546874,-0.8013490438461304,1.9951353073120117,1.804869532585144
1710953291959757800,9.1307578125,-2.9685721397399902,6.7434587478637695,2.2883553504943848
1710953291978716200,9.149716064453125,-1.169901728630066,6.018002510070801,1.3749165534973145
1710953291997674500,9.168674560546876,1.5286283493041992,4.523591995239258,0.9406400918960571
1710953292016632800,9.1876328125,1.7843170166015625,6.428005218505859,1.3504940271377563
1710953292035591200,9.206591064453125,-0.2900097370147705,6.7807512283325195,1.1758867502212524
1710953292054549500,9.225549560546876,0.16819119453430176,4.921901702880859,1.2383660078048706
1710953292073507800,9.2445078125,0.3541390895843506,3.323235511779785,2.7647643089294434
1710953292092466200,9.263466064453125,-0.9961297512054443,2.4046154022216797,6.339813709259033
1710953292111424500,9.282424560546875,-1.8272085189819336,1.048356056213379,7.960965633392334
1710953292130382800,9.3013828125,-2.0537490844726562,0.0759115219116211,7.79579496383667
1710953292149341200,9.320341064453125,-1.6111688613891602,-0.31860923767089844,7.892727375030518
1710953292168299500,9.339299560546875,-0.558769702911377,-1.125436782836914,7.169505596160889
1710953292187257900,9.3582578125,-0.38263463973999023,-2.7650527954101562,4.372512340545654
1710953292206216200,9.37721630859375,-1.604278564453125,-4.921692848205566,1.995456576347351
1710953292225174500,9.396174560546875,-3.297771453857422,-6.42926025390625,1.4234249591827393
1710953292244132900,9.4151328125,-4.249589920043945,-6.271915435791016,0.42393958568573
1710953292263091200,9.43409130859375,-2.8523306846618652,-5.154593467712402,-0.9738593101501465
1710953292282049500,9.453049560546875,-0.826685905456543,-3.619607448577881,-2.4652090072631836
1710953292301008100,9.472008056640625,-1.1379473209381104,-0.8029956817626953,-2.427114725112915
1710953292319966500,9.490966552734376,-2.60030460357666,5.536267280578613,-0.7519164085388184
1710953292338924800,9.5099248046875,-2.3477814197540283,11.098959922790527,3.621574878692627
1710953292357883100,9.528883056640625,1.5741890668869019,12.463180541992188,5.951312065124512
1710953292376841500,9.547841552734376,3.770476818084717,12.997701644897461,5.875454902648926
1710953292395799800,9.5667998046875,1.231270432472229,16.452041625976562,7.635711193084717
1710953292414758100,9.585758056640625,-3.769850969314575,16.713359832763672,7.321689128875732
1710953292433716500,9.604716552734375,-1.285409927368164,11.745441436767578,1.4748115539550781
1710953292452674800,9.6236748046875,0.14990991353988647,6.803642272949219,-0.7306632995605469
1710953292471633200,9.642633056640625,0.23953592777252197,3.6911401748657227,1.5044255256652832
1710953292490591500,9.661591552734375,0.6035747528076172,-0.42204952239990234,1.985579490661621
1710953292509549800,9.6805498046875,0.8129048347473145,-6.032631874084473,-0.6116077899932861
1710953292528508000,9.6995078125,-0.10471081733703613,-10.161054611206055,-3.7764501571655273
1710953292547466200,9.71846630859375,-2.448164939880371,-10.993551254272461,-5.609371185302734
1710953292566424600,9.737424560546875,-4.09382438659668,-9.273482322692871,-5.595720291137695
1710953292585383000,9.7563828125,-3.3897523880004883,-8.479391098022461,-4.625382423400879
1710953292604341200,9.77534130859375,-2.5761451721191406,-8.718537330627441,-3.8670670986175537
1710953292623299600,9.794299560546875,-1.7977871894836426,-9.660880088806152,-2.8186752796173096
1710953292642258000,9.8132578125,-0.7115373611450195,-11.030671119689941,-1.6575483083724976
1710953292661216300,9.83221630859375,-1.5660792589187622,-11.085556030273438,-0.3917487859725952
1710953292680174600,9.851174560546875,-3.889310836791992,-8.631868362426758,1.245492935180664
1710953292699133000,9.8701328125,-3.665923595428467,-5.017136096954346,0.6774672269821167
1710953292718091300,9.88909130859375,-2.121971368789673,2.187002182006836,-0.6854187250137329
1710953292737049600,9.908049560546875,4.6871337890625,8.4295654296875,-2.932964563369751
1710953292756008000,9.927008056640625,8.752432823181152,11.127169609069824,-2.230337142944336
1710953292774966300,9.94596630859375,6.330023765563965,16.171937942504883,2.3463640213012695
1710953292793924600,9.964924560546875,5.6114301681518555,16.553024291992188,2.0999398231506348
1710953292812883000,9.983883056640625,5.922091484069824,10.602640151977539,3.947148323059082
1710953292831841300,10.00284130859375,3.8254776000976562,5.604640960693359,6.399308681488037
1710953292850799600,10.021799560546874,0.042420387268066406,1.125563621520996,4.989929676055908
1710953292869758000,10.040758056640625,-4.258976936340332,-3.1052236557006836,3.537003993988037
1710953292888716300,10.05971630859375,-5.229946136474609,-5.652177810668945,3.2315502166748047
1710953292907674600,10.078674560546874,-4.370028495788574,-7.341926097869873,3.5950019359588623
1710953292926633000,10.097633056640625,-4.995851516723633,-9.188980102539062,3.744743824005127
1710953292945591300,10.11659130859375,-6.519862174987793,-11.554361343383789,3.9739012718200684
1710953292964549600,10.135549560546876,-8.082682609558105,-12.72622013092041,3.9209084510803223
1710953292983508000,10.154508056640625,-8.607770919799805,-11.465911865234375,3.7877821922302246
1710953293002466300,10.17346630859375,-7.408750057220459,-10.409597396850586,4.259317874908447
1710953293021424600,10.192424560546876,-5.307206153869629,-9.644257545471191,3.9539601802825928
1710953293040383000,10.211383056640624,-4.810980796813965,-6.501738548278809,2.3726022243499756
1710953293059341300,10.23034130859375,-3.1009626388549805,0.41562747955322266,-1.1650794744491577
1710953293078299600,10.249299560546875,-0.1278858184814453,8.87458324432373,-3.7180545330047607
1710953293097258000,10.268258056640626,-1.8483171463012695,17.163448333740234,1.79160737991333
1710953293116216300,10.28721630859375,1.8124347925186157,23.062053680419922,7.557520866394043
1710953293135174700,10.306174560546875,11.173574447631836,20.786462783813477,3.908313751220703
1710953293154133000,10.325133056640626,4.5570969581604,21.187904357910156,6.982407093048096
1710953293173091300,10.34409130859375,1.7379121780395508,19.905174255371094,7.450583457946777
1710953293192049700,10.363049560546875,2.508464813232422,10.839095115661621,2.6157829761505127
1710953293211008000,10.382008056640625,2.8714733123779297,2.407010078430176,-1.1347839832305908
1710953293229966300,10.40096630859375,2.0401363372802734,-3.252180576324463,-3.662094831466675
1710953293248924700,10.419924560546875,-0.9874159693717957,-7.121382713317871,-6.766887664794922
1710953293267883000,10.438883056640625,-2.5239834785461426,-7.84268856048584,-10.347928047180176
1710953293286841300,10.45784130859375,-2.9041316509246826,-7.756544589996338,-11.594512939453125
1710953293305799700,10.476799560546874,-2.949979543685913,-8.911595344543457,-9.236756324768066
1710953293324758000,10.495758056640625,-2.1891510486602783,-9.542767524719238,-5.8051862716674805
1710953293343716400,10.51471630859375,-0.8143676519393921,-9.606547355651855,-4.635073661804199
1710953293362674700,10.5336748046875,-0.2873208522796631,-10.329517364501953,-5.189509391784668
1710953293381633000,10.552633056640625,-2.268967628479004,-10.269378662109375,-5.012447357177734
1710953293400591400,10.57159130859375,-2.8532257080078125,-7.541594505310059,-3.9894909858703613
1710953293419549700,10.5905498046875,-2.644951820373535,-2.0451974868774414,-3.2877020835876465
1710953293438508000,10.609508056640625,-0.5794897079467773,9.007288932800293,-0.023694515228271484
1710953293457466400,10.62846630859375,6.505999565124512,14.804875373840332,4.822246551513672
1710953293476424700,10.6474248046875,12.36313533782959,12.857560157775879,2.7832484245300293
1710953293495383000,10.666383056640624,9.151119232177734,14.569130897521973,-0.19325414299964905
1710953293514341400,10.68534130859375,3.889554023742676,14.970205307006836,-1.2326818704605103
1710953293533299700,10.7042998046875,0.3401012420654297,8.637211799621582,-1.19510817527771
1710953293552257800,10.7232578125,-2.8768763542175293,2.3050222396850586,1.3221168518066406
1710953293571216100,10.742216064453125,-5.329707622528076,-0.43233299255371094,4.538655757904053
1710953293590174500,10.761174560546875,-3.562318801879883,-2.6420364379882812,7.02695894241333
1710953293609132800,10.7801328125,-2.9090259075164795,-6.438097953796387,6.343545913696289
1710953293628091100,10.799091064453124,-5.27323579788208,-9.601198196411133,4.566498279571533
1710953293647049500,10.818049560546875,-9.072341918945312,-10.693964004516602,3.4011499881744385
1710953293666007800,10.8370078125,-10.338178634643555,-10.429728507995605,3.9766738414764404
1710953293684966100,10.855966064453124,-7.558623313903809,-11.0238037109375,6.8013529777526855
1710953293703924500,10.874924560546875,-6.216036796569824,-11.129755020141602,9.147215843200684
1710953293722882800,10.8938828125,-6.543399810791016,-10.628501892089844,8.094156265258789
1710953293741841200,10.912841064453126,-5.741923809051514,-7.203737735748291,4.4026031494140625
1710953293760799500,10.931799560546875,-0.834597110748291,2.388273239135742,-3.2903826236724854
1710953293779757800,10.9507578125,3.169328212738037,10.46595573425293,-7.409221649169922
1710953293798716200,10.969716064453126,-3.580904960632324,19.378143310546875,0.3832820653915405
1710953293817674500,10.988674560546874,4.569700241088867,23.933069229125977,1.924773097038269
1710953293836632800,11.0076328125,10.063139915466309,20.3231258392334,0.4670844078063965
1710953293855591200,11.026591064453125,3.441441059112549,19.291812896728516,3.6802682876586914
1710953293874549500,11.045549560546876,3.649730920791626,14.983467102050781,3.821660041809082
1710953293893507800,11.0645078125,3.2765822410583496,6.838340759277344,1.5586636066436768
1710953293912466200,11.083466064453125,1.1527069807052612,-0.04238605499267578,-1.1857011318206787
1710953293931424500,11.102424560546876,-1.3430224657058716,-5.511539936065674,-4.928581237792969
1710953293950382600,11.121382568359374,-3.278057098388672,-8.46855640411377,-8.816680908203125
1710953293969341000,11.1403408203125,-2.2481062412261963,-9.259734153747559,-12.149646759033203
1710953293988299300,11.15929931640625,-2.5286195278167725,-9.247374534606934,-10.005996704101562
1710953294007257600,11.178257568359374,-1.3889281749725342,-8.547964096069336,-7.086775779724121
1710953294026216000,11.1972158203125,0.501227855682373,-8.565006256103516,-5.600039005279541
1710953294045174300,11.21617431640625,1.449281930923462,-9.522615432739258,-5.3857011795043945
1710953294064132600,11.235132568359376,-0.4842796325683594,-10.737043380737305,-6.319901466369629
1710953294083091000,11.254091064453124,-2.853768825531006,-8.881112098693848,-6.430985450744629
1710953294102049300,11.27304931640625,-1.7898077964782715,-5.07157039642334,-6.152805805206299
1710953294121007600,11.292007568359375,0.42987608909606934,5.996171951293945,-3.4054932594299316
1710953294139966000,11.310966064453124,6.595187187194824,18.347930908203125,6.144371509552002
1710953294158924300,11.32992431640625,11.938899040222168,13.34706974029541,5.870992660522461
1710953294177882600,11.348882568359375,10.33485221862793,11.028121948242188,-0.42319780588150024
1710953294196841000,11.367841064453126,3.678286552429199,15.383631706237793,-1.26549232006073
1710953294215799300,11.38679931640625,1.440317153930664,9.97228717803955,-1.7383135557174683
1710953294234758000,11.4057578125,-1.5886623859405518,4.3644514083862305,1.7074671983718872
1710953294253716200,11.42471630859375,-5.023355484008789,-0.4199399948120117,6.355884552001953
1710953294272674600,11.443674560546874,-4.479751110076904,-2.8778018951416016,8.565349578857422
1710953294291633000,11.4626328125,-2.90495228767395,-6.734752178192139,6.9125847816467285
1710953294310591200,11.48159130859375,-5.539443016052246,-9.782698631286621,3.4523096084594727
1710953294329549600,11.500549560546874,-10.122453689575195,-10.048287391662598,1.7564432621002197
1710953294348508000,11.5195078125,-10.608494758605957,-8.907922744750977,3.8220925331115723
1710953294367466200,11.53846630859375,-7.778257846832275,-8.993501663208008,8.559274673461914
1710953294386424600,11.557424560546876,-6.13792610168457,-10.55451488494873,9.775408744812012
1710953294405383000,11.5763828125,-7.023462772369385,-11.397594451904297,6.602089881896973
1710953294424341200,11.59534130859375,-7.605782985687256,-10.158807754516602,3.1360371112823486
1710953294443299600,11.614299560546876,-6.783428192138672,-5.2623820304870605,0.8945287466049194
1710953294462258000,11.6332578125,-2.2144501209259033,5.212759971618652,-3.878084659576416
1710953294481216300,11.65221630859375,6.245203495025635,16.548877716064453,-8.04875659942627
1710953294500174600,11.671174560546875,-1.483397364616394,24.94183349609375,2.7305407524108887
1710953294519133000,11.6901328125,12.052446365356445,26.388671875,3.7290337085723877
1710953294538091300,11.70909130859375,5.145657062530518,20.794363021850586,2.8304858207702637
1710953294557049600,11.728049560546875,3.2993202209472656,17.75328826904297,1.999105453491211
1710953294576008000,11.747008056640626,4.240212440490723,9.468491554260254,1.594334363937378
1710953294594966300,11.76596630859375,1.2613871097564697,1.7017154693603516,1.1464736461639404
1710953294613924600,11.784924560546875,-1.1637057065963745,-3.2503724098205566,-2.3330113887786865
1710953294632883000,11.803883056640625,-2.43986177444458,-5.948921203613281,-6.731599807739258
1710953294651841500,11.822841552734374,-0.7611564993858337,-7.430686950683594,-10.720757484436035
1710953294670800000,11.8417998046875,0.1947389841079712,-9.331954002380371,-11.518559455871582
1710953294689758200,11.86075830078125,-0.81681227684021,-8.992291450500488,-7.827437400817871
1710953294708716500,11.879716552734376,0.1796410083770752,-6.920840740203857,-6.850762367248535
1710953294727675000,11.8986748046875,2.8590731620788574,-7.402531623840332,-6.995400905609131
1710953294746633200,11.91763330078125,1.4844183921813965,-8.727298736572266,-6.400180339813232
1710953294765591600,11.936591552734376,-2.0589044094085693,-8.832974433898926,-6.198419570922852
1710953294784550000,11.9555498046875,-2.0449326038360596,-6.44723653793335,-5.634629249572754
1710953294803508200,11.97450830078125,-0.7802574634552002,2.2189321517944336,-4.566207408905029
1710953294822466600,11.993466552734375,3.92075514793396,14.8289794921875,-0.7194057106971741
1710953294841425000,12.0124248046875,10.053047180175781,14.779289245605469,4.107205390930176
1710953294860383500,12.031383544921875,9.5672607421875,15.222246170043945,1.468444585800171
1710953294879341800,12.050341796875,3.2683658599853516,17.44321632385254,1.173274278640747
1710953294898300200,12.069300048828126,-0.5860157012939453,11.072793960571289,-0.29275891184806824
1710953294917258500,12.088258544921874,-3.595449447631836,4.905937194824219,1.3925983905792236
1710953294936216800,12.107216796875,-6.322602272033691,-0.599299430847168,5.63862419128418
1710953294955175200,12.126175048828125,-6.0992631912231445,-4.265990734100342,7.439755439758301
1710953294974134000,12.145134033203124,-3.9027276039123535,-7.914422512054443,7.548461437225342
1710953294993092400,12.16409228515625,-5.128302574157715,-9.615262985229492,4.7963547706604
1710953295012050700,12.18305078125,-9.309883117675781,-10.555402755737305,1.9492700099945068
1710953295031009000,12.202009033203124,-10.11878776550293,-8.746780395507812,2.8037657737731934
1710953295049967400,12.22096728515625,-8.427180290222168,-7.964786052703857,5.931303024291992
1710953295068926000,12.239926025390625,-6.812302589416504,-9.518213272094727,9.287492752075195
1710953295087884300,12.25888427734375,-5.785317897796631,-9.855539321899414,9.875779151916504
1710953295106842600,12.277842529296874,-6.559237957000732,-8.9253511428833,6.871585845947266
1710953295125801000,12.296801025390625,-4.401154518127441,-2.455821990966797,1.073035717010498
1710953295144759300,12.31575927734375,6.309408187866211,11.360061645507812,-9.205679893493652
1710953295163717600,12.334717529296874,-0.5720710754394531,20.5202579498291,-5.520181655883789
1710953295182676000,12.353676025390625,2.627103328704834,21.700542449951172,-1.467397689819336
1710953295201634600,12.372634521484375,7.577703952789307,21.482629776000977,-0.602866530418396
1710953295220593000,12.391593017578124,1.8349642753601074,19.151569366455078,0.4894566535949707
1710953295239551200,12.41055126953125,2.7046990394592285,15.48566722869873,2.835212230682373
1710953295258509600,12.429509521484375,3.844653844833374,9.044705390930176,5.587122917175293
1710953295277468200,12.44846826171875,-0.43717238306999207,1.6152706146240234,3.545449733734131
1710953295296426500,12.467426513671874,-0.642553448677063,-4.192971706390381,-1.9986424446105957
1710953295315384800,12.486384765625,-1.2945365905761719,-7.490662097930908,-7.167719841003418
1710953295334343200,12.50534326171875,0.038344502449035645,-8.449287414550781,-11.735343933105469
1710953295353301500,12.524301513671874,-1.525865077972412,-9.300307273864746,-10.653678894042969
1710953295372259800,12.543259765625,-1.0492417812347412,-7.861016273498535,-8.234037399291992
1710953295391218400,12.562218505859375,1.563439965248108,-6.6194868087768555,-8.452012062072754
1710953295410176800,12.5811767578125,2.7149195671081543,-8.168642044067383,-6.962761402130127
1710953295429135000,12.600135009765625,1.1126612424850464,-9.196009635925293,-6.653961181640625
1710953295448093400,12.619093505859375,-3.203843116760254,-8.085949897766113,-7.947976589202881
1710953295467052000,12.638052001953126,-1.6945165395736694,-3.5407772064208984,-7.0017242431640625
1710953295486010400,12.65701025390625,1.486720085144043,7.571704864501953,-5.1067376136779785
1710953295504968700,12.67596875,10.47266674041748,17.994365692138672,1.7677202224731445
1710953295523927000,12.694927001953126,11.566390991210938,14.805319786071777,2.903604030609131
1710953295542885400,12.713885498046874,4.718376159667969,15.70414924621582,1.765369176864624
1710953295561844000,12.732843994140625,-0.2364659309387207,12.0969877243042,-0.5875654816627502
1710953295580802300,12.75180224609375,-2.7963857650756836,5.880918502807617,-0.08447162061929703
1710953295599760600,12.7707607421875,-5.165441513061523,2.5493125915527344,4.733978271484375
1710953295618719000,12.789718994140625,-5.206554889678955,-0.7170343399047852,8.798599243164062
1710953295637677300,12.80867724609375,-3.069206476211548,-5.861134052276611,8.57655143737793
1710953295656636000,12.827635986328126,-5.2463059425354,-10.585542678833008,5.685563087463379
1710953295675594200,12.84659423828125,-9.593648910522461,-12.19418716430664,2.8503849506378174
1710953295694552600,12.865552490234375,-11.325014114379883,-10.212851524353027,1.8708394765853882
1710953295713511200,12.88451123046875,-9.987232208251953,-8.82030200958252,5.482544898986816
1710953295732469500,12.903469482421874,-8.682050704956055,-9.487078666687012,9.453705787658691
1710953295751427800,12.922427734375,-7.104544639587402,-10.71693229675293,8.488557815551758
1710953295770386200,12.94138623046875,-6.933265686035156,-10.909399032592773,6.049304962158203
1710953295789344800,12.9603447265625,-7.192959785461426,-7.477677345275879,3.2713093757629395
1710953295808303000,12.97930322265625,-1.599938154220581,5.531695365905762,-4.9016804695129395
1710953295827261400,12.998261474609375,3.985166549682617,20.340213775634766,-8.020527839660645
1710953295846220000,13.017219970703126,-2.0992801189422607,27.146099090576172,-1.398197054862976
1710953295865178400,13.036178466796875,9.706798553466797,24.902416229248047,0.36560332775115967
1710953295884136700,13.05513671875,4.5759196281433105,19.27750015258789,0.029481172561645508
1710953295903095000,13.074094970703126,2.841959238052368,18.662973403930664,5.677644729614258
1710953295922053600,13.0930537109375,4.5186638832092285,10.566754341125488,7.005798816680908
1710953295941012000,13.112011962890625,-0.6651175618171692,1.9207124710083008,3.468986988067627
1710953295959970600,13.130970458984375,-0.6504925489425659,-4.572186470031738,-3.008382558822632
1710953295978929000,13.149928955078124,-0.9987132549285889,-8.051498413085938,-8.700589179992676
1710953295997887200,13.16888720703125,-1.9200382232666016,-7.830188274383545,-12.617083549499512
1710953296016845600,13.187845458984375,-2.155440330505371,-9.134013175964355,-12.992805480957031
1710953296035804200,13.20680419921875,-0.4935615062713623,-9.125988006591797,-10.032157897949219
1710953296054762500,13.225762451171875,0.7440606355667114,-9.079269409179688,-7.3945770263671875
1710953296073720800,13.244720947265625,0.3643014430999756,-9.187033653259277,-6.747596740722656
1710953296092679400,13.263679443359376,0.48279356956481934,-8.82756233215332,-7.196248531341553
1710953296111637800,13.2826376953125,-1.2649284601211548,-8.810943603515625,-7.031551837921143
1710953296130596000,13.30159619140625,-2.6036417484283447,-3.716676712036133,-6.1199822425842285
1710953296149554700,13.3205546875,1.0341618061065674,10.769603729248047,-2.6965584754943848
1710953296168513000,13.339512939453124,9.274197578430176,21.00143051147461,3.5333471298217773
1710953296187471400,13.358471435546875,13.32070255279541,11.048794746398926,0.6591780185699463
1710953296206430000,13.377429931640625,5.414527893066406,16.115341186523438,-2.123920440673828
1710953296225388300,13.39638818359375,-1.320749044418335,15.053059577941895,-2.351130247116089
1710953296244346600,13.4153466796875,-2.7611021995544434,7.194826126098633,-1.9202852249145508
1710953296263305200,13.43430517578125,-5.464056015014648,2.9958419799804688,3.3144917488098145
1710953296282263600,13.453263671875,-6.885852813720703,-1.3418769836425781,8.388862609863281
1710953296301222000,13.472221923828124,-5.124183654785156,-5.258421897888184,9.58530044555664
1710953296320180200,13.49118017578125,-4.678425312042236,-8.837404251098633,8.643768310546875
1710953296339138800,13.510138916015626,-8.445606231689453,-10.460197448730469,5.395256519317627
1710953296358097200,13.52909716796875,-11.418205261230469,-10.054019927978516,2.570925235748291
1710953296377055700,13.5480556640625,-9.060205459594727,-8.129228591918945,4.99003267288208
1710953296396014000,13.56701416015625,-6.293146133422852,-9.701005935668945,9.356773376464844
1710953296414972400,13.585972412109374,-6.906186103820801,-11.591917991638184,10.020065307617188
1710953296433930800,13.6049306640625,-8.005215644836426,-11.821287155151367,7.200908184051514
1710953296452889300,13.623889404296875,-8.27376937866211,-9.188055992126465,4.9436540603637695
1710953296471847700,13.64284765625,-6.85152530670166,-1.483290195465088,0.6011453866958618
1710953296490806300,13.66180615234375,1.703139066696167,14.642288208007812,-9.012646675109863
1710953296509764600,13.6807646484375,3.2597944736480713,25.859333038330078,-3.6352806091308594
1710953296528723000,13.699722900390626,3.5050601959228516,26.81903076171875,3.721889019012451
1710953296547681500,13.718681640625,10.69841194152832,24.622962951660156,1.5331671237945557
1710953296566639900,13.737639892578125,2.7707252502441406,19.240806579589844,3.2051546573638916
1710953296585598500,13.756598388671875,4.815810203552246,14.173187255859375,3.0991127490997314
1710953296604556800,13.775556884765624,1.4867210388183594,5.9271697998046875,3.1308069229125977
1710953296623515100,13.79451513671875,-0.5862155556678772,-2.2514476776123047,-0.8717371225357056
1710953296642473500,13.813473388671875,-0.17934584617614746,-8.864335060119629,-6.254559516906738
1710953296661432000,13.83243212890625,-0.9363462924957275,-8.791037559509277,-11.353385925292969
1710953296680390400,13.851390380859375,-1.7208662033081055,-7.592958450317383,-13.582897186279297
1710953296699349000,13.870348876953125,-1.1323425769805908,-6.995408535003662,-10.419753074645996
1710953296718307300,13.889307373046876,0.07580280303955078,-7.840266227722168,-6.669072151184082
1710953296737265700,13.908265625,0.8893697261810303,-8.656135559082031,-4.727042198181152
1710953296756224000,13.92722412109375,1.1628806591033936,-8.827770233154297,-5.2742486000061035
1710953296775182600,13.9461826171875,-1.3887255191802979,-8.139055252075195,-6.262610912322998
1710953296794141000,13.965140869140624,-2.9239346981048584,-6.5575032234191895,-6.647510528564453
1710953296813099500,13.984099609375,-2.517772674560547,-0.7871456146240234,-5.409005641937256
1710953296832057900,14.003057861328125,1.628932237625122,14.240212440490723,-1.140928864479065
1710953296851016200,14.02201611328125,10.641327857971191,17.730274200439453,7.307109832763672
1710953296869974800,14.040974853515625,13.492532730102539,9.749521255493164,1.9351856708526611
1710953296888933000,14.05993310546875,4.458040237426758,13.59982967376709,-0.5388733744621277
1710953296907891700,14.0788916015625,-1.4038844108581543,10.0199613571167,-2.108466148376465
1710953296926850000,14.09785009765625,-3.952228546142578,4.634255409240723,-0.9620549082756042
1710953296945808400,14.116808349609375,-5.564185619354248,0.35114574432373047,4.905436992645264
1710953296964766700,14.1357666015625,-5.026674747467041,-2.918128490447998,7.612218856811523
1710953296983725300,14.154725341796874,-4.823466777801514,-6.639501094818115,6.673308372497559
1710953297002683600,14.17368359375,-6.6458516120910645,-9.235721588134766,4.2354350090026855
1710953297021642200,14.192642333984375,-9.462027549743652,-8.662511825561523,2.9331603050231934
1710953297040600600,14.2116005859375,-10.117103576660156,-7.66264009475708,4.905576705932617
1710953297059559000,14.230558837890625,-8.263932228088379,-8.229783058166504,8.652219772338867
1710953297078517200,14.249517333984375,-7.641721248626709,-10.52663803100586,11.37131404876709
1710953297097475800,14.268475830078126,-7.559630393981934,-13.183774948120117,9.969812393188477
1710953297116434200,14.28743408203125,-8.906116485595703,-12.42196273803711,6.8076019287109375
1710953297135392800,14.306392822265625,-7.939815521240234,-4.600044250488281,1.6467366218566895
1710953297154351000,14.32535107421875,3.464287757873535,14.546649932861328,-9.615635871887207
1710953297173309400,14.344309326171874,-2.057260274887085,30.15056610107422,-5.3990888595581055
1710953297192268000,14.36326806640625,5.703893661499023,25.60049057006836,1.944097638130188
1710953297211226400,14.382226318359375,10.201440811157227,23.530858993530273,-2.0096287727355957
1710953297230184700,14.401184814453124,4.032603740692139,19.84490203857422,1.565298318862915
1710953297249143000,14.42014306640625,4.935718536376953,15.173182487487793,4.827376842498779
1710953297268101600,14.4391015625,3.4089372158050537,6.392696380615234,4.5783281326293945
1710953297287060000,14.45806005859375,-1.0066132545471191,-1.315455436706543,0.004677534103393555
1710953297306018600,14.4770185546875,-1.26862370967865,-6.817042827606201,-5.929742336273193
1710953297324977000,14.495976806640625,-1.896345853805542,-9.751213073730469,-11.266019821166992
1710953297343935200,14.514935302734376,-1.9574007987976074,-9.672856330871582,-13.517653465270996
1710953297362893600,14.5338935546875,-1.0717562437057495,-8.467120170593262,-11.491701126098633
1710953297381852200,14.55285205078125,0.4888484477996826,-7.687613010406494,-9.33765697479248
1710953297400810500,14.571810546875,2.3350443840026855,-7.517511367797852,-7.713950157165527
1710953297419769000,14.59076904296875,0.9180941581726074,-6.9838361740112305,-6.189058303833008
1710953297438727400,14.6097275390625,-0.38276219367980957,-6.65183162689209,-5.73028039932251
1710953297457685800,14.628685791015625,-2.1469151973724365,-6.500840187072754,-7.199308395385742
1710953297476644000,14.64764404296875,-2.9593491554260254,-0.8660659790039062,-7.112970352172852
1710953297495602700,14.666602783203125,1.6462085247039795,18.004131317138672,-1.1614210605621338
1710953297514561000,14.68556103515625,10.42827033996582,20.709199905395508,8.819793701171875
1710953297533519600,14.70451953125,12.149666786193848,9.269200325012207,3.289325475692749
1710953297552478000,14.72347802734375,3.1941847801208496,13.05003547668457,0.7019118070602417
1710953297571436300,14.742436279296875,-1.9058136940002441,10.9722261428833,0.27600419521331787
1710953297590394600,14.76139453125,-3.5844779014587402,4.380241394042969,0.2917879819869995
1710953297609353200,14.780353271484374,-5.505021095275879,-1.3694467544555664,4.481287002563477
1710953297628311600,14.7993115234375,-4.831182479858398,-4.435788154602051,6.628203392028809
1710953297647270100,14.818270263671875,-5.394529342651367,-7.14931058883667,6.514609336853027
1710953297666228500,14.837228515625,-7.625891208648682,-10.434797286987305,4.236726760864258
1710953297685186800,14.856186767578125,-9.582404136657715,-10.921121597290039,2.633509635925293
1710953297704145200,14.875145263671875,-10.273662567138672,-8.582062721252441,3.893508195877075
1710953297723103700,14.894103759765626,-8.258466720581055,-7.451565265655518,7.315986633300781
1710953297742062000,14.91306201171875,-7.384789943695068,-9.201272964477539,9.434930801391602
1710953297761020700,14.932020751953125,-8.000480651855469,-11.146524429321289,7.759232997894287
1710953297779979000,14.95097900390625,-8.991731643676758,-10.810880661010742,5.538745880126953
1710953297798937300,14.969937255859374,-8.58453369140625,-6.537912368774414,3.722202777862549
1710953297817895700,14.988895751953125,-0.8721733093261719,6.553885459899902,-3.3580312728881836
1710953297836854300,15.007854248046876,7.306702613830566,21.734535217285156,-6.83902645111084
1710953297855812600,15.0268125,-3.2056899070739746,26.48777961730957,1.1467952728271484
1710953297874771000,15.04577099609375,11.52131462097168,24.294416427612305,1.588039755821228
1710953297893729500,15.0647294921875,3.51430082321167,18.658916473388672,-0.772315502166748
1710953297912687900,15.08368798828125,1.561851143836975,16.43219566345215,4.160435676574707
1710953297931646200,15.102646240234375,3.6029915809631348,9.037750244140625,4.5986785888671875
1710953297950604500,15.1216044921875,0.4327625036239624,1.1544294357299805,1.9659559726715088
1710953297969563100,15.140563232421876,-0.892046332359314,-5.619644641876221,-3.6528568267822266
1710953297988521500,15.159521484375,-0.6792129278182983,-8.849665641784668,-9.896916389465332
1710953298007479800,15.178479736328125,-2.40492582321167,-7.725653648376465,-14.357765197753906
1710953298026438100,15.197438232421876,-3.043644666671753,-6.96594762802124,-13.312771797180176
1710953298045396700,15.216396728515624,-0.03800642490386963,-7.683488368988037,-9.102347373962402
1710953298064355000,15.23535498046875,1.465994119644165,-9.11150074005127,-7.237081050872803
1710953298083313700,15.254313720703125,1.3377771377563477,-10.382491111755371,-7.7178802490234375
1710953298102272000,15.27327197265625,-0.9265382289886475,-7.563473224639893,-7.04403018951416
1710953298121230300,15.292230224609375,-0.9495242834091187,-4.639739036560059,-8.08241081237793
1710953298140188700,15.311188720703125,1.8175156116485596,8.020381927490234,-5.411464214324951
1710953298159147000,15.33014697265625,10.415693283081055,22.760971069335938,4.826422691345215
1710953298178105600,15.349105712890625,12.591938018798828,10.425797462463379,1.278883457183838
1710953298197064000,15.36806396484375,5.756102561950684,15.121684074401855,-1.011419653892517
1710953298216022300,15.387022216796876,0.6397814750671387,15.052139282226562,-2.444328784942627
1710953298234980900,15.40598095703125,-1.5562195777893066,8.37877082824707,-1.786633014678955
1710953298253939200,15.424939208984375,-4.4272871017456055,4.9553632736206055,3.2895164489746094
1710953298272897500,15.4438974609375,-6.146081447601318,1.5884227752685547,8.402687072753906
1710953298291856000,15.46285595703125,-5.36597204208374,-4.192924499511719,8.233938217163086
1710953298310814500,15.481814453125,-5.765887260437012,-8.509843826293945,6.809689044952393
1710953298329772800,15.500772705078125,-8.647651672363281,-10.252697944641113,4.969417095184326
1710953298348731100,15.519731201171876,-11.472895622253418,-9.554733276367188,3.8868484497070312
1710953298367689700,15.538689697265625,-9.97197437286377,-8.510331153869629,6.321811676025391
1710953298386648000,15.55764794921875,-7.703017711639404,-9.303481101989746,10.474325180053711
1710953298405606400,15.5766064453125,-8.462339401245117,-10.679891586303711,11.309405326843262
1710953298424564700,15.595564697265624,-9.57864761352539,-11.177376747131348,8.6134033203125
1710953298443523300,15.6145234375,-9.55465316772461,-9.82964038848877,5.745515823364258
1710953298462481700,15.633481689453125,-7.328774929046631,-3.8466343879699707,1.7222930192947388
1710953298481440000,15.65243994140625,1.3725616931915283,11.549644470214844,-8.10428524017334
1710953298500398600,15.671398681640625,0.8238203525543213,24.752229690551758,-9.002266883850098
1710953298519357000,15.69035693359375,-0.8060482740402222,25.7728271484375,1.6459298133850098
1710953298538315300,15.709315185546876,13.69250202178955,24.826114654541016,-1.7223565578460693
1710953298557273600,15.728273681640625,2.618234157562256,22.295955657958984,4.098110198974609
1710953298576232000,15.74723193359375,5.098816394805908,18.3275146484375,8.721475601196289
1710953298595190500,15.7661904296875,6.1853718757629395,6.7079315185546875,5.210428237915039
1710953298614148900,15.78514892578125,3.0540404319763184,-1.2768964767456055,1.3164656162261963
1710953298633107200,15.804107177734375,-0.137687087059021,-6.165733337402344,-5.061595916748047
1710953298652065500,15.8230654296875,-3.2782363891601562,-8.23779296875,-11.531712532043457
1710953298671023900,15.84202392578125,-5.078742504119873,-8.485644340515137,-15.208080291748047
1710953298689982500,15.860982421875,-2.686161756515503,-7.214748859405518,-12.718362808227539
1710953298708940800,15.87994091796875,1.08180832862854,-6.850197792053223,-8.412489891052246
1710953298727899100,15.898899169921876,2.5054500102996826,-7.719651222229004,-6.721259117126465
1710953298746857700,15.917857666015625,1.349329948425293,-6.771651744842529,-5.363077163696289
1710953298765816000,15.936816162109375,-0.613710880279541,-6.732884407043457,-5.261791229248047
1710953298784774400,15.9557744140625,-2.2540485858917236,-7.807019233703613,-6.581753253936768
1710953298803732700,15.974732666015624,-3.6487011909484863,-3.1753034591674805,-6.3299055099487305
1710953298822691300,15.99369140625,1.8531203269958496,13.416017532348633,-2.3012771606445312
1710953298841649700,16.012649658203124,12.061145782470703,23.097591400146484,11.349874496459961
1710953298860608000,16.03160791015625,13.271219253540039,9.435779571533203,5.559281826019287
1710953298879566300,16.05056640625,3.989704132080078,8.84780502319336,1.3955283164978027
1710953298898525000,16.06952490234375,-1.0085034370422363,9.801258087158203,-1.1081492900848389
1710953298917483300,16.088483154296874,-2.913783311843872,5.226191520690918,-1.1543480157852173
1710953298936441600,16.107441650390626,-3.9207816123962402,0.09396123886108398,3.7102127075195312
1710953298955400000,16.12639990234375,-4.124907493591309,-4.008320331573486,6.078981876373291
1710953298974358500,16.145358642578124,-5.680934906005859,-6.520761489868164,4.57208776473999
1710953298993316900,16.16431689453125,-8.338120460510254,-8.9315824508667,2.7046000957489014
1710953299012275200,16.183275146484377,-8.835472106933594,-9.091390609741211,2.9963948726654053
1710953299031233800,16.20223388671875,-8.889623641967773,-7.152853488922119,6.388944625854492
1710953299050192100,16.221192138671874,-7.461028575897217,-7.461620330810547,9.234844207763672
1710953299069150500,16.240150390625,-7.125524997711182,-10.144171714782715,9.712630271911621
1710953299088108800,16.25910888671875,-8.78750228881836,-12.103899955749512,7.487006187438965
1710953299107067100,16.278067138671876,-8.843904495239258,-12.031086921691895,4.418652057647705
1710953299126025700,16.297025634765625,-8.808801651000977,-7.7831573486328125,2.642448663711548
1710953299144984000,16.315984130859373,-4.40826940536499,4.230177879333496,-1.9034569263458252
1710953299163942400,16.3349423828125,4.551896095275879,23.20591926574707,-8.444864273071289
1710953299182901000,16.35390087890625,0.7961087226867676,27.25353240966797,5.301109313964844
1710953299201859300,16.372859375,15.075565338134766,24.415233612060547,4.468888759613037
1710953299220817700,16.391817626953124,4.007037162780762,19.427902221679688,-1.6175252199172974
1710953299239776000,16.41077587890625,2.4797348976135254,17.69059944152832,-0.01668405532836914
1710953299258734600,16.429734619140625,3.765449047088623,10.4639892578125,1.1268348693847656
1710953299277693000,16.44869287109375,1.490469217300415,1.9528121948242188,1.1169557571411133
1710953299296651300,16.4676513671875,0.4229394197463989,-6.110956192016602,-2.2238903045654297
1710953299315609600,16.486609619140626,-1.729580044746399,-9.89153003692627,-6.724350452423096
1710953299334568200,16.505568115234375,-1.1336822509765625,-8.763954162597656,-10.195039749145508
1710953299353526500,16.524526611328124,-0.9849108457565308,-7.627924919128418,-12.06125545501709
1710953299372484900,16.54348486328125,0.18600821495056152,-6.481657981872559,-9.8700532913208
1710953299391443500,16.562443359375,1.6378388404846191,-6.323831081390381,-7.921698570251465
1710953299410401800,16.58140185546875,1.549867868423462,-6.98342752456665,-6.992584228515625
1710953299429360000,16.600360107421874,-0.5915939807891846,-7.840620994567871,-6.305827617645264
1710953299448318700,16.619318603515627,-2.2733848094940186,-7.3391876220703125,-6.261536598205566
1710953299467277000,16.638277099609375,-2.5556159019470215,-2.5930519104003906,-5.670815467834473
1710953299486235400,16.6572353515625,1.6494135856628418,14.400121688842773,-2.0347166061401367
1710953299505194000,16.676194091796877,9.943357467651367,20.95458221435547,8.781424522399902
1710953299524152300,16.69515234375,13.968235969543457,8.055256843566895,2.632617950439453
1710953299543110700,16.714110595703126,4.358423709869385,11.141911506652832,-0.8792450428009033
1710953299562069000,16.733069091796875,-1.206136703491211,10.546014785766602,-2.9272515773773193
1710953299581027600,16.752027587890623,-3.0579020977020264,3.8652830123901367,-2.4926657676696777
1710953299599986000,16.77098583984375,-5.422790050506592,-0.7765169143676758,3.733171224594116
1710953299618944500,16.789944580078124,-6.286331653594971,-3.441075325012207,8.021589279174805
1710953299637902800,16.80890283203125,-6.192412853240967,-5.728041648864746,7.858195781707764
1710953299656861200,16.827861083984374,-7.882320880889893,-9.225382804870605,5.111659526824951
1710953299675819500,16.846819580078126,-10.333904266357422,-9.526528358459473,3.958819627761841
1710953299694778000,16.865778076171875,-10.23096752166748,-7.9983038902282715,5.774540424346924
1710953299713736400,16.884736328125,-7.7802510261535645,-7.698579788208008,8.81589412689209
1710953299732695000,16.903695068359376,-7.131502628326416,-10.220869064331055,9.860980033874512
1710953299751653400,16.9226533203125,-8.056772232055664,-12.125407218933105,7.804876804351807
1710953299770611700,16.94161181640625,-8.877753257751465,-10.979202270507812,4.611783981323242
1710953299789570300,16.9605703125,-8.506831169128418,-4.848268032073975,1.2029268741607666
1710953299808528600,16.979528564453126,-2.778852939605713,10.662468910217285,-6.41619873046875
1710953299827487200,16.9984873046875,0.2223682403564453,30.918682098388672,-8.935391426086426
1710953299846445600,17.017445556640624,1.548022985458374,23.919437408447266,4.869365692138672
1710953299865404000,17.03640380859375,16.668062210083008,18.73135757446289,-0.8643348217010498
1710953299884362200,17.0553623046875,2.133449077606201,17.93518829345703,0.6249232292175293
1710953299903320800,17.07432080078125,2.4261488914489746,17.810314178466797,5.857256889343262
1710953299922279200,17.093279052734374,5.791841506958008,7.7461042404174805,3.3626668453216553
1710953299941237800,17.11223779296875,2.953639030456543,-0.31850242614746094,1.0635626316070557
1710953299960196000,17.131196044921875,0.6415406465530396,-6.064369201660156,-4.332451820373535
1710953299979154400,17.150154541015624,-1.3917032480239868,-8.334654808044434,-9.909871101379395
1710953299998113000,17.169113037109376,-1.618094563484192,-7.5890350341796875,-12.328991889953613
1710953300017071400,17.1880712890625,-1.4209043979644775,-7.880446910858154,-10.869072914123535
1710953300036030000,17.207030029296874,0.14182865619659424,-7.392782211303711,-8.416191101074219
1710953300054988300,17.22598828125,2.1935060024261475,-6.761377334594727,-6.700781345367432
1710953300073946600,17.244946533203127,1.3961131572723389,-6.831000804901123,-5.9631147384643555
1710953300092905200,17.2639052734375,-1.0711201429367065,-6.987017631530762,-6.759148597717285
1710953300111863600,17.282863525390624,-2.831671953201294,-6.5834808349609375,-7.353157997131348
1710953300130822100,17.301822265625,-2.872443199157715,-0.13872718811035156,-5.221147060394287
1710953300149780500,17.320780517578125,1.0298380851745605,15.116124153137207,0.0015889406204223633
1710953300168738800,17.33973876953125,8.999969482421875,20.214841842651367,10.5535888671875
1710953300187697400,17.358697509765626,12.653030395507812,8.123806953430176,4.623205661773682
1710953300206655700,17.37765576171875,4.1843438148498535,11.335161209106445,0.944796085357666
1710953300225614000,17.396614013671876,-1.3407530784606934,9.728575706481934,-1.7373236417770386
1710953300244572700,17.41557275390625,-4.1992387771606445,3.631378173828125,-2.455216884613037
1710953300263531000,17.434531005859377,-5.818571090698242,-1.483863353729248,1.94081711769104
1710953300282489600,17.453489501953126,-5.351982116699219,-3.007258892059326,6.153581142425537
1710953300301448000,17.472447998046874,-6.018305778503418,-5.402160167694092,6.860265254974365
1710953300320406500,17.491406494140627,-8.18726634979248,-6.811812400817871,6.300589561462402
1710953300339364900,17.51036474609375,-9.88565731048584,-7.482830047607422,5.987448692321777
1710953300358323500,17.529323486328124,-8.562738418579102,-8.290639877319336,7.595025062561035
1710953300377281800,17.54828173828125,-7.263127326965332,-9.746979713439941,10.088102340698242
1710953300396240100,17.567240234375,-8.034259796142578,-12.351016998291016,10.072221755981445
1710953300415198700,17.58619873046875,-8.496407508850098,-13.01226806640625,7.107864856719971
1710953300434157000,17.605156982421875,-8.660502433776855,-10.41136646270752,4.670507907867432
1710953300453115600,17.62411572265625,-7.853175163269043,-2.6414713859558105,1.4857192039489746
1710953300472074000,17.643073974609376,1.4249267578125,13.28179931640625,-7.114490509033203
1710953300491032600,17.662032470703124,1.4961068630218506,27.18233871459961,-4.5019073486328125
1710953300509991000,17.680990966796877,4.519819259643555,25.881839752197266,3.8367457389831543
1710953300528949500,17.699949462890626,9.434547424316406,20.74823760986328,-2.213351249694824
1710953300547907800,17.718907958984374,1.9087169170379639,17.995468139648438,-2.9034242630004883
1710953300566866400,17.737866455078127,4.052097320556641,14.81476879119873,1.4601576328277588
1710953300585824800,17.75682470703125,5.1314167976379395,6.103626251220703,4.126438140869141
1710953300604783400,17.775783447265624,2.2969179153442383,-1.6374454498291016,2.2710697650909424
1710953300623741700,17.79474169921875,-0.5813809633255005,-6.108614921569824,-3.5121092796325684
1710953300642700000,17.813699951171873,-2.8528084754943848,-8.127891540527344,-8.466730117797852
1710953300661658600,17.83265869140625,-2.700648307800293,-9.258718490600586,-12.605062484741211
1710953300680617200,17.8516171875,-2.312422275543213,-9.357117652893066,-11.680660247802734
1710953300699575600,17.870575439453123,0.35155320167541504,-7.831254005432129,-8.63090705871582
1710953300718534000,17.889533935546876,2.1364192962646484,-7.21832275390625,-6.223569869995117
1710953300737492500,17.908492431640624,0.6625916957855225,-7.404952049255371,-4.6365647315979
1710953300756451000,17.927451171875,-1.5834360122680664,-6.7324934005737305,-4.494459629058838
1710953300775409400,17.946409423828126,-2.187408447265625,-3.306046485900879,-4.496280670166016
1710953300794367700,17.96536767578125,0.8319079875946045,10.634278297424316,-1.7749264240264893
1710953300813326300,17.984326416015627,8.64952278137207,16.489139556884766,4.859261989593506
1710953300832285000,18.003284912109375,12.533145904541016,7.689277648925781,0.11348465085029602
1710953300851243300,18.0222431640625,5.756258964538574,11.088101387023926,-0.6741023063659668
1710953300870201600,18.04120166015625,-0.3127613067626953,10.714201927185059,-2.080249309539795
1710953300889160200,18.06016015625,-2.128687858581543,6.083099365234375,-0.5195205211639404
1710953300908118800,18.079118896484374,-4.081175327301025,2.341134548187256,4.471123218536377
1710953300927077000,18.0980771484375,-4.974172115325928,-2.083589553833008,8.108449935913086
1710953300946035700,18.11703564453125,-5.700982093811035,-5.495372772216797,6.710748195648193
1710953300964994000,18.135994140625,-7.876978874206543,-7.626065731048584,4.48231315612793
1710953300983952600,18.15495263671875,-9.594695091247559,-7.6788649559021,3.188549757003784
1710953301002911000,18.173910888671877,-9.56717300415039,-8.137603759765625,4.892533302307129
1710953301021869600,18.19286962890625,-7.870151519775391,-8.093879699707031,8.867018699645996
1710953301040828000,18.211827880859374,-7.884585380554199,-9.794689178466797,11.655058860778809
1710953301059786500,18.230786376953127,-8.304973602294922,-11.7271146774292,10.598495483398438
1710953301078744800,18.249744873046875,-8.085234642028809,-10.89301872253418,7.0403313636779785
1710953301097703400,18.268703369140624,-7.7688307762146,-5.051584243774414,2.607180118560791
1710953301116662000,18.287662109375,0.24968981742858887,10.1090726852417,-7.056575298309326
1710953301135620400,18.306620361328125,-1.8815165758132935,27.86113166809082,-7.413941860198975
1710953301154579000,18.325578857421874,-0.6484079360961914,22.965925216674805,2.5706756114959717
1710953301173537300,18.344537353515626,12.547957420349121,20.037242889404297,-2.3997092247009277
1710953301192495900,18.363495849609375,2.5690758228302,18.098121643066406,-0.04649162292480469
1710953301211454200,18.3824541015625,3.9238710403442383,16.259082794189453,4.820638656616211
1710953301230412800,18.401412841796876,4.991737365722656,7.818414688110352,3.4220497608184814
1710953301249371100,18.42037109375,1.3361059427261353,0.2479248046875,0.24738121032714844
1710953301268329700,18.439329833984374,0.2706495523452759,-4.703392028808594,-5.372037887573242
1710953301287288000,18.4582880859375,-1.707505226135254,-6.643523693084717,-11.14540958404541
1710953301306246700,18.47724658203125,-1.8861005306243896,-7.1818037033081055,-14.278698921203613
1710953301325205200,18.496205322265624,-2.085057020187378,-8.487981796264648,-11.59885025024414
1710953301344163600,18.51516357421875,-0.42053866386413574,-8.590444564819336,-7.7496538162231445
1710953301363122200,18.5341220703125,2.1533169746398926,-8.931113243103027,-6.265681266784668
1710953301382080500,18.55308056640625,1.4273488521575928,-8.364235877990723,-5.141859531402588
1710953301401039000,18.5720390625,-0.8060572147369385,-7.036360263824463,-5.04954719543457
1710953301419997400,18.59099755859375,-2.3026413917541504,-5.540828227996826,-6.224226951599121
1710953301438956000,18.6099560546875,0.13189935684204102,3.7682409286499023,-5.137820243835449
1710953301457914600,18.62891455078125,5.785524845123291,22.706256866455078,2.576857089996338
1710953301476873000,18.647873046875,11.135705947875977,15.108529090881348,7.047360420227051
1710953301495831300,18.666831298828125,9.985156059265137,6.689126968383789,2.6891932487487793
1710953301514790000,18.685789794921874,2.554750442504883,11.482630729675293,-2.155611991882324
1710953301533748500,18.70474853515625,-1.0288124084472656,8.31965446472168,-2.836516857147217
1710953301552706800,18.723706787109375,-3.5502102375030518,3.2080135345458984,-1.0433316230773926
1710953301571665400,18.74266552734375,-6.502559661865234,-1.1376371383666992,3.3877153396606445
1710953301590623700,18.761623779296876,-6.9295854568481445,-4.412237167358398,6.02984619140625
1710953301609582300,18.780582275390625,-7.389634132385254,-7.0384931564331055,6.690943717956543
1710953301628540700,18.799540771484374,-8.67879867553711,-7.502298355102539,6.095129489898682
1710953301647499300,18.818499267578126,-9.878893852233887,-8.477842330932617,4.741797924041748
1710953301666457900,18.837457763671875,-9.45830249786377,-9.006484031677246,5.615706920623779
1710953301685416200,18.856416259765624,-8.893314361572266,-9.550881385803223,9.339457511901855
1710953301704374800,18.875374755859376,-9.166197776794434,-11.553552627563477,10.111886978149414
1710953301723333000,18.8943330078125,-9.096399307250977,-13.083635330200195,7.7645769119262695
1710953301742291700,18.913291748046873,-10.010403633117676,-10.48690128326416,5.543031215667725
1710953301761250000,18.93225,-6.497957229614258,-0.0797433853149414,0.2015286684036255
1710953301780208600,18.951208740234375,3.5246095657348633,19.02151870727539,-8.2254638671875
1710953301799167200,18.970167236328123,-2.1710734367370605,29.484603881835938,0.002610921859741211
1710953301818125600,18.98912548828125,10.594304084777832,25.62786865234375,6.476836204528809
1710953301837084000,19.008083984375,8.202905654907227,20.808847427368164,-2.7396700382232666
1710953301856042500,19.02704248046875,2.1224679946899414,18.28158187866211,2.60471773147583
1710953301875001000,19.0460009765625,3.8890883922576904,12.644829750061035,3.103710412979126
1710953301893959400,19.06495947265625,3.2503833770751953,3.439297676086426,1.8370163440704346
1710953301912918000,19.08391796875,-0.034452199935913086,-2.9905476570129395,-0.9033169746398926
1710953301931876400,19.10287646484375,-1.8809428215026855,-7.484055042266846,-6.481947898864746
1710953301950835000,19.1218349609375,-0.8727253675460815,-8.940998077392578,-11.062141418457031
1710953301969793300,19.140793212890625,-1.94403874874115,-8.591042518615723,-13.96669864654541
1710953301988752000,19.159751953125,-0.6492370367050171,-7.504234313964844,-12.143292427062988
1710953302007710500,19.17871044921875,1.1294896602630615,-6.688852310180664,-9.4613037109375
1710953302026668800,19.197668701171875,1.5240662097930908,-6.685062885284424,-7.935937881469727
1710953302045627100,19.216627197265623,0.313173770904541,-7.823534965515137,-6.321000099182129
1710953302064585700,19.235585693359376,-1.0002355575561523,-8.055983543395996,-6.482525825500488
1710953302083544300,19.25454443359375,-2.557669162750244,-5.647518634796143,-7.506948471069336
1710953302102502700,19.273502685546877,0.6258594989776611,5.495697975158691,-5.012818336486816
1710953302121461200,19.292461181640626,6.876932621002197,23.668352127075195,5.3625993728637695
1710953302140419600,19.311419677734374,12.266351699829102,15.291973114013672,5.172779560089111
1710953302159378200,19.330378173828127,10.128877639770508,9.40169620513916,0.0926218181848526
1710953302178336500,19.34933642578125,1.6836318969726562,13.088357925415039,-2.5758042335510254
1710953302197295000,19.368295166015624,-2.741211175918579,8.712309837341309,-2.9590537548065186
1710953302216253700,19.387253662109377,-4.443968772888184,2.5518016815185547,-0.4103473126888275
1710953302235212000,19.4062119140625,-6.906437873840332,-1.0537323951721191,5.2634148597717285
1710953302254170400,19.42517041015625,-6.774631500244141,-3.492581367492676,7.650956153869629
1710953302273129000,19.44412890625,-7.237950325012207,-6.097325325012207,7.235945224761963
1710953302292087600,19.463087646484375,-8.647528648376465,-7.194125175476074,6.038418292999268
1710953302311046000,19.4820458984375,-10.426862716674805,-7.898289203643799,4.799582481384277
1710953302330004500,19.50100439453125,-9.785881042480469,-8.853081703186035,5.931758880615234
1710953302348962800,19.519962890625,-9.444950103759766,-10.355595588684082,9.464503288269043
1710953302367921400,19.53892138671875,-9.554438591003418,-12.880941390991211,9.882834434509277
1710953302386879700,19.557879638671874,-9.997039794921875,-12.689146995544434,7.95005989074707
1710953302405838300,19.57683837890625,-10.132979393005371,-9.640154838562012,5.835152626037598
1710953302424796700,19.595796630859375,-7.209686279296875,-0.925206184387207,1.4407069683074951
1710953302443755300,19.61475537109375,3.8066654205322266,16.603729248046875,-7.318492889404297
1710953302462713600,19.633713623046877,0.682682991027832,28.105377197265625,-4.892109394073486
1710953302481672200,19.652672119140625,5.162986755371094,26.595928192138672,6.983415126800537
1710953302500630800,19.671630859375,10.862958908081055,21.717140197753906,-1.4099804162979126
1710953302519589000,19.690589111328126,3.062459945678711,16.015602111816406,-0.30197906494140625
1710953302538547500,19.70954736328125,3.1567273139953613,12.41735553741455,2.775360584259033
1710953302557506000,19.728506103515624,4.735400199890137,3.2742385864257812,1.1708879470825195
1710953302576464600,19.747464599609376,1.755393624305725,-1.7358179092407227,0.8010387420654297
1710953302595423000,19.766423095703125,-0.7246472835540771,-5.355751037597656,-4.638729572296143
1710953302614381300,19.78538134765625,-0.9863460063934326,-7.72826623916626,-8.932952880859375
1710953302633340000,19.80433984375,-1.886508584022522,-8.75010871887207,-11.894375801086426
1710953302652298500,19.823298583984375,-1.5897741317749023,-9.08028507232666,-12.054706573486328
1710953302671256800,19.8422568359375,0.02566075325012207,-8.541877746582031,-9.169370651245117
1710953302690215200,19.861215087890624,1.7616636753082275,-8.364972114562988,-7.091303825378418
1710953302709173800,19.880173828125,1.6156787872314453,-7.90045690536499,-5.720877170562744
1710953302728132400,19.89913232421875,-0.649547815322876,-6.9038310050964355,-6.4894700050354
1710953302747090700,19.918090576171874,-1.7165099382400513,-2.350386619567871,-7.627820014953613
1710953302766049000,19.937049072265626,3.674053192138672,11.865764617919922,-3.292175769805908
1710953302785007600,19.956007568359375,6.746177673339844,19.95684051513672,6.042647361755371
1710953302803966000,19.974966064453124,11.129270553588867,10.068671226501465,-0.47437429428100586
1710953302822924500,19.993924560546876,6.755924224853516,13.57455062866211,-0.9368420839309692
1710953302841883000,20.0128828125,-0.2535529136657715,15.101725578308105,-0.38625720143318176
1710953302860841500,20.031841552734374,-2.529092311859131,8.728364944458008,-0.9574925303459167
1710953302879799800,20.0507998046875,-4.2614006996154785,2.5768003463745117,1.6447101831436157
1710953302898758400,20.06975830078125,-6.449171543121338,-1.725471019744873,5.427495956420898
1710953302917716700,20.088716796875,-7.10399866104126,-4.320249080657959,6.806687831878662
1710953302936675300,20.10767529296875,-7.405293941497803,-6.264007568359375,6.668342113494873
1710953302955633700,20.126633544921877,-8.4013090133667,-8.108318328857422,5.629684925079346
1710953302974592300,20.14559228515625,-10.686698913574219,-8.48717975616455,4.335460662841797
1710953302993550600,20.164550537109374,-9.762002944946289,-7.443136692047119,6.200134754180908
1710953303012509200,20.18350927734375,-8.5324068069458,-9.561211585998535,10.754203796386719
1710953303031467500,20.202467529296875,-9.061088562011719,-12.17637825012207,11.468727111816406
1710953303050426000,20.221426025390624,-9.268929481506348,-12.80401611328125,8.728185653686523
1710953303069384400,20.240384521484376,-9.616814613342285,-10.116345405578613,6.239014625549316
1710953303088343000,20.259343017578125,-7.509067535400391,-1.841618537902832,1.8321897983551025
1710953303107301400,20.27830126953125,2.6835763454437256,16.79853630065918,-7.1308794021606445
1710953303126260000,20.297260009765626,-1.112126350402832,28.607616424560547,-5.070255279541016
1710953303145218300,20.31621826171875,2.2502121925354004,24.564964294433594,6.167903900146484
1710953303164177000,20.335177001953124,13.427713394165039,22.09754180908203,0.13019514083862305
1710953303183135200,20.35413525390625,2.588621139526367,18.426307678222656,0.1462106704711914
1710953303202093600,20.373093505859377,2.770249843597412,15.17076587677002,3.267713785171509
1710953303221052200,20.39205224609375,3.503288984298706,5.308526039123535,0.799443244934082
1710953303240010800,20.4110107421875,2.615057945251465,-1.0969963073730469,-0.005140781402587891
1710953303258969000,20.429968994140626,-0.332969069480896,-4.927872657775879,-3.7039103507995605
1710953303277927400,20.448927490234375,-2.6960458755493164,-8.136407852172852,-8.390130996704102
1710953303296886000,20.467885986328124,-1.5818157196044922,-9.076545715332031,-11.88958740234375
1710953303315844400,20.48684423828125,-1.5790163278579712,-10.022721290588379,-13.505640029907227
1710953303334803000,20.505802978515625,-0.4159090518951416,-8.538176536560059,-10.464811325073242
1710953303353761300,20.52476123046875,1.172048568725586,-6.299155235290527,-7.520401477813721
1710953303372719900,20.543719970703126,1.989588975906372,-6.667416095733643,-5.718625068664551
1710953303391678200,20.56267822265625,0.5728964805603027,-6.750945091247559,-5.659901142120361
1710953303410636800,20.58163671875,-1.7862424850463867,-6.1126203536987305,-7.518205165863037
1710953303429595100,20.60059521484375,-0.5404691696166992,0.6562480926513672,-6.3980207443237305
1710953303448553500,20.619553466796877,3.565213203430176,18.576400756835938,1.299370288848877
1710953303467512000,20.638511962890625,7.732502460479736,20.529903411865234,6.658374786376953
1710953303486470400,20.657470458984374,11.316215515136719,11.139792442321777,0.8793556690216064
1710953303505429000,20.676428955078126,4.645452499389648,12.303397178649902,0.8993154764175415
1710953303524387300,20.69538720703125,-1.9542028903961182,10.969243049621582,0.1727660894393921
1710953303543346000,20.714345947265624,-3.994351387023926,6.285985946655273,-0.6596637964248657
1710953303562304300,20.73330419921875,-5.541935920715332,0.6473789215087891,2.3684182167053223
1710953303581262800,20.752262939453125,-6.3676533699035645,-3.010983467102051,5.95823860168457
1710953303600221200,20.77122119140625,-6.13491153717041,-6.384178161621094,7.227069854736328
1710953303619179500,20.790179443359374,-7.1882123947143555,-8.581806182861328,6.544468402862549
1710953303638138000,20.80913818359375,-10.50985336303711,-8.343645095825195,4.901531219482422
1710953303657096700,20.8280966796875,-11.072332382202148,-8.810599327087402,5.382429599761963
1710953303676055000,20.847054931640624,-8.519161224365234,-10.42719554901123,8.87200927734375
1710953303695013400,20.866013427734377,-9.42095947265625,-12.313405990600586,9.246664047241211
1710953303713972000,20.884971923828125,-10.640515327453613,-12.271448135375977,7.196228981018066
1710953303732930300,20.903930419921874,-10.312690734863281,-10.322511672973633,5.4146528244018555
1710953303751889000,20.922888916015626,-8.56153678894043,-4.9996747970581055,3.08844256401062
1710953303770847200,20.94184716796875,1.4358949661254883,9.76147747039795,-4.260848045349121
1710953303789805600,20.9608056640625,1.284893274307251,24.65489387512207,-4.056302547454834
1710953303808764200,20.97976416015625,-5.302493095397949,24.698667526245117,6.380908966064453
1710953303827722800,20.99872265625,18.526081085205078,21.18625259399414,2.919157028198242
1710953303846681000,21.01768115234375,3.6657488346099854,17.85315704345703,-2.341975212097168
1710953303865639400,21.036639404296874,-0.33530330657958984,19.16223907470703,3.5293197631835938
1710953303884598000,21.055597900390627,4.339890003204346,10.209052085876465,1.7376279830932617
1710953303903556400,21.074556396484375,3.2035365104675293,1.0528478622436523,0.08927273750305176
1710953303922515000,21.093514892578124,1.3161484003067017,-4.966724395751953,-3.4981791973114014
1710953303941473300,21.112473388671877,-0.3998079299926758,-7.440438747406006,-7.499261379241943
1710953303960431600,21.131431640625,-0.8670976758003235,-7.41460657119751,-11.818573951721191
1710953303979390200,21.15039013671875,-1.4405547380447388,-7.50663948059082,-13.714664459228516
1710953303998348800,21.169348876953126,-0.39827096462249756,-7.436801910400391,-9.441939353942871
1710953304017307100,21.18830712890625,1.7293708324432373,-8.007423400878906,-7.131016731262207
1710953304036265500,21.207265380859376,2.1769914627075195,-7.938063621520996,-6.931814193725586
1710953304055224000,21.22622412109375,0.4271228313446045,-6.589829444885254,-5.664984226226807
1710953304074182400,21.245182373046877,-1.436246395111084,-5.333402633666992,-6.362137794494629
1710953304093141000,21.26414111328125,-0.7173991203308105,1.510202407836914,-5.964818954467773
1710953304112099300,21.283099365234374,4.362519264221191,17.297672271728516,0.21605521440505981
1710953304131058000,21.302057861328127,8.041956901550293,15.138577461242676,3.5335853099823
1710953304150016300,21.321016357421875,9.683887481689453,10.540206909179688,-0.6798784732818604
1710953304168974800,21.339974853515624,2.3039164543151855,14.964264869689941,0.5684139132499695
1710953304187933200,21.35893310546875,-1.089345932006836,11.66025161743164,0.11590272188186646
1710953304206891500,21.3778916015625,-3.5820159912109375,5.985775947570801,0.6891734600067139
1710953304225850000,21.39685009765625,-6.179818153381348,1.5200262069702148,4.373651027679443
1710953304244808700,21.41580859375,-6.754607677459717,-3.266129970550537,6.426110744476318
1710953304263767000,21.43476708984375,-6.021089553833008,-6.703600883483887,6.700547218322754
1710953304282725400,21.453725341796876,-7.9934611320495605,-8.194479942321777,5.706248760223389
1710953304301684000,21.47268408203125,-10.289852142333984,-8.706119537353516,4.058047771453857
1710953304320642600,21.491642578125,-10.892999649047852,-8.860471725463867,4.535024166107178
1710953304339601000,21.510600830078126,-8.670263290405273,-8.881186485290527,8.417352676391602
1710953304358559200,21.529559326171874,-7.386279106140137,-11.063634872436523,10.718918800354004
1710953304377517800,21.548517822265627,-8.137876510620117,-12.326737403869629,8.93471622467041
1710953304396476400,21.567476318359375,-8.79682731628418,-11.108245849609375,6.3918375968933105
1710953304415434800,21.586434814453124,-8.342161178588867,-5.688991069793701,2.9660871028900146
1710953304434393000,21.60539306640625,-1.281580924987793,8.332931518554688,-4.744176387786865
1710953304453351700,21.6243515625,3.0270779132843018,23.72774314880371,-8.09521198272705
1710953304472310000,21.64331005859375,-3.538869619369507,25.51974105834961,3.440157413482666
1710953304491268600,21.6622685546875,15.354216575622559,23.790233612060547,5.114871978759766
1710953304510227000,21.68122705078125,6.742464065551758,20.44358253479004,1.493483543395996
1710953304529185500,21.700185546875,1.136452078819275,15.966312408447266,7.120482921600342
1710953304548143900,21.719143798828124,3.673205614089966,9.344029426574707,3.095031261444092
1710953304567102500,21.7381025390625,2.0752925872802734,1.5744314193725586,-0.5437543392181396
1710953304586061000,21.75706103515625,-0.6462177038192749,-2.911623954772949,-3.347127676010132
1710953304605019400,21.776019287109374,-1.397281289100647,-6.160026550292969,-7.467319488525391
1710953304623977700,21.794977783203127,-1.0424221754074097,-8.273091316223145,-10.06515884399414
1710953304642936300,21.813936279296875,0.13272225856781006,-8.733708381652832,-11.358463287353516
1710953304661895000,21.83289501953125,-0.31284791231155396,-9.101330757141113,-11.25988483428955
1710953304680853200,21.851853271484377,-0.3228452801704407,-7.922591209411621,-10.254510879516602
1710953304699811600,21.8708115234375,1.1377689838409424,-6.632233142852783,-8.346446990966797
1710953304718770200,21.889770263671874,2.608644485473633,-6.473190784454346,-7.626838684082031
1710953304737728800,21.908728759765626,1.8995873928070068,-6.655311107635498,-8.187562942504883
1710953304756687000,21.92768701171875,-1.1972061395645142,-6.193019866943359,-9.449170112609863
1710953304775645700,21.946645751953124,-2.2145557403564453,-1.5524892807006836,-9.168477058410645
1710953304794604000,21.96560400390625,4.2309956550598145,17.198970794677734,-2.4035634994506836
1710953304813562600,21.984562744140625,4.625732898712158,28.444175720214844,12.702363967895508
1710953304832521000,22.00352099609375,6.722832679748535,12.988863945007324,6.638064384460449
1710953304851479600,22.0224794921875,6.819733619689941,9.951868057250977,1.7865867614746094
1710953304870438100,22.041438232421875,0.15744686126708984,14.383888244628906,-0.03692841902375221
1710953304889396500,22.060396484375,-2.26796555519104,10.235191345214844,-0.84022456407547
1710953304908355000,22.07935498046875,-4.635329246520996,3.6795215606689453,-0.11098320037126541
1710953304927313400,22.0983134765625,-6.3991169929504395,-1.4491157531738281,2.374520778656006
1710953304946272000,22.11727197265625,-5.094849586486816,-4.051657199859619,4.809088230133057
1710953304965230300,22.136230224609374,-5.550417423248291,-6.707785606384277,7.164846420288086
1710953304984189000,22.15518896484375,-9.218043327331543,-9.942052841186523,6.262749671936035
1710953305003147500,22.1741474609375,-12.357050895690918,-12.401021957397461,3.124223232269287
1710953305022105900,22.19310595703125,-10.864372253417969,-10.811370849609375,2.472196102142334
1710953305041064400,22.212064453125,-9.156440734863281,-8.604316711425781,4.165675163269043
1710953305060023000,22.23102294921875,-8.666363716125488,-9.386592864990234,5.4691572189331055
1710953305078981400,22.2499814453125,-8.575913429260254,-9.743741035461426,5.25014066696167
1710953305097940000,22.26893994140625,-8.301084518432617,-8.435853004455566,4.5642852783203125
1710953305116898300,22.287898193359375,-3.998528003692627,-1.7417879104614258,2.4760568141937256
1710953305135857000,22.30685693359375,7.117630481719971,7.258500099182129,-5.285340785980225
1710953305154815200,22.325815185546876,2.500373363494873,15.161649703979492,-5.171673774719238
1710953305173773800,22.34477392578125,-3.274718999862671,23.5593204498291,3.354598045349121
1710953305192732400,22.363732421875,10.9658203125,21.78006362915039,3.6922852993011475
1710953305211690800,22.382690673828126,6.042698860168457,12.76283073425293,-2.1508102416992188
1710953305230649300,22.4016494140625,0.3668304681777954,14.113649368286133,3.1698286533355713
1710953305249608000,22.42060791015625,1.3748018741607666,8.3972806930542,6.047395706176758
1710953305268566300,22.439566162109376,0.6452101469039917,1.7993087768554688,3.523120641708374
1710953305287524900,22.45852490234375,-2.149412155151367,-1.7285404205322266,-1.3087239265441895
1710953305306483500,22.4774833984375,-3.4240384101867676,-5.972201347351074,-6.4702043533325195
1710953305325441800,22.49644189453125,-1.7788283824920654,-8.342527389526367,-9.806525230407715
1710953305344400400,22.515400390625,-1.0142910480499268,-8.20826244354248,-11.406763076782227
1710953305363358700,22.534358642578123,-1.9429198503494263,-7.757091522216797,-10.984506607055664
1710953305382317300,22.5533173828125,-1.562639832496643,-8.024429321289062,-10.182095527648926
1710953305401276000,22.57227587890625,0.7577972412109375,-7.056976318359375,-9.782331466674805
1710953305420234200,22.591234130859377,1.9341747760772705,-4.986932277679443,-9.651483535766602
1710953305439192800,22.61019287109375,0.04201650619506836,-4.602425575256348,-9.388676643371582
1710953305458151400,22.6291513671875,0.2070465087890625,-2.8259201049804688,-9.033093452453613
1710953305477109800,22.64810986328125,6.350133895874023,5.316018104553223,-8.210000038146973
1710953305496068400,22.667068359375,5.973503112792969,28.836009979248047,2.744530200958252
1710953305515026700,22.686026611328124,6.443108558654785,21.63498306274414,3.4966251850128174
1710953305533985300,22.7049853515625,5.898555755615234,16.380889892578125,-1.0750739574432373
1710953305552943900,22.72394384765625,0.826453447341919,13.1816987991333,-1.544969916343689
1710953305571902200,22.742902099609374,-6.2438507080078125,7.379919052124023,3.4613637924194336
1710953305590860800,22.76186083984375,-4.882434844970703,0.2781524658203125,4.977553367614746
1710953305609819400,22.7808193359375,-2.9057462215423584,-1.4305872917175293,4.654996871948242
1710953305628778000,22.799778076171876,-2.054442882537842,-1.190568447113037,4.5689191818237305
1710953305647736300,22.818736328125,-1.7246828079223633,-3.3322901725769043,4.036653995513916
1710953305666695000,22.83769482421875,-5.678008079528809,-7.809779167175293,1.1157426834106445
1710953305685653500,22.856653564453126,-12.668615341186523,-10.224594116210938,-1.4404387474060059
1710953305704611800,22.87561181640625,-12.695867538452148,-10.941150665283203,-0.34081536531448364
1710953305723570400,22.8945703125,-8.494853973388672,-11.21733570098877,4.137495517730713
1710953305742529000,22.913529052734376,-8.844261169433594,-11.804510116577148,5.628459930419922
1710953305761487600,22.932487548828124,-8.891432762145996,-12.311933517456055,4.2947540283203125
1710953305780446000,22.951446044921877,-7.948507308959961,-11.819093704223633,1.641696572303772
1710953305799404500,22.970404541015625,-8.49057674407959,-6.646621227264404,0.24441766738891602
1710953305818363100,22.989363037109374,8.577596664428711,4.600388050079346,-1.6965906620025635
1710953305837321700,23.00832177734375,12.345417022705078,21.60567855834961,-2.1788065433502197
1710953305856280000,23.027280029296875,10.672430038452148,24.780315399169922,7.3065361976623535
1710953305875238700,23.04623876953125,15.043976783752441,12.543962478637695,-2.081308603286743
1710953305894197200,23.065197265625,8.70091724395752,14.613202095031738,-8.960701942443848
1710953305913155600,23.084155517578125,2.0614185333251953,14.561312675476074,-8.200384140014648
1710953305932114200,23.1031142578125,3.6832470893859863,7.975058555603027,-5.274838447570801
1710953305951072800,23.12207275390625,4.525242328643799,3.691457748413086,1.1986931562423706
1710953305970031000,23.141031005859375,3.435725688934326,0.9644565582275391,2.684344530105591
1710953305988989700,23.15998974609375,1.247842788696289,-3.4411020278930664,-0.2893533706665039
1710953306007948300,23.1789482421875,-0.9274090528488159,-7.327767372131348,-4.870116233825684
1710953306026907000,23.197906982421873,-3.597299575805664,-8.754384994506836,-7.785341262817383
1710953306045865500,23.216865478515626,-3.60044264793396,-10.014992713928223,-6.767322063446045
1710953306064823800,23.23582373046875,-2.767258882522583,-10.124191284179688,-5.583992004394531
1710953306083782400,23.254782470703127,0.6735363006591797,-8.224258422851562,-5.519927978515625
1710953306102741000,23.273740966796876,4.794449329376221,-7.136954307556152,-4.8167405128479
1710953306121699300,23.29269921875,2.490737199783325,-1.4695687294006348,-5.354444980621338
1710953306140658000,23.311657958984377,6.187593460083008,11.141629219055176,-8.829734802246094
1710953306159616500,23.330616455078125,5.0267486572265625,19.621891021728516,0.7282383441925049
1710953306178574800,23.349574951171874,5.22860860824585,14.808026313781738,3.689044952392578
1710953306197533400,23.368533447265627,2.688093662261963,8.709179878234863,0.7102282047271729
1710953306216492000,23.387491943359375,0.6002840995788574,2.300126075744629,0.6109136343002319
1710953306235450600,23.40645068359375,0.6743524074554443,0.9415979385375977,3.546903133392334
1710953306254409200,23.4254091796875,0.8800642490386963,0.2847566604614258,3.8038010597229004
1710953306273367600,23.444367431640625,-1.736498475074768,-1.5398550033569336,0.9360475540161133
1710953306292326100,23.463326171875,-5.6492509841918945,-4.9523162841796875,-1.3626456260681152
1710953306311284700,23.48228466796875,-7.819620609283447,-8.177364349365234,-1.2791272401809692
1710953306330243000,23.5012431640625,-6.941565990447998,-10.228415489196777,0.05927485227584839
1710953306349201700,23.52020166015625,-4.903588771820068,-10.851422309875488,1.09261155128479
1710953306368160300,23.53916015625,-3.7913389205932617,-10.047170639038086,2.094221591949463
1710953306387118800,23.558118896484373,-3.0976779460906982,-8.185693740844727,1.6911829710006714
1710953306406077400,23.577077392578126,-3.029874801635742,-5.072301864624023,-0.6606433391571045
1710953306425035800,23.596035888671874,-1.2660574913024902,2.156632423400879,-4.1933746337890625
1710953306443994400,23.614994384765627,4.002877712249756,6.227252006530762,-2.332498073577881
1710953306462953000,23.633952880859376,7.966830253601074,10.354451179504395,-0.7735787630081177
1710953306481911300,23.652911376953124,7.138913154602051,12.28355598449707,1.2328269481658936
1710953306500870000,23.671869873046877,6.724267959594727,8.052488327026367,0.5246168375015259
1710953306519828500,23.690828369140625,4.1564483642578125,5.042065620422363,-3.6762239933013916
1710953306538787000,23.709787109375,2.392174243927002,3.5657615661621094,-5.602029800415039
1710953306557745700,23.72874560546875,0.9547696113586426,3.671754837036133,-4.053022384643555
1710953306576704000,23.7477041015625,0.8532428741455078,2.678102493286133,-1.4037344455718994
1710953306595662600,23.76666259765625,0.7446961402893066,0.4910850524902344,0.7162935733795166
1710953306614621200,23.78562109375,-0.41007161140441895,-1.6825323104858398,1.2427575588226318
1710953306633579800,23.804579833984373,-1.4226958751678467,-3.458475112915039,0.6759066581726074
1710953306652538000,23.8235380859375,-1.9929072856903076,-4.365307807922363,-0.351388156414032
