time,seconds_elapsed,z,y,x
1710953282946264300,0.117264404296875,2.63449764251709,7.046862602233887,3.2207393646240234
1710953282965222400,0.136222412109375,1.1724830865859985,10.152746200561523,3.531806230545044
1710953282984180200,0.15518017578125,0.8434699773788452,7.2921271324157715,1.4943177700042725
1710953283003138000,0.174137939453125,1.2131611108779907,7.75753116607666,3.996013879776001
1710953283022096100,0.19309619140625,1.5314065217971802,9.688538551330566,7.314858913421631
1710953283041054000,0.212053955078125,1.7647067308425903,9.781859397888184,7.366304397583008
1710953283060012000,0.231011962890625,0.5790630578994751,9.987641334533691,6.173482418060303
1710953283078969900,0.249969970703125,-0.6269195079803467,11.158928871154785,6.400800704956055
1710953283097928000,0.268927978515625,-1.490728497505188,11.989237785339355,6.698707103729248
1710953283116885800,0.2878857421875,-1.4344971179962158,12.129218101501465,6.156732559204102
1710953283135843800,0.30684375,-1.3076776266098022,12.122039794921875,5.724828243255615
1710953283154801700,0.3258017578125,-1.2646067142486572,11.921042442321777,5.729613780975342
1710953283173759500,0.344759521484375,-1.2406785488128662,11.788240432739258,5.880361557006836
1710953283192717600,0.363717529296875,-0.9451649188995361,12.28834056854248,6.029912948608398
1710953283211675600,0.382675537109375,0.22612173855304718,11.950952529907227,6.209374904632568
1710953283230633500,0.401633544921875,1.545763373374939,11.429317474365234,7.255038261413574
1710953283249591300,0.42059130859375,2.018345832824707,11.219944953918457,8.088936805725098
1710953283268549400,0.43954931640625,2.242074728012085,10.638489723205566,7.897511005401611
1710953283287507200,0.458507080078125,2.6081767082214355,10.268798828125,6.830312252044678
1710953283306465300,0.47746533203125,3.0376882553100586,9.241081237792969,5.07517671585083
1710953283325423000,0.496423095703125,3.0999016761779785,7.860422611236572,3.1788649559020996
1710953283344381200,0.515381103515625,3.253042459487915,7.094718933105469,1.3926228284835815
1710953283363339000,0.534339111328125,1.9597218036651611,6.488138675689697,-0.34695929288864136
1710953283382297000,0.553297119140625,0.9978070259094238,6.317051887512207,-1.28255295753479
1710953283401255000,0.5722548828125,2.3054845333099365,6.113661766052246,-2.0721843242645264
1710953283420213000,0.591212890625,2.919243574142456,6.071787357330322,-1.495514154434204
1710953283439170800,0.6101708984375,4.36809778213501,6.276373863220215,0.8530412912368774
1710953283458128600,0.629128662109375,4.666004180908203,6.638886451721191,3.126222848892212
1710953283477086700,0.648086669921875,7.221538543701172,6.98704195022583,4.557130813598633
1710953283496044800,0.667044921875,7.554141044616699,7.135396957397461,4.102494239807129
1710953283515002600,0.686002685546875,7.22034215927124,7.045666217803955,2.8654050827026367
1710953283533960400,0.70496044921875,6.665207386016846,7.037291526794434,1.7994025945663452
1710953283552918500,0.72391845703125,5.730810165405273,7.2574310302734375,1.0552347898483276
1710953283571876400,0.74287646484375,5.9437713623046875,7.061219692230225,0.5563312768936157
1710953283590834400,0.76183447265625,5.663811206817627,7.409375190734863,0.8410771489143372
1710953283609792300,0.780792236328125,4.35254430770874,7.861618995666504,-1.124626636505127
1710953283628750300,0.799750244140625,4.139583110809326,8.11525821685791,-2.5220351219177246
1710953283647708200,0.818708251953125,5.2115678787231445,7.485945701599121,-2.50289249420166
1710953283666666200,0.837666259765625,6.606583118438721,7.859225749969482,-1.6450655460357666
1710953283685624000,0.8566240234375,8.105687141418457,8.908478736877441,-0.8374879360198975
1710953283704582100,0.87558203125,8.69910717010498,10.341779708862305,-0.39601215720176697
1710953283723540000,0.8945400390625,7.707281589508057,10.212567329406738,0.0023928226437419653
1710953283742498000,0.913498046875,6.9068827629089355,8.958727836608887,0.6089733839035034
1710953283761455900,0.932455810546875,6.522834300994873,8.615358352661133,1.4380863904953003
1710953283780414000,0.9514140625,6.269195556640625,7.983652591705322,1.6151553392410278
1710953283799371800,0.970371826171875,5.733202934265137,7.299305438995361,1.576870083808899
1710953283818329900,0.989329833984375,5.755934715270996,6.909275531768799,1.6151553392410278
1710953283837287700,1.00828759765625,6.051448345184326,6.9344000816345215,2.029113531112671
1710953283856245800,1.027245849609375,6.465406894683838,6.959524631500244,2.310270309448242
1710953283875203600,1.04620361328125,6.738188743591309,6.530013084411621,2.5124638080596924
1710953283894161700,1.06516162109375,6.346961975097656,6.184250354766846,2.610569477081299
1710953283913119500,1.084119384765625,6.355337142944336,5.828916072845459,2.069791555404663
1710953283932077600,1.10307763671875,6.501298904418945,5.154139995574951,1.8400806188583374
1710953283951035400,1.122035400390625,7.323233604431152,5.387440204620361,2.7565317153930664
1710953283969993500,1.140993408203125,5.237888813018799,5.422136306762695,1.9058831930160522
1710953283988951300,1.159951416015625,3.9254255294799805,5.20678186416626,-0.5359922647476196
1710953284007909400,1.178909423828125,3.0831520557403564,4.991427898406982,-2.8414769172668457
1710953284026867200,1.1978671875,3.5222349166870117,5.344369411468506,-3.6406795978546143
1710953284045825300,1.2168251953125,4.928018093109131,6.041877269744873,-3.2829527854919434
1710953284064783400,1.235783447265625,6.593422889709473,7.3986077308654785,-2.1655044555664062
1710953284083741200,1.2547412109375,7.774280548095703,9.157332420349121,-0.9822536706924438
1710953284102699300,1.27369921875,7.607979774475098,9.617950439453125,0.349352091550827
1710953284121657000,1.292656982421875,7.988438606262207,9.4121675491333,1.4368900060653687
1710953284140615200,1.311615234375,7.892725467681885,8.266005516052246,1.6761722564697266
1710953284159573000,1.330572998046875,7.825726509094238,7.5708909034729,1.3495519161224365
1710953284178531000,1.349531005859375,7.0169525146484375,7.4739813804626465,0.8231309652328491
1710953284197489000,1.368489013671875,6.4187469482421875,7.585247993469238,1.069591760635376
1710953284216447000,1.387447021484375,5.838487148284912,7.922635555267334,0.4701896607875824
1710953284235404800,1.40640478515625,5.3694939613342285,8.088936805725098,-0.08614161610603333
1710953284254363000,1.42536279296875,5.43290376663208,7.676175117492676,-0.2560320198535919
1710953284273321000,1.444321044921875,5.848058700561523,7.270591735839844,-0.016749758273363113
1710953284292278800,1.46327880859375,5.674578666687012,7.192824840545654,0.3397808074951172
1710953284311236900,1.48223681640625,5.143372058868408,7.8424763679504395,0.33020952343940735
1710953284330195000,1.50119482421875,5.248656272888184,8.557929992675781,0.32542386651039124
1710953284349152800,1.52015283203125,5.5106706619262695,8.883354187011719,0.46779683232307434
1710953284368110800,1.53911083984375,5.270191669464111,8.476573944091797,0.7202396392822266
1710953284387069000,1.55806884765625,5.047659397125244,8.032705307006836,0.7513462901115417
1710953284406026800,1.57702685546875,5.0464630126953125,8.189435958862305,0.45942193269729614
1710953284424984800,1.59598486328125,4.627718925476074,8.482556343078613,0.3158525824546814
1710953284443943000,1.61494287109375,4.494917392730713,8.548358917236328,0.3577269911766052
1710953284462900700,1.633900634765625,4.6169514656066895,8.446663856506348,0.6137589812278748
1710953284481858800,1.65285888671875,4.158725738525391,8.566305160522461,0.9475577473640442
1710953284500817000,1.67181689453125,3.631108283996582,9.002995491027832,1.2430713176727295
1710953284519774700,1.690774658203125,3.513859987258911,9.230313301086426,1.222732424736023
1710953284538732800,1.70973291015625,3.4372897148132324,9.168100357055664,0.6329016089439392
1710953284557690600,1.728690673828125,3.3403804302215576,9.367900848388672,-0.08255238085985184
1710953284576648700,1.747648681640625,3.1381869316101074,9.680164337158203,-0.4223332107067108
1710953284595606800,1.766606689453125,3.6047873497009277,9.516255378723145,-0.8745766878128052
1710953284614564900,1.78556494140625,4.235296249389648,9.476774215698242,-1.176072359085083
1710953284633523000,1.80452294921875,4.253242015838623,9.591629981994629,-1.412961721420288
1710953284652480800,1.823480712890625,3.6921253204345703,9.973284721374512,-1.6319050788879395
1710953284671438800,1.84243896484375,3.875176191329956,10.238887786865234,-1.6450655460357666
1710953284690397000,1.86139697265625,4.320241451263428,10.045069694519043,-1.887937068939209
1710953284709355000,1.88035498046875,3.9493536949157715,9.42173957824707,-2.2301106452941895
1710953284728312800,1.899312744140625,3.184846878051758,8.979066848754883,-2.4430718421936035
1710953284747271000,1.91827099609375,2.5196423530578613,8.790034294128418,-2.076970100402832
1710953284766229000,1.93722900390625,2.2815563678741455,9.19561767578125,-1.2969099283218384
1710953284785187000,1.95618701171875,2.495713949203491,9.332008361816406,-0.7716853022575378
1710953284804145000,1.975144775390625,2.5196423530578613,9.117850303649902,-0.28115665912628174
1710953284823103000,1.99410302734375,2.585444927215576,9.20279598236084,0.747757077217102
1710953284842061000,2.01306103515625,2.8223342895507812,9.835697174072266,1.892722725868225
1710953284861019100,2.03201904296875,2.823530673980713,9.920642852783203,2.3258235454559326
1710953284879977200,2.050977294921875,2.5459632873535156,9.265008926391602,2.4538395404815674
1710953284898935000,2.06993505859375,2.358126640319824,8.947959899902344,2.3222343921661377
1710953284917893000,2.08889306640625,2.317448616027832,8.539983749389648,2.121237277984619
1710953284936851200,2.107851318359375,2.2719850540161133,8.322237014770508,2.2097716331481934
1710953284955809300,2.126809326171875,2.500499725341797,8.679964065551758,2.4945175647735596
1710953284974767000,2.14576708984375,2.970689296722412,9.177671432495117,2.746960401535034
1710953284993725200,2.16472509765625,3.22552490234375,9.129815101623535,2.8761727809906006
1710953285012683300,2.183683349609375,3.3882367610931396,9.20159912109375,2.664407968521118
1710953285031641300,2.202641357421875,3.211168050765991,9.473184585571289,2.6488547325134277
1710953285050599400,2.221599365234375,3.4025938510894775,9.698110580444336,2.988635540008545
1710953285069557500,2.2405576171875,3.4815568923950195,9.719645500183105,3.1453654766082764
1710953285088515300,2.259515380859375,3.3475589752197266,9.524630546569824,3.098705291748047
1710953285107473700,2.2784736328125,2.963510751724243,9.126225471496582,3.040081262588501
1710953285126431500,2.297431396484375,2.6452653408050537,8.72064208984375,2.988635540008545
1710953285145389600,2.3163896484375,2.3473589420318604,8.328219413757324,2.785245656967163
1710953285164347600,2.33534765625,2.139183521270752,7.830512046813965,2.5423741340637207
1710953285183305700,2.3543056640625,2.0303099155426025,7.840083599090576,2.445464849472046
1710953285202263800,2.373263916015625,1.8783657550811768,8.404789924621582,2.723032236099243
1710953285221222000,2.392221923828125,2.0518453121185303,8.94676399230957,3.211168050765991
1710953285240180000,2.411179931640625,2.2671995162963867,9.200403213500977,3.6741790771484375
1710953285259138000,2.430137939453125,2.4849462509155273,9.122636795043945,3.9086756706237793
1710953285278096100,2.44909619140625,2.568695068359375,8.97667407989502,3.8883368968963623
1710953285297054000,2.468053955078125,2.713460922241211,8.897710800170898,3.7950167655944824
1710953285316012300,2.48701220703125,2.8761727809906006,8.86780071258545,3.6873397827148438
1710953285334970000,2.50597021484375,2.884547710418701,8.922835350036621,3.638286828994751
1710953285353928200,2.52492822265625,2.819941520690918,8.818747520446777,3.504288673400879
1710953285372886300,2.54388623046875,2.5423741340637207,8.823533058166504,3.122633457183838
1710953285391844400,2.56284423828125,2.200200319290161,8.93838882446289,2.7625136375427246
1710953285410802400,2.581802490234375,2.203789710998535,8.95394229888916,2.5256242752075195
1710953285429760500,2.600760498046875,2.441875457763672,8.880961418151855,2.283949136734009
1710953285448718600,2.619718505859375,2.630908489227295,9.028120040893555,2.1535403728485107
1710953285467676700,2.6386767578125,2.667997360229492,9.321240425109863,2.1379871368408203
1710953285486634800,2.657634765625,2.5435705184936523,9.483952522277832,2.289931297302246
1710953285505592800,2.6765927734375,2.6356940269470215,9.474381446838379,2.3473589420318604
1710953285524551000,2.695551025390625,2.7768707275390625,9.393025398254395,2.0781664848327637
1710953285543509000,2.714509033203125,2.733799934387207,9.182456970214844,1.7479569911956787
1710953285562467000,2.733467041015625,2.4406790733337402,9.023334503173828,1.373480200767517
1710953285581425200,2.752425048828125,1.8867406845092773,9.10229778289795,1.1988041400909424
1710953285600383200,2.77138330078125,1.8711873292922974,9.235098838806152,1.2095718383789062
1710953285619341300,2.79034130859375,2.11405873298645,9.393025398254395,1.3208380937576294
1710953285638299400,2.80929931640625,2.3330020904541016,9.41336441040039,1.5864413976669312
1710953285657257500,2.828257568359375,2.447857618331909,9.355937004089355,1.8795621395111084
1710953285676215600,2.847215576171875,2.3497519493103027,9.378668785095215,1.9956140518188477
1710953285695173600,2.866173583984375,2.094916343688965,9.524630546569824,1.919043779373169
1710953285714132000,2.885132080078125,2.14516544342041,9.749555587768555,1.6067804098129272
1710953285733089800,2.90408984375,2.416750907897949,9.54377269744873,1.25144624710083
1710953285752048000,2.923048095703125,2.647658348083496,9.353543281555176,1.506281852722168
1710953285771006200,2.942006103515625,2.458625316619873,9.28893756866455,2.059023857116699
1710953285789964300,2.96096435546875,2.579462766647339,9.292527198791504,2.227717876434326
1710953285808922400,2.97992236328125,2.3569302558898926,8.889336585998535,1.805384635925293
1710953285827880400,2.99888037109375,1.7575281858444214,8.559126853942871,1.5852450132369995
1710953285846838500,3.017838623046875,0.8051848411560059,8.50289535522461,1.7527425289154053
1710953285865796600,3.036796630859375,0.6448656916618347,8.551948547363281,2.169093608856201
1710953285884754700,3.055754638671875,1.4213366508483887,8.724231719970703,3.104687452316284
1710953285903713000,3.074713134765625,1.9561325311660767,9.373882293701172,4.152743816375732
1710953285922670800,3.0936708984375,2.179861545562744,10.040284156799316,4.942375183105469
1710953285941629200,3.112629150390625,2.091326951980591,10.232906341552734,4.709074974060059
1710953285960587300,3.131587158203125,1.825723648071289,10.006784439086914,3.988835334777832
1710953285979545300,3.15054541015625,1.7156537771224976,9.640682220458984,3.0891339778900146
1710953285998503400,3.16950341796875,1.7730815410614014,9.274580955505371,2.444268226623535
1710953286017461500,3.18846142578125,1.8089739084243774,9.373882293701172,2.36291241645813
1710953286036419600,3.207419677734375,1.867598056793213,9.743574142456055,3.1070802211761475
1710953286055378000,3.2263779296875,2.313859462738037,9.571290969848633,3.5198421478271484
1710953286074336000,3.2453359375,2.376072883605957,9.279366493225098,3.5497524738311768
1710953286093294000,3.264294189453125,1.9776679277420044,9.002995491027832,3.207578659057617
1710953286112252200,3.283252197265625,1.6055840253829956,8.816354751586914,2.92283296585083
1710953286131210200,3.302210205078125,1.2394821643829346,8.855836868286133,2.9240293502807617
1710953286150168300,3.321168212890625,1.179661512374878,8.809176445007324,3.321237802505493
1710953286169126700,3.340126708984375,1.306481122970581,8.80798053741455,3.559323787689209
1710953286188084700,3.359084716796875,1.2454642057418823,8.8438720703125,3.656233072280884
1710953286207042800,3.378042724609375,1.2598211765289307,8.709874153137207,3.6023945808410645
1710953286226001000,3.3970009765625,1.317248821258545,8.523234367370605,3.5748770236968994
1710953286244959000,3.415958984375,1.3950155973434448,8.6033935546875,3.8356947898864746
1710953286263917300,3.434917236328125,1.7563318014144897,9.10229778289795,4.01037073135376
1710953286282875400,3.45387548828125,1.7132610082626343,9.336793899536133,3.710071563720703
1710953286301833500,3.47283349609375,1.8951154947280884,9.139386177062988,3.102294445037842
1710953286320791600,3.49179150390625,1.8508483171463013,9.096315383911133,3.0065815448760986
1710953286339749600,3.51074951171875,1.9573289155960083,9.33440113067627,3.1716864109039307
1710953286358707700,3.529707763671875,2.091326951980591,9.385847091674805,3.053241729736328
1710953286377666000,3.548666015625,2.0303099155426025,9.056833267211914,2.796013355255127
1710953286396624100,3.5676240234375,1.9645073413848877,8.97667407989502,2.221735715866089
1710953286415582200,3.586582275390625,1.9226330518722534,9.223134994506836,1.581655740737915
1710953286434540500,3.60554052734375,1.8987047672271729,9.491130828857422,1.23589289188385
1710953286453498600,3.62449853515625,1.9214365482330322,9.507881164550781,1.2550355195999146
1710953286472456700,3.643456787109375,2.084148406982422,9.500701904296875,1.2095718383789062
1710953286491414800,3.662414794921875,2.1678972244262695,9.882357597351074,1.1353943347930908
1710953286510373000,3.681373046875,2.338984251022339,10.179067611694336,1.4249259233474731
1710953286529331200,3.700331298828125,2.557927370071411,10.007980346679688,1.542174220085144
1710953286548289300,3.719289306640625,2.528017044067383,9.756733894348145,1.1234302520751953
1710953286567247400,3.738247314453125,2.365305185317993,9.664610862731934,0.8602197170257568
1710953286586205400,3.757205322265625,2.1714866161346436,9.565308570861816,0.7345965504646301
1710953286605163800,3.776163818359375,2.2779672145843506,9.424132347106934,0.638883650302887
1710953286624121900,3.795121826171875,2.480160713195801,9.09392261505127,0.5252245664596558
1710953286643080000,3.814079833984375,2.5016961097717285,8.772088050842285,0.5970092415809631
1710953286662038000,3.8330380859375,2.550748825073242,8.69791030883789,0.7908278703689575
1710953286680996400,3.851996337890625,2.6057839393615723,8.730213165283203,0.989432156085968
1710953286699954400,3.870954345703125,2.610569477081299,8.755337715148926,1.0085747241973877
1710953286718912500,3.88991259765625,2.5914268493652344,8.817551612854004,0.849452018737793
1710953286737870800,3.908870849609375,2.4370899200439453,9.005388259887695,0.8027920126914978
1710953286756829000,3.927828857421875,2.3258235454559326,9.259027481079102,0.9080761671066284
1710953286775787000,3.946787109375,2.335394859313965,9.385847091674805,0.97148597240448
1710953286794745300,3.965745361328125,2.2923240661621094,9.363115310668945,1.042074203491211
1710953286813703400,3.984703369140625,2.121237277984619,9.44447135925293,1.2861422300338745
1710953286832661500,4.00366162109375,2.0721843242645264,9.644271850585938,1.5828521251678467
1710953286851619600,4.02261962890625,2.1858434677124023,9.693324089050293,1.6175481081008911
1710953286870578000,4.041577880859375,2.172683000564575,9.629914283752441,1.430907964706421
1710953286889536000,4.060535888671875,2.00518536567688,9.68494987487793,1.3483555316925049
1710953286908494000,4.079494140625,1.8448662757873535,9.702896118164062,1.3196417093276978
1710953286927452400,4.098452392578125,1.667797327041626,9.657432556152344,1.290927767753601
1710953286946410500,4.117410400390625,1.6235301494598389,9.643074989318848,1.3854442834854126
1710953286965368600,4.13636865234375,1.7467604875564575,9.555737495422363,1.5517455339431763
1710953286984326700,4.15532666015625,1.7802600860595703,9.378668785095215,1.7001005411148071
1710953287003285000,4.174284912109375,1.7922241687774658,9.20997428894043,1.7682958841323853
1710953287022243000,4.1932431640625,1.765903115272522,8.96829891204834,1.7336000204086304
1710953287041201200,4.212201171875,1.8149559497833252,8.761320114135742,1.5469598770141602
1710953287060159500,4.231159423828125,1.770688772201538,8.675178527832031,1.3232308626174927
1710953287079117600,4.25011767578125,1.7778671979904175,8.8438720703125,0.8877372145652771
1710953287098075600,4.26907568359375,2.0159530639648438,8.998209953308105,0.4259224236011505
1710953287117034000,4.288033935546875,2.032702922821045,9.227920532226562,-0.062213387340307236
1710953287135992000,4.306991943359375,1.848455548286438,9.641879081726074,-0.39122650027275085
1710953287154950100,4.3259501953125,1.9884356260299683,10.089336395263672,-0.7429714202880859
1710953287173908200,4.344908203125,2.0398812294006348,10.354940414428711,-1.124626636505127
1710953287192866600,4.363866455078125,1.7383856773376465,10.589436531066895,-1.0660024881362915
1710953287211824600,4.38282470703125,1.4021940231323242,10.810772895812988,-0.5587241053581238
1710953287230783000,4.401782958984375,1.0636097192764282,11.010573387145996,-0.04187439754605293
1710953287249741000,4.420740966796875,0.9152546525001526,11.211570739746094,0.6699903607368469
1710953287268699100,4.43969921875,1.0959128141403198,10.919646263122559,1.25144624710083
1710953287287657500,4.458657470703125,1.4021940231323242,10.619346618652344,1.667797327041626
1710953287306615600,4.477615478515625,1.4715858697891235,10.470992088317871,1.9417755603790283
1710953287325573600,4.49657373046875,1.490728497505188,10.357333183288574,1.9752750396728516
1710953287344532000,4.515531982421875,1.552941918373108,10.100104331970215,1.7850457429885864
1710953287363490000,4.534489990234375,1.903490424156189,9.489934921264648,1.5637096166610718
1710953287382448000,4.5534482421875,2.252842426300049,8.908478736877441,1.3746765851974487
1710953287401406500,4.572406494140625,2.410768747329712,8.662017822265625,1.2454642057418823
1710953287420364500,4.591364501953125,2.7864420413970947,8.665607452392578,1.0372886657714844
1710953287439322600,4.610322509765625,3.102294445037842,8.657232284545898,0.7465606927871704
1710953287458281000,4.629281005859375,3.713660717010498,8.426324844360352,0.3038884699344635
1710953287477239000,4.648239013671875,3.779463291168213,8.210970878601074,-0.11605189740657806
1710953287496197000,4.667197021484375,3.741178274154663,8.342576026916504,-0.3613162338733673
1710953287515155500,4.686155517578125,3.793820381164551,8.476573944091797,-0.26440688967704773
1710953287534113500,4.705113525390625,3.806980848312378,8.5100736618042,-0.07896314561367035
1710953287553071900,4.72407177734375,3.733999729156494,8.640482902526855,0.18424734473228455
1710953287572030000,4.743030029296875,3.702893018722534,8.810373306274414,0.46420758962631226
1710953287590988000,4.761988037109375,3.7674992084503174,8.780462265014648,0.6604190468788147
1710953287609946400,4.7809462890625,3.7902309894561768,8.663214683532715,0.6592226624488831
1710953287628904400,4.799904541015625,3.6885361671447754,8.645268440246582,0.5479564070701599
1710953287647862500,4.818862548828125,3.5126636028289795,8.740981101989746,0.2799602448940277
1710953287666820900,4.83782080078125,3.463610887527466,8.763712882995605,0.05383851006627083
1710953287685779000,4.856779052734375,3.4887354373931885,8.81396198272705,-0.07657032459974289
1710953287704737000,4.875737060546875,3.407379388809204,9.044869422912598,-0.02153540402650833
1710953287723695400,4.8946953125,3.4432718753814697,9.205188751220703,0.008374879136681557
1710953287742653400,4.9136533203125,3.5018959045410156,9.157332420349121,-0.17946170270442963
1710953287761611800,4.93261181640625,3.445664644241333,9.06999397277832,-0.4414757788181305
1710953287780569900,4.95156982421875,3.4193434715270996,9.080761909484863,-0.5383850932121277
1710953287799528000,4.97052783203125,3.273381471633911,9.049654960632324,-0.4450650215148926
1710953287818486300,4.989486328125,3.0544381141662598,9.20279598236084,-0.48813581466674805
1710953287837444400,5.0084443359375,2.7936203479766846,9.645467758178711,-0.5587241053581238
1710953287856402400,5.02740234375,2.6177480220794678,9.608379364013672,-0.638883650302887
1710953287875360800,5.04636083984375,2.4562325477600098,9.20997428894043,-0.5527420043945312
1710953287894318800,5.06531884765625,2.3617160320281982,8.780462265014648,-0.4630111753940582
1710953287913277200,5.084277099609375,2.1020946502685547,8.662017822265625,-0.5659025311470032
1710953287932235300,5.1032353515625,1.797009825706482,8.933603286743164,-0.9044869542121887
1710953287951193300,5.122193359375,1.5876377820968628,9.481559753417969,-1.2478569746017456
1710953287970151700,5.141151611328125,1.5302101373672485,10.013962745666504,-1.3722838163375854
1710953287989109800,5.16010986328125,1.6426727771759033,10.365707397460938,-1.4333007335662842
1710953288008067800,5.17906787109375,1.7228323221206665,10.503294944763184,-1.397408366203308
1710953288027026200,5.198026123046875,1.6869399547576904,10.467402458190918,-1.2717852592468262
1710953288045984500,5.216984619140625,1.5780665874481201,10.4219388961792,-1.2442678213119507
1710953288064942600,5.235942626953125,1.4656038284301758,10.226923942565918,-1.4536397457122803
1710953288083900700,5.254900634765625,1.4787644147872925,9.749555587768555,-1.848455548286438
1710953288102858800,5.273858642578125,1.5146567821502686,9.479166984558105,-2.128415822982788
1710953288121817000,5.292817138671875,1.5804593563079834,9.54496955871582,-2.3018953800201416
1710953288140775200,5.311775146484375,1.6079767942428589,9.66102123260498,-2.4095723628997803
1710953288159733500,5.3307333984375,1.5026925802230835,9.755537986755371,-2.6081767082214355
1710953288178691600,5.349691650390625,1.542174220085144,9.845269203186035,-2.840280532836914
1710953288197650000,5.36864990234375,1.5912270545959473,9.90149974822998,-3.0245277881622314
1710953288216608000,5.38760791015625,1.5696916580200195,9.834501266479492,-3.0867412090301514
1710953288235566000,5.406566162109375,1.5756736993789673,9.57487964630127,-3.046063184738159
1710953288254524200,5.425524169921875,1.5517455339431763,9.482755661010742,-2.919243574142456
1710953288273482500,5.444482421875,1.5601203441619873,9.56770133972168,-2.6763720512390137
1710953288292440600,5.463440673828125,1.6342978477478027,9.69093132019043,-2.396411895751953
1710953288311399000,5.48239892578125,1.9489539861679077,9.774680137634277,-1.8711873292922974
1710953288330357000,5.50135693359375,2.1068804264068604,9.710074424743652,-1.4273186922073364
1710953288349315300,5.5203154296875,2.073380708694458,9.7005033493042,-1.0564311742782593
1710953288368273400,5.5392734375,2.1535403728485107,9.505488395690918,-0.6149554252624512
1710953288387231500,5.5582314453125,2.200200319290161,9.162117958068848,-0.3074777126312256
1710953288406189800,5.57718994140625,2.0793628692626953,9.084351539611816,-0.17108681797981262
1710953288425148000,5.59614794921875,2.012363910675049,9.164510726928711,-0.10767702013254166
1710953288444106200,5.615106201171875,2.286342144012451,9.058030128479004,0.0023928226437419653
1710953288463064300,5.634064208984375,2.2959132194519043,8.970691680908203,0.04187439754605293
1710953288482022400,5.6530224609375,2.1619153022766113,9.156135559082031,0.07896314561367035
1710953288500980700,5.671980712890625,2.3030917644500732,9.347561836242676,0.13040883839130402
1710953288519938800,5.690938720703125,2.472982168197632,9.358329772949219,0.17347964644432068
1710953288538897200,5.709897216796875,2.472982168197632,9.352347373962402,0.25004997849464417
1710953288557855200,5.728855224609375,2.5256242752075195,9.339186668395996,0.3924229145050049
1710953288576813600,5.7478134765625,2.5328028202056885,9.290133476257324,0.3361915946006775
1710953288595771600,5.766771728515625,2.575873613357544,9.299705505371094,0.2835494875907898
1710953288614729700,5.785729736328125,2.630908489227295,9.174081802368164,0.12921242415905
1710953288633688000,5.80468798828125,2.700300455093384,9.002995491027832,0.037088751792907715
1710953288652646100,5.823646240234375,2.623729944229126,9.147761344909668,-0.029910283163189888
1710953288671604500,5.8426044921875,2.5088746547698975,9.516255378723145,-0.03469592705368996
1710953288690562600,5.8615625,2.4885356426239014,9.640682220458984,0.008374879136681557
1710953288709520600,5.880520751953125,2.5495524406433105,9.538987159729004,0.06340979784727097
1710953288728479000,5.89947900390625,2.5459632873535156,9.507881164550781,0.16031911969184875
1710953288747437300,5.918437255859375,2.417947292327881,9.476774215698242,0.11724831163883209
1710953288766395400,5.9373955078125,2.273181438446045,9.515059471130371,0.07776673883199692
1710953288785353500,5.956353515625,2.287538528442383,9.546165466308594,0.11246266216039658
1710953288804311800,5.975311767578125,2.293520450592041,9.42891788482666,0.22013968229293823
1710953288823270000,5.994269775390625,2.2480568885803223,9.500701904296875,0.3409772217273712
1710953288842228200,6.013228271484375,2.242074728012085,9.732806205749512,0.35533416271209717
1710953288861186300,6.032186279296875,2.2779672145843506,9.737591743469238,0.137587308883667
1710953288880144400,6.051144287109375,2.297109842300415,9.578469276428223,-0.08255238085985184
1710953288899102700,6.070102783203125,2.2097716331481934,9.56650447845459,-0.27756741642951965
1710953288918061000,6.08906103515625,2.221735715866089,9.572486877441406,-0.27038896083831787
1710953288937019100,6.10801904296875,2.276770830154419,9.5533447265625,-0.29790642857551575
1710953288955977200,6.126977294921875,2.2576282024383545,9.437292098999023,-0.2309073805809021
1710953288974935600,6.145935546875,2.245664119720459,9.42173957824707,-0.25722843408584595
1710953288993894000,6.164893798828125,2.1415762901306152,9.358329772949219,-0.22013968229293823
1710953289012852000,6.18385205078125,2.0745773315429688,9.285347938537598,-0.10767702013254166
1710953289031810000,6.20281005859375,1.9728822708129883,9.385847091674805,-0.015553346835076809
1710953289050768400,6.221768310546875,1.95852530002594,9.519845008850098,0.07178468257188797
1710953289069726500,6.2407265625,2.128415822982788,9.594022750854492,0.15553347766399384
1710953289088684800,6.259684814453125,2.097309112548828,9.616754531860352,0.22372891008853912
1710953289107643100,6.27864306640625,1.97407865524292,9.608379364013672,0.26201409101486206
1710953289126601200,6.297601318359375,1.97407865524292,9.601201057434082,0.3194418251514435
1710953289145559300,6.316559326171875,2.073380708694458,9.56770133972168,0.45583271980285645
1710953289164517600,6.335517578125,2.111665964126587,9.506684303283691,0.5527420043945312
1710953289183476000,6.35447607421875,2.0793628692626953,9.53779125213623,0.4977070987224579
1710953289202434000,6.37343408203125,2.0195422172546387,9.56889820098877,0.4486542344093323
1710953289221392400,6.392392333984375,1.9752750396728516,9.602396965026855,0.364905446767807
1710953289240350500,6.4113505859375,1.9262222051620483,9.637093544006348,0.35533416271209717
1710953289259308500,6.43030859375,1.8975083827972412,9.716055870056152,0.4055834412574768
1710953289278267000,6.449266845703125,1.9369899034500122,9.717252731323242,0.5000999569892883
1710953289297225200,6.46822509765625,1.9489539861679077,9.643074989318848,0.5240281820297241
1710953289316183300,6.487183349609375,1.8783657550811768,9.580862045288086,0.5252245664596558
1710953289335141600,6.5061416015625,1.832902193069458,9.580862045288086,0.5335994362831116
1710953289354099700,6.525099609375,1.836491346359253,9.619147300720215,0.5910272002220154
1710953289373058000,6.54405810546875,1.932204246520996,9.631111145019531,0.6173482537269592
1710953289392016400,6.563016357421875,1.9537396430969238,9.570094108581543,0.625723123550415
1710953289410974500,6.581974365234375,1.8843477964401245,9.58325481414795,0.5706881880760193
1710953289429932800,6.600932861328125,1.8424733877182007,9.580862045288086,0.5000999569892883
1710953289448891000,6.619890869140625,1.8795621395111084,9.499505996704102,0.4247260093688965
1710953289467849200,6.63884912109375,1.8699909448623657,9.564111709594727,0.3433700501918793
1710953289486807300,6.657807373046875,1.9250258207321167,9.639486312866211,0.31824541091918945
1710953289505765600,6.676765625,1.9764715433120728,9.58205795288086,0.26919254660606384
1710953289524724000,6.695723876953125,1.8999011516571045,9.467203140258789,0.26440688967704773
1710953289543682000,6.71468212890625,1.8628123998641968,9.375079154968262,0.1698904037475586
1710953289562640400,6.733640380859375,1.8448662757873535,9.300901412963867,0.10767702013254166
1710953289581598500,6.752598388671875,1.8508483171463013,9.324830055236816,0.11605189740657806
1710953289600556800,6.771556884765625,1.8819550275802612,9.415757179260254,0.15194423496723175
1710953289619515100,6.79051513671875,1.8556339740753174,9.524630546569824,0.26440688967704773
1710953289638473200,6.80947314453125,1.8616160154342651,9.608379364013672,0.36729827523231506
1710953289657431600,6.828431640625,1.856830358505249,9.595218658447266,0.4247260093688965
1710953289676390000,6.847389892578125,1.8472590446472168,9.541379928588867,0.4570291340351105
1710953289695348000,6.866347900390625,1.8496519327163696,9.515059471130371,0.4414757788181305
1710953289714306300,6.885306396484375,1.8604196310043335,9.592825889587402,0.47617170214653015
1710953289733264400,6.904264404296875,1.8233308792114258,9.619147300720215,0.5324030518531799
1710953289752222700,6.92322265625,1.8400806188583374,9.622735977172852,0.5180460810661316
1710953289771181000,6.94218115234375,1.8388842344284058,9.607182502746582,0.5383850932121277
1710953289790139400,6.961139404296875,1.8149559497833252,9.614361763000488,0.5288137793540955
1710953289809097500,6.980097412109375,1.7479569911956787,9.649057388305664,0.4785645306110382
1710953289828055800,6.999055908203125,1.7240287065505981,9.687342643737793,0.44745782017707825
1710953289847014100,7.01801416015625,1.7072789669036865,9.722038269042969,0.486939400434494
1710953289865972200,7.03697216796875,1.7359927892684937,9.720842361450195,0.5551348328590393
1710953289884930600,7.0559306640625,1.7515461444854736,9.689735412597656,0.5587241053581238
1710953289903888600,7.074888671875,1.719243049621582,9.681360244750977,0.5455635786056519
1710953289922847000,7.093846923828125,1.7132610082626343,9.66221809387207,0.519242525100708
1710953289941805300,7.112805419921875,1.7288143634796143,9.616754531860352,0.5288137793540955
1710953289960763600,7.131763671875,1.7240287065505981,9.601201057434082,0.5359922647476196
1710953289979722000,7.150721923828125,1.7012969255447388,9.603593826293945,0.5706881880760193
1710953289998680000,7.16968017578125,1.6929219961166382,9.525827407836914,0.5120640397071838
1710953290017638400,7.188638427734375,1.643869161605835,9.597611427307129,0.46420758962631226
1710953290036596700,7.2075966796875,1.7012969255447388,9.640682220458984,0.43190449476242065
1710953290055554800,7.226554931640625,1.770688772201538,9.57487964630127,0.45583271980285645
1710953290074513200,7.24551318359375,1.8041882514953613,9.52941608428955,0.5120640397071838
1710953290093471500,7.264471435546875,1.7587246894836426,9.546165466308594,0.4378865361213684
1710953290112429800,7.283429931640625,1.7324036359786987,9.518648147583008,0.4127618968486786
1710953290131388000,7.302387939453125,1.7419748306274414,9.619147300720215,0.46420758962631226
1710953290150346200,7.32134619140625,1.7515461444854736,9.704092025756836,0.5180460810661316
1710953290169304600,7.3403046875,1.805384635925293,9.708877563476562,0.5359922647476196
1710953290188263000,7.359262939453125,1.8113667964935303,9.694520950317383,0.46420758962631226
1710953290207221000,7.378220947265625,1.820937991142273,9.66939640045166,0.33499518036842346
1710953290226179300,7.397179443359375,1.7754744291305542,9.69093132019043,0.2512463629245758
1710953290245137700,7.4161376953125,1.7910277843475342,9.591629981994629,0.16510476171970367
1710953290264095700,7.435095703125,1.7850457429885864,9.540184020996094,0.15672987699508667
1710953290283054000,7.45405419921875,1.7742780447006226,9.522237777709961,0.17228323221206665
1710953290302012400,7.473012451171875,1.812563180923462,9.485149383544922,0.24885354936122894
1710953290320970800,7.491970703125,1.8496519327163696,9.467203140258789,0.2919243574142456
1710953290339929000,7.51092919921875,1.820937991142273,9.491130828857422,0.2679961323738098
1710953290358887400,7.529887451171875,1.7910277843475342,9.495916366577148,0.1543370634317398
1710953290377845500,7.548845458984375,1.7096717357635498,9.546165466308594,0.07896314561367035
1710953290396803800,7.567803955078125,1.7491533756256104,9.534201622009277,0.11126625537872314
1710953290415762200,7.58676220703125,1.812563180923462,9.492327690124512,0.14835500717163086
1710953290434720500,7.605720458984375,1.8340985774993896,9.463613510131836,0.17228323221206665
1710953290453678600,7.6246787109375,1.8460626602172852,9.534201622009277,0.17706887423992157
1710953290472637000,7.643636962890625,1.872383713722229,9.650253295898438,0.1902294009923935
1710953290491595300,7.66259521484375,1.908276081085205,9.68375301361084,0.19142581522464752
1710953290510553600,7.6815537109375,1.8903298377990723,9.609575271606445,0.1543370634317398
1710953290529512000,7.700511962890625,1.8149559497833252,9.57487964630127,0.11006984114646912
1710953290548470000,7.719469970703125,1.7443677186965942,9.523433685302734,0.1543370634317398
1710953290567428400,7.738428466796875,1.805384635925293,9.527023315429688,0.2727817893028259
1710953290586386700,7.75738671875,1.7682958841323853,9.65503978729248,0.3074777126312256
1710953290605345000,7.776344970703125,1.7563318014144897,9.688538551330566,0.42831525206565857
1710953290624303400,7.795303466796875,1.7407784461975098,9.663414001464844,0.4773681163787842
1710953290643261700,7.81426171875,1.6773686408996582,9.702896118164062,0.41874396800994873
1710953290662220000,7.833219970703125,1.628315806388855,9.732806205749512,0.4247260093688965
1710953290681178000,7.85217822265625,1.688136339187622,9.674181938171387,0.5024927258491516
1710953290700136400,7.871136474609375,1.734796404838562,9.603593826293945,0.5563312768936157
1710953290719094800,7.8900947265625,1.7024933099746704,9.619147300720215,0.5802595019340515
1710953290738053000,7.90905322265625,1.6546368598937988,9.705288887023926,0.576670229434967
1710953290757011500,7.928011474609375,1.6247265338897705,9.719645500183105,0.5599204897880554
1710953290775969800,7.9469697265625,1.6175481081008911,9.66102123260498,0.5742774605751038
1710953290794928000,7.96592822265625,1.6785650253295898,9.65503978729248,0.656829833984375
1710953290813886500,7.984886474609375,1.7228323221206665,9.670592308044434,0.7034898400306702
1710953290832844800,8.0038447265625,1.7407784461975098,9.704092025756836,0.7334001660346985
1710953290851803000,8.022802978515625,1.7204394340515137,9.689735412597656,0.6747759580612183
1710953290870761200,8.04176123046875,1.7276179790496826,9.645467758178711,0.5635097622871399
1710953290889719600,8.060719482421876,1.7084753513336182,9.637093544006348,0.4618147611618042
1710953290908678000,8.079677978515624,1.7204394340515137,9.614361763000488,0.4103690981864929
1710953290927636200,8.09863623046875,1.7778671979904175,9.56889820098877,0.4163511395454407
1710953290946594600,8.117594482421875,1.7766708135604858,9.53659439086914,0.380458801984787
1710953290965553000,8.136552978515626,1.719243049621582,9.494720458984375,0.2847459018230438
1710953290984511200,8.15551123046875,1.7084753513336182,9.497113227844238,0.21774685382843018
1710953291003469600,8.174469482421875,1.7240287065505981,9.519845008850098,0.27756741642951965
1710953291022427600,8.193427734375,1.657029628753662,9.596415519714355,0.38285163044929504
1710953291041386000,8.212385986328124,1.5948163270950317,9.644271850585938,0.43908295035362244
1710953291060344300,8.23134423828125,1.6510475873947144,9.663414001464844,0.4737788736820221
1710953291079302700,8.250302734375,1.6450655460357666,9.65503978729248,0.46779683232307434
1710953291098261000,8.269260986328124,1.6199408769607544,9.67657470703125,0.46420758962631226
1710953291117219300,8.28821923828125,1.667797327041626,9.670592308044434,0.45104706287384033
1710953291136177700,8.307177734375,1.698904037475586,9.614361763000488,0.4127618968486786
1710953291155136000,8.326135986328126,1.7072789669036865,9.67657470703125,0.4295116662979126
1710953291174094300,8.34509423828125,1.698904037475586,9.605986595153809,0.37088751792907715
1710953291193052700,8.364052734375,1.6773686408996582,9.518648147583008,0.3026920557022095
1710953291212011000,8.383010986328125,1.7001005411148071,9.474381446838379,0.16390834748744965
1710953291230969300,8.40196923828125,1.7132610082626343,9.42173957824707,0.1543370634317398
1710953291249927700,8.420927734375,1.7180466651916504,9.452845573425293,0.1698904037475586
1710953291268886000,8.439885986328125,1.6007983684539795,9.58205795288086,0.2356930375099182
1710953291287844400,8.45884423828125,1.5254244804382324,9.633503913879395,0.31106695532798767
1710953291306802700,8.477802734375,1.5840486288070679,9.577272415161133,0.46061834692955017
1710953291325761000,8.496760986328125,1.659422516822815,9.442078590393066,0.6209374666213989
1710953291344719000,8.515718994140625,1.5086746215820312,9.359525680541992,0.7824530005455017
1710953291363677400,8.534677490234374,1.384247899055481,9.34875774383545,0.8446664214134216
1710953291382635800,8.5536357421875,1.3663017749786377,9.381061553955078,0.9332008361816406
1710953291401594000,8.572593994140625,1.2729816436767578,9.445667266845703,1.1485549211502075
1710953291420552400,8.591552490234376,1.073180913925171,9.497113227844238,1.3483555316925049
1710953291439510800,8.6105107421875,0.836291491985321,9.470791816711426,1.3722838163375854
1710953291458469000,8.62946923828125,0.605384111404419,9.42772102355957,1.3100703954696655
1710953291477427500,8.648427490234376,0.5802595019340515,9.385847091674805,1.3040883541107178
1710953291496385800,8.6673857421875,0.5419743061065674,9.460023880004883,1.3160524368286133
1710953291515344100,8.68634423828125,0.5359922647476196,9.56052303314209,1.4380863904953003
1710953291534302500,8.705302490234375,0.5874379873275757,9.708877563476562,1.6307085752487183
1710953291553260800,8.7242607421875,0.5431707501411438,9.796216011047363,1.7288143634796143
1710953291572219100,8.74321923828125,0.4091726839542389,9.811769485473633,1.7575281858444214
1710953291591177500,8.762177490234375,0.6245267391204834,9.91825008392334,1.7730815410614014
1710953291610135800,8.7811357421875,1.074377417564392,9.88833999633789,1.568495273590088
1710953291629094100,8.80009423828125,0.7322037220001221,10.225728034973145,1.5900306701660156
1710953291648052500,8.819052490234375,0.7992027401924133,10.476973533630371,1.6307085752487183
1710953291667010800,8.8380107421875,1.2454642057418823,9.641879081726074,1.7826528549194336
1710953291685969200,8.85696923828125,1.9932212829589844,9.244669914245605,1.9896320104599
1710953291704927500,8.875927490234375,2.1236300468444824,8.93240737915039,2.170290231704712
1710953291723885800,8.8948857421875,2.111665964126587,8.37966537475586,2.197807550430298
1710953291742844200,8.91384423828125,1.9298114776611328,8.00638484954834,1.8747764825820923
1710953291761802500,8.932802490234375,1.734796404838562,8.09252643585205,1.1928220987319946
1710953291780760800,8.9517607421875,1.887937068939209,8.468199729919434,0.7214360237121582
1710953291799719200,8.97071923828125,2.5328028202056885,8.96949577331543,1.2035897970199585
1710953291818677500,8.989677490234374,2.685943365097046,9.122636795043945,2.0614166259765625
1710953291837635800,9.0086357421875,2.2612173557281494,7.865208148956299,2.4873390197753906
1710953291856594200,9.02759423828125,1.7336000204086304,5.7511491775512695,1.9980069398880005
1710953291875552500,9.046552490234374,1.789831280708313,3.9972102642059326,0.5144568681716919
1710953291894510800,9.0655107421875,2.7876384258270264,3.2410783767700195,-0.9487541913986206
1710953291913469200,9.08446923828125,3.5784661769866943,5.50229549407959,-0.8542376756668091
1710953291932427500,9.103427490234376,1.5744773149490356,11.119446754455566,0.13878370821475983
1710953291951385900,9.1223857421875,-0.6089733839035034,15.87159252166748,0.49651068449020386
1710953291970344200,9.14134423828125,1.2574282884597778,15.134603500366211,-0.5276173949241638
1710953291989302500,9.160302490234375,4.063013076782227,13.621143341064453,-1.0253244638442993
1710953292008260900,9.1792607421875,4.432703971862793,15.5294189453125,-0.589830756187439
1710953292027219000,9.198218994140625,2.4945175647735596,15.90150260925293,-0.6364908218383789
1710953292046177300,9.21717724609375,3.0903303623199463,14.06860065460205,-0.3433700501918793
1710953292065135600,9.236135498046876,3.3619158267974854,12.510872840881348,1.5146567821502686
1710953292084094000,9.255093994140625,2.0374884605407715,11.637493133544922,5.4759745597839355
1710953292103052300,9.27405224609375,1.179661512374878,10.319047927856445,7.466803073883057
1710953292122010600,9.2930107421875,0.8757730722427368,9.379864692687988,7.627122402191162
1710953292140969000,9.311968994140624,1.2011969089508057,9.018548965454102,8.007580757141113
1710953292159927300,9.33092724609375,2.0925233364105225,8.248059272766113,7.529016494750977
1710953292178885600,9.3498857421875,2.0518453121185303,6.64486837387085,4.9639105796813965
1710953292197844000,9.368843994140626,0.576670229434967,4.506881237030029,2.8594231605529785
1710953292216802300,9.38780224609375,-1.3758729696273804,2.985046148300171,2.630908489227295
1710953292235760600,9.4067607421875,-2.5591237545013428,3.091526746749878,2.0315065383911133
1710953292254719000,9.425718994140626,-1.3674981594085693,4.12761926651001,1.069591760635376
1710953292273677300,9.44467724609375,0.43908295035362244,5.554937839508057,0.05024927482008934
1710953292292635600,9.4636357421875,-0.15314064919948578,8.236095428466797,0.6041877269744873
1710953292311594200,9.48259423828125,-1.9537396430969238,14.414363861083984,2.8390841484069824
1710953292330552600,9.501552490234374,-2.035095691680908,19.828125,7.720442295074463
1710953292349511000,9.520510986328125,1.6247265338897705,21.099910736083984,10.402796745300293
1710953292368469200,9.53946923828125,3.682554006576538,21.60599136352539,10.53081226348877
1710953292387427600,9.558427490234376,1.195214867591858,25.11387062072754,12.370893478393555
1710953292406386000,9.577385986328125,-3.5808591842651367,25.542184829711914,11.940184593200684
1710953292425344300,9.59634423828125,-0.8003991842269897,20.807985305786133,5.748756408691406
1710953292444302600,9.615302490234376,0.9607182741165161,16.07976722717285,3.0939197540283203
1710953292463261000,9.634260986328124,1.3615161180496216,13.148560523986816,4.833501815795898
1710953292482219300,9.65321923828125,2.0099709033966064,9.184849739074707,4.752145767211914
1710953292501177600,9.672177490234375,2.4670002460479736,3.662214994430542,1.5720844268798828
1710953292520136000,9.691135986328124,1.755135416984558,-0.4486542344093323,-2.117648124694824
1710953292539094300,9.71009423828125,-0.41874396800994873,-1.3124631643295288,-4.377668857574463
1710953292558052600,9.729052490234375,-1.9357935190200806,0.363709032535553,-4.731806755065918
1710953292577011000,9.748010986328126,-1.1389836072921753,1.1126625537872314,-4.107280254364014
1710953292595969300,9.76696923828125,-0.22492532432079315,0.8135597109794617,-3.6406795978546143
1710953292614927600,9.785927734375,0.6939185857772827,-0.21176479756832123,-2.788834810256958
1710953292633886000,9.804885986328125,1.950150489807129,-1.683350682258606,-1.7359927892684937
1710953292652844300,9.82384423828125,1.275374412536621,-1.8496519327163696,-0.519242525100708
1710953292671802600,9.842802734375,-0.833898663520813,0.4821537733078003,1.098305583000183
1710953292690761000,9.861760986328125,-0.33738797903060913,3.9625144004821777,0.4785645306110382
1710953292709719300,9.88071923828125,1.5625132322311401,11.02014446258545,-0.9583254456520081
1710953292728677600,9.899677734375,8.794819831848145,17.11466407775879,-3.260220766067505
1710953292747636000,9.918635986328125,13.222738265991211,19.706090927124023,-2.555534601211548
1710953292766594000,9.937593994140625,11.093125343322754,24.686750411987305,2.0614166259765625
1710953292785552400,9.956552490234374,10.63250732421875,25.0229434967041,1.8759729862213135
1710953292804510700,9.9755107421875,11.157732009887695,19.021743774414062,3.7914273738861084
1710953292823469000,9.994468994140625,9.20279598236084,13.98245906829834,6.260820388793945
1710953292842427400,10.013427490234376,5.4867424964904785,9.473184585571289,4.7988057136535645
1710953292861385700,10.0323857421875,1.191625714302063,5.213960647583008,3.263810157775879
1710953292880344000,10.051343994140625,0.17587246000766754,2.6500511169433594,2.8797619342803955
1710953292899302400,10.070302490234376,0.9176474809646606,0.9822536706924438,3.170490026473999
1710953292918260700,10.0892607421875,0.0729810893535614,-0.7920243144035339,3.2554352283477783
1710953292937219000,10.108218994140625,-1.7611174583435059,-3.053241729736328,3.449253797531128
1710953292956177400,10.127177490234375,-3.6873397827148438,-4.113262176513672,3.434896945953369
1710953292975135700,10.1461357421875,-4.58584451675415,-2.7457640171051025,3.4504501819610596
1710953292994094000,10.165093994140625,-3.7495529651641846,-1.5948163270950317,4.175475597381592
1710953293013052400,10.184052490234375,-2.0099709033966064,-0.7513462901115417,4.212564468383789
1710953293032010800,10.2030107421875,-1.8687944412231445,2.4466612339019775,3.071187973022461
1710953293050969000,10.221968994140624,-0.4773681163787842,9.388239860534668,0.09451649338006973
1710953293069927400,10.240927490234375,2.181057929992676,17.834903717041016,-1.7479569911956787
1710953293088885800,10.2598857421875,0.10767702013254166,26.076980590820312,4.540380954742432
1710953293107844000,10.278843994140624,3.3272199630737305,31.980073928833008,10.89571762084961
1710953293126802400,10.297802490234375,12.262020111083984,29.758338928222656,7.592426300048828
1710953293145760800,10.3167607421875,5.43290376663208,30.18665313720703,10.935199737548828
1710953293164719000,10.335718994140626,2.5842485427856445,28.997421264648438,11.478370666503906
1710953293183677400,10.354677490234375,3.452843189239502,20.056638717651367,6.507281303405762
1710953293202635800,10.3736357421875,3.9936211109161377,11.718849182128906,2.5328028202056885
1710953293221594000,10.392593994140626,3.3846476078033447,6.107679843902588,-0.23449662327766418
1710953293240552400,10.411552490234374,0.607776939868927,2.2360928058624268,-3.562912940979004
1710953293259510800,10.4305107421875,-0.6843472719192505,1.4811571836471558,-7.349554538726807
1710953293278469000,10.44946923828125,-0.8733802437782288,1.5230315923690796,-8.772088050842285
1710953293297427500,10.468427490234374,-0.7728816866874695,0.3122633695602417,-6.545566558837891
1710953293316385800,10.4873857421875,0.12083754688501358,-0.364905446767807,-3.2757742404937744
1710953293335344000,10.50634423828125,1.6295121908187866,-0.45224347710609436,-2.3617160320281982
1710953293354302500,10.525302490234376,2.2983062267303467,-1.1940184831619263,-3.249453067779541
1710953293373260800,10.5442607421875,0.47258245944976807,-1.1736794710159302,-3.4085757732391357
1710953293392219100,10.56321923828125,0.07537391036748886,1.495514154434204,-2.695514678955078
1710953293411177500,10.582177490234375,0.534795880317688,6.915257453918457,-2.2576282024383545
1710953293430135800,10.6011357421875,2.957528829574585,17.880367279052734,0.8111668825149536
1710953293449094100,10.62009423828125,10.490134239196777,23.587249755859375,5.434100151062012
1710953293468052500,10.639052490234375,16.761722564697266,21.5533504486084,3.091526746749878
1710953293487010800,10.6580107421875,13.875978469848633,23.194826126098633,-0.19262222945690155
1710953293505969200,10.67696923828125,8.855836868286133,23.54896354675293,-1.4416756629943848
1710953293524927500,10.695927490234375,5.478367328643799,17.167306900024414,-1.4919248819351196
1710953293543885800,10.7148857421875,2.383251428604126,10.773683547973633,1.0444670915603638
1710953293562844000,10.733843994140624,0.02871387079358101,7.959724426269531,4.308277130126953
1710953293581802200,10.75280224609375,1.8687944412231445,5.676971912384033,6.744170665740967
1710953293600760600,10.771760498046875,2.510071039199829,1.8436698913574219,5.904289722442627
1710953293619719000,10.790718994140626,0.02632104977965355,-1.31365966796875,3.961317777633667
1710953293638677200,10.80967724609375,-3.9625144004821777,-2.376072883605957,2.688336133956909
1710953293657635600,10.828635498046875,-5.437689304351807,-2.073380708694458,3.239881753921509
1710953293676594000,10.847593994140626,-2.885744094848633,-2.616551637649536,6.082555294036865
1710953293695552300,10.86655224609375,-1.8065811395645142,-2.6560330390930176,8.447860717773438
1710953293714510600,10.885510498046875,-2.4227328300476074,-2.0817556381225586,7.421339511871338
1710953293733469000,10.904468994140625,-1.9046868085861206,1.423729419708252,3.8333017826080322
1710953293752427300,10.92342724609375,2.7182464599609375,11.143375396728516,-3.600001573562622
1710953293771385600,10.942385498046875,6.394818305969238,19.397417068481445,-7.167700290679932
1710953293790344000,10.961343994140625,-0.641276478767395,28.426733016967773,1.4763715267181396
1710953293809302300,10.98030224609375,7.15812873840332,33.0915412902832,3.7495529651641846
1710953293828260600,10.999260498046874,12.252448081970215,29.602806091308594,2.7565317153930664
1710953293847219000,11.018218994140625,5.356333255767822,28.645675659179688,6.313462734222412
1710953293866177300,11.03717724609375,5.399404525756836,24.428325653076172,6.573083877563477
1710953293885135600,11.056135498046874,4.95074987411499,16.364513397216797,4.249652862548828
1710953293904094000,11.075093994140625,2.8223342895507812,9.528220176696777,1.3794622421264648
1710953293923052300,11.09405224609375,0.40677985548973083,4.053441524505615,-2.500499725341797
1710953293942010600,11.1130107421875,-1.4105689525604248,1.0516455173492432,-6.508477687835693
1710953293960969000,11.131968994140625,-0.2679961323738098,0.1950150430202484,-9.923035621643066
1710953293979927300,11.15092724609375,-0.4654040038585663,0.1339980661869049,-7.8077802658081055
1710953293998885600,11.1698857421875,0.7501499056816101,0.7728816866874695,-4.9363932609558105
1710953294017844000,11.188843994140624,2.7385854721069336,0.714257538318634,-3.586841106414795
1710953294036802300,11.20780224609375,3.806980848312378,-0.27397820353507996,-3.6119658946990967
1710953294055760600,11.2267607421875,1.9992033243179321,-1.5290136337280273,-4.831109046936035
1710953294074719000,11.245718994140624,-0.21176479756832123,0.26560330390930176,-5.203192710876465
1710953294093677300,11.26467724609375,1.085145115852356,3.9912281036376953,-5.125426292419434
1710953294112635600,11.2836357421875,3.658625841140747,14.9611234664917,-2.486142635345459
1710953294131594000,11.302593994140626,10.268798828125,27.248268127441406,6.894918441772461
1710953294150552300,11.32155224609375,16.074981689453125,22.170698165893555,6.27278470993042
1710953294169510700,11.3405107421875,14.874981880187988,19.743179321289062,-0.4163511395454407
1710953294188468700,11.35946875,8.548358917236328,24.00360107421875,-1.5493526458740234
1710953294207427000,11.378427001953124,6.579065799713135,18.494125366210938,-2.1367905139923096
1710953294226385400,11.397385498046875,3.7698919773101807,12.77886962890625,1.3459627628326416
1710953294245344000,11.416343994140625,0.5252245664596558,7.860422611236572,6.063412666320801
1710953294264302300,11.43530224609375,1.2299108505249023,5.26181697845459,8.264809608459473
1710953294283260700,11.4542607421875,2.8761727809906006,1.3076776266098022,6.4941205978393555
1710953294302219000,11.473218994140625,0.18065811693668365,-1.7694923877716064,2.8941190242767334
1710953294321177300,11.49217724609375,-4.569094657897949,-2.0063817501068115,1.124626636505127
1710953294340135700,11.5111357421875,-5.265406131744385,-0.8075776696205139,3.1992039680480957
1710953294359094000,11.530093994140625,-2.6668007373809814,-0.8183453679084778,7.944170951843262
1710953294378052400,11.54905224609375,-1.2969099283218384,-2.2923240661621094,9.126225471496582
1710953294397010700,11.5680107421875,-2.5076780319213867,-3.0340991020202637,5.912664890289307
1710953294415969000,11.586968994140625,-3.462414264678955,-1.674975872039795,2.4885356426239014
1710953294434927400,11.60592724609375,-3.0233314037323,3.3619158267974854,0.46899324655532837
1710953294453885700,11.6248857421875,1.1748759746551514,14.002798080444336,-3.8333017826080322
1710953294472844000,11.643843994140624,9.223134994506836,25.529024124145508,-7.277770042419434
1710953294491802400,11.66280224609375,1.0348957777023315,34.06661605834961,4.363312244415283
1710953294510760700,11.6817607421875,14.081761360168457,35.66023635864258,5.924628734588623
1710953294529719000,11.700718994140624,6.7692952156066895,30.185457229614258,5.355136871337891
1710953294548677600,11.719677734375,4.595416069030762,27.237499237060547,4.724628448486328
1710953294567636000,11.738635986328125,5.290530681610107,19.03490447998047,4.36091947555542
1710953294586594300,11.75759423828125,2.1379871368408203,11.314461708068848,3.8847475051879883
1710953294605552400,11.776552490234375,-0.3206382393836975,6.363711833953857,0.363709032535553
1710953294624510700,11.7955107421875,-1.4931213855743408,3.631108283996582,-4.074976921081543
1710953294643469300,11.81446923828125,0.32542386651039124,2.093719720840454,-8.097311973571777
1710953294662427600,11.833427734375,1.4057832956314087,0.11844471842050552,-8.900103569030762
1710953294681386000,11.852385986328125,0.5084748268127441,0.38285163044929504,-5.207978248596191
1710953294700344300,11.87134423828125,1.6390835046768188,2.417947292327881,-4.340580463409424
1710953294719302700,11.890302734375,4.482953071594238,1.92741858959198,-4.7234320640563965
1710953294738261000,11.909260986328125,3.294916868209839,0.589830756187439,-4.431507587432861
1710953294757219300,11.92821923828125,-0.0011964113218709826,0.4426721930503845,-4.5475592613220215
1710953294776177700,11.947177734375,0.3361915946006775,2.7553353309631348,-4.280759811401367
1710953294795136300,11.96613623046875,2.0231316089630127,11.327622413635254,-3.4576287269592285
1710953294814094600,11.985094482421875,7.231110095977783,23.857637405395508,0.13878370821475983
1710953294833053000,12.004052978515626,13.893924713134766,23.718854904174805,4.6408796310424805
1710953294852011300,12.02301123046875,13.898710250854492,24.04667091369629,1.628315806388855
1710953294870969600,12.041969482421875,8.038687705993652,26.137998580932617,0.9798609018325806
1710953294889928000,12.060927978515625,4.584648132324219,19.5936279296875,-0.7106683254241943
1710953294908886300,12.07988623046875,1.932204246520996,13.219148635864258,0.9152546525001526
1710953294927844600,12.0988447265625,-0.4905286431312561,7.485945701599121,5.182853698730469
1710953294946803000,12.117802978515625,-0.02512463741004467,3.5928232669830322,6.948757171630859
1710953294965761800,12.13676171875,2.2923240661621094,-0.21774685382843018,6.905686378479004
1710953294984720100,12.15572021484375,1.0157532691955566,-1.9669002294540405,3.933800458908081
1710953295003678500,12.174678466796875,-3.348755359649658,-2.8689942359924316,0.9236295223236084
1710953295022636800,12.19363671875,-4.408775806427002,-0.9619147181510925,1.750349760055542
1710953295041595100,12.21259521484375,-3.0101709365844727,-0.039481572806835175,4.934000492095947
1710953295060553500,12.231553466796875,-1.726421594619751,-1.444068431854248,8.34138011932373
1710953295079512000,12.250511962890625,-1.062413215637207,-1.6342978477478027,8.94556713104248
1710953295098470400,12.269470458984374,-2.2229323387145996,-0.5575276613235474,5.973681926727295
1710953295117428700,12.2884287109375,-0.4307080805301666,6.068198204040527,0.3242274820804596
1710953295136387000,12.307386962890625,9.883553504943848,20.1284236907959,-9.592825889587402
1710953295155345700,12.326345703125,2.5459632873535156,29.565715789794922,-5.219942569732666
1710953295174304000,12.345303955078125,5.338387489318848,30.923643112182617,-0.3888336718082428
1710953295193262300,12.364262451171875,9.77707290649414,30.88775062561035,0.9810572862625122
1710953295212220700,12.383220703125,3.4983067512512207,28.69712257385254,2.445464849472046
1710953295231179000,12.402178955078124,3.9218363761901855,25.1366024017334,5.020142078399658
1710953295250137300,12.421137451171875,4.72582483291626,18.781265258789062,7.825726509094238
1710953295269095700,12.440095703125,0.22971096634864807,11.397014617919922,5.759523868560791
1710953295288054300,12.45905419921875,0.013160524889826775,5.577669620513916,0.20099709928035736
1710953295307012600,12.4780126953125,-0.503689169883728,2.2121646404266357,-4.899304389953613
1710953295325971000,12.496970947265625,1.0193424224853516,1.1545369625091553,-9.355937004089355
1710953295344929300,12.51592919921875,-0.36729827523231506,0.1902294009923935,-8.147561073303223
1710953295363887900,12.534887939453125,0.27397820353507996,1.537388563156128,-5.6685967445373535
1710953295382846000,12.553845947265625,3.0616166591644287,2.726621389389038,-5.9545392990112305
1710953295401804500,12.572804443359376,4.408775806427002,1.1425727605819702,-4.6372904777526855
1710953295420763000,12.591762939453124,3.036491870880127,0.07896314561367035,-4.581058979034424
1710953295439721200,12.61072119140625,-1.0061819553375244,1.1377872228622437,-6.177071571350098
1710953295458679800,12.6296796875,0.8207381963729858,5.621936798095703,-5.54177713394165
1710953295477638100,12.64863818359375,4.383651256561279,16.677974700927734,-3.9158542156219482
1710953295496596500,12.667596435546875,13.806586265563965,27.07837677001953,2.678765058517456
1710953295515554800,12.686554931640625,15.346367835998535,23.848066329956055,3.4791641235351562
1710953295534513200,12.70551318359375,8.909674644470215,24.67119789123535,2.014756679534912
1710953295553471700,12.7244716796875,4.357329845428467,20.93839454650879,-0.5324030518531799
1710953295572430000,12.74343017578125,2.1822543144226074,14.541183471679688,-0.02273181453347206
1710953295591388400,12.762388427734376,0.14835500717163086,11.009376525878906,4.917250633239746
1710953295610346800,12.7813466796875,0.3936193287372589,7.53858757019043,9.038887977600098
1710953295629305300,12.800305419921875,2.7218358516693115,2.2301106452941895,8.72782039642334
1710953295648263700,12.819263671875,0.5946164131164551,-2.592623233795166,5.67338228225708
1710953295667222000,12.838221923828126,-3.82373046875,-4.242474555969238,2.7182464599609375
1710953295686180400,12.857180419921875,-5.72123908996582,-2.2372891902923584,1.7072789669036865
1710953295705139000,12.876138916015625,-4.628915309906006,-0.7573283910751343,5.357530117034912
1710953295724097300,12.89509716796875,-3.6227335929870605,-1.3076776266098022,9.364311218261719
1710953295743055600,12.9140556640625,-2.3820550441741943,-2.4131617546081543,8.366504669189453
1710953295762014200,12.93301416015625,-2.612962245941162,-2.4634108543395996,5.8851470947265625
1710953295780972500,12.95197265625,-3.3104701042175293,1.1186445951461792,3.1788649559020996
1710953295799931000,12.970930908203124,1.836491346359253,14.31625747680664,-4.741377830505371
1710953295818889200,12.98988916015625,6.894918441772461,29.376684188842773,-7.354340553283691
1710953295837847800,13.008847900390625,0.34576287865638733,36.367313385009766,-0.02512463741004467
1710953295856806100,13.02780615234375,11.606386184692383,34.309486389160156,2.200200319290161
1710953295875764500,13.046764404296875,5.911468505859375,28.82872772216797,2.1403799057006836
1710953295894723000,13.06572314453125,3.768695592880249,28.32503890991211,7.9621171951293945
1710953295913681400,13.084681396484376,5.213960647583008,20.32583236694336,9.280562400817871
1710953295932639700,13.1036396484375,-0.038285162299871445,11.729616165161133,5.653043270111084
1710953295951598000,13.12259814453125,0.10169496387243271,5.224728107452393,-0.8865407705307007
1710953295970556700,13.141556640625,-0.0323031060397625,1.674975872039795,-6.553941249847412
1710953295989515000,13.160514892578124,-0.760917603969574,1.8089739084243774,-10.417153358459473
1710953296008473600,13.1794736328125,-0.8554341197013855,0.4163511395454407,-10.750951766967773
1710953296027432000,13.198431884765625,0.9080761671066284,0.3445664644241333,-7.765905857086182
1710953296046390300,13.217390380859374,2.2408783435821533,0.3326023519039154,-5.172086238861084
1710953296065348600,13.2363486328125,1.9716858863830566,0.18783657252788544,-4.676771640777588
1710953296084307200,13.25530712890625,2.210968017578125,0.5252245664596558,-5.3694939613342285
1710953296103265500,13.274265625,0.6197410821914673,0.5060819983482361,-5.458028316497803
1710953296122223900,13.293223876953125,-0.4582255482673645,5.54177713394165,-4.758127689361572
1710953296141182200,13.31218212890625,3.548556089401245,19.994426727294922,-1.5565310716629028
1710953296160140800,13.331140869140626,12.232109069824219,30.245277404785156,4.299902439117432
1710953296179099100,13.35009912109375,16.725830078125,20.2552433013916,0.9655039310455322
1710953296198057700,13.3690576171875,9.186046600341797,25.270599365234375,-2.245664119720459
1710953296217016000,13.38801611328125,2.8139593601226807,24.122045516967773,-2.7864420413970947
1710953296235974400,13.406974365234374,1.7635103464126587,16.108482360839844,-2.4837498664855957
1710953296254932700,13.4259326171875,-0.5635097622871399,11.716456413269043,2.7864420413970947
1710953296273891300,13.444891357421875,-1.6474584341049194,7.159325122833252,7.909475326538086
1710953296292849700,13.463849609375,0.38644084334373474,3.0233314037323,9.066405296325684
1710953296311808300,13.482808349609375,0.97148597240448,-0.7190431952476501,7.988438606262207
1710953296330766600,13.5017666015625,-2.8007988929748535,-2.431107759475708,4.596612453460693
1710953296349725000,13.520724853515626,-5.8719868659973145,-2.0554347038269043,1.698904037475586
1710953296368683300,13.539683349609374,-3.6873397827148438,-0.09212367236614227,4.109673023223877
1710953296387641900,13.558641845703125,-1.179661512374878,-1.5672988891601562,8.486145973205566
1710953296406600200,13.57760009765625,-2.1296122074127197,-3.3367912769317627,9.142974853515625
1710953296425558800,13.596558837890624,-3.6155550479888916,-3.434896945953369,6.3601226806640625
1710953296444517000,13.61551708984375,-4.295116424560547,-0.6556333899497986,4.277170658111572
1710953296463475500,13.634475341796875,-3.249453067779541,7.200003147125244,0.3290131092071533
1710953296482434000,13.65343408203125,4.9435715675354,23.51187515258789,-8.640482902526855
1710953296501392400,13.672392333984375,6.082555294036865,34.91487121582031,-2.403590440750122
1710953296520351000,13.69135107421875,5.848058700561523,36.00719451904297,5.749952793121338
1710953296539309300,13.710309326171876,12.56112289428711,33.973297119140625,3.950550079345703
1710953296558267600,13.729267578125,4.280759811401367,28.68874740600586,5.8923258781433105
1710953296577226000,13.74822607421875,6.099305152893066,23.716461181640625,5.875576019287109
1710953296596184600,13.7671845703125,2.6524438858032227,15.550954818725586,5.839683532714844
1710953296615143000,13.786142822265624,0.592223584651947,7.404589653015137,1.710868239402771
1710953296634101500,13.8051015625,1.160519003868103,0.7537391185760498,-3.7746777534484863
1710953296653059800,13.824059814453125,0.607776939868927,0.747757077217102,-8.919246673583984
1710953296672018200,13.84301806640625,0.004785645287483931,1.8664016723632812,-11.182856559753418
1710953296690976500,13.8619765625,0.7345965504646301,2.3952155113220215,-8.059026718139648
1710953296709935000,13.88093505859375,2.0829520225524902,1.5038890838623047,-4.429114818572998
1710953296728893400,13.8998935546875,3.0999016761779785,0.6484549641609192,-2.7254250049591064
1710953296747852000,13.91885205078125,3.6299118995666504,0.4331009089946747,-3.617947816848755
1710953296766810400,13.937810302734375,1.3459627628326416,1.058824062347412,-4.983053207397461
1710953296785768700,13.956768798828126,0.10648060590028763,2.544766902923584,-5.700900077819824
1710953296804727300,13.975727294921874,0.8877372145652771,8.181060791015625,-4.691128730773926
1710953296823685600,13.994685546875,5.498706340789795,23.079971313476562,-0.5718846321105957
1710953296842644000,14.01364404296875,15.000605583190918,26.464618682861328,7.6390862464904785
1710953296861602600,14.0326025390625,18.28594970703125,18.352949142456055,1.9573289155960083
1710953296880561000,14.051560791015625,9.58325481414795,22.090538024902344,-0.7645068168640137
1710953296899519200,14.070519287109375,3.9936211109161377,18.394824981689453,-2.420340061187744
1710953296918477800,14.089477783203124,1.6689938306808472,12.881760597229004,-1.1772687435150146
1710953296937436200,14.108436279296875,0.24047867953777313,8.461020469665527,4.8502516746521
1710953296956394500,14.12739453125,0.9260223507881165,5.053641319274902,7.607979774475098
1710953296975353000,14.14635302734375,1.207179069519043,1.2263215780258179,6.5766730308532715
1710953296994311400,14.1653115234375,-0.6448656916618347,-1.4189438819885254,3.9792640209198
1710953297013269800,14.184269775390625,-3.5880374908447266,-0.833898663520813,2.5399811267852783
1710953297032228400,14.203228271484376,-4.433900356292725,0.22372891008853912,4.431507587432861
1710953297051186700,14.222186767578124,-2.825923442840576,-0.24885354936122894,8.11406135559082
1710953297070145000,14.24114501953125,-2.4993033409118652,-2.4358935356140137,10.752148628234863
1710953297089103600,14.260103515625,-2.757728099822998,-4.981856822967529,9.279366493225098
1710953297108062000,14.27906201171875,-4.485345840454102,-4.095315933227539,6.161518096923828
1710953297127020500,14.2980205078125,-3.8668015003204346,3.8596229553222656,1.262213945388794
1710953297145979000,14.316978759765625,7.204789161682129,23.211576461791992,-9.483952522277832
1710953297164937200,14.335937255859376,1.3244273662567139,39.05325698852539,-4.49252462387085
1710953297183895600,14.3548955078125,8.685946464538574,34.66841125488281,3.638286828994751
1710953297202854100,14.373854248046875,12.707084655761719,32.79004669189453,0.11246266216039658
1710953297221812500,14.3928125,6.168696880340576,29.231918334960938,3.9864425659179688
1710953297240771000,14.41177099609375,6.821937561035156,24.67717933654785,7.365108013153076
1710953297259729400,14.4307294921875,5.114658355712891,16.00439453125,7.037291526794434
1710953297278687700,14.449687744140626,0.6173482537269592,8.34736156463623,2.3306093215942383
1710953297297646000,14.46864599609375,0.41994038224220276,2.823530673980713,-3.7016966342926025
1710953297316604700,14.487604736328125,-0.06340979784727097,-0.19740787148475647,-9.035298347473145
1710953297335563000,14.50656298828125,-0.0011964113218709826,-0.2273181527853012,-11.21515941619873
1710953297354521600,14.525521484375,0.9607182741165161,0.8805587291717529,-9.109476089477539
1710953297373480000,14.54447998046875,2.612962245941162,1.588834285736084,-6.957131862640381
1710953297392438300,14.563438232421875,4.599005222320557,1.7168502807617188,-5.481956481933594
1710953297411396900,14.58239697265625,3.366701364517212,2.2265214920043945,-4.241278171539307
1710953297430355200,14.601355224609375,2.306680917739868,2.520838737487793,-4.1383867263793945
1710953297449313500,14.6203134765625,0.8398807644844055,2.5914268493652344,-5.944967746734619
1710953297468272000,14.639272216796876,0.4091726839542389,8.096115112304688,-6.087340831756592
1710953297487230500,14.65823046875,5.461617469787598,26.864219665527344,-0.28594231605529785
1710953297506188800,14.677188720703125,14.69671630859375,29.515466690063477,9.44447135925293
1710953297525147400,14.6961474609375,16.832311630249023,17.971294403076172,3.589233875274658
1710953297544105700,14.715105712890624,8.243273735046387,21.623937606811523,0.7441678643226624
1710953297563064000,14.73406396484375,3.462414264678955,19.408184051513672,0.17946170270442963
1710953297582022700,14.753022705078125,2.0506489276885986,12.66042423248291,0.20937198400497437
1710953297600981000,14.77198095703125,0.3577269911766052,6.732206344604492,4.48414945602417
1710953297619939300,14.790939208984375,1.210768222808838,3.4947173595428467,6.640082836151123
1710953297638897700,14.809897705078125,0.7345965504646301,0.6616154313087463,6.424728870391846
1710953297657856300,14.828856201171876,-1.5098711252212524,-2.693121910095215,4.028316974639893
1710953297676814600,14.847814697265624,-3.568894863128662,-3.1932218074798584,2.3533411026000977
1710953297695773200,14.866773193359375,-4.444668292999268,-0.8003991842269897,3.5928232669830322
1710953297714731500,14.8857314453125,-2.682354211807251,0.4414757788181305,6.977470874786377
1710953297733689900,14.90468994140625,-2.117648124694824,-1.1736794710159302,9.001798629760742
1710953297752648200,14.923648193359375,-3.0999016761779785,-2.977867841720581,7.195217609405518
1710953297771606800,14.942606689453125,-4.510470867156982,-2.4909284114837646,4.9124650955200195
1710953297790565000,14.961565185546876,-4.526023864746094,1.9405791759490967,3.205185890197754
1710953297809523500,14.9805234375,2.7864420413970947,15.231512069702148,-3.5533416271209717
1710953297828481800,14.999481689453125,10.496116638183594,30.69273567199707,-6.489335060119629
1710953297847440400,15.0184404296875,-0.41874396800994873,35.645877838134766,2.2755744457244873
1710953297866398700,15.037398681640624,13.889139175415039,33.621551513671875,3.2757742404937744
1710953297885357300,15.056357421875,5.472385406494141,28.109683990478516,1.2957134246826172
1710953297904315600,15.075315673828126,3.219542980194092,25.962125778198242,6.524031162261963
1710953297923274000,15.09427392578125,5.103890895843506,18.626928329467773,7.086344242095947
1710953297942232300,15.113232421875,1.8975083827972412,10.762916564941406,4.478167533874512
1710953297961191000,15.13219091796875,0.672383189201355,3.9493536949157715,-1.140179991722107
1710953297980149200,15.151149169921876,1.054038405418396,0.625723123550415,-7.34476900100708
1710953297999107600,15.170107666015625,-0.5407779216766357,1.6474584341049194,-11.746366500854492
1710953298018066200,15.189066162109375,-1.1365907192230225,2.324627161026001,-10.64806079864502
1710953298037024500,15.2080244140625,1.8664016723632812,1.568495273590088,-6.484549522399902
1710953298055982800,15.22698291015625,3.4133615493774414,0.13040883839130402,-4.808377265930176
1710953298074941200,15.245941162109375,3.4025938510894775,-1.1509476900100708,-5.587240695953369
1710953298093899800,15.264899658203126,1.301695466041565,1.6546368598937988,-5.266602516174316
1710953298112858000,15.283858154296874,1.5014961957931519,4.548755645751953,-6.662814617156982
1710953298131816400,15.30281640625,4.577469825744629,17.180465698242188,-4.30588436126709
1710953298150775000,15.321775146484375,13.562519073486328,31.953754425048828,5.517848968505859
1710953298169733400,15.3407333984375,16.1970157623291,19.567306518554688,1.4883357286453247
1710953298188691700,15.359691650390625,9.787840843200684,24.16631317138672,-1.2430713176727295
1710953298207650000,15.378650146484375,5.0943193435668945,23.966510772705078,-3.001796007156372
1710953298226608600,15.397608642578126,3.326023578643799,17.10628890991211,-2.4670002460479736
1710953298245567000,15.41656689453125,0.8578268885612488,13.464412689208984,2.6560330390930176
1710953298264525300,15.435525390625,-0.49292147159576416,9.850054740905762,7.793423175811768
1710953298283484000,15.45448388671875,0.5874379873275757,3.809373617172241,7.534998416900635
1710953298302442200,15.473442138671874,0.363709032535553,-0.7214360237121582,5.946164131164551
1710953298321400600,15.492400634765625,-2.482553482055664,-2.5914268493652344,3.9876389503479004
1710953298340359000,15.51135888671875,-5.375475883483887,-1.9357935190200806,2.9001009464263916
1710953298359317500,15.5303173828125,-4.030709743499756,-0.849452018737793,5.401797294616699
1710953298378275800,15.54927587890625,-2.0195422172546387,-1.521835207939148,9.617950439453125
1710953298397234200,15.568234130859375,-3.1214370727539062,-2.740978240966797,10.490134239196777
1710953298416192800,15.58719287109375,-4.628915309906006,-3.073580741882324,7.8388872146606445
1710953298435150800,15.60615087890625,-5.018945693969727,-1.5565310716629028,5.108676433563232
1710953298454109400,15.625109375,-3.1992039680480957,4.603790760040283,1.3950155973434448
1710953298473067800,15.64406787109375,5.07517671585083,20.23131561279297,-7.878368377685547
1710953298492026000,15.663026123046874,4.070191383361816,33.66342544555664,-7.932207107543945
1710953298510984700,15.681984619140625,1.9298114776611328,34.81916046142578,3.6705899238586426
1710953298529943000,15.700943115234375,15.78664779663086,34.03192138671875,0.8901300430297852
1710953298548901400,15.7199013671875,4.260420799255371,31.57688331604004,7.165307521820068
1710953298567859700,15.738859619140625,6.439085960388184,27.694528579711914,12.019147872924805
1710953298586818300,15.757818359375,7.403393268585205,16.157535552978516,8.499305725097656
1710953298605776600,15.776776611328126,4.286741733551025,8.209774017333984,4.517649173736572
1710953298624735000,15.79573486328125,1.2526426315307617,3.298506021499634,-1.950150489807129
1710953298643693600,15.814693603515625,-1.6378871202468872,1.144965648651123,-8.47178840637207
1710953298662652000,15.83365185546875,-3.2410783767700195,0.7968099117279053,-12.17228889465332
1710953298681610200,15.8526103515625,-0.7393822073936462,1.994417667388916,-9.723235130310059
1710953298700568600,15.871568603515625,3.1178479194641113,2.3306093215942383,-5.54177713394165
1710953298719527000,15.89052685546875,4.695914268493652,1.451246976852417,-4.086941242218018
1710953298738485500,15.909485595703124,3.768695592880249,2.3976082801818848,-3.0903303623199463
1710953298757443800,15.92844384765625,2.063809633255005,2.4287149906158447,-3.4504501819610596
1710953298776402200,15.947402099609375,0.7226324677467346,1.290927767753601,-5.19960355758667
1710953298795360800,15.96636083984375,-0.24646073579788208,5.772684574127197,-5.210371494293213
1710953298814319000,15.985319091796875,5.808577060699463,22.188644409179688,-1.2957134246826172
1710953298833277400,16.00427734375,16.558332443237305,31.76591682434082,12.16391372680664
1710953298852235800,16.02323583984375,18.244075775146484,17.9760799407959,6.014359951019287
1710953298871194000,16.042194091796876,9.359525680541992,17.216358184814453,1.5326029062271118
1710953298890152700,16.061152587890625,4.687539577484131,18.003597259521484,-1.1377872228622437
1710953298909111000,16.080111083984374,3.022135019302368,13.280165672302246,-1.1772687435150146
1710953298928069400,16.0990693359375,2.1894326210021973,8.008777618408203,3.748356580734253
1710953298947028000,16.118028076171875,2.100898265838623,3.7842490673065186,6.076572895050049
1710953298965986300,16.136986328125,0.5742774605751038,1.196411371231079,4.438685894012451
1710953298984944600,16.155944580078124,-2.139183521270752,-1.2454642057418823,2.462214469909668
1710953299003903000,16.174903076171876,-2.7625136375427246,-1.3878371715545654,2.7110681533813477
1710953299022861300,16.193861328125,-2.9934210777282715,0.6125625967979431,6.09332275390625
1710953299041820000,16.21281982421875,-1.781456470489502,0.39601215720176697,8.891729354858398
1710953299060778200,16.2317783203125,-1.7132610082626343,-2.1786649227142334,9.276973724365234
1710953299079736600,16.250736572265627,-3.675375461578369,-4.034298896789551,6.981060028076172
1710953299098695000,16.26969482421875,-4.060619831085205,-3.8488552570343018,3.955335855484009
1710953299117653500,16.288653564453124,-4.364508628845215,0.5276173949241638,2.414358139038086
1710953299136611800,16.30761181640625,-0.27397820353507996,12.686745643615723,-1.664208173751831
1710953299155570200,16.326570068359374,8.37846851348877,31.853254318237305,-7.503891944885254
1710953299174528800,16.34552880859375,4.258028030395508,36.07538986206055,7.033702373504639
1710953299193487000,16.364487060546875,18.104095458984375,33.4337158203125,6.6939215660095215
1710953299212445400,16.383445556640623,6.69990348815918,28.609783172607422,0.8327022790908813
1710953299231403800,16.40240380859375,4.880161762237549,27.004199981689453,2.583052158355713
1710953299250362400,16.4213623046875,5.928217887878418,19.917856216430664,3.67657208442688
1710953299269320700,16.44032080078125,3.463610887527466,11.515459060668945,3.5018959045410156
1710953299288279000,16.459279052734374,2.3054845333099365,3.4815568923950195,0.020338991656899452
1710953299307237600,16.478237548828126,0.21176479756832123,-0.35413774847984314,-4.526023864746094
1710953299326196000,16.497196044921875,0.9224331378936768,0.6891329288482666,-7.989634990692139
1710953299345154300,16.516154296875,1.171286702156067,1.7419748306274414,-9.830911636352539
1710953299364112600,16.535112548828124,2.462214469909668,2.809173822402954,-7.623532772064209
1710953299383071200,16.5540712890625,4.067798614501953,2.912065267562866,-5.776273727416992
1710953299402029600,16.573029541015625,4.17427921295166,2.214557409286499,-5.096712112426758
1710953299420988000,16.59198779296875,2.262413740158081,1.3076776266098022,-4.744967460632324
1710953299439946500,16.610946533203126,0.8614161610603333,1.7216359376907349,-5.029713153839111
1710953299458904800,16.62990478515625,0.9451649188995361,6.333801746368408,-4.692325115203857
1710953299477863200,16.64886328125,5.601597785949707,23.20200538635254,-1.25144624710083
1710953299496821800,16.66782177734375,14.356935501098633,29.682964324951172,9.285347938537598
1710953299515780000,16.686780029296877,18.80638885498047,16.663616180419922,2.770888566970825
1710953299534738400,16.705738525390625,9.53779125213623,19.61875343322754,-1.0085747241973877
1710953299553697000,16.724697021484374,4.265206336975098,18.893728256225586,-3.1178479194641113
1710953299572655400,16.7436552734375,2.6392834186553955,12.081361770629883,-2.530410051345825
1710953299591613700,16.76261376953125,0.4331009089946747,7.308876991271973,3.937389612197876
1710953299610572000,16.781572021484376,-0.32183465361595154,4.5236310958862305,8.361719131469727
1710953299629530600,16.800530517578125,-0.1866401731967926,2.159522533416748,8.181060791015625
1710953299648489000,16.819489013671873,-1.9453648328781128,-1.3519448041915894,5.351547718048096
1710953299667447600,16.838447509765626,-4.5714874267578125,-1.6067804098129272,4.152743816375732
1710953299686406000,16.857406005859374,-4.71027135848999,0.014356935396790504,5.952146530151367
1710953299705364200,16.8763642578125,-2.5591237545013428,0.4486542344093323,8.958727836608887
1710953299724322800,16.89532275390625,-2.2719850540161133,-1.9202401638031006,9.957731246948242
1710953299743281200,16.91428125,-3.5928232669830322,-3.6849467754364014,7.905886173248291
1710953299762239500,16.933239501953125,-4.809573650360107,-2.421536445617676,4.852644443511963
1710953299781198000,16.952197998046874,-4.790431022644043,3.799802303314209,1.7730815410614014
1710953299800156400,16.971156494140626,0.6424728631973267,19.396221160888672,-5.292923450469971
1710953299819114800,16.99011474609375,3.3308091163635254,39.77349853515625,-7.089933395385742
1710953299838073300,17.0090732421875,4.222135543823242,32.878578186035156,7.417750358581543
1710953299857031700,17.02803173828125,18.781265258789062,27.851259231567383,2.0338993072509766
1710953299875990000,17.046989990234376,3.8943188190460205,27.147769927978516,3.751945972442627
1710953299894948600,17.065948486328125,3.9457645416259766,27.135805130004883,9.07717227935791
1710953299913907000,17.084906982421874,7.183253765106201,17.204395294189453,6.4354963302612305
1710953299932865500,17.103865478515626,4.271188259124756,9.232706069946289,3.913461446762085
1710953299951824000,17.122823974609375,1.9956140518188477,3.504288673400879,-1.6558332443237305
1710953299970782200,17.1417822265625,0.12083754688501358,1.1736794710159302,-7.2921271324157715
1710953299989740800,17.16074072265625,0.0526420995593071,1.832902193069458,-9.701699256896973
1710953300008699100,17.17969921875,0.3720839321613312,1.459621787071228,-8.23250675201416
1710953300027657700,17.19865771484375,2.094916343688965,1.8795621395111084,-5.834897994995117
1710953300046616000,17.217615966796874,4.3788652420043945,2.469393014907837,-4.31306266784668
1710953300065574400,17.236574462890626,3.8727834224700928,2.372483730316162,-3.9314076900482178
1710953300084533000,17.255532958984375,1.7240287065505981,2.172683000564575,-5.1804609298706055
1710953300103491300,17.2744912109375,0.30628129839897156,2.4849462509155273,-6.197410583496094
1710953300122450000,17.293449951171876,0.6759724020957947,8.787641525268555,-4.34536600112915
1710953300141408300,17.312408203125,5.058426856994629,23.90669059753418,0.7034898400306702
1710953300160366600,17.33136669921875,13.503894805908203,28.911279678344727,10.999805450439453
1710953300179325200,17.3503251953125,17.56451416015625,16.698312759399414,4.722235679626465
1710953300198283500,17.369283447265627,9.42891788482666,19.777875900268555,0.7752745151519775
1710953300217242000,17.3882421875,4.17427921295166,18.04786491394043,-2.0315065383911133
1710953300236200400,17.407200439453124,1.5194423198699951,11.827722549438477,-2.6907291412353516
1710953300255158800,17.42615869140625,0.05024927482008934,6.586244106292725,1.856830358505249
1710953300274117400,17.445117431640625,0.6137589812278748,4.957928657531738,6.151947021484375
1710953300293075700,17.46407568359375,-0.02871387079358101,2.4993033409118652,6.819544315338135
1710953300312034300,17.483034423828126,-2.255235433578491,1.069591760635376,6.149554252624512
1710953300330992600,17.50199267578125,-4.0797624588012695,0.4163511395454407,5.720042705535889
1710953300349951000,17.520950927734376,-2.946761131286621,-0.33379876613616943,7.226324558258057
1710953300368909600,17.53990966796875,-1.8999011516571045,-1.6965112686157227,9.623932838439941
1710953300387868200,17.5588681640625,-2.968296527862549,-4.2006001472473145,9.53659439086914
1710953300406826500,17.577826416015625,-3.765106439590454,-4.756931304931641,6.550352096557617
1710953300425784800,17.596784912109374,-4.309473514556885,-2.0231316089630127,4.225724697113037
1710953300444743400,17.615743408203127,-3.8739798069000244,5.894718647003174,1.3627125024795532
1710953300463701800,17.63470166015625,5.051248550415039,22.004396438598633,-6.697510719299316
1710953300482660400,17.653660400390624,4.744967460632324,36.11367416381836,-3.3607194423675537
1710953300501618700,17.67261865234375,7.3914289474487305,34.96512222290039,5.6685967445373535
1710953300520577300,17.691577392578125,11.913864135742188,30.01078224182129,-0.0849452018737793
1710953300539535600,17.71053564453125,4.0666022300720215,27.378677368164062,-0.5694918036460876
1710953300558494200,17.729494140625,5.985645771026611,24.314666748046875,3.8632121086120605
1710953300577452500,17.74845263671875,6.93320369720459,15.702898979187012,6.437889099121094
1710953300596411000,17.767410888671876,4.045066833496094,8.015955924987793,4.42193603515625
1710953300615369500,17.786369384765624,1.2478569746017456,3.535395383834839,-1.5170495510101318
1710953300634328000,17.805328125,-0.8542376756668091,1.451246976852417,-6.55992317199707
1710953300653286400,17.824286376953125,-0.5252245664596558,0.22851456701755524,-10.728219985961914
1710953300672244700,17.84324462890625,0.02153540402650833,0.02273181453347206,-9.773484230041504
1710953300691203300,17.862203369140627,2.8414769172668457,1.4608181715011597,-6.7417778968811035
1710953300710162000,17.881161865234375,4.8059844970703125,2.0135602951049805,-4.490131855010986
1710953300729120300,17.900120361328124,3.559323787689209,1.7682958841323853,-3.1896326541900635
1710953300748078600,17.91907861328125,1.604387640953064,2.3533411026000977,-3.3990044593811035
1710953300767037200,17.938037109375,1.3674981594085693,5.647061347961426,-3.7292141914367676
1710953300785995800,17.956995849609374,4.82751989364624,19.451255798339844,-1.2957134246826172
1710953300804954000,17.9759541015625,13.103096961975098,25.196422576904297,5.0117669105529785
1710953300823912400,17.994912353515623,17.41615867614746,16.244873046875,-0.064606212079525
1710953300842871000,18.01387109375,10.992627143859863,19.497915267944336,-1.0827522277832031
1710953300861829600,18.03282958984375,5.2354960441589355,18.98106575012207,-2.5351955890655518
1710953300880788000,18.0517880859375,3.67657208442688,14.20738410949707,-0.849452018737793
1710953300899746300,18.070746337890625,1.9154545068740845,10.333404541015625,4.304687976837158
1710953300918705000,18.089704833984374,1.1676974296569824,5.773880958557129,7.994420528411865
1710953300937663500,18.10866357421875,0.5204389095306396,2.2504496574401855,6.484549522399902
1710953300956621800,18.127621826171875,-1.6701902151107788,0.05742774158716202,4.076173305511475
1710953300975580400,18.146580322265624,-3.4983067512512207,0.007178467698395252,2.6368906497955322
1710953300994538800,18.165538818359376,-3.671786308288574,-0.380458801984787,4.2723846435546875
1710953301013497300,18.184497314453125,-2.2600209712982178,-0.20338992774486542,8.221738815307617
1710953301032455700,18.20345556640625,-2.6189444065093994,-1.7479569911956787,10.992627143859863
1710953301051414300,18.222414306640626,-3.4085757732391357,-3.5377883911132812,9.92542839050293
1710953301070372600,18.24137255859375,-3.5748770236968994,-2.562713146209717,6.4187469482421875
1710953301089331200,18.260331298828124,-3.627519130706787,3.425325632095337,2.2085752487182617
1710953301108289500,18.27928955078125,4.021138668060303,18.789640426635742,-7.012166976928711
1710953301127248100,18.298248046875,1.5014961957931519,36.787254333496094,-6.672386169433594
1710953301146206700,18.317206787109374,2.4095723628997803,32.0267333984375,4.113262176513672
1710953301165165000,18.3361650390625,15.183655738830566,29.25345230102539,-0.3613162338733673
1710953301184123600,18.35512353515625,4.843072891235352,27.410980224609375,2.3856441974639893
1710953301203082000,18.37408203125,5.96171760559082,25.654647827148438,7.495516777038574
1710953301222040600,18.39304052734375,6.915257453918457,17.294126510620117,6.116054534912109
1710953301240999000,18.4119990234375,3.2231321334838867,9.767501831054688,2.86061954498291
1710953301259957500,18.43095751953125,2.23848557472229,4.802394866943359,-2.853440999984741
1710953301278916000,18.449916015625,0.40319061279296875,2.7984061241149902,-8.676374435424805
1710953301297874400,18.46887451171875,0.3206382393836975,2.183450698852539,-11.810972213745117
1710953301316832800,18.487832763671875,0.16271193325519562,0.7956135272979736,-9.090332984924316
1710953301335791400,18.506791259765624,1.892722725868225,0.6245267391204834,-5.253442287445068
1710953301354750000,18.52575,4.613361835479736,0.23330020904541016,-3.9146578311920166
1710953301373708300,18.544708251953125,4.1144585609436035,0.7561319470405579,-3.067598581314087
1710953301392667000,18.5636669921875,2.170290231704712,2.0303099155426025,-3.3535408973693848
1710953301411625200,18.582625244140626,1.0109676122665405,3.4372897148132324,-4.935196876525879
1710953301430583800,18.601583740234375,3.8368911743164062,12.632906913757324,-4.193421840667725
1710953301449542100,18.620542236328124,9.884750366210938,31.530223846435547,3.177668571472168
1710953301468500700,18.639500732421876,15.628721237182617,23.880369186401367,7.225128173828125
1710953301487459300,18.658459228515625,14.847464561462402,15.329618453979492,2.4873390197753906
1710953301506417700,18.677417724609374,7.774280548095703,19.970497131347656,-2.5567309856414795
1710953301525376000,18.6963759765625,4.512863636016846,16.649259567260742,-3.219542980194092
1710953301544334600,18.71533447265625,2.234896421432495,11.389835357666016,-1.2430713176727295
1710953301563293200,18.734293212890623,-0.5359922647476196,6.892525672912598,3.407379388809204
1710953301582251500,18.75325146484375,-0.8219345808029175,3.466003656387329,6.175875186920166
1710953301601210000,18.772210205078125,-1.1976077556610107,0.7130611538887024,6.833901405334473
1710953301620168400,18.79116845703125,-2.4765713214874268,0.17108681797981262,6.161518096923828
1710953301639127000,18.810126953125,-3.751945972442627,-0.8231309652328491,4.729413986206055
1710953301658085400,18.82908544921875,-3.4983067512512207,-1.3040883541107178,5.553741455078125
1710953301677044000,18.8480439453125,-3.1764719486236572,-1.7467604875564575,9.22433090209961
1710953301696002600,18.86700244140625,-3.737588882446289,-3.634697675704956,9.945767402648926
1710953301714961000,18.8859609375,-3.999603033065796,-5.041677474975586,7.590033531188965
1710953301733919500,18.90491943359375,-5.285745143890381,-2.3054845333099365,5.4951171875
1710953301752877800,18.9238779296875,-2.128415822982788,8.25404167175293,0.4977070987224579
1710953301771836400,18.94283642578125,7.500302791595459,27.579673767089844,-7.350750923156738
1710953301790794800,18.961794677734375,1.3591232299804688,38.26243209838867,1.6426727771759033
1710953301809753300,18.98075341796875,13.584053993225098,34.610984802246094,8.754141807556152
1710953301828712000,18.9997119140625,10.709077835083008,29.992835998535156,-0.1818545162677765
1710953301847670300,19.018670166015625,4.253242015838623,27.59044075012207,5.395814895629883
1710953301866628900,19.03762890625,5.748756408691406,22.078575134277344,5.946164131164551
1710953301885587200,19.056587158203126,4.947160720825195,12.959527015686035,4.604987144470215
1710953301904545500,19.075545654296874,1.6019947528839111,6.556334018707275,1.7850457429885864
1710953301923504000,19.094504150390627,-0.1459621787071228,2.0099709033966064,-3.814159393310547
1710953301942462700,19.113462646484376,1.0193424224853516,0.4534398913383484,-8.360522270202637
1710953301961421000,19.132421142578124,0.06699903309345245,0.698704183101654,-11.213963508605957
1710953301980379600,19.151379638671877,1.4608181715011597,1.6893328428268433,-9.343972206115723
1710953301999338000,19.170337890625,3.3690943717956543,2.447857618331909,-6.735795974731445
1710953302018296600,19.189296630859374,3.9493536949157715,2.4323041439056396,-5.460421085357666
1710953302037255000,19.2082548828125,2.9754750728607178,1.2837493419647217,-4.249652862548828
1710953302056213500,19.227213623046875,1.9441684484481812,1.0109676122665405,-4.878965377807617
1710953302075172000,19.246172119140624,0.7190431952476501,3.328416347503662,-6.3254265785217285
1710953302094130400,19.26513037109375,4.297509670257568,14.360525131225586,-4.1659040451049805
1710953302113088800,19.2840888671875,10.953145980834961,32.4957275390625,5.846862316131592
1710953302132047400,19.30304736328125,16.772489547729492,24.045475006103516,5.209175109863281
1710953302151006000,19.322005859375,15.03171157836914,18.014366149902344,-0.2476571500301361
1710953302169964300,19.34096435546875,6.951149940490723,21.547367095947266,-3.1106693744659424
1710953302188923000,19.3599228515625,2.853440999984741,17.006986618041992,-3.451646566390991
1710953302207881200,19.378881103515624,1.4069796800613403,10.685149192810059,-0.672383189201355
1710953302226839800,19.39783984375,-0.8530412912368774,6.908079147338867,5.271388053894043
1710953302245798100,19.416798095703125,-0.5563312768936157,4.2987060546875,7.792226791381836
1710953302264756700,19.4357568359375,-0.9224331378936768,1.5601203441619873,7.347161769866943
1710953302283715000,19.454715087890627,-2.33180570602417,0.39481574296951294,6.038288116455078
1710953302302673700,19.473673583984375,-4.210171222686768,-0.3086741268634796,4.700700283050537
1710953302321632000,19.492632080078124,-3.7603209018707275,-1.195214867591858,5.777470111846924
1710953302340590600,19.511590576171876,-3.6837503910064697,-2.583052158355713,9.279366493225098
1710953302359549200,19.530549072265625,-4.101297855377197,-4.985445976257324,9.686145782470703
1710953302378507500,19.549507568359374,-4.890929698944092,-4.661218643188477,7.797012805938721
1710953302397465900,19.5684658203125,-5.4041900634765625,-1.4656038284301758,5.86002254486084
1710953302416424400,19.587424560546875,-2.8283164501190186,7.390232563018799,1.852044701576233
1710953302435383000,19.606383056640624,7.837690353393555,25.10310173034668,-6.315855503082275
1710953302454341400,19.62534130859375,4.266402721405029,36.81716537475586,-3.1489546298980713
1710953302473300000,19.644300048828125,8.197810173034668,35.499916076660156,9.414560317993164
1710953302492258300,19.66325830078125,13.351950645446777,30.853055953979492,1.2705888748168945
1710953302511217000,19.682216796875,5.181657314300537,25.29213523864746,2.5232315063476562
1710953302530175200,19.70117529296875,4.974678039550781,21.81775665283203,5.649454116821289
1710953302549133800,19.7201337890625,6.378068923950195,12.768101692199707,3.951746702194214
1710953302568092200,19.739092041015624,3.31884503364563,7.8113694190979,3.4432718753814697
1710953302587050800,19.75805078125,0.8769695162773132,4.18863582611084,-2.1104695796966553
1710953302606009000,19.777009033203125,0.7322037220001221,1.7682958841323853,-6.480959892272949
1710953302624967700,19.7959677734375,-0.06340979784727097,0.6735795736312866,-9.464810371398926
1710953302643926000,19.814926025390626,0.3314059376716614,0.25363919138908386,-9.598808288574219
1710953302662884600,19.833884521484375,2.0518453121185303,0.7190431952476501,-6.738188743591309
1710953302681843000,19.852843017578124,3.9385859966278076,0.851844847202301,-4.816751956939697
1710953302700801500,19.871801513671876,4.000799655914307,1.2873386144638062,-3.7399818897247314
1710953302719760000,19.890759765625,1.9884356260299683,2.2480568885803223,-4.893322467803955
1710953302738718500,19.909718505859374,1.23589289188385,6.736992359161377,-6.4187469482421875
1710953302757676800,19.9286767578125,6.976274490356445,20.91326904296875,-2.458625316619873
1710953302776635400,19.947635498046875,10.430314064025879,28.99861717224121,6.4354963302612305
1710953302795593700,19.96659375,15.248262405395508,19.013368606567383,-0.4953143000602722
1710953302814552300,19.98555224609375,11.278569221496582,22.39801597595215,-1.26699960231781
1710953302833510700,20.0045107421875,4.662415027618408,23.78585433959961,-0.8841479420661926
1710953302852469200,20.02346923828125,2.7589244842529297,17.236698150634766,-1.4608181715011597
1710953302871427600,20.042427490234374,1.3399807214736938,10.8969144821167,1.2717852592468262
1710953302890386200,20.06138623046875,-0.5886343717575073,6.393621921539307,5.207978248596191
1710953302909344500,20.080344482421875,-1.038485050201416,3.6023945808410645,6.655636310577393
1710953302928303000,20.09930322265625,-1.2143574953079224,1.5014961957931519,6.483353137969971
1710953302947261400,20.118261474609376,-2.197807550430298,-0.42711883783340454,5.36351203918457
1710953302966220000,20.137219970703125,-4.5786662101745605,-0.8159525394439697,4.021138668060303
1710953302985178400,20.156178466796874,-3.840480327606201,0.29431718587875366,5.876772403717041
1710953303004137000,20.175136962890626,-2.885744094848633,-1.698904037475586,10.431509971618652
1710953303023095300,20.19409521484375,-3.7387852668762207,-4.18145751953125,11.139785766601562
1710953303042054000,20.213053955078124,-4.30588436126709,-4.674378871917725,8.429914474487305
1710953303061012200,20.23201220703125,-5.052444934844971,-1.8340985774993896,6.123233318328857
1710953303079970800,20.250970703125,-3.328416347503662,6.592226505279541,2.149951219558716
1710953303098929200,20.26992919921875,6.491727828979492,25.408187866210938,-6.124429702758789
1710953303117887700,20.2888876953125,2.251646041870117,37.39862060546875,-3.2338998317718506
1710953303136846000,20.30784619140625,5.1182475090026855,33.463623046875,8.801998138427734
1710953303155804400,20.326804443359375,15.796218872070312,31.16172981262207,3.136990547180176
1710953303174763000,20.345762939453124,4.660022258758545,27.591638565063477,3.3714871406555176
1710953303193721600,20.3647216796875,4.624129772186279,24.44507598876953,6.564708709716797
1710953303212680000,20.383679931640625,5.236692428588867,14.68953800201416,3.9876389503479004
1710953303231638300,20.40263818359375,4.291527271270752,8.353343963623047,3.016152858734131
1710953303250596900,20.421596923828126,1.3423734903335571,4.545166492462158,-0.8303094506263733
1710953303269555500,20.440555419921875,-0.9212366938591003,1.2897313833236694,-5.588437080383301
1710953303288513800,20.459513671875,0.3086741268634796,0.2679961323738098,-9.10229778289795
1710953303307472100,20.47847216796875,0.3924229145050049,-0.7752745151519775,-10.688738822937012
1710953303326430700,20.4974306640625,1.6510475873947144,0.6161518096923828,-7.621140003204346
1710953303345389000,20.51638916015625,3.3894333839416504,2.812762975692749,-4.802394866943359
1710953303364347600,20.53534765625,4.41475772857666,2.4406790733337402,-3.311666488647461
1710953303383306000,20.554305908203126,3.25663161277771,2.348555326461792,-3.680161237716675
1710953303402264300,20.573264404296875,1.210768222808838,2.933600664138794,-5.97727108001709
1710953303421223000,20.592222900390624,2.830709218978882,9.610772132873535,-5.231906890869141
1710953303440181500,20.611181396484376,7.335197925567627,27.48396110534668,2.1104695796966553
1710953303459139800,20.630139892578125,11.941381454467773,29.39582633972168,7.043273448944092
1710953303478098200,20.64909814453125,15.950555801391602,19.8939266204834,0.8638089895248413
1710953303497056800,20.668056884765626,9.656235694885254,20.920448303222656,0.6340979933738708
1710953303516015000,20.68701513671875,3.4085757732391357,19.42493438720703,-0.2021935135126114
1710953303534973700,20.7059736328125,1.6773686408996582,14.56511116027832,-0.9966106414794922
1710953303553932000,20.72493212890625,0.3840480446815491,8.742177963256836,2.163111686706543
1710953303572890400,20.743890380859376,-0.2392822653055191,4.898108005523682,5.873183250427246
1710953303591849000,20.762848876953125,0.12801600992679596,1.3663017749786377,7.17368221282959
1710953303610807600,20.7818076171875,-0.882951557636261,-0.9355936646461487,6.439085960388184
1710953303629766000,20.800765869140626,-4.249652862548828,-0.7441678643226624,4.7401814460754395
1710953303648724200,20.81972412109375,-4.924428939819336,-1.2095718383789062,5.219942569732666
1710953303667682800,20.838682861328124,-2.5663022994995117,-2.757728099822998,8.725427627563477
1710953303686641200,20.85764111328125,-3.744767427444458,-4.529613494873047,9.138189315795898
1710953303705599700,20.876599853515625,-5.2869415283203125,-4.359723091125488,7.164111137390137
1710953303724558000,20.89555810546875,-5.32403039932251,-2.2636101245880127,5.546562671661377
1710953303743516700,20.9145166015625,-3.951746702194214,3.211168050765991,3.541377544403076
1710953303762475000,20.93347509765625,5.645864963531494,18.16511344909668,-3.3164522647857666
1710953303781433600,20.95243359375,4.97348165512085,33.31766128540039,-2.472982168197632
1710953303800392000,20.971391845703124,-2.0793628692626953,33.515071868896484,8.663214683532715
1710953303819350300,20.990350341796876,21.23630142211914,30.199813842773438,5.594419479370117
1710953303838308900,21.009308837890625,5.938985824584961,27.005395889282227,0.5838487148284912
1710953303857267200,21.02826708984375,1.5433706045150757,28.441089630126953,6.642475605010986
1710953303876225500,21.0472255859375,5.9306111335754395,19.635501861572266,4.785645484924316
1710953303895184100,21.06618408203125,4.5822553634643555,10.581061363220215,2.9790642261505127
1710953303914142700,21.085142822265624,2.592623233795166,4.589433670043945,-0.7250252366065979
1710953303933101000,21.10410107421875,0.9487541913986206,2.0685951709747314,-4.752145767211914
1710953303952059400,21.123059326171877,0.607776939868927,2.012363910675049,-9.040083885192871
1710953303971018000,21.14201806640625,0.12203395366668701,1.8352949619293213,-10.8969144821167
1710953303989976300,21.160976318359374,1.2454642057418823,1.8317056894302368,-6.607779502868652
1710953304008935000,21.179934814453127,3.5306098461151123,1.2143574953079224,-4.401597023010254
1710953304027893200,21.198893310546875,4.219742774963379,1.2574282884597778,-4.457828521728516
1710953304046851800,21.217851806640624,2.7457640171051025,2.59621262550354,-3.5808591842651367
1710953304065810200,21.23681005859375,1.1940184831619263,3.8249270915985107,-4.734199523925781
1710953304084768800,21.255768798828125,2.282752752304077,10.612168312072754,-4.780859470367432
1710953304103727000,21.27472705078125,7.755138397216797,26.38206672668457,0.9320043921470642
1710953304122685400,21.293685546875,11.862418174743652,24.1806697845459,3.7507495880126953
1710953304141644000,21.31264404296875,13.922638893127441,19.471593856811523,-0.867398202419281
1710953304160602400,21.331602294921876,6.963113784790039,23.755943298339844,0.14356936514377594
1710953304179561000,21.35056103515625,4.004388809204102,20.268404006958008,-0.3756731450557709
1710953304198519300,21.369519287109377,1.892722725868225,14.389239311218262,0.29790642857551575
1710953304217478000,21.388477783203125,-0.39481574296951294,9.712467193603516,4.147958278656006
1710953304236436200,21.407436279296874,-0.7190431952476501,4.709074974060059,6.311069488525391
1710953304255394800,21.426394775390627,0.17587246000766754,1.0923235416412354,6.589833736419678
1710953304274353200,21.445353271484375,-1.7587246894836426,-0.5000999569892883,5.533402442932129
1710953304293311700,21.464311767578124,-4.131208419799805,-1.0348957777023315,3.830909013748169
1710953304312270000,21.48327001953125,-4.902893543243408,-1.144965648651123,4.303491592407227
1710953304331228700,21.502228759765625,-2.933600664138794,-1.054038405418396,8.194221496582031
1710953304350187000,21.52118701171875,-1.9824535846710205,-3.0831520557403564,10.48534870147705
1710953304369145600,21.5401455078125,-3.129812002182007,-4.179064750671387,8.687142372131348
1710953304388104000,21.55910400390625,-4.2281174659729,-2.7876384258270264,6.206982135772705
1710953304407062500,21.5780625,-4.212564468383789,2.8007988929748535,3.036491870880127
1710953304426020900,21.597020751953124,2.451446771621704,16.996219635009766,-4.147958278656006
1710953304444979500,21.6159794921875,6.285944938659668,32.599815368652344,-6.7310099601745605
1710953304463937800,21.634937744140625,-0.7848458290100098,34.51287841796875,5.67338228225708
1710953304482896400,21.653896484375,17.437694549560547,32.93720245361328,7.9250288009643555
1710953304501854700,21.672854736328127,8.295916557312012,29.721250534057617,4.607379913330078
1710953304520813300,21.691813232421875,2.3473589420318604,25.295724868774414,10.504491806030273
1710953304539771600,21.710771728515624,4.666004180908203,18.736997604370117,6.55992317199707
1710953304558730200,21.729730224609376,2.964707374572754,10.995019912719727,2.9240293502807617
1710953304577688600,21.7486884765625,0.22372891008853912,6.488138675689697,0.1423729509115219
1710953304596647200,21.767647216796874,-0.4450650215148926,3.1680972576141357,-3.9146578311920166
1710953304615605500,21.78660546875,0.015553346835076809,0.9475577473640442,-6.416353702545166
1710953304634564000,21.805564208984375,1.2801600694656372,0.364905446767807,-7.598408222198486
1710953304653522400,21.8245224609375,0.9200403094291687,-0.12323036789894104,-7.405786037445068
1710953304672481000,21.84348095703125,0.9942178130149841,0.9882357716560364,-6.422336101531982
1710953304691439600,21.862439697265625,2.5734808444976807,2.286342144012451,-4.701896667480469
1710953304710398000,21.88139794921875,4.2209391593933105,2.4993033409118652,-4.314259052276611
1710953304729356500,21.9003564453125,3.7016966342926025,2.379662036895752,-5.289334297180176
1710953304748315000,21.91931494140625,0.7956135272979736,2.874976396560669,-6.948757171630859
1710953304767273500,21.9382734375,0.005982056725770235,7.514659404754639,-6.988238334655762
1710953304786231800,21.957231689453124,6.686742782592773,26.3330135345459,-0.5563312768936157
1710953304805190400,21.9761904296875,7.312466144561768,37.75873947143555,14.027922630310059
1710953304824148700,21.995148681640625,9.830911636352539,22.334606170654297,7.389036178588867
1710953304843107300,22.014107421875,10.427921295166016,19.203598022460938,2.1128623485565186
1710953304862065700,22.033065673828126,4.289134502410889,23.492733001708984,0.02512463741004467
1710953304881024300,22.052024169921875,2.3712873458862305,19.14975929260254,-0.8602197170257568
1710953304899982800,22.07098291015625,0.4546363055706024,12.360125541687012,-0.02751746028661728
1710953304918941200,22.089941162109376,-0.914058268070221,6.960721015930176,2.688336133956909
1710953304937899800,22.108899658203125,0.7058826684951782,4.096512317657471,5.346762180328369
1710953304956858000,22.127858154296874,0.4570291340351105,1.2323036193847656,7.83410120010376
1710953304975816700,22.146816650390626,-3.0963125228881836,-2.169093608856201,6.985845565795898
1710953304994775000,22.165775146484375,-6.179464340209961,-4.782055854797363,3.8907296657562256
1710953305013733600,22.184733642578124,-4.704289436340332,-3.2889347076416016,3.3128628730773926
1710953305032692200,22.203692138671876,-3.142972469329834,-1.0552347898483276,5.095515727996826
1710953305051650600,22.222650634765625,-2.9036903381347656,-1.726421594619751,6.454638957977295
1710953305070609200,22.241609130859374,-3.122633457183838,-1.9369899034500122,6.245266914367676
1710953305089567700,22.260567626953126,-3.188436269760132,-0.4701896607875824,5.553741455078125
1710953305108526000,22.279526123046875,0.7860422134399414,6.386443614959717,3.5030922889709473
1710953305127484700,22.298484619140623,11.478370666503906,15.643077850341797,-4.145565032958984
1710953305146443000,22.317443115234376,6.317051887512207,23.8325138092041,-3.735196113586426
1710953305165401600,22.336401611328125,0.009571290574967861,32.465816497802734,5.2390851974487305
1710953305184360000,22.35535986328125,13.670195579528809,30.971500396728516,5.764309883117676
1710953305203318500,22.374318603515626,8.14397144317627,22.16950225830078,0.013160524889826775
1710953305222277000,22.393277099609374,1.8687944412231445,23.67458724975586,5.468796253204346
1710953305241235500,22.4122353515625,2.400001049041748,18.071792602539062,8.37966537475586
1710953305260194000,22.431194091796876,1.3651052713394165,11.521441459655762,5.862415313720703
1710953305279152600,22.450152587890624,-1.5230315923690796,7.968099594116211,1.1389836072921753
1710953305298111000,22.469111083984377,-2.7218358516693115,3.62153697013855,-3.7782669067382812
1710953305317069600,22.488069580078125,-0.9463613629341125,1.0827522277832031,-6.772884368896484
1710953305336028200,22.507028076171874,-0.03349951654672623,0.9990034699440002,-7.9657063484191895
1710953305354986500,22.525986572265627,-0.8327022790908813,1.1988041400909424,-7.113861560821533
1710953305373945000,22.544945068359375,-0.4127618968486786,0.7058826684951782,-5.971288681030273
1710953305392903700,22.563903564453124,1.9010975360870361,1.5242279767990112,-5.394618511199951
1710953305411862000,22.582862060546876,3.104687452316284,3.528217077255249,-5.241477966308594
1710953305430820600,22.601820556640625,1.2873386144638062,3.9050865173339844,-5.077569484710693
1710953305449779200,22.620779296875,1.5720844268798828,5.72123908996582,-4.919643402099609
1710953305468737500,22.639737548828126,7.88076114654541,13.96690559387207,-4.387240409851074
1710953305487696100,22.658696044921875,7.582854747772217,37.80659866333008,6.035895347595215
1710953305506654700,22.67765478515625,8.203792572021484,30.973892211914062,5.9784674644470215
1710953305525613000,22.696613037109376,7.789834022521973,25.95853614807129,0.6329016089439392
1710953305544571600,22.715571533203125,2.8701908588409424,22.8825626373291,-0.39601215720176697
1710953305563530200,22.7345302734375,-3.8919260501861572,17.08595085144043,4.275974273681641
1710953305582488600,22.753488525390626,-1.994417667388916,9.857233047485352,5.578866004943848
1710953305601447200,22.772447265625,0.6771687865257263,7.905886173248291,5.149354457855225
1710953305620405800,22.79140576171875,2.249253273010254,7.82692289352417,5.054837703704834
1710953305639364000,22.810364013671876,3.211168050765991,5.337191104888916,4.548755645751953
1710953305658322700,22.82932275390625,-0.25363919138908386,0.5120640397071838,1.6893328428268433
1710953305677281300,22.84828125,-6.8554368019104,-2.2755744457244873,-0.672383189201355
1710953305696239600,22.867239501953126,-6.573083877563477,-3.376272678375244,0.7597211599349976
1710953305715198200,22.8861982421875,-2.2133610248565674,-3.9290146827697754,5.548955917358398
1710953305734156800,22.90515673828125,-2.544766902923584,-4.674378871917725,7.287341594696045
1710953305753115100,22.924115234375,-2.6596224308013916,-5.26181697845459,6.135197162628174
1710953305772073700,22.94307373046875,-1.8975083827972412,-4.738985061645508,3.6131622791290283
1710953305791032300,22.9620322265625,-2.6835505962371826,0.5060819983482361,2.39401912689209
1710953305809990700,22.98099072265625,14.06979751586914,11.92463207244873,0.7489534616470337
1710953305828949200,22.99994921875,17.339590072631836,29.3216495513916,0.50129634141922
1710953305847907800,23.018907958984375,15.117853164672852,32.97309494018555,10.046265602111816
1710953305866866200,23.0378662109375,19.014564514160156,21.144176483154297,0.4821537733078003
1710953305885824800,23.05682470703125,12.1806640625,23.558534622192383,-6.605386734008789
1710953305904783400,23.075783447265625,4.971088886260986,23.81217384338379,-5.973681926727295
1710953305923742000,23.094741943359374,6.069394588470459,17.452051162719727,-3.1920254230499268
1710953305942700500,23.113700439453126,6.446264266967773,13.336397171020508,3.1094729900360107
1710953305961659000,23.132658935546875,5.008177757263184,10.717453002929688,4.431507587432861
1710953305980617500,23.151617431640624,2.633301258087158,6.346961975097656,1.3639088869094849
1710953305999576000,23.170576171875,0.364905446767807,2.4323041439056396,-3.1896326541900635
1710953306018534400,23.189534423828125,-2.3270199298858643,0.9296116232872009,-5.952146530151367
1710953306037493000,23.208492919921873,-2.2995026111602783,-0.4462614357471466,-4.675575256347656
1710953306056451600,23.22745166015625,-1.415354609489441,-0.6927221417427063,-3.198007345199585
1710953306075410000,23.246409912109375,2.0793628692626953,1.074377417564392,-2.86061954498291
1710953306094368500,23.265368408203123,6.246463298797607,2.056631088256836,-1.9680966138839722
1710953306113327000,23.2843271484375,4.015156269073486,7.661818027496338,-2.417947292327881
1710953306132285700,23.30328564453125,7.776673793792725,20.32583236694336,-6.000002861022949
1710953306151244300,23.322244384765625,6.57547664642334,29.018957138061523,3.1585259437561035
1710953306170202600,23.34120263671875,6.713063716888428,24.44507598876953,5.493920803070068
1710953306189161200,23.3601611328125,4.256831645965576,18.476179122924805,1.963310956954956
1710953306208119800,23.379119873046875,2.495713949203491,12.065808296203613,1.5302101373672485
1710953306227078100,23.398078125,3.06999135017395,10.61815071105957,4.296313285827637
1710953306246036700,23.41703662109375,3.820141315460205,9.824930191040039,4.42193603515625
1710953306264995300,23.435995361328125,1.698904037475586,7.83410120010376,1.4368900060653687
1710953306283954000,23.454953857421874,-1.7934205532073975,4.229313850402832,-0.9116654396057129
1710953306302912500,23.47391259765625,-3.6059837341308594,0.7884350419044495,-0.7848458290100098
1710953306321870800,23.492870849609375,-2.4394826889038086,-1.4799607992172241,0.6819544434547424
1710953306340829400,23.511829345703124,-0.2189432680606842,-2.2815563678741455,1.8831514120101929
1710953306359788000,23.5307880859375,0.9571290612220764,-1.5912270545959473,3.046063184738159
1710953306378746600,23.54974658203125,1.6247265338897705,0.22133609652519226,2.7457640171051025
1710953306397705000,23.568705078125,1.6378871202468872,3.31884503364563,0.45104706287384033
1710953306416663600,23.58766357421875,3.326023578643799,10.575079917907715,-3.0269205570220947
1710953306435622100,23.6066220703125,8.417949676513672,14.769698143005371,-1.1461620330810547
1710953306454580700,23.625580810546875,12.124432563781738,19.100706100463867,0.31345975399017334
1710953306473539300,23.644539306640624,11.050054550170898,21.24826431274414,2.0685951709747314
1710953306492497700,23.66349755859375,10.436295509338379,17.187644958496094,1.0157532691955566
1710953306511456300,23.682456298828125,7.704888820648193,14.289937019348145,-3.487539052963257
1710953306530414800,23.701414794921874,5.79780912399292,12.89372444152832,-5.614758491516113
1710953306549373200,23.720373291015626,4.240081787109375,13.062418937683105,-4.180261135101318
1710953306568331800,23.739331787109375,4.060619831085205,12.111271858215332,-1.604387640953064
1710953306587290400,23.758290283203124,3.9182469844818115,9.9409818649292,0.46061834692955017
1710953306606249000,23.7772490234375,2.7732813358306885,7.7563347816467285,0.9332008361816406
1710953306625207600,23.79620751953125,1.8185452222824097,5.941378593444824,0.31824541091918945
1710953306644166000,23.815165771484374,1.3495519161224365,4.97348165512085,-0.7381857633590698
1710953306663124500,23.83412451171875,1.3555340766906738,4.612165451049805,-1.495514154434204
1710953306682083000,23.8530830078125,1.604387640953064,4.610969066619873,-2.2887349128723145
1710953306701041400,23.87204150390625,1.9178473949432373,5.142175674438477,-2.970689296722412
1710953306720000000,23.891,2.007578134536743,5.714060306549072,-3.1441688537597656
1710953306738958600,23.90995849609375,1.841277003288269,6.580262184143066,-3.0592236518859863
1710953306757917200,23.928917236328125,2.5567309856414795,7.048058986663818,-2.8654050827026367
1710953306776875800,23.947875732421874,3.4648072719573975,7.324429988861084,-2.819941520690918
1710953306795834000,23.966834228515626,4.084548473358154,7.908278942108154,-2.3401806354522705
1710953306814792700,23.985792724609375,4.000799655914307,8.776873588562012,-2.035095691680908
1710953306833751300,24.004751220703124,3.799802303314209,9.480362892150879,-2.179861545562744
1710953306852709600,24.023709716796876,4.564309120178223,9.963713645935059,-1.7994025945663452
1710953306871668200,24.042668212890625,5.588437080383301,10.567901611328125,-0.6305087804794312
1710953306890626800,24.061626708984374,8.208578109741211,11.802597999572754,-0.7046862840652466
1710953306909585400,24.08058544921875,8.344968795776367,15.029318809509277,0.3684946894645691
1710953306928544000,24.0995439453125,6.786045074462891,14.47179126739502,1.4775680303573608
1710953306947502300,24.11850244140625,6.415157318115234,10.777273178100586,1.6546368598937988
1710953306966461000,24.1374609375,6.49770975112915,8.768498420715332,0.5252245664596558
1710953306985419500,24.15641943359375,5.7619171142578125,7.4847493171691895,0.4211367964744568
1710953307004377900,24.1753779296875,5.225924491882324,7.2681989669799805,0.6687939167022705
1710953307023336400,24.19433642578125,5.091926574707031,7.081558704376221,0.5982056856155396
1710953307042295000,24.213294921875,5.084748268127441,6.428318023681641,0.0849452018737793
1710953307061253600,24.232253662109375,4.808377265930176,5.815755367279053,-0.5132604837417603
1710953307080212200,24.251212158203124,4.719842433929443,5.347958564758301,-0.7381857633590698
1710953307099170600,24.270170654296876,4.6061835289001465,5.205585479736328,-0.5575276613235474
1710953307118129200,24.289129150390625,4.667200565338135,5.179264545440674,-0.2273181527853012
1710953307137087700,24.308087646484374,5.020142078399658,5.1876397132873535,0.07178468257188797
1710953307156046000,24.327046142578126,5.24626350402832,5.682953834533691,-0.038285162299871445
1710953307175004700,24.346004638671875,5.388636589050293,6.598208427429199,-0.1950150430202484
