time,seconds_elapsed,z,y,x
1710952983884304600,0.1403046875,0.8195417523384094,7.824530124664307,5.633901119232178
1710952983903262000,0.159261962890625,0.8003991842269897,7.629515171051025,5.570491313934326
1710952983922219300,0.17821923828125,0.7465606927871704,7.573283672332764,5.359922885894775
1710952983941176800,0.1971767578125,0.7417750358581543,7.910671710968018,5.576473236083984
1710952983960134100,0.216134033203125,1.1940184831619263,8.524430274963379,6.040680885314941
1710952983979091500,0.235091552734375,1.597209095954895,8.790034294128418,6.358926296234131
1710952983998049000,0.254049072265625,1.568495273590088,8.490931510925293,6.291927337646484
1710952984017006300,0.27300634765625,1.4727823734283447,7.982456207275391,5.976074695587158
1710952984035963600,0.291963623046875,1.357926845550537,7.707281589508057,5.832505226135254
1710952984054921200,0.310921142578125,1.2598211765289307,7.680960655212402,5.6925249099731445
1710952984073878500,0.32987841796875,1.1377872228622437,7.785048484802246,5.608776092529297
1710952984092836000,0.348836181640625,1.0217353105545044,7.810173034667969,5.6590256690979
1710952984111793400,0.36779345703125,1.00259268283844,7.789834022521973,5.7511491775512695
1710952984130750700,0.386750732421875,0.9918249845504761,7.7180495262146,5.794219970703125
1710952984149708300,0.405708251953125,0.98703932762146,7.590033531188965,5.8683977127075195
1710952984168665600,0.42466552734375,1.062413215637207,7.405786037445068,6.0849480628967285
1710952984187623200,0.443623046875,1.1473584175109863,7.214360237121582,6.356533527374268
1710952984206580500,0.46258056640625,1.2478569746017456,7.138986587524414,6.565905570983887
1710952984225538000,0.4815380859375,1.389033555984497,7.167700290679932,6.7932233810424805
1710952984244495400,0.500495361328125,1.4931213855743408,7.190432071685791,6.885347366333008
1710952984263453000,0.519452880859375,1.4452649354934692,7.167700290679932,6.888936519622803
1710952984282410200,0.53841015625,1.3770694732666016,7.234699249267578,6.977470874786377
1710952984301367800,0.557367919921875,1.4165509939193726,7.36032247543335,7.074379920959473
1710952984320325000,0.5763251953125,1.3794622421264648,7.368697166442871,7.274180889129639
1710952984339282700,0.59528271484375,1.5098711252212524,7.17368221282959,7.278966426849365
1710952984358240000,0.614239990234375,1.4344971179962158,6.833901405334473,7.019345283508301
1710952984377197600,0.633197509765625,0.5144568681716919,5.832505226135254,6.239284992218018
1710952984396155100,0.652155029296875,1.0432707071304321,5.941378593444824,5.863611698150635
1710952984415112400,0.671112548828125,1.301695466041565,6.930810928344727,5.894718647003174
1710952984434070000,0.690070068359375,0.8937192559242249,7.441678524017334,6.081358909606934
1710952984453027300,0.70902734375,1.164108157157898,7.428517818450928,7.04207706451416
1710952984471985000,0.72798486328125,1.3615161180496216,7.028916358947754,7.3639116287231445
1710952984490942500,0.7469423828125,1.568495273590088,6.545566558837891,7.1162543296813965
1710952984509899800,0.765899658203125,1.5756736993789673,6.508477687835693,7.070790767669678
1710952984528857300,0.784857421875,1.3100703954696655,6.544369697570801,7.172485828399658
1710952984547815000,0.80381494140625,1.1653046607971191,6.532405853271484,7.256234645843506
1710952984566772200,0.822772216796875,1.129412293434143,6.485745906829834,7.386643409729004
1710952984585729800,0.841729736328125,1.2083754539489746,6.321837425231934,7.314858913421631
1710952984604687400,0.860687255859375,1.5337992906570435,6.455835342407227,7.196413993835449
1710952984623645000,0.87964501953125,1.5912270545959473,6.538387775421143,7.245467185974121
1710952984642602200,0.898602294921875,1.353141188621521,6.7070817947387695,7.417750358581543
1710952984661559800,0.917559814453125,1.0707881450653076,6.617351055145264,7.34476900100708
1710952984680517400,0.936517333984375,0.794417142868042,6.474977970123291,6.99541711807251
1710952984699475000,0.955474853515625,0.6999006271362305,6.299105644226074,6.722635269165039
1710952984718432300,0.974432373046875,0.8662018179893494,6.338587284088135,6.632904529571533
1710952984737389800,0.993389892578125,0.7920243144035339,6.55992317199707,6.80877685546875
1710952984756347400,1.012347412109375,0.7716853022575378,6.555137634277344,7.259823799133301
1710952984775305000,1.031304931640625,0.9786644577980042,6.4187469482421875,7.623532772064209
1710952984794262500,1.050262451171875,0.8398807644844055,6.262016773223877,7.438089370727539
1710952984813219800,1.0692197265625,1.1497513055801392,6.212964057922363,7.511070251464844
1710952984832177700,1.088177734375,1.8759729862213135,6.263213157653809,8.090133666992188
1710952984851135000,1.107135009765625,1.2382856607437134,6.31944465637207,7.95134973526001
1710952984870092500,1.126092529296875,0.9774680733680725,6.300302028656006,7.692924976348877
1710952984889050000,1.145050048828125,0.7549355626106262,6.34217643737793,7.331608772277832
1710952984908007700,1.164007568359375,0.589830756187439,6.415157318115234,7.101897716522217
1710952984926965200,1.18296533203125,0.6305087804794312,6.297909259796143,6.970292568206787
1710952984945922800,1.2019228515625,0.6472585201263428,6.019145488739014,7.080362319946289
1710952984964880400,1.22088037109375,0.9332008361816406,5.989234924316406,7.377072334289551
1710952984983838000,1.239837890625,1.1102696657180786,6.137589931488037,7.712067604064941
1710952985002795500,1.25879541015625,1.301695466041565,6.233303070068359,7.983652591705322
1710952985021753000,1.277753173828125,1.4321043491363525,6.130411624908447,8.085348129272461
1710952985040710700,1.296710693359375,1.4608181715011597,6.0741801261901855,8.09252643585205
1710952985059668200,1.315668212890625,1.3483555316925049,6.057430744171143,7.9860453605651855
1710952985078625800,1.334625732421875,1.1904292106628418,6.003592014312744,7.679764270782471
1710952985097583400,1.353583251953125,1.042074203491211,5.974878311157227,7.435696601867676
1710952985116541000,1.372541015625,1.2550355195999146,5.955735683441162,7.3160552978515625
1710952985135498500,1.39149853515625,1.1150553226470947,6.044270038604736,7.319644451141357
1710952985154456000,1.4104560546875,1.1772687435150146,6.0849480628967285,7.311269760131836
1710952985173413600,1.42941357421875,1.2263215780258179,6.124429702758789,7.2681989669799805
1710952985192371200,1.44837109375,1.3124631643295288,6.137589931488037,7.204789161682129
1710952985211328800,1.467328857421875,1.4656038284301758,6.168696880340576,7.17368221282959
1710952985230286300,1.486286376953125,1.4081761837005615,6.216553211212158,7.214360237121582
1710952985249244000,1.505243896484375,1.4991034269332886,6.390032768249512,7.452445983886719
1710952985268201500,1.524201416015625,1.6809579133987427,6.508477687835693,7.5912299156188965
1710952985287159000,1.543158935546875,1.825723648071289,6.421139717102051,7.537391185760498
1710952985306116600,1.56211669921875,1.8041882514953613,6.1603217124938965,7.368697166442871
1710952985325074400,1.581074462890625,1.7647067308425903,6.082555294036865,7.386643409729004
1710952985344032000,1.600031982421875,1.7060825824737549,6.392425537109375,7.611568927764893
1710952985362989600,1.618989501953125,1.597209095954895,6.571887493133545,7.653443336486816
1710952985381947100,1.637947021484375,1.8424733877182007,6.547959327697754,7.529016494750977
1710952985400905000,1.656905029296875,1.750349760055542,6.588637351989746,7.384250640869141
1710952985419862500,1.675862548828125,2.122433662414551,6.640082836151123,7.409375190734863
1710952985438820000,1.694820068359375,1.8616160154342651,6.64486837387085,7.46201753616333
1710952985457777700,1.713777587890625,1.8975083827972412,6.662814617156982,7.435696601867676
1710952985476735200,1.7327353515625,1.939382791519165,6.62931489944458,7.252645492553711
1710952985495693000,1.751693115234375,1.8664016723632812,6.594619274139404,7.04207706451416
1710952985514650600,1.770650634765625,1.9058831930160522,6.8410797119140625,7.038487911224365
1710952985533608200,1.789608154296875,2.0853450298309326,7.039684295654297,7.11146879196167
1710952985552565800,1.808565673828125,2.159522533416748,6.894918441772461,6.80877685546875
1710952985571523600,1.827523681640625,2.0518453121185303,6.613761901855469,6.484549522399902
1710952985590481200,1.846481201171875,1.8951154947280884,6.553941249847412,6.379265308380127
1710952985609438700,1.865438720703125,1.9525432586669922,6.783652305603027,6.419943332672119
1710952985628396300,1.884396240234375,2.0398812294006348,6.98704195022583,6.503692150115967
1710952985647354000,1.90335400390625,2.204986095428467,7.204789161682129,6.4187469482421875
1710952985666311700,1.922311767578125,2.383251428604126,7.284948348999023,6.300302028656006
1710952985685269200,1.941269287109375,2.528017044067383,7.377072334289551,6.156732559204102
1710952985704227000,1.96022705078125,2.713460922241211,7.525427341461182,5.96889591217041
1710952985723184600,1.9791845703125,2.778067111968994,7.5708909034729,5.849255084991455
1710952985742142500,1.998142578125,2.7589244842529297,7.579265594482422,5.680561065673828
1710952985761100000,2.01710009765625,2.8079774379730225,7.5050883293151855,5.459224700927734
1710952985780057600,2.0360576171875,2.7804598808288574,7.448856830596924,5.2390851974487305
1710952985799015200,2.05501513671875,2.7661030292510986,7.692924976348877,5.033302307128906
1710952985817973000,2.073972900390625,2.778067111968994,8.12123966217041,4.969892501831055
1710952985836930600,2.0929306640625,2.8079774379730225,8.327022552490234,4.892126083374023
1710952985855888400,2.111888427734375,2.6608188152313232,8.212167739868164,4.742574691772461
1710952985874846000,2.130845947265625,2.4538395404815674,7.9381890296936035,4.64805793762207
1710952985893803800,2.1498037109375,2.447857618331909,7.825726509094238,4.576273441314697
1710952985912761300,2.16876123046875,2.50289249420166,7.897511005401611,4.510470867156982
1710952985931719000,2.187718994140625,2.4765713214874268,7.9657063484191895,4.403990268707275
1710952985950676700,2.2066767578125,2.3473589420318604,7.940581798553467,4.372883319854736
1710952985969634300,2.22563427734375,2.359323024749756,7.94297456741333,4.374079704284668
1710952985988592000,2.244592041015625,2.355733871459961,7.954938888549805,4.381258487701416
1710952986007549700,2.2635498046875,2.4023938179016113,8.00638484954834,4.400400638580322
1710952986026507500,2.282507568359375,2.3162522315979004,8.063812255859375,4.369294166564941
1710952986045465000,2.301465087890625,2.1379871368408203,8.120043754577637,4.321437835693359
1710952986064423000,2.3204228515625,2.2480568885803223,8.12123966217041,4.328616142272949
1710952986083380500,2.33938037109375,2.355733871459961,8.048258781433105,4.240081787109375
1710952986102338300,2.35833837890625,2.4287149906158447,8.002795219421387,4.3070807456970215
1710952986121296000,2.3772958984375,2.4717857837677,8.081758499145508,4.439882278442383
1710952986140253700,2.396253662109375,2.5232315063476562,8.226524353027344,4.54636287689209
1710952986159211300,2.415211181640625,2.5328028202056885,8.251648902893066,4.67078971862793
1710952986178169000,2.434169189453125,2.5292134284973145,8.031509399414062,4.675575256347656
1710952986197126700,2.453126708984375,2.417947292327881,7.679764270782471,4.687539577484131
1710952986216084500,2.47208447265625,2.0709879398345947,7.495516777038574,4.646861553192139
1710952986235042000,2.4910419921875,1.8783657550811768,8.233702659606934,4.683950424194336
1710952986253999900,2.509999755859375,1.7539390325546265,9.373882293701172,4.749752998352051
1710952986272957400,2.52895751953125,1.5314065217971802,9.765109062194824,4.613361835479736
1710952986291915300,2.547915283203125,1.8305093050003052,10.051051139831543,4.420739650726318
1710952986310873000,2.566873046875,2.2241287231445312,9.79262638092041,4.116851329803467
1710952986329830700,2.58583056640625,1.9836499691009521,9.18006420135498,4.1036906242370605
1710952986348788500,2.60478857421875,1.6510475873947144,9.120243072509766,4.159922122955322
1710952986367746300,2.623746337890625,1.7395820617675781,9.694520950317383,4.302295207977295
1710952986386704000,2.642703857421875,1.9609181880950928,9.810572624206543,4.587040901184082
1710952986405661700,2.66166162109375,2.210968017578125,9.324830055236816,4.886143684387207
1710952986424619300,2.680619384765625,2.5363919734954834,8.646464347839355,5.314459323883057
1710952986443577000,2.6995771484375,2.871387243270874,8.15234661102295,5.808577060699463
1710952986462535000,2.718534912109375,2.9599215984344482,7.794619560241699,6.022734642028809
1710952986481492500,2.737492431640625,2.7840490341186523,7.478767395019531,5.808577060699463
1710952986500450300,2.7564501953125,2.799602508544922,7.69531774520874,5.544169902801514
1710952986519407900,2.775407958984375,2.7074787616729736,8.299505233764648,5.2043890953063965
1710952986538365700,2.79436572265625,2.087737798690796,8.994620323181152,4.931607246398926
1710952986557323500,2.813323486328125,1.4368900060653687,9.370293617248535,4.533202648162842
1710952986576281000,2.832281005859375,1.29810631275177,9.45763111114502,4.261617183685303
1710952986595239000,2.851239013671875,1.0169496536254883,9.361918449401855,3.728017568588257
1710952986614196700,2.87019677734375,1.1473584175109863,9.433703422546387,3.542573928833008
1710952986633154600,2.889154541015625,1.9680966138839722,9.365508079528809,3.9038901329040527
1710952986652112100,2.908112060546875,2.297109842300415,8.967103004455566,4.366901397705078
1710952986671070000,2.927070068359375,2.2241287231445312,8.337790489196777,4.587040901184082
1710952986690027800,2.94602783203125,2.3030917644500732,7.732406139373779,4.652843475341797
1710952986708985600,2.964985595703125,2.20737886428833,7.191628456115723,4.636094093322754
1710952986727943200,2.983943115234375,2.181057929992676,7.208378314971924,4.692325115203857
1710952986746901000,3.00290087890625,2.0542383193969727,7.690532207489014,5.0225348472595215
1710952986765858800,3.02185888671875,1.5936198234558105,8.081758499145508,5.096712112426758
1710952986784816600,3.040816650390625,1.4727823734283447,8.277970314025879,5.077569484710693
1710952986803774200,3.059774169921875,1.0564311742782593,8.061419486999512,4.823930263519287
1710952986822732000,3.07873193359375,0.7525427341461182,7.954938888549805,4.651647090911865
1710952986841689900,3.09768994140625,0.882951557636261,7.856832981109619,4.748556613922119
1710952986860647700,3.116647705078125,0.9499505758285522,7.770691394805908,5.054837703704834
1710952986879605200,3.135605224609375,0.9906286001205444,7.665407180786133,5.560919761657715
1710952986898563000,3.15456298828125,0.9786644577980042,7.635497093200684,6.038288116455078
1710952986917521000,3.17352099609375,1.1114661693572998,7.529016494750977,6.351747512817383
1710952986936478700,3.192478759765625,1.3938192129135132,7.409375190734863,6.613761901855469
1710952986955436300,3.211436279296875,1.3280165195465088,7.29810905456543,6.6831536293029785
1710952986974394000,3.23039404296875,1.207179069519043,7.178467750549316,6.6484575271606445
1710952986993352000,3.24935205078125,1.332802176475525,7.110272407531738,6.750152587890625
1710952987012309800,3.268309814453125,1.222732424736023,7.076773166656494,6.704689025878906
1710952987031267300,3.287267333984375,0.9272187948226929,6.892525672912598,6.453442573547363
1710952987050225200,3.30622509765625,0.7597211599349976,6.905686378479004,6.177071571350098
1710952987069183000,3.325182861328125,0.641276478767395,7.039684295654297,6.089733600616455
1710952987088140800,3.344140869140625,0.4295116662979126,7.074379920959473,6.049055576324463
1710952987107098600,3.3630986328125,0.41156548261642456,7.191628456115723,6.124429702758789
1710952987126056200,3.38205615234375,0.5527420043945312,7.317251682281494,6.281159400939941
1710952987145014000,3.401013916015625,0.6329016089439392,7.307680130004883,6.204588890075684
1710952987163971800,3.419971923828125,0.8039883971214294,7.141379356384277,6.5252275466918945
1710952987182929700,3.4389296875,0.6831508874893188,7.069594383239746,6.510870456695557
1710952987201887500,3.457887451171875,0.589830756187439,7.214360237121582,6.437889099121094
1710952987220845000,3.476844970703125,0.35413774847984314,7.679764270782471,6.563512325286865
1710952987239803000,3.495802978515625,0.3158525824546814,8.018348693847656,7.0301127433776855
1710952987258760700,3.5147607421875,0.6771687865257263,7.869993686676025,7.300501823425293
1710952987277718500,3.533718505859375,0.8626125454902649,7.418946743011475,7.280162811279297
1710952987296676400,3.55267626953125,0.9104689955711365,7.076773166656494,7.3746795654296875
1710952987315634200,3.57163427734375,1.2813565731048584,6.959524631500244,7.46919584274292
1710952987334592000,3.590592041015625,1.5852450132369995,6.928418159484863,7.335197925567627
1710952987353549800,3.6095498046875,1.5984054803848267,7.113861560821533,7.012166976928711
1710952987372507600,3.628507568359375,1.439282774925232,7.707281589508057,7.000202655792236
1710952987391465200,3.64746533203125,1.511067509651184,8.009973526000977,6.813562393188477
1710952987410423000,3.666423095703125,1.643869161605835,7.902296543121338,6.227321147918701
1710952987429380900,3.685380859375,1.317248821258545,7.716853141784668,5.5860443115234375
1710952987448338700,3.704338623046875,0.9308080077171326,7.8903326988220215,5.430510997772217
1710952987467296500,3.723296630859375,0.8817551732063293,8.179863929748535,5.682953834533691
1710952987486254300,3.74225439453125,1.317248821258545,8.1224365234375,5.810969829559326
1710952987505212200,3.761212158203125,1.7491533756256104,7.719245910644531,5.563312530517578
1710952987524169700,3.780169677734375,1.8843477964401245,7.171289443969727,5.30129861831665
1710952987543127600,3.79912744140625,1.7778671979904175,6.857829570770264,5.264209747314453
1710952987562085400,3.81808544921875,1.6259230375289917,6.850651264190674,5.395814895629883
1710952987581043200,3.837043212890625,1.688136339187622,7.0408806800842285,5.527420520782471
1710952987600001000,3.8560009765625,1.7694923877716064,7.306483745574951,5.577669620513916
1710952987618958800,3.874958740234375,1.7240287065505981,7.475177764892578,5.532206058502197
1710952987637916700,3.893916748046875,1.537388563156128,7.65583610534668,5.6554365158081055
1710952987656874500,3.91287451171875,1.5780665874481201,7.909475326538086,6.013163089752197
1710952987675832300,3.931832275390625,1.9178473949432373,8.12123966217041,6.594619274139404
1710952987694790100,3.9507900390625,2.3641088008880615,8.072187423706055,7.201199531555176
1710952987713748000,3.969748046875,2.3736801147460938,7.823333740234375,7.452445983886719
1710952987732705800,3.988705810546875,2.1535403728485107,7.575676441192627,7.599604606628418
1710952987751663600,4.00766357421875,1.92741858959198,7.479963779449463,7.566105365753174
1710952987770621200,4.02662109375,1.828116536140442,7.405786037445068,7.466803073883057
1710952987789579300,4.045579345703125,1.6534404754638672,7.1473612785339355,7.183253765106201
1710952987808536800,4.064536865234375,1.4608181715011597,6.8518476486206055,6.830312252044678
1710952987827494700,4.08349462890625,1.568495273590088,6.790830612182617,6.535995006561279
1710952987846452500,4.102452392578125,1.3615161180496216,6.419943332672119,6.345765590667725
1710952987865410300,4.121410400390625,1.3004990816116333,6.141179084777832,6.179464340209961
1710952987884368400,4.140368408203125,1.4895321130752563,6.088537216186523,5.97727108001709
1710952987903326200,4.159326171875,1.5864413976669312,6.126822471618652,5.9916276931762695
1710952987922284000,4.178283935546875,1.5361921787261963,6.239284992218018,6.147161483764648
1710952987941241600,4.19724169921875,1.5278172492980957,6.305087566375732,6.4905314445495605
1710952987960199400,4.216199462890625,1.4919248819351196,6.288337707519531,6.792026996612549
1710952987979157200,4.2351572265625,1.5433706045150757,6.315855503082275,7.094718933105469
1710952987998115000,4.254114990234375,1.6474584341049194,6.318248271942139,7.310073375701904
1710952988017073000,4.273072998046875,1.6821542978286743,6.27996301651001,7.385447025299072
1710952988036030700,4.29203076171875,1.6295121908187866,6.281159400939941,7.404589653015137
1710952988054988500,4.310988525390625,1.4871392250061035,6.343372821807861,7.521838188171387
1710952988073946400,4.3299462890625,1.3710874319076538,6.403193473815918,7.53140926361084
1710952988092904200,4.348904296875,1.353141188621521,6.3529438972473145,7.448856830596924
1710952988111862000,4.367862060546875,1.3411771059036255,6.320641040802002,7.264609336853027
1710952988130819800,4.38681982421875,1.293320655822754,6.354140758514404,7.1820573806762695
1710952988149777700,4.405777587890625,1.1988041400909424,6.439085960388184,7.0755767822265625
1710952988168735500,4.424735595703125,1.093519926071167,6.440282344818115,6.952346324920654
1710952988187693300,4.443693359375,1.098305583000183,6.320641040802002,6.784848690032959
1710952988206651100,4.462651123046875,1.109073281288147,6.178267955780029,6.726224422454834
1710952988225609000,4.48160888671875,1.0372886657714844,6.150750637054443,6.733402729034424
1710952988244566800,4.50056689453125,1.0193424224853516,6.315855503082275,6.872186660766602
1710952988263524600,4.519524658203125,1.1030912399291992,6.4319071769714355,7.051648139953613
1710952988282482400,4.538482421875,0.9499505758285522,6.290730953216553,7.066005229949951
1710952988301440300,4.557440185546875,0.8901300430297852,6.327819347381592,7.322037220001221
1710952988320398000,4.576398193359375,0.8075776696205139,6.87099027633667,7.8077802658081055
1710952988339356000,4.59535595703125,0.8398807644844055,7.392625331878662,8.498109817504883
1710952988358313700,4.614313720703125,1.2215359210968018,7.343572616577148,8.761320114135742
1710952988377271600,4.633271484375,1.6785650253295898,7.269395351409912,8.34736156463623
1710952988396229400,4.6522294921875,2.228914260864258,7.713263988494873,7.868797302246094
1710952988415187500,4.6711875,2.194218397140503,7.969295978546143,7.630711555480957
1710952988434145300,4.690145263671875,2.0039889812469482,7.945367813110352,7.215556621551514
1710952988453102800,4.709102783203125,1.698904037475586,7.659425258636475,6.73938512802124
1710952988472060700,4.728060791015625,1.5014961957931519,7.5433735847473145,6.393621921539307
1710952988491018500,4.7470185546875,1.490728497505188,7.463213920593262,6.1675004959106445
1710952988509976600,4.7659765625,1.4835500717163086,7.28255558013916,5.831308841705322
1710952988528934400,4.784934326171875,1.3914263248443604,7.056434154510498,5.420939922332764
1710952988547892200,4.803892333984375,1.2047861814498901,6.964310169219971,5.01296329498291
1710952988566850000,4.82285009765625,1.038485050201416,7.054041385650635,4.636094093322754
1710952988585808000,4.841807861328125,1.1425727605819702,7.517052173614502,4.36091947555542
1710952988604765700,4.860765625,1.2885349988937378,8.13798999786377,4.40757942199707
1710952988623723500,4.8797236328125,1.2837493419647217,8.670392990112305,4.4997029304504395
1710952988642681300,4.898681396484375,1.2945170402526855,9.31166934967041,4.782055854797363
1710952988661639200,4.91763916015625,1.3519448041915894,9.820143699645996,5.154139995574951
1710952988680597000,4.936596923828125,1.3483555316925049,9.90269660949707,5.483152866363525
1710952988699554800,4.955554931640625,1.643869161605835,9.369096755981445,5.6554365158081055
1710952988718512600,4.9745126953125,2.073380708694458,8.545966148376465,5.6446685791015625
1710952988737470500,4.993470458984375,2.227717876434326,7.752745151519775,5.700900077819824
1710952988756428300,5.01242822265625,2.2061824798583984,7.109076023101807,5.832505226135254
1710952988775386000,5.03138623046875,2.025524377822876,6.747759819030762,5.888736724853516
1710952988794344000,5.050343994140625,1.8664016723632812,6.74656343460083,5.916254043579102
1710952988813301800,5.0693017578125,1.679761528968811,6.978667259216309,5.8097734451293945
1710952988832259800,5.088259765625,1.4321043491363525,7.217949390411377,5.520241737365723
1710952988851217700,5.1072177734375,1.160519003868103,7.540980339050293,5.178068161010742
1710952988870175500,5.126175537109375,1.1018948554992676,7.927421569824219,5.009374141693115
1710952988889133000,5.145133056640625,0.747757077217102,8.197810173034668,4.8538408279418945
1710952988908091100,5.164091064453125,0.3732803463935852,8.14516830444336,4.427918434143066
1710952988927049000,5.183049072265625,0.4019941985607147,8.24566650390625,4.304687976837158
1710952988946006800,5.2020068359375,0.486939400434494,8.438288688659668,4.4721856117248535
1710952988964964600,5.220964599609375,0.6795616149902344,8.517251968383789,4.956732273101807
1710952988983922400,5.23992236328125,0.8482556343078613,8.285148620605469,5.280959606170654
1710952989002880300,5.25888037109375,1.0133603811264038,8.014759063720703,5.446064472198486
1710952989021838000,5.277838134765625,1.3507484197616577,7.836493968963623,5.789434432983398
1710952989040796000,5.2967958984375,1.765903115272522,7.69531774520874,6.186643123626709
1710952989059753700,5.315753662109375,1.7168502807617188,7.629515171051025,6.329015731811523
1710952989078711600,5.334711669921875,1.679761528968811,7.562515735626221,6.354140758514404
1710952989097669600,5.353669677734375,1.2610175609588623,7.501499176025391,6.186643123626709
1710952989116627500,5.37262744140625,0.7956135272979736,7.555337429046631,6.005984783172607
1710952989135585300,5.391585205078125,0.5180460810661316,7.628318786621094,5.724828243255615
1710952989154543000,5.410543212890625,0.3577269911766052,7.814958572387695,5.521438121795654
1710952989173501000,5.4295009765625,0.2835494875907898,7.932207107543945,5.406582832336426
1710952989192458800,5.448458740234375,0.26560330390930176,8.002795219421387,5.371886730194092
1710952989211416600,5.46741650390625,0.23688943684101105,8.032705307006836,5.304887771606445
1710952989230374400,5.48637451171875,0.1782652884721756,7.981259822845459,5.218746185302734
1710952989249332200,5.505332275390625,0.09571290761232376,8.373682975769043,5.251049518585205
1710952989268290000,5.5242900390625,-0.19740787148475647,8.974281311035156,5.901896953582764
1710952989287248000,5.543247802734375,0.5575276613235474,8.599804878234863,6.8482584953308105
1710952989306205700,5.562205810546875,1.140179991722107,7.981259822845459,7.186842918395996
1710952989325163800,5.581163818359375,1.4524433612823486,7.968099594116211,7.416553974151611
1710952989344121600,5.60012158203125,1.8975083827972412,8.37727165222168,7.719245910644531
1710952989363079400,5.619079345703125,2.1583259105682373,8.350951194763184,7.338787078857422
1710952989382037200,5.638037353515625,2.2061824798583984,8.227720260620117,6.3361945152282715
1710952989400995000,5.6569951171875,1.7958134412765503,8.703892707824707,5.566901683807373
1710952989419953000,5.675952880859375,1.3567304611206055,8.93240737915039,5.154139995574951
1710952989438910700,5.69491064453125,1.1114661693572998,8.662017822265625,4.719842433929443
1710952989457868500,5.71386865234375,0.8781659007072449,8.244470596313477,4.289134502410889
1710952989476826400,5.732826416015625,0.5407779216766357,7.944170951843262,4.104887008666992
1710952989495784400,5.751784423828125,0.16510476171970367,7.77188777923584,4.346562385559082
1710952989514742000,5.770741943359375,0.27397820353507996,7.7491559982299805,4.695914268493652
1710952989533699800,5.789699951171875,0.4713860750198364,7.824530124664307,4.761716842651367
1710952989552658000,5.808657958984375,0.5694918036460876,7.976474285125732,4.7796630859375
1710952989571615700,5.82761572265625,0.7441678643226624,8.153543472290039,5.114658355712891
1710952989590573600,5.846573486328125,1.007378339767456,8.177471160888672,5.568098068237305
1710952989609531400,5.865531494140625,1.2550355195999146,7.969295978546143,5.870790481567383
1710952989628489200,5.8844892578125,1.537388563156128,7.7563347816467285,6.236892223358154
1710952989647447000,5.903447021484375,1.5409778356552124,7.417750358581543,6.501298904418945
1710952989666404900,5.92240478515625,1.5936198234558105,7.21316385269165,6.571887493133545
1710952989685362700,5.94136279296875,1.6701902151107788,7.10429048538208,6.671189308166504
1710952989704320800,5.96032080078125,1.6319050788879395,7.015756130218506,6.831508636474609
1710952989723278600,5.979278564453125,1.588834285736084,7.148557662963867,7.04925537109375
1710952989742236400,5.998236328125,1.667797327041626,7.402196884155273,7.349554538726807
1710952989761194200,6.0171943359375,1.8245272636413574,7.29810905456543,7.368697166442871
1710952989780152000,6.036152099609375,1.9836499691009521,6.97268533706665,7.18086051940918
1710952989799110000,6.05510986328125,2.0470597743988037,6.778866767883301,7.0923261642456055
1710952989818067700,6.074067626953125,1.9968105554580688,6.892525672912598,7.061219692230225
1710952989837025800,6.09302587890625,1.9692929983139038,7.162914752960205,7.037291526794434
1710952989855983600,6.111983642578125,1.978864312171936,7.287341594696045,6.726224422454834
1710952989874941400,6.13094140625,1.95852530002594,7.208378314971924,6.340980052947998
1710952989893899300,6.149899169921875,1.8831514120101929,7.0755767822265625,5.958128452301025
1710952989912857000,6.168857177734375,1.7431713342666626,7.045666217803955,5.676971912384033
1710952989931815000,6.18781494140625,1.6845471858978271,7.190432071685791,5.522634506225586
1710952989950773000,6.20677294921875,1.6630117893218994,7.361518859863281,5.420939922332764
1710952989969730600,6.22573046875,1.6618152856826782,7.487142086029053,5.546562671661377
1710952989988688600,6.244688720703125,1.664208173751831,7.432106971740723,5.66620397567749
1710952990007646500,6.263646484375,1.7048860788345337,7.434499740600586,5.904289722442627
1710952990026604300,6.282604248046875,1.908276081085205,7.562515735626221,6.193821430206299
1710952990045562000,6.30156201171875,2.1858434677124023,7.605587005615234,6.281159400939941
1710952990064520000,6.32052001953125,2.390429735183716,7.4464640617370605,6.221338748931885
1710952990083477800,6.339477783203125,2.310270309448242,7.238288402557373,6.058627128601074
1710952990102435800,6.358435791015625,2.0243279933929443,7.289734363555908,5.913861274719238
1710952990121393700,6.3773935546875,1.8005990982055664,7.5086774826049805,5.779862880706787
1710952990140351500,6.3963515625,1.628315806388855,7.523034572601318,5.442475318908691
1710952990159309300,6.415309326171875,1.6701902151107788,7.503891944885254,5.041677474975586
1710952990178267100,6.43426708984375,1.7527425289154053,7.430910587310791,4.792823791503906
1710952990197225200,6.45322509765625,1.719243049621582,7.312466144561768,4.632504463195801
1710952990216183000,6.47218310546875,1.648654818534851,7.41535758972168,4.701896667480469
1710952990235140900,6.491140869140625,1.7527425289154053,7.635497093200684,4.931607246398926
1710952990254098700,6.5100986328125,1.9046868085861206,7.860422611236572,5.051248550415039
1710952990273056800,6.529056884765625,2.0003998279571533,7.8903326988220215,5.008177757263184
1710952990292014600,6.5480146484375,2.173879384994507,7.692924976348877,4.954339504241943
1710952990310972400,6.566972412109375,1.9752750396728516,7.372286796569824,4.884947299957275
1710952990329930500,6.585930419921875,1.7934205532073975,7.215556621551514,4.743771076202393
1710952990348888000,6.60488818359375,1.6259230375289917,7.234699249267578,4.746163845062256
1710952990367846100,6.62384619140625,1.6295121908187866,7.004988193511963,4.692325115203857
1710952990386804000,6.642803955078125,1.6211373805999756,6.545566558837891,4.486542224884033
1710952990405762000,6.661761962890625,1.5720844268798828,6.311069488525391,4.11206579208374
1710952990424720000,6.680719970703125,2.0518453121185303,7.670193195343018,3.8668015003204346
1710952990443677700,6.699677734375,2.3198416233062744,9.091529846191406,3.6909289360046387
1710952990462635500,6.718635498046875,3.5497524738311768,11.276176452636719,3.55214524269104
1710952990481593600,6.737593505859375,4.1730828285217285,13.913066864013672,3.3583266735076904
1710952990500551400,6.756551513671875,3.8297126293182373,14.92283821105957,3.893122434616089
1710952990519509200,6.77550927734375,3.871587038040161,13.511073112487793,4.077369689941406
1710952990538467000,6.794467041015625,4.116851329803467,11.144571304321289,3.4672000408172607
1710952990557425200,6.813425048828125,4.006781578063965,9.477970123291016,2.926422119140625
1710952990576383000,6.832383056640625,3.8189449310302734,8.441878318786621,2.985046148300171
1710952990595340800,6.8513408203125,3.895515203475952,7.768298625946045,3.1824541091918945
1710952990614298600,6.870298583984375,4.2281174659729,7.4464640617370605,3.290131092071533
1710952990633256700,6.889256591796875,3.4995031356811523,7.4847493171691895,3.8368911743164062
1710952990652214500,6.908214599609375,2.9204399585723877,7.691728591918945,4.3657050132751465
1710952990671172400,6.92717236328125,3.005385160446167,8.070990562438965,4.516452789306641
1710952990690130400,6.94613037109375,3.383451223373413,8.405985832214355,4.400400638580322
1710952990709088300,6.965088134765625,3.5748770236968994,8.548358917236328,4.080958843231201
1710952990728046000,6.984046142578125,3.3583266735076904,8.62612533569336,3.513859987258911
1710952990747004200,7.003004150390625,3.0544381141662598,8.768498420715332,3.025724172592163
1710952990765962000,7.0219619140625,2.6141586303710938,9.075976371765137,2.823530673980713
1710952990784919800,7.040919921875,2.2085752487182617,9.184849739074707,2.706282377243042
1710952990803878000,7.0598779296875,3.2039895057678223,9.535398483276367,3.0245277881622314
1710952990822835700,7.078835693359375,3.352344512939453,9.404989242553711,3.2961132526397705
1710952990841793500,7.09779345703125,2.6177480220794678,8.684749603271484,3.129812002182007
1710952990860751600,7.116751708984375,2.1822543144226074,8.181060791015625,2.9730820655822754
1710952990879709400,7.13570947265625,2.5902304649353027,8.082955360412598,2.770888566970825
1710952990898667300,7.154667236328125,3.0101709365844727,8.09970474243164,3.0137600898742676
1710952990917625300,7.173625244140625,3.19441819190979,8.080561637878418,3.3020951747894287
1710952990936583200,7.192583251953125,3.142972469329834,7.977670669555664,3.377469062805176
1710952990955541000,7.211541015625,2.9754750728607178,8.135597229003906,3.45882511138916
1710952990974499000,7.2304990234375,2.977867841720581,8.434700012207031,3.775874137878418
1710952990993457000,7.249456787109375,2.9048867225646973,8.654839515686035,4.030709743499756
1710952991012415000,7.2684150390625,2.8498518466949463,8.7505521774292,4.01037073135376
1710952991031372800,7.287372802734375,2.8689942359924316,8.797212600708008,3.895515203475952
1710952991050331000,7.306330810546875,2.768495798110962,8.733802795410156,3.7052857875823975
1710952991069288700,7.325288818359375,2.854637384414673,8.700303077697754,3.658625841140747
1710952991088246500,7.34424658203125,3.0376882553100586,8.801998138427734,3.827319860458374
1710952991107204600,7.36320458984375,3.2135608196258545,8.749356269836426,3.9397823810577393
1710952991126162400,7.382162353515625,3.2590243816375732,8.615358352661133,3.867997884750366
1710952991145120300,7.401120361328125,3.078366279602051,8.504091262817383,3.482753276824951
1710952991164078300,7.420078369140625,2.7565317153930664,8.384450912475586,3.0939197540283203
1710952991183036200,7.4390361328125,2.654836654663086,8.367700576782227,2.8929226398468018
1710952991201994200,7.457994140625,2.667997360229492,8.545966148376465,2.991028308868408
1710952991220952000,7.4769521484375,2.6045875549316406,8.745766639709473,3.0424740314483643
1710952991239910100,7.49591015625,2.5698914527893066,8.886942863464355,3.111865758895874
1710952991258868000,7.514867919921875,2.592623233795166,8.924032211303711,3.2039895057678223
1710952991277825800,7.53382568359375,2.6763720512390137,8.940781593322754,3.3056845664978027
1710952991296784000,7.552783935546875,2.678765058517456,8.957531929016113,3.3332018852233887
1710952991315741700,7.57174169921875,2.4406790733337402,9.018548965454102,3.397808074951172
1710952991334699800,7.59069970703125,2.258824586868286,9.135796546936035,3.586841106414795
1710952991353657600,7.60965771484375,2.221735715866089,9.31884765625,3.757927894592285
1710952991372615700,7.62861572265625,1.9369899034500122,9.503094673156738,4.180261135101318
1710952991391573500,7.647573486328125,1.683350682258606,9.773484230041504,4.411168575286865
1710952991410531300,7.66653125,0.5120640397071838,9.626325607299805,3.9672999382019043
1710952991429489400,7.685489501953125,1.3244273662567139,9.635896682739258,4.557130813598633
1710952991448447200,7.704447265625,1.812563180923462,9.28893756866455,5.19242525100708
1710952991467405300,7.7234052734375,2.190629243850708,8.80798053741455,5.898307800292969
1710952991486363100,7.742363037109375,2.368894338607788,8.298309326171875,6.488138675689697
1710952991505321200,7.7613212890625,2.4335005283355713,7.832904815673828,6.760920524597168
1710952991524279000,7.780279052734375,2.3569302558898926,7.496713161468506,6.526423931121826
1710952991543237000,7.799237060546875,2.0446670055389404,7.435696601867676,6.067001819610596
1710952991562195000,7.81819482421875,1.5026925802230835,7.499105930328369,5.682953834533691
1710952991581153000,7.837153076171875,0.8470591902732849,7.6977105140686035,5.32403039932251
1710952991600110800,7.85611083984375,0.5240281820297241,8.441878318786621,4.981856822967529
1710952991619069000,7.87506884765625,0.3601198196411133,9.396614074707031,5.356333255767822
1710952991638026800,7.89402685546875,0.8817551732063293,9.139386177062988,5.911468505859375
1710952991656984800,7.91298486328125,1.5134602785110474,7.94297456741333,6.214160442352295
1710952991675942700,7.931942626953125,1.8556339740753174,6.722635269165039,6.262016773223877
1710952991694900700,7.950900634765625,2.111665964126587,5.8612189292907715,6.126822471618652
1710952991713858600,7.969858642578125,2.0650060176849365,5.588437080383301,6.063412666320801
1710952991732816600,7.988816650390625,1.9022940397262573,5.965306758880615,6.137589931488037
1710952991751774500,8.0077744140625,1.726421594619751,6.80877685546875,6.302694797515869
1710952991770732500,8.026732666015626,1.423729419708252,7.452445983886719,6.344569206237793
1710952991789690400,8.0456904296875,1.0947163105010986,7.588837146759033,6.241677761077881
1710952991808648400,8.0646484375,0.9942178130149841,7.341179847717285,5.869594097137451
1710952991827606500,8.0836064453125,1.0863415002822876,7.1162543296813965,5.60399055480957
1710952991846564400,8.102564453125,1.25144624710083,7.0887370109558105,5.772684574127197
1710952991865522400,8.1215224609375,1.6067804098129272,7.215556621551514,6.296712875366211
1710952991884480300,8.140480224609375,1.8855443000793457,7.301698207855225,6.719046115875244
1710952991903438300,8.159438232421875,2.0099709033966064,7.227520942687988,6.8997039794921875
1710952991922396200,8.178396240234376,2.0410776138305664,7.000202655792236,6.6939215660095215
1710952991941354200,8.197354248046874,2.0027925968170166,6.740581512451172,6.488138675689697
1710952991960312000,8.21631201171875,1.7515461444854736,6.509674072265625,6.363711833953857
1710952991979270100,8.235270263671875,1.7048860788345337,6.495316982269287,6.199803352355957
1710952991998228000,8.25422802734375,1.561316728591919,6.787241458892822,6.190232276916504
1710952992017186000,8.27318603515625,1.397408366203308,7.307680130004883,6.40438985824585
1710952992036144000,8.29214404296875,1.3423734903335571,7.926225185394287,6.845865726470947
1710952992055102000,8.31110205078125,1.34476637840271,8.410771369934082,7.128218650817871
1710952992074060000,8.33006005859375,1.32921302318573,8.50169849395752,6.943971157073975
1710952992093017900,8.349017822265624,1.2406785488128662,8.337790489196777,6.567101955413818
1710952992111976000,8.367975830078125,1.140179991722107,8.033902168273926,6.185446739196777
1710952992130933800,8.386933837890625,0.5862415432929993,7.69531774520874,5.974878311157227
1710952992149891800,8.405891845703126,0.7992027401924133,7.494320392608643,5.796612739562988
1710952992168849700,8.424849609375,0.638883650302887,7.2574310302734375,5.862415313720703
1710952992187807700,8.443807861328125,0.5060819983482361,7.019345283508301,5.819344520568848
1710952992206765800,8.462765869140625,0.5694918036460876,7.361518859863281,5.8133625984191895
1710952992225723600,8.4817236328125,0.380458801984787,8.117650985717773,6.092126369476318
1710952992244681700,8.500681640625,0.37088751792907715,8.203792572021484,6.351747512817383
1710952992263639600,8.5196396484375,0.45583271980285645,7.909475326538086,6.392425537109375
1710952992282597600,8.53859765625,0.48454657196998596,7.395018577575684,6.168696880340576
1710952992301555500,8.557555419921876,0.48095735907554626,6.926024913787842,5.947360515594482
1710952992320513500,8.576513427734374,0.3170489966869354,6.711867332458496,5.9306111335754395
1710952992339471600,8.5954716796875,0.33020952343940735,6.803991317749023,6.013163089752197
1710952992358429400,8.614429443359375,0.4833501875400543,6.991827964782715,6.241677761077881
1710952992377387500,8.633387451171876,0.5814558863639832,7.046862602233887,6.616154670715332
1710952992396345600,8.652345703125,0.4019941985607147,7.0061845779418945,6.8482584953308105
1710952992415303400,8.671303466796875,0.32662028074264526,6.8757758140563965,6.943971157073975
1710952992434261500,8.690261474609375,0.5108676552772522,6.758527755737305,7.502695560455322
1710952992453219300,8.70921923828125,0.534795880317688,6.788437843322754,7.519444942474365
1710952992472177400,8.728177490234375,0.4953143000602722,6.763313293457031,7.203592777252197
1710952992491135500,8.747135498046875,0.44386860728263855,6.781259536743164,7.191628456115723
1710952992510093300,8.76609326171875,0.13160525262355804,6.946363925933838,7.5050883293151855
1710952992529051400,8.785051513671876,-0.0849452018737793,7.0025954246521,7.643871784210205
1710952992548009200,8.80400927734375,-0.13040883839130402,6.893722057342529,7.478767395019531
1710952992566967300,8.82296728515625,-0.1423729509115219,6.771687984466553,7.255038261413574
1710952992585925400,8.84192529296875,-0.09212367236614227,6.73938512802124,7.013363361358643
1710952992604883200,8.86088330078125,0.020338991656899452,6.823133945465088,6.681957244873047
1710952992623841300,8.87984130859375,-0.019142581149935722,7.019345283508301,6.405586242675781
1710952992642799000,8.898799072265625,-0.24646073579788208,7.35314416885376,6.265605926513672
1710952992661757200,8.917757080078125,-0.3290131092071533,7.625925540924072,6.187839508056641
1710952992680715300,8.93671533203125,-0.12921242415905,7.788637638092041,6.288337707519531
1710952992699673000,8.955673095703125,-0.05024927482008934,7.715656757354736,6.035895347595215
1710952992718631200,8.974631103515625,0.2679961323738098,7.350750923156738,5.936593055725098
1710952992737589000,8.993589111328125,0.14835500717163086,6.914061069488525,5.994020938873291
1710952992756547000,9.012547119140624,0.059820566326379776,6.604190349578857,6.204588890075684
1710952992775505200,9.031505126953125,0.4654040038585663,6.570691108703613,6.484549522399902
1710952992794463000,9.050462890625,0.7501499056816101,6.818347930908203,6.766902446746826
1710952992813421000,9.069421142578125,0.9750752449035645,6.9930243492126465,7.168896675109863
1710952992832379000,9.08837890625,1.0085747241973877,6.843472957611084,7.464410305023193
1710952992851337000,9.1073369140625,0.9367900490760803,6.51326322555542,7.424928665161133
1710952992870294800,9.126294677734375,0.6903293132781982,6.198606967926025,7.154539585113525
1710952992889252900,9.1452529296875,0.259621262550354,6.098108291625977,7.0887370109558105
1710952992908210700,9.164210693359376,-0.003589233849197626,6.337390899658203,7.244270324707031
1710952992927168800,9.183168701171875,-0.02512463741004467,6.672386169433594,7.460821151733398
1710952992946126800,9.202126953125,-0.04666004329919815,6.780063152313232,7.805387496948242
1710952992965084700,9.221084716796875,-0.016749758273363113,6.55992317199707,7.860422611236572
1710952992984042800,9.240042724609374,-0.061016976833343506,6.308676719665527,7.630711555480957
1710952993003000600,9.25900048828125,-0.1495514214038849,6.3014984130859375,7.366304397583008
1710952993021958700,9.277958740234375,-0.1866401731967926,6.514459609985352,7.167700290679932
1710952993040916700,9.296916748046876,-0.15074782073497772,6.6939215660095215,6.868597507476807
1710952993059874600,9.31587451171875,-0.38644084334373474,6.6592254638671875,6.667600154876709
1710952993078832600,9.33483251953125,-0.5072783827781677,6.558726787567139,6.667600154876709
1710952993097790500,9.35379052734375,-0.43190449476242065,6.507281303405762,6.796812534332275
1710952993116748500,9.37274853515625,-0.16510476171970367,6.457031726837158,7.007380962371826
1710952993135706600,9.39170654296875,0.1495514214038849,6.5252275466918945,7.10429048538208
1710952993154664400,9.41066455078125,0.02632104977965355,6.711867332458496,7.039684295654297
1710952993173622500,9.42962255859375,-0.2225325107574463,7.118647575378418,7.22034215927124
1710952993192580400,9.448580322265625,-0.4977070987224579,7.777870178222656,7.448856830596924
1710952993211538400,9.467538330078124,-0.6496513485908508,8.35453987121582,7.53140926361084
1710952993230496500,9.48649658203125,-0.6221339106559753,8.249256134033203,7.651050567626953
1710952993249454300,9.505454345703125,-0.06580262631177902,7.294519901275635,7.694121360778809
1710952993268412400,9.524412353515626,0.3445664644241333,6.1603217124938965,7.685746192932129
1710952993287370200,9.543370361328124,0.3290131092071533,5.359922885894775,7.801798343658447
1710952993306328300,9.562328369140625,0.13040883839130402,5.352744102478027,8.084151268005371
1710952993325286100,9.5812861328125,0.007178467698395252,6.424728870391846,8.775676727294922
1710952993344244200,9.600244140625,0.5647061467170715,7.34476900100708,9.293723106384277
1710952993363202000,9.6192021484375,0.8638089895248413,6.8410797119140625,8.572287559509277
1710952993382160100,9.63816015625,0.5659025311470032,5.225924491882324,6.805187702178955
1710952993401118000,9.657117919921875,-0.24646073579788208,4.380061626434326,5.7619171142578125
1710952993420076000,9.676075927734376,-0.916451096534729,4.9878387451171875,6.26440954208374
1710952993439034000,9.6950341796875,-0.7226324677467346,6.638886451721191,8.075776100158691
1710952993457992000,9.713991943359375,-0.015553346835076809,7.629515171051025,9.247062683105469
1710952993476950000,9.732949951171875,-0.10289137065410614,7.3878397941589355,8.638090133666992
1710952993495908000,9.751908203125,0.641276478767395,6.3361945152282715,8.475378036499023
1710952993514866000,9.770865966796874,0.7513462901115417,5.598008632659912,7.910671710968018
1710952993533824000,9.789823974609375,0.6915257573127747,5.1768717765808105,7.8317084312438965
1710952993552781800,9.80878173828125,0.4534398913383484,5.1218366622924805,7.835297584533691
1710952993571740000,9.827739990234376,0.2727817893028259,5.43290376663208,8.049455642700195
1710952993590697700,9.84669775390625,0.3290131092071533,5.68893575668335,8.103293418884277
1710952993609655800,9.86565576171875,0.3720839321613312,5.638686656951904,8.041080474853516
1710952993628613600,9.884613525390625,0.3038884699344635,5.571687698364258,8.039883613586426
1710952993647571700,9.90357177734375,0.31465616822242737,5.67338228225708,8.292326927185059
1710952993666529500,9.922529541015624,0.3768695592880249,5.632704734802246,8.349754333496094
1710952993685487600,9.941487548828125,0.48813581466674805,5.291727066040039,8.214560508728027
1710952993704445700,9.96044580078125,0.44745782017707825,5.209175109863281,8.190631866455078
1710952993723403500,9.979403564453126,0.22851456701755524,5.478367328643799,8.263612747192383
1710952993742361600,9.998361572265624,-0.016749758273363113,6.071787357330322,8.38684368133545
1710952993761319400,10.0173193359375,-0.46061834692955017,6.654439926147461,8.537590980529785
1710952993780277500,10.036277587890625,-0.7992027401924133,7.025327205657959,8.405985832214355
1710952993799235300,10.0552353515625,-0.8662018179893494,6.952346324920654,7.846065521240234
1710952993818193400,10.074193359375,-0.9451649188995361,6.317051887512207,7.176074981689453
1710952993837151200,10.093151123046875,-0.9032905697822571,5.662614822387695,6.660421848297119
1710952993856109300,10.112109375,-0.8805587291717529,5.465207099914551,6.533602237701416
1710952993875067100,10.131067138671876,-0.865005373954773,5.643472194671631,6.814758777618408
1710952993894025200,10.150025146484374,-0.5706881880760193,5.650650501251221,6.960721015930176
1710952993912983000,10.168983154296875,-0.24167509377002716,5.292923450469971,6.935596466064453
1710952993931941000,10.187941162109375,-0.13998012244701385,4.999803066253662,7.17368221282959
1710952993950899000,10.20689892578125,0.035892341285943985,5.236692428588867,7.802994728088379
1710952993969857000,10.22585693359375,0.08853443711996078,5.702096462249756,8.446663856506348
1710952993988814800,10.24481494140625,0.1543370634317398,6.130411624908447,8.864211082458496
1710952994007773000,10.26377294921875,0.19142581522464752,6.3840508460998535,8.886942863464355
1710952994026731000,10.28273095703125,0.1136590763926506,6.315855503082275,8.469395637512207
1710952994045688800,10.301688720703124,-0.1698904037475586,6.015556335449219,7.818548202514648
1710952994064646700,10.320646728515625,-0.48095735907554626,5.654240131378174,7.302894592285156
1710952994083604700,10.339604736328125,-0.4977070987224579,5.400600910186768,7.201199531555176
1710952994102562600,10.3585625,-0.31824541091918945,5.298905849456787,7.477570533752441
1710952994121520600,10.377520751953124,-0.14117653667926788,5.279763221740723,7.940581798553467
1710952994140478700,10.396478759765625,-0.06340979784727097,5.280959606170654,8.304290771484375
1710952994159436500,10.4154365234375,-0.09810572862625122,5.335994720458984,8.512466430664062
1710952994178394400,10.434394287109376,-0.13040883839130402,5.327619552612305,8.489734649658203
1710952994197352400,10.4533525390625,0.06819544732570648,5.2737812995910645,8.408378601074219
1710952994216310300,10.472310302734375,-0.12442677468061447,5.205585479736328,8.079365730285645
1710952994235268400,10.491268310546875,-0.31465616822242737,5.272584915161133,7.950153350830078
1710952994254226400,10.510226318359376,-0.3936193287372589,5.522634506225586,7.929814338684082
1710952994273184300,10.529184326171874,-0.3936193287372589,5.828916072845459,8.01356315612793
1710952994292142000,10.54814208984375,-0.3242274820804596,5.946164131164551,7.983652591705322
1710952994311100200,10.56710009765625,-0.259621262550354,5.990431308746338,7.8819580078125
1710952994330058000,10.58605810546875,-0.2727817893028259,6.055037498474121,7.767102241516113
1710952994349016000,10.60501611328125,-0.29790642857551575,6.062216281890869,7.651050567626953
1710952994367974000,10.623973876953125,-0.3481557071208954,6.105287075042725,7.653443336486816
1710952994386932000,10.642931884765625,-0.36251261830329895,6.226124286651611,7.755138397216797
1710952994405889800,10.661889892578126,-0.36729827523231506,6.204588890075684,7.77188777923584
1710952994424848000,10.680847900390624,-0.39481574296951294,6.081358909606934,7.70249605178833
1710952994443805700,10.6998056640625,-0.4366901218891144,6.062216281890869,7.7491559982299805
1710952994462763800,10.718763671875,-0.4701896607875824,6.094519138336182,7.847261905670166
1710952994481721600,10.7377216796875,-0.4749752879142761,6.120840549468994,7.959724426269531
1710952994500679400,10.756679443359374,-0.45583271980285645,6.07896614074707,8.094919204711914
1710952994519637500,10.775637451171875,-0.34576287865638733,5.965306758880615,8.227720260620117
1710952994538595600,10.794595703125,-0.24287149310112,5.866004943847656,8.171489715576172
1710952994557553400,10.813553466796876,-0.2919243574142456,5.869594097137451,8.085348129272461
1710952994576511200,10.83251123046875,-0.26560330390930176,5.864808082580566,8.097311973571777
1710952994595469300,10.85146923828125,-0.22013968229293823,5.791827201843262,8.11525821685791
1710952994614427100,10.87042724609375,-0.064606212079525,5.711667537689209,8.191828727722168
1710952994633385200,10.88938525390625,0.05742774158716202,5.608776092529297,8.102097511291504
1710952994652343000,10.908343017578124,0.009571290574967861,5.625525951385498,7.8795647621154785
1710952994671301000,10.927301025390625,-0.21655045449733734,5.826523303985596,7.741977691650391
1710952994690259000,10.946259033203125,-0.4295116662979126,6.049055576324463,7.625925540924072
1710952994709216800,10.965216796875,-0.4295116662979126,6.119643688201904,7.323233604431152
1710952994728174800,10.9841748046875,-0.42352959513664246,6.256034851074219,6.881757736206055
1710952994747132700,11.003132568359375,-0.6245267391204834,6.482156753540039,6.545566558837891
1710952994766090800,11.0220908203125,-0.8434699773788452,6.715456962585449,6.307480335235596
1710952994785048600,11.041048583984375,-1.0492527484893799,6.988238334655762,6.16391134262085
1710952994804006400,11.06000634765625,-1.124626636505127,7.22871732711792,6.130411624908447
1710952994822964500,11.078964599609375,-1.0863415002822876,7.311269760131836,6.179464340209961
1710952994841922600,11.097922607421875,-1.038485050201416,7.351947784423828,6.4115681648254395
1710952994860880400,11.11688037109375,-1.031306505203247,7.359126091003418,6.842276573181152
1710952994879838200,11.135838134765624,-0.9559326171875,7.195217609405518,7.10429048538208
1710952994898796300,11.15479638671875,-0.6939185857772827,6.831508636474609,7.183253765106201
1710952994917754000,11.173754150390625,-0.5324030518531799,6.581458568572998,7.373483180999756
1710952994936712000,11.1927119140625,-0.5204389095306396,6.4594244956970215,7.506284713745117
1710952994955670000,11.211669921875,-0.607776939868927,6.4594244956970215,7.590033531188965
1710952994974627800,11.2306279296875,-0.7345965504646301,6.49770975112915,7.631907939910889
1710952994993585700,11.249585693359375,-0.8446664214134216,6.7106709480285645,7.59362268447876
1710952995012543700,11.268543701171875,-0.9595218896865845,6.807580471038818,7.448856830596924
1710952995031501800,11.287501708984376,-0.9762716293334961,6.6915283203125,7.312466144561768
1710952995050459600,11.306459716796875,-1.0037890672683716,6.441478729248047,7.135396957397461
1710952995069417500,11.32541748046875,-1.1904292106628418,6.21774959564209,6.963113784790039
1710952995088375600,11.34437548828125,-1.3938192129135132,6.028716564178467,6.853044033050537
1710952995107333400,11.36333349609375,-1.557727575302124,5.810969829559326,6.796812534332275
1710952995126291200,11.382291259765625,-1.6618152856826782,5.6099724769592285,6.849454879760742
1710952995145249300,11.401249267578125,-1.6893328428268433,5.529813289642334,7.106683254241943
1710952995164207000,11.42020703125,-1.5302101373672485,5.667400360107422,7.624729156494141
1710952995183165200,11.439165283203126,-1.3351950645446777,5.842076301574707,8.214560508728027
1710952995202123000,11.458123046875,-1.1700903177261353,5.9306111335754395,8.498109817504883
1710952995221080800,11.477080810546875,-1.0791629552841187,5.923432350158691,8.440681457519531
1710952995240039000,11.496038818359375,-0.9930213689804077,5.8133625984191895,8.13798999786377
1710952995258996700,11.514996826171876,-1.0564311742782593,5.583651542663574,7.734799385070801
1710952995277954600,11.53395458984375,-1.0336993932724,5.874379634857178,7.652246952056885
1710952995296912600,11.55291259765625,-0.9020941257476807,6.8279194831848145,8.24566650390625
1710952995315870500,11.571870361328125,-0.4534398913383484,7.5050883293151855,8.671588897705078
1710952995334828300,11.590828369140626,-0.039481572806835175,7.287341594696045,8.323433876037598
1710952995353786400,11.609786376953124,0.10767702013254166,6.569494724273682,7.5673017501831055
1710952995372744200,11.628744140625,0.040677983313798904,6.137589931488037,6.915257453918457
1710952995391702000,11.647701904296875,-0.12083754688501358,6.075376510620117,6.478567123413086
1710952995410660000,11.66666015625,-0.3278166949748993,6.367300987243652,6.405586242675781
1710952995429618000,11.685617919921874,-0.4307080805301666,6.857829570770264,6.7178497314453125
1710952995448576000,11.704575927734375,-0.46779683232307434,7.255038261413574,7.176074981689453
1710952995467533800,11.723533935546875,-0.40677985548973083,7.3160552978515625,7.4500532150268555
1710952995486491600,11.74249169921875,-0.3517449200153351,7.160521984100342,7.659425258636475
1710952995505449700,11.76144970703125,-0.35533416271209717,6.926024913787842,7.974081516265869
1710952995524407600,11.780407470703125,-0.2955136001110077,6.547959327697754,8.177471160888672
1710952995543365400,11.799365478515625,-0.20458634197711945,5.933003902435303,8.02074146270752
1710952995562323500,11.818323486328126,-0.22492532432079315,5.498706340789795,7.885547161102295
1710952995581281300,11.83728125,-0.29312077164649963,5.447260856628418,7.813762187957764
1710952995600239000,11.856239013671875,-0.39960137009620667,5.639883041381836,7.730013370513916
1710952995619197200,11.875197265625,-0.5551348328590393,5.742774486541748,7.463213920593262
1710952995638155000,11.894155029296876,-0.6520441770553589,5.693721294403076,7.21316385269165
1710952995657112800,11.91311279296875,-0.6125625967979431,5.614758491516113,7.117451190948486
1710952995676071000,11.93207080078125,-0.5228317379951477,5.587240695953369,7.33759069442749
1710952995695028700,11.95102880859375,-0.3206382393836975,5.642275810241699,7.713263988494873
1710952995713986600,11.969986572265626,-0.15553347766399384,5.7272210121154785,8.038687705993652
1710952995732944600,11.988944580078124,-0.08973085135221481,5.757131099700928,8.251648902893066
1710952995751902500,12.00790234375,-0.04785645380616188,5.782256126403809,8.36411190032959
1710952995770860300,12.0268603515625,-0.09810572862625122,5.769095420837402,8.34018325805664
1710952995789818400,12.045818359375,-0.15074782073497772,5.711667537689209,8.327022552490234
1710952995808776200,12.064776123046874,-0.20817556977272034,5.6925249099731445,8.388039588928223
1710952995827734000,12.083734130859375,-0.24646073579788208,5.7272210121154785,8.426324844360352
1710952995846691800,12.10269189453125,-0.27756741642951965,5.7750773429870605,8.390432357788086
1710952995865650000,12.12164990234375,-0.3290131092071533,5.705685615539551,8.213363647460938
1710952995884607700,12.140607666015624,-0.3577269911766052,5.575276851654053,8.000402450561523
1710952995903565600,12.159565673828125,-0.39601215720176697,5.497509956359863,7.816154956817627
1710952995922523400,12.1785234375,-0.41156548261642456,5.501099109649658,7.753942012786865
1710952995941481500,12.1974814453125,-0.42352959513664246,5.5692949295043945,7.751548767089844
1710952995960439300,12.216439208984376,-0.44027936458587646,5.614758491516113,7.861618995666504
1710952995979397000,12.235397216796875,-0.3433700501918793,5.838487148284912,8.036294937133789
1710952995998355200,12.254355224609375,-0.35054850578308105,6.02393102645874,8.10688304901123
1710952996017313000,12.27331298828125,-0.4139583110809326,6.070590972900391,8.00518798828125
1710952996036270800,12.292270751953126,-0.4821537733078003,6.003592014312744,7.87358283996582
1710952996055229000,12.31122900390625,-0.5635097622871399,5.935396671295166,7.767102241516113
1710952996074186800,12.330186767578125,-0.6149554252624512,5.979663848876953,7.706085205078125
1710952996093144600,12.34914453125,-0.6436693072319031,6.1435723304748535,7.735995769500732
1710952996112102400,12.368102294921876,-0.6317051649093628,6.320641040802002,7.82692289352417
1710952996131060500,12.387060546875,-0.5419743061065674,6.374479293823242,7.8041911125183105
1710952996150018300,12.406018310546875,-0.4941178858280182,6.1399827003479,7.612765312194824
1710952996168976100,12.42497607421875,-0.4953143000602722,6.003592014312744,7.624729156494141
1710952996187934200,12.443934326171876,-0.4905286431312561,6.08614444732666,7.694121360778809
1710952996206892000,12.46289208984375,-0.4534398913383484,6.072983741760254,7.623532772064209
1710952996225849900,12.481849853515625,-0.4486542344093323,5.995217323303223,7.456035137176514
1710952996244807700,12.5008076171875,-0.4989035129547119,5.974878311157227,7.429714202880859
1710952996263765500,12.519765625,-0.5611169338226318,5.9545392990112305,7.523034572601318
1710952996282723600,12.5387236328125,-0.5467599630355835,5.866004943847656,7.588837146759033
1710952996301681400,12.557681396484375,-0.4582255482673645,5.849255084991455,7.706085205078125
1710952996320639200,12.57663916015625,-0.5132604837417603,5.879165172576904,7.825726509094238
1710952996339597000,12.59559716796875,-0.6017948985099792,5.86002254486084,7.825726509094238
1710952996358555100,12.61455517578125,-0.6149554252624512,5.855237007141113,7.768298625946045
1710952996377513000,12.633512939453125,-0.6293123364448547,5.836094379425049,7.670193195343018
1710952996396470800,12.652470703125,-0.656829833984375,5.8337016105651855,7.592426300048828
1710952996415428600,12.6714287109375,-0.6640082597732544,5.995217323303223,7.635497093200684
1710952996434386700,12.69038671875,-0.6891329288482666,6.150750637054443,7.6390862464904785
1710952996453344500,12.709344482421875,-0.6963114142417908,6.2105712890625,7.59362268447876
1710952996472302300,12.72830224609375,-0.6472585201263428,6.200999736785889,7.576872825622559
1710952996491260200,12.74726025390625,-0.6125625967979431,6.169893264770508,7.601997375488281
1710952996510218000,12.766218017578124,-0.6161518096923828,6.198606967926025,7.700103282928467
1710952996529176000,12.785176025390625,-0.6508477330207825,6.181857109069824,7.710870742797852
1710952996548134000,12.8041337890625,-0.6245267391204834,6.1603217124938965,7.685746192932129
1710952996567091700,12.823091796875,-0.5958128571510315,6.183053493499756,7.737192153930664
1710952996586049500,12.842049560546876,-0.5491527915000916,6.1435723304748535,7.732406139373779
1710952996605007600,12.861007568359375,-0.4953143000602722,6.068198204040527,7.739584922790527
1710952996623965400,12.87996533203125,-0.534795880317688,6.03948450088501,7.76470947265625
1710952996642923300,12.89892333984375,-0.6065805554389954,6.081358909606934,7.691728591918945
1710952996661881000,12.917881103515626,-0.607776939868927,6.096911907196045,7.652246952056885
1710952996680839000,12.9368388671875,-0.5790630578994751,6.071787357330322,7.601997375488281
1710952996699797000,12.955796875,-0.5359922647476196,6.03110933303833,7.4847493171691895
1710952996718754800,12.9747548828125,-0.5682953596115112,6.041877269744873,7.514659404754639
1710952996737712600,12.993712646484376,-0.5754738450050354,6.104090690612793,7.506284713745117
1710952996756670500,13.01267041015625,-0.5623133182525635,6.081358909606934,7.410571575164795
1710952996775628300,13.031628173828125,-0.641276478767395,6.063412666320801,7.377072334289551
1710952996794586400,13.05058642578125,-0.6628118753433228,6.214160442352295,7.456035137176514
1710952996813544200,13.069544189453126,-0.6149554252624512,6.295516490936279,7.454838752746582
1710952996832502000,13.088501953125,-0.6137589812278748,6.227321147918701,7.45364236831665
1710952996851459800,13.1074599609375,-0.5635097622871399,6.238088607788086,7.568498134613037
1710952996870417700,13.126417724609375,-0.5240281820297241,6.222535133361816,7.611568927764893
1710952996889375500,13.14537548828125,-0.4570291340351105,6.174678802490234,7.573283672332764
1710952996908333600,13.16433349609375,-0.4498506486415863,6.1914286613464355,7.6043901443481445
1710952996927291400,13.18329150390625,-0.5264210104942322,6.260820388793945,7.592426300048828
1710952996946249200,13.202249267578125,-0.5647061467170715,6.2871413230896,7.5804619789123535
1710952996965207000,13.22120703125,-0.537188708782196,6.228517532348633,7.529016494750977
1710952996984164900,13.240164794921874,-0.45942193269729614,6.082555294036865,7.460821151733398
1710952997003123000,13.259123046875,-0.34217363595962524,5.955735683441162,7.52423095703125
1710952997022080800,13.278080810546875,-0.3361915946006775,5.952146530151367,7.6390862464904785
1710952997041038600,13.29703857421875,-0.2991028428077698,5.990431308746338,7.808976650238037
1710952997059996400,13.315996337890626,-0.22971096634864807,6.0538411140441895,7.874779224395752
1710952997078954200,13.334954345703125,-0.16510476171970367,6.114858150482178,7.81974458694458
1710952997097912000,13.353912109375,-0.2021935135126114,6.1950178146362305,7.750352382659912
1710952997116870100,13.3728701171875,-0.29312077164649963,6.31944465637207,7.728816986083984
1710952997135828000,13.391827880859376,-0.41515472531318665,6.378068923950195,7.502695560455322
1710952997154785800,13.410785888671874,-0.5180460810661316,6.357729911804199,7.485945701599121
1710952997173743600,13.42974365234375,-0.745364248752594,6.412764549255371,7.115057945251465
1710952997192701400,13.448701416015625,-0.6005984544754028,6.299105644226074,7.162914752960205
1710952997211659300,13.4676591796875,-0.4486542344093323,6.075376510620117,7.256234645843506
1710952997230617000,13.4866171875,0.015553346835076809,5.923432350158691,7.4811601638793945
1710952997249575200,13.5055751953125,0.07896314561367035,5.874379634857178,7.527820110321045
1710952997268533000,13.524532958984375,0,6.080162525177002,7.622336387634277
1710952997287490800,13.54349072265625,-0.1136590763926506,6.337390899658203,7.70249605178833
1710952997306448600,13.56244873046875,-0.3122633695602417,6.338587284088135,7.714460372924805
1710952997325406500,13.581406494140625,-0.39601215720176697,6.137589931488037,7.616354465484619
1710952997344364300,13.6003642578125,-0.22133609652519226,5.976074695587158,7.544569969177246
1710952997363322000,13.619322021484376,-0.19980068504810333,5.854040622711182,7.386643409729004
1710952997382280000,13.638280029296874,0.10408778488636017,5.880361557006836,7.684549808502197
1710952997401237800,13.65723779296875,0.13878370821475983,6.251249313354492,8.183453559875488
1710952997420195800,13.67619580078125,0.03469592705368996,6.49770975112915,8.297112464904785
1710952997439153700,13.695153564453125,-0.04426721855998039,6.595815658569336,8.009973526000977
1710952997458111500,13.714111572265624,-0.02512463741004467,6.655636310577393,7.661818027496338
1710952997477069300,13.7330693359375,-0.02392822690308094,6.492924213409424,7.380661487579346
1710952997496027100,13.752027099609375,0.3397808074951172,6.394818305969238,7.375875949859619
1710952997514985000,13.77098486328125,0.4331009089946747,6.441478729248047,7.319644451141357
1710952997533942800,13.78994287109375,0.5156532526016235,6.647261142730713,7.195217609405518
1710952997552900600,13.808900634765624,0.7022934556007385,6.882954120635986,7.085147857666016
1710952997571858700,13.827858642578125,0.576670229434967,6.960721015930176,7.051648139953613
1710952997590816500,13.84681640625,0.363709032535553,6.8757758140563965,6.916453838348389
1710952997609774300,13.8657744140625,0.21296121180057526,6.7692952156066895,6.623332977294922
1710952997628732200,13.884732177734374,0.2273181527853012,6.93320369720459,6.332605361938477
1710952997647690000,13.90368994140625,0.4450650215148926,7.221538543701172,6.227321147918701
1710952997666647800,13.922647705078125,0.6221339106559753,7.409375190734863,6.247660160064697
1710952997685605600,13.941605712890626,0.6293123364448547,7.495516777038574,6.297909259796143
1710952997704563500,13.9605634765625,0.7130611538887024,7.598408222198486,6.324230194091797
1710952997723521300,13.979521240234375,1.1042876243591309,7.617550849914551,6.448657035827637
1710952997742479000,13.99847900390625,1.4105689525604248,7.554141044616699,6.593422889709473
1710952997761437000,14.01743701171875,1.293320655822754,7.420143127441406,6.589833736419678
1710952997780394800,14.036394775390624,1.2263215780258179,7.41535758972168,6.519245147705078
1710952997799352600,14.0553525390625,1.0815558433532715,7.5804619789123535,6.233303070068359
1710952997818310700,14.074310546875,0.8566305041313171,7.858029365539551,5.846862316131592
1710952997837268500,14.0932685546875,0.5060819983482361,8.085348129272461,5.576473236083984
1710952997856226300,14.112226318359374,0.3026920557022095,8.043473243713379,5.540580749511719
1710952997875184000,14.13118408203125,0.2847459018230438,7.724031448364258,5.551348686218262
1710952997894142000,14.150141845703125,0.9284151792526245,7.41416072845459,5.504688262939453
1710952997913099800,14.169099853515625,1.6606189012527466,7.592426300048828,5.631507873535156
1710952997932057600,14.1880576171875,1.537388563156128,7.93579626083374,6.040680885314941
1710952997951015400,14.207015380859374,1.0959128141403198,7.944170951843262,6.296712875366211
1710952997969973200,14.22597314453125,0.9667003750801086,7.782655715942383,6.238088607788086
1710952997988931000,14.24493115234375,0.8374879360198975,7.52423095703125,5.944967746734619
1710952998007889000,14.263888916015626,0.7226324677467346,7.323233604431152,5.284548759460449
1710952998026846700,14.2828466796875,0.48813581466674805,7.491927623748779,4.808377265930176
1710952998045804500,14.301804443359375,0.5048855543136597,7.818548202514648,4.694717884063721
1710952998064762400,14.320762451171875,0.38763725757598877,8.158329010009766,4.7473602294921875
1710952998083720200,14.33972021484375,0.5659025311470032,8.532805442810059,4.957928657531738
1710952998102678000,14.358677978515624,0.794417142868042,8.776873588562012,5.2283172607421875
1710952998121636000,14.377635986328125,1.0217353105545044,8.854640007019043,5.4173502922058105
1710952998140594000,14.396593994140625,1.054038405418396,8.7445707321167,5.577669620513916
1710952998159551700,14.4155517578125,1.077966570854187,8.592626571655273,5.685346603393555
1710952998178509300,14.43450927734375,1.2203395366668701,8.367700576782227,5.789434432983398
1710952998197467100,14.453467041015625,1.2705888748168945,8.11525821685791,5.804987907409668
1710952998216425200,14.47242529296875,1.2430713176727295,8.043473243713379,5.732006549835205
1710952998235383000,14.491383056640625,1.1736794710159302,7.909475326538086,5.62672233581543
1710952998254340900,14.5103408203125,1.077966570854187,7.8317084312438965,5.423332691192627
1710952998273298700,14.529298583984374,0.9535398483276367,7.835297584533691,5.212764263153076
1710952998292256500,14.548256591796875,0.8470591902732849,7.911868095397949,5.186442852020264
1710952998311214300,14.56721435546875,0.7310073375701904,7.995616912841797,5.237888813018799
1710952998330172200,14.586172119140626,0.6197410821914673,7.995616912841797,5.174479007720947
1710952998349130000,14.6051298828125,0.5970092415809631,7.995616912841797,5.102694511413574
1710952998368087800,14.624087890625,0.5718846321105957,8.02074146270752,5.112265586853027
1710952998387045600,14.643045654296875,0.625723123550415,8.128418922424316,5.058426856994629
1710952998406003500,14.66200341796875,0.5718846321105957,8.207381248474121,5.213960647583008
1710952998424961300,14.680961181640624,0.6161518096923828,8.273183822631836,5.411368370056152
1710952998443919000,14.699919189453125,0.711864709854126,8.322237014770508,5.490331649780273
1710952998462877000,14.718876953125,0.8267202377319336,8.34138011932373,5.548955917358398
1710952998481834800,14.737834716796876,1.0013962984085083,8.212167739868164,5.777470111846924
1710952998500792600,14.75679248046875,1.1042876243591309,8.105687141418457,5.90668249130249
1710952998519750400,14.77575048828125,1.0037890672683716,7.941778182983398,5.9437713623046875
1710952998538708200,14.794708251953125,0.9056833982467651,7.872386455535889,5.851647853851318
1710952998557666000,14.813666015625,0.8614161610603333,8.054241180419922,5.782256126403809
1710952998576623900,14.832623779296876,0.8039883971214294,8.169096946716309,5.765506267547607
1710952998595581700,14.851581787109374,0.7740781307220459,8.124829292297363,5.691328525543213
1710952998614539500,14.87053955078125,0.7537391185760498,7.910671710968018,5.477170944213867
1710952998633497300,14.889497314453125,0.6448656916618347,7.8041911125183105,5.43290376663208
1710952998652455200,14.908455078125,0.6209374666213989,7.858029365539551,5.511867046356201
1710952998671413000,14.9274130859375,0.5300102233886719,7.927421569824219,5.639883041381836
1710952998690370800,14.946370849609375,0.39481574296951294,7.9489569664001465,5.6793646812438965
1710952998709328600,14.96532861328125,0.27038896083831787,7.8795647621154785,5.546562671661377
1710952998728286500,14.984286376953126,0.2069791555404663,7.797012805938721,5.300102233886719
1710952998747244300,15.003244384765624,0.24406790733337402,7.763513088226318,4.9531426429748535
1710952998766202000,15.0222021484375,0.8123632669448853,7.939385414123535,5.0703911781311035
1710952998785160000,15.041159912109375,0.4989035129547119,7.758727550506592,5.0907301902771
1710952998804117800,15.06011767578125,0.040677983313798904,7.659425258636475,5.002195835113525
1710952998823075600,15.07907568359375,-0.2476571500301361,7.677371501922607,5.036891460418701
1710952998842033400,15.098033447265625,0.3194418251514435,7.971688747406006,4.910071849822998
1710952998860991200,15.1169912109375,0.9032905697822571,8.467002868652344,4.776073932647705
1710952998879949000,15.135948974609375,0.8733802437782288,8.812766075134277,4.839483737945557
1710952998898907000,15.154906982421876,0.5443671345710754,8.943174362182617,5.000999450683594
1710952998917864700,15.17386474609375,0.2189432680606842,8.888139724731445,4.965106964111328
1710952998936822500,15.192822509765625,0.035892341285943985,8.709874153137207,4.735395908355713
1710952998955780400,15.2117802734375,-0.12323036789894104,8.62014389038086,4.212564468383789
1710952998974738200,15.23073828125,-0.20578274130821228,9.1716890335083,3.964907169342041
1710952998993696000,15.249696044921874,-0.03469592705368996,9.784252166748047,4.269991874694824
1710952999012653800,15.26865380859375,0.3074777126312256,9.964909553527832,4.593023300170898
1710952999031611600,15.287611572265625,0.6149554252624512,10.022337913513184,4.316651821136475
1710952999050569500,15.306569580078126,1.0169496536254883,10.317851066589355,3.871587038040161
1710952999069527300,15.32552734375,1.4344971179962158,10.761719703674316,3.284149169921875
1710952999088485000,15.344485107421875,1.3471591472625732,10.64806079864502,2.851048231124878
1710952999107443200,15.363443115234375,0.7824530005455017,9.91107177734375,2.1511476039886475
1710952999126400800,15.38240087890625,-0.11246266216039658,8.86062240600586,1.4368900060653687
1710952999145358600,15.401358642578124,-0.7046862840652466,7.907082557678223,0.8003991842269897
1710952999164316400,15.42031640625,0.009571290574967861,7.454838752746582,0.14715859293937683
1710952999183274500,15.4392744140625,0.4749752879142761,7.77188777923584,0.10648060590028763
1710952999202232300,15.458232421875,0.42831525206565857,8.963513374328613,0.5060819983482361
1710952999221190100,15.477190185546876,0.15672987699508667,10.596614837646484,1.1569297313690186
1710952999240148000,15.49614794921875,-0.11605189740657806,12.177074432373047,2.087737798690796
1710952999259105800,15.515105712890625,-0.038285162299871445,12.912867546081543,3.565305709838867
1710952999278063600,15.534063720703125,0.9128618240356445,12.440284729003906,4.823930263519287
1710952999297021400,15.553021484375,2.1786649227142334,11.422139167785645,4.949553489685059
1710952999315979300,15.571979248046874,2.943171739578247,10.137192726135254,4.792823791503906
1710952999334937000,15.59093701171875,2.495713949203491,9.20279598236084,4.164707660675049
1710952999353895000,15.60989501953125,2.0315065383911133,8.782855987548828,3.6502509117126465
1710952999372852700,15.628852783203126,0.9499505758285522,7.9585280418396,3.1513473987579346
1710952999391810600,15.647810546875,0.7214360237121582,7.200003147125244,2.8725836277008057
1710952999410768400,15.666768310546875,0.8506484627723694,6.93320369720459,2.407179594039917
1710952999429726200,15.685726318359375,1.073180913925171,7.247859954833984,2.561516523361206
1710952999448684000,15.70468408203125,1.5469598770141602,7.619943618774414,3.1561331748962402
1710952999467642000,15.72364208984375,1.825723648071289,7.858029365539551,3.438486099243164
1710952999486600000,15.742599853515625,1.8951154947280884,7.860422611236572,3.4085757732391357
1710952999505557800,15.761557861328125,1.9896320104599,7.716853141784668,3.3954153060913086
1710952999524515600,15.780515625,2.225325107574463,7.64028263092041,3.6945180892944336
1710952999543473400,15.799473388671874,2.544766902923584,7.689335346221924,4.089334011077881
1710952999562431200,15.81843115234375,2.5734808444976807,7.899903774261475,4.1970109939575195
1710952999581389000,15.83738916015625,2.5088746547698975,8.081758499145508,4.24367094039917
1710952999600347000,15.856346923828125,2.4562325477600098,8.018348693847656,4.286741733551025
1710952999619304700,15.8753046875,2.2193429470062256,7.82692289352417,3.94097900390625
1710952999638262800,15.8942626953125,2.118844509124756,7.980063438415527,3.700500249862671
1710952999657220400,15.913220458984375,2.080559253692627,8.34138011932373,4.013959884643555
1710952999676178400,15.932178466796875,2.1092731952667236,8.537590980529785,4.730610370635986
1710952999695136300,15.95113623046875,2.489732027053833,8.669196128845215,5.424529075622559
1710952999714094000,15.970093994140624,2.8869404792785645,8.689535140991211,6.003592014312744
1710952999733052000,15.989052001953125,2.92283296585083,8.451449394226074,5.810969829559326
1710952999752009700,16.008009765625,3.2135608196258545,8.490931510925293,5.795416355133057
1710952999770967600,16.026967529296876,3.2853455543518066,8.959924697875977,5.533402442932129
1710952999789925400,16.04592529296875,3.208775281906128,9.77826976776123,5.649454116821289
1710952999808883500,16.064883544921877,3.157329559326172,10.200602531433105,5.702096462249756
1710952999827841300,16.08384130859375,3.201596736907959,10.189835548400879,5.346762180328369
1710952999846799000,16.102799072265626,3.3894333839416504,9.649057388305664,4.856233596801758
1710952999865757000,16.1217568359375,3.5605201721191406,8.565108299255371,4.3657050132751465
1710952999884714800,16.14071484375,3.8979079723358154,7.678567886352539,3.5820555686950684
1710952999903672600,16.159672607421875,3.9565322399139404,8.12123966217041,2.610569477081299
1710952999922630400,16.17863037109375,4.156332969665527,9.716055870056152,2.472982168197632
1710952999941588500,16.19758837890625,3.9361932277679443,11.127821922302246,2.92283296585083
1710952999960546300,16.21654638671875,3.8261234760284424,10.85743236541748,2.9515466690063477
1710952999979504000,16.235504150390625,3.7746777534484863,10.314262390136719,2.8283164501190186
1710952999998462000,16.2544619140625,3.6646077632904053,9.501898765563965,2.5986053943634033
1710953000017419800,16.273419677734374,3.136990547180176,8.694320678710938,2.7517459392547607
1710953000036377600,16.292377685546874,3.2303106784820557,8.120043754577637,2.9479575157165527
1710953000055335700,16.311335693359375,3.4157543182373047,7.939385414123535,3.5808591842651367
1710953000074293500,16.33029345703125,3.160918712615967,7.654639720916748,3.851248025894165
1710953000093251300,16.349251220703124,2.6464617252349854,7.188039302825928,3.5581271648406982
1710953000112209200,16.368209228515624,2.3306093215942383,7.502695560455322,3.5676984786987305
1710953000131167000,16.3871669921875,1.9848463535308838,8.039883613586426,3.421736478805542
1710953000150125000,16.406125,1.7718851566314697,8.164310455322266,3.077169895172119
1710953000169083000,16.425082763671874,2.313859462738037,8.242077827453613,3.267399311065674
1710953000188040700,16.444040771484374,2.7936203479766846,8.15234661102295,4.281956195831299
1710953000206998500,16.46299853515625,2.33180570602417,7.7180495262146,4.522434711456299
1710953000225956400,16.481956298828123,1.3651052713394165,7.456035137176514,4.241278171539307
1710953000244914400,16.50091455078125,1.0109676122665405,7.852047443389893,4.187439441680908
1710953000263872300,16.519872314453124,0.9080761671066284,8.48016357421875,4.564309120178223
1710953000282830000,16.538830078125,0.8865407705307007,8.537590980529785,4.893322467803955
1710953000301788000,16.557787841796873,1.2813565731048584,8.087740898132324,5.236692428588867
1710953000320745700,16.576745849609374,1.1365907192230225,7.267002582550049,5.791827201843262
1710953000339703800,16.595703857421874,0.7489534616470337,6.62931489944458,5.4173502922058105
1710953000358661600,16.61466162109375,1.2023934125900269,6.903293132781982,5.772684574127197
1710953000377619500,16.633619384765623,1.794616937637329,7.479963779449463,6.473781585693359
1710953000396577300,16.652577392578124,2.108076810836792,7.794619560241699,6.777669906616211
1710953000415535400,16.671535400390624,1.2574282884597778,7.579265594482422,5.929414749145508
1710953000434493200,16.6904931640625,1.384247899055481,7.087540626525879,5.400600910186768
1710953000453451000,16.709450927734373,1.4620146751403809,7.076773166656494,5.337191104888916
1710953000472408800,16.728408935546874,0.7920243144035339,7.592426300048828,5.3108696937561035
1710953000491366700,16.74736669921875,0.8267202377319336,8.112865447998047,5.054837703704834
1710953000510324700,16.76632470703125,0.914058268070221,8.295916557312012,5.015356063842773
1710953000529282600,16.785282470703127,0.5132604837417603,8.81515884399414,5.446064472198486
1710953000548240400,16.804240478515624,0.5946164131164551,9.468399047851562,6.64486837387085
1710953000567198200,16.8231982421875,1.2323036193847656,9.56052303314209,7.976474285125732
1710953000586156300,16.84215625,2.4670002460479736,9.66819953918457,8.935996055603027
1710953000605114000,16.861114013671877,3.5808591842651367,9.248259544372559,8.992227554321289
1710953000624072000,16.880072021484374,4.377668857574463,9.503094673156738,9.471988677978516
1710953000643029800,16.89902978515625,5.2115678787231445,9.670592308044434,10.04985523223877
1710953000661987800,16.91798779296875,6.1124653816223145,7.569694519042969,8.438288688659668
1710953000680945700,16.936945556640627,5.601597785949707,5.699703693389893,5.173282623291016
1710953000699903500,16.955903564453124,4.2987060546875,5.631507873535156,3.012563705444336
1710953000718861300,16.974861328125,3.6191442012786865,6.51326322555542,1.950150489807129
1710953000737819400,16.9938193359375,3.486342668533325,7.786244869232178,2.2755744457244873
1710953000756777200,17.012777099609377,2.2791635990142822,8.124829292297363,2.9599215984344482
1710953000775735000,17.031735107421873,3.1142587661743164,7.568498134613037,3.3272199630737305
1710953000794693000,17.050693115234374,4.589433670043945,7.440482139587402,4.30588436126709
1710953000813651000,17.06965087890625,2.8175487518310547,7.375875949859619,4.575077056884766
1710953000832608800,17.08860888671875,3.136990547180176,6.849454879760742,3.7543387413024902
1710953000851566800,17.10756689453125,3.4229328632354736,7.34476900100708,3.7435710430145264
1710953000870524700,17.126524658203124,4.140779495239258,8.816354751586914,5.106283664703369
1710953000889482500,17.145482421875,4.2592244148254395,7.6630144119262695,8.060222625732422
1710953000908440600,17.164440673828125,4.31306266784668,5.741578102111816,8.598608016967773
1710953000927398400,17.1833984375,4.1036906242370605,4.661218643188477,7.277770042419434
1710953000946356200,17.202356201171874,3.363112211227417,4.759324073791504,6.267998695373535
1710953000965314000,17.22131396484375,2.730210542678833,5.576473236083984,6.25723123550415
1710953000984272100,17.240272216796875,2.6225335597991943,6.532405853271484,6.362515449523926
1710953001003230000,17.25922998046875,2.6572296619415283,7.0169525146484375,6.142375946044922
1710953001022187800,17.278187744140624,2.9455647468566895,6.818347930908203,5.552545070648193
1710953001041145900,17.297145751953124,2.937189817428589,6.035895347595215,5.06799840927124
1710953001060103700,17.316103759765625,3.0077781677246094,5.760720729827881,5.029713153839111
1710953001079061500,17.3350615234375,2.819941520690918,5.905486106872559,5.133800983428955
1710953001098019600,17.35401953125,2.3186452388763428,6.252445697784424,5.531009674072266
1710953001116977400,17.372977294921874,2.5220351219177246,6.859025955200195,7.1988067626953125
1710953001135935200,17.391935302734375,2.2133610248565674,7.109076023101807,7.204789161682129
1710953001154893000,17.41089306640625,2.194218397140503,7.283751964569092,6.019145488739014
1710953001173851100,17.42985107421875,2.4466612339019775,7.1748785972595215,5.770291805267334
1710953001192809000,17.44880908203125,2.482553482055664,7.188039302825928,6.057430744171143
1710953001211767000,17.46776708984375,2.80558443069458,6.951149940490723,6.3122663497924805
1710953001230724900,17.486724853515625,2.944368362426758,6.666403770446777,5.767899036407471
1710953001249682700,17.5056826171875,2.9970104694366455,6.269195556640625,5.296513080596924
1710953001268640800,17.524640869140626,2.7565317153930664,6.598208427429199,5.3934221267700195
1710953001287598600,17.5435986328125,2.431107759475708,8.056633949279785,6.130411624908447
1710953001306556400,17.562556396484375,1.8975083827972412,9.477970123291016,6.955935478210449
1710953001325514500,17.581514404296875,1.8041882514953613,9.399007797241211,6.557530403137207
1710953001344472300,17.600472412109376,1.7730815410614014,8.477770805358887,5.100301265716553
1710953001363430100,17.61943017578125,1.8340985774993896,8.295916557312012,4.249652862548828
1710953001382388000,17.638387939453125,2.035095691680908,9.079565048217773,5.014159679412842
1710953001401346000,17.657345947265625,2.1894326210021973,9.53061294555664,5.547759532928467
1710953001420304000,17.676303955078126,3.0173492431640625,9.509077072143555,5.6207404136657715
1710953001439262000,17.695261962890626,3.2590243816375732,8.781659126281738,4.948357105255127
1710953001458219800,17.7142197265625,2.9826533794403076,8.059026718139648,3.8213376998901367
1710953001477177600,17.733177490234375,2.5878376960754395,7.774280548095703,2.861815929412842
1710953001496135700,17.7521357421875,1.95852530002594,8.434700012207031,2.26959228515625
1710953001515093500,17.771093505859376,1.6307085752487183,9.7998046875,2.3916261196136475
1710953001534051300,17.79005126953125,1.6163517236709595,10.554740905761719,3.060420274734497
1710953001553009400,17.809009521484374,1.690529227256775,10.323833465576172,3.2303106784820557
1710953001571967200,17.82796728515625,2.121237277984619,9.943374633789062,3.379862070083618
1710953001590925000,17.846925048828126,2.2193429470062256,9.525827407836914,3.67657208442688
1710953001609883100,17.865883056640627,2.172683000564575,8.971888542175293,4.058227062225342
1710953001628841000,17.884841064453123,2.170290231704712,8.568697929382324,4.192225456237793
1710953001647798800,17.903798828125,2.1379871368408203,8.462217330932617,4.439882278442383
1710953001666756600,17.922756591796876,2.1056840419769287,8.579465866088867,5.047659397125244
1710953001685714700,17.941714599609377,2.0889341831207275,8.681160926818848,5.583651542663574
1710953001704672500,17.960672607421873,1.9525432586669922,8.805587768554688,5.320441246032715
1710953001723630600,17.979630615234374,1.7766708135604858,8.80798053741455,4.902893543243408
1710953001742588400,17.99858837890625,1.5050854682922363,8.33300495147705,4.695914268493652
1710953001761546200,18.017546142578126,1.5780665874481201,7.808976650238037,4.579862594604492
1710953001780504300,18.03650439453125,1.3591232299804688,7.7216386795043945,4.713860511779785
1710953001799462100,18.055462158203124,0.8243274092674255,8.049455642700195,5.0225348472595215
1710953001818420000,18.074419921875,0.3888336718082428,7.978867053985596,5.42572546005249
1710953001837378000,18.0933779296875,0.7130611538887024,7.3052873611450195,5.56450891494751
1710953001856336000,18.1123359375,1.2490534782409668,7.060023307800293,5.874379634857178
1710953001875293700,18.131293701171874,1.6163517236709595,7.4225358963012695,6.740581512451172
1710953001894251500,18.15025146484375,1.4871392250061035,7.411767959594727,8.267202377319336
1710953001913209600,18.169209716796875,2.33180570602417,6.705885410308838,9.422935485839844
1710953001932167400,18.18816748046875,1.5672988891601562,5.62672233581543,9.125029563903809
1710953001951125200,18.207125244140624,0.9607182741165161,5.123033046722412,8.207381248474121
1710953001970083300,18.226083251953124,0.2907279431819916,5.079962253570557,7.265805721282959
1710953001989041200,18.245041259765625,-0.3565305769443512,5.073980331420898,7.168896675109863
1710953002007999200,18.263999267578125,-0.13280165195465088,5.115854740142822,7.357929706573486
1710953002026957000,18.28295703125,-0.11006984114646912,5.319244861602783,7.715656757354736
1710953002045915000,18.301914794921874,0.589830756187439,5.717649936676025,8.330612182617188
1710953002064872700,18.320872802734375,0.6867401003837585,5.6590256690979,8.401200294494629
1710953002083830800,18.339830810546875,0.2560320198535919,5.155336380004883,7.89631462097168
1710953002102788600,18.35878857421875,0.10169496387243271,4.889732837677002,7.590033531188965
1710953002121746400,18.377746337890624,0.3840480446815491,5.048855781555176,8.327022552490234
1710953002140704500,18.39670458984375,8.585447311401367,5.720042705535889,10.332208633422852
1710953002159662300,18.415662353515625,0.16869398951530457,4.593023300170898,9.839286804199219
1710953002178620200,18.4346201171875,1.0193424224853516,4.639683246612549,9.200403213500977
1710953002197578000,18.453577880859374,-1.526620864868164,4.935196876525879,8.289934158325195
1710953002216536000,18.4725361328125,0.6963114142417908,5.200799942016602,7.1234331130981445
1710953002235494000,18.491493896484375,-1.7168502807617188,4.565505504608154,8.047062873840332
1710953002254451700,18.51045166015625,-0.9834501147270203,4.977071285247803,8.874979019165039
1710953002273409500,18.529409423828124,0.5072783827781677,4.95912504196167,9.404989242553711
1710953002292367600,18.54836767578125,-1.97407865524292,4.899304389953613,9.610772132873535
1710953002311325400,18.567325439453125,-2.204986095428467,4.741377830505371,8.529216766357422
1710953002330283500,18.586283447265625,1.1318050622940063,4.999803066253662,7.0061845779418945
1710953002349241300,18.605241455078126,3.6191442012786865,4.797609329223633,9.133403778076172
1710953002368199200,18.62419921875,-1.7395820617675781,3.9637107849121094,10.587043762207031
1710953002387157000,18.643156982421875,-0.39960137009620667,3.913461446762085,9.367900848388672
1710953002406115000,18.662114990234375,0.5826523303985596,4.061816215515137,7.403393268585205
1710953002425073000,18.681072998046876,-1.1102696657180786,4.540380954742432,8.71226692199707
1710953002444030700,18.70003076171875,0.8578268885612488,4.267599105834961,8.507680892944336
1710953002462988800,18.71898876953125,-0.5886343717575073,4.387240409851074,9.729216575622559
1710953002481946600,18.737946533203125,-0.4666004180908203,3.6837503910064697,9.534201622009277
1710953002500904400,18.756904541015626,0.5144568681716919,3.9696927070617676,9.77109146118164
1710953002519862300,18.7758623046875,0.3720839321613312,3.9864425659179688,9.353543281555176
1710953002538820400,18.7948203125,0.47976094484329224,3.6526436805725098,9.05444049835205
1710953002557778200,18.813778076171875,1.0755738019943237,3.562912940979004,9.08674430847168
1710953002576736000,18.832736083984376,0.7645068168640137,3.656233072280884,9.098708152770996
1710953002595693800,18.85169384765625,0.17347964644432068,3.9361932277679443,8.86660385131836
1710953002614652000,18.87065185546875,-0.09092725813388824,3.8943188190460205,8.353343963623047
1710953002633609700,18.889609619140625,0.007178467698395252,3.820141315460205,8.23011302947998
1710953002652567600,18.908567626953126,0.058624155819416046,3.6299118995666504,8.910871505737305
1710953002671525400,18.927525390625,1.1808580160140991,3.218346357345581,8.97787094116211
1710953002690483500,18.9464833984375,1.275374412536621,3.937389612197876,8.36411190032959
1710953002709441300,18.965441162109375,0.49651068449020386,4.0797624588012695,9.834501266479492
1710953002728399000,18.984399169921875,0.2189432680606842,3.373879909515381,10.268798828125
1710953002747357000,19.00335693359375,-0.21176479756832123,2.9563324451446533,8.360522270202637
1710953002766315000,19.02231494140625,0.5994020700454712,3.3367912769317627,7.989634990692139
1710953002785272800,19.04127294921875,0.381655216217041,3.5880374908447266,8.787641525268555
1710953002804230700,19.060230712890625,0.10648060590028763,3.5988051891326904,9.074779510498047
1710953002823188500,19.0791884765625,-0.589830756187439,3.432504177093506,8.447860717773438
1710953002842146600,19.098146484375,-0.5515456199645996,3.205185890197754,7.680960655212402
1710953002861104400,19.1171044921875,2.4885356426239014,3.6406795978546143,8.489734649658203
1710953002880062200,19.136062255859375,-0.537188708782196,3.759124279022217,9.934999465942383
1710953002899020300,19.155020263671876,9.743574142456055,4.922036170959473,10.459028244018555
1710953002917977900,19.173977783203124,3.5736806392669678,5.663811206817627,15.877574920654297
1710953002936936000,19.19293603515625,4.498506546020508,3.869194269180298,20.636898040771484
1710953002955893800,19.211893798828125,3.542573928833008,3.1441688537597656,18.04547119140625
1710953002974851600,19.2308515625,0.364905446767807,2.7433712482452393,9.309276580810547
1710953002993809700,19.2498095703125,-3.950550079345703,3.236292600631714,2.575873613357544
1710953003012767500,19.268767578125,-4.561916351318359,3.7124643325805664,-1.576870083808899
1710953003031725300,19.287725341796875,-2.289931297302246,2.950350284576416,-0.7740781307220459
1710953003050683100,19.30668310546875,0.3290131092071533,3.073580741882324,2.9862427711486816
1710953003069641200,19.32564111328125,2.9802606105804443,3.812962770462036,6.75374174118042
1710953003088599000,19.34459912109375,4.9878387451171875,4.454239368438721,9.454042434692383
1710953003107556900,19.363556884765625,5.858826160430908,4.777270317077637,10.939985275268555
1710953003126514700,19.3825146484375,6.08614444732666,4.899304389953613,10.791629791259766
1710953003145472500,19.401472412109374,5.800201892852783,5.059623718261719,10.201799392700195
1710953003164430600,19.4204306640625,5.876772403717041,5.181657314300537,10.308279991149902
1710953003183388400,19.439388427734375,6.001199245452881,5.203192710876465,9.90987491607666
1710953003202346200,19.45834619140625,5.630311489105225,5.416153907775879,9.302098274230957
1710953003221304000,19.477303955078124,5.136193752288818,5.633901119232178,8.847461700439453
1710953003240262100,19.49626220703125,4.995017051696777,5.693721294403076,8.676374435424805
1710953003259220000,19.515219970703125,4.8466620445251465,5.531009674072266,8.154739379882812
1710953003278177800,19.534177734375,4.2006001472473145,5.302495002746582,7.494320392608643
1710953003297135600,19.553135498046874,3.950550079345703,4.918447017669678,6.671189308166504
1710953003316093400,19.572093505859375,3.6957144737243652,4.5236310958862305,6.190232276916504
1710953003335051500,19.591051513671875,3.7986059188842773,4.084548473358154,5.934200286865234
1710953003354009300,19.61000927734375,3.8835511207580566,4.060619831085205,5.985645771026611
1710953003372967200,19.62896728515625,4.369294166564941,4.0319061279296875,5.6590256690979
1710953003391925000,19.647925048828125,4.880161762237549,4.009174346923828,6.503692150115967
1710953003410882800,19.6668828125,4.968696117401123,3.889533281326294,7.250252723693848
1710953003429841000,19.6858408203125,5.424529075622559,4.0079779624938965,6.4115681648254395
1710953003448798700,19.704798828125,5.167300701141357,3.988835334777832,6.507281303405762
1710953003467756500,19.723756591796874,5.1876397132873535,4.1036906242370605,6.573083877563477
1710953003486714400,19.74271435546875,5.091926574707031,4.135993957519531,6.583851337432861
1710953003505672200,19.761672119140623,5.0356950759887695,4.24367094039917,5.96889591217041
1710953003524630300,19.78063037109375,4.510470867156982,4.235296249389648,5.913861274719238
1710953003543588000,19.799588134765624,4.49252462387085,4.088137626647949,6.193821430206299
1710953003562546000,19.8185458984375,4.502095699310303,4.11924409866333,6.4941205978393555
1710953003581503700,19.837503662109373,4.3549370765686035,4.30588436126709,6.571887493133545
1710953003600461600,19.856461669921874,3.9457645416259766,4.3788652420043945,6.732206344604492
1710953003619419600,19.875419677734374,3.6394832134246826,4.479363918304443,6.879364967346191
1710953003638377500,19.89437744140625,3.326023578643799,4.591826438903809,7.238288402557373
1710953003657335300,19.913335205078123,3.5676984786987305,4.728217601776123,8.050651550292969
1710953003676293000,19.932293212890624,4.164707660675049,4.817948341369629,8.868997573852539
1710953003695251000,19.9512509765625,4.500899314880371,4.704289436340332,9.53779125213623
1710953003714208800,19.970208740234376,4.287938117980957,4.412364959716797,9.656235694885254
1710953003733166800,19.989166748046873,3.862015724182129,4.176671981811523,9.4061861038208
1710953003752124700,20.008124755859374,3.4851462841033936,4.229313850402832,9.079565048217773
1710953003771082500,20.02708251953125,3.0999016761779785,4.557130813598633,9.000602722167969
1710953003790040300,20.046040283203126,2.9826533794403076,4.734199523925781,9.040083885192871
1710953003808998100,20.064998046875,3.0101709365844727,4.552345275878906,8.85942554473877
1710953003827956200,20.083956298828124,2.7732813358306885,4.356133460998535,8.34018325805664
1710953003846914000,20.1029140625,2.389233350753784,4.411168575286865,7.9250288009643555
1710953003865872000,20.121871826171876,1.9453648328781128,4.651647090911865,7.89631462097168
1710953003884829700,20.14082958984375,1.8400806188583374,4.808377265930176,8.169096946716309
1710953003903787500,20.15978759765625,1.8293129205703735,4.643272399902344,7.94297456741333
1710953003922745600,20.17874560546875,1.805384635925293,4.419543266296387,8.237292289733887
1710953003941703400,20.197703369140626,1.9202401638031006,4.3417768478393555,7.978867053985596
1710953003960661200,20.2166611328125,2.0709879398345947,4.587040901184082,8.408378601074219
1710953003979619000,20.235619140625,1.9992033243179321,4.821537494659424,7.934599876403809
1710953003998577200,20.2545771484375,1.92741858959198,4.756931304931641,8.420342445373535
1710953004017535000,20.273534912109376,1.698904037475586,4.455435752868652,8.767302513122559
1710953004036492800,20.292492919921877,1.8352949619293213,4.377668857574463,8.94556713104248
1710953004055450600,20.31145068359375,1.8831514120101929,4.506881237030029,8.920442581176758
1710953004074408400,20.330408447265626,1.8783657550811768,4.735395908355713,8.804390907287598
1710953004093366500,20.349366455078126,1.7204394340515137,4.859822750091553,8.534002304077148
1710953004112324400,20.368324462890627,1.3411771059036255,4.847858905792236,8.151150703430176
1710953004131282200,20.3872822265625,0.9499505758285522,4.791627407073975,7.7455668449401855
1710953004150240000,20.406239990234376,0.5742774605751038,4.8574299812316895,7.1509504318237305
1710953004169197800,20.42519775390625,0.23210379481315613,4.887340068817139,7.464410305023193
1710953004188156000,20.444156005859377,0.33499518036842346,4.993820667266846,8.227720260620117
1710953004207113700,20.46311376953125,0.537188708782196,5.115854740142822,8.786444664001465
1710953004226071600,20.482071533203126,0.6855437159538269,5.166104316711426,9.120243072509766
1710953004245029400,20.501029296875,0.6472585201263428,5.030909538269043,9.285347938537598
1710953004263987500,20.519987548828126,0.6245267391204834,4.849055290222168,8.922835350036621
1710953004282945300,20.5389453125,0.14117653667926788,4.803591251373291,8.742177963256836
1710953004301903000,20.557903076171876,-0.23210379481315613,4.922036170959473,8.831908226013184
1710953004320861000,20.57686083984375,-0.22971096634864807,5.126622676849365,9.383454322814941
1710953004339819000,20.595819091796876,-0.06340979784727097,5.328815937042236,9.510273933410645
1710953004358776800,20.61477685546875,0.12921242415905,5.509474277496338,9.424132347106934
1710953004377734700,20.633734619140625,0.2021935135126114,5.408975601196289,9.387042999267578
1710953004396692500,20.6526923828125,0.10408778488636017,5.131408214569092,9.10827922821045
1710953004415650300,20.671650390625,-0.07657032459974289,4.962714195251465,8.517251968383789
1710953004434608400,20.6906083984375,-0.4486542344093323,4.949553489685059,8.063812255859375
1710953004453566200,20.709566162109375,-0.638883650302887,5.088337421417236,8.003992080688477
1710953004472524000,20.72852392578125,-0.4163511395454407,5.1804609298706055,8.23130989074707
1710953004491481900,20.74748193359375,-0.0323031060397625,5.20678186416626,8.13679313659668
1710953004510440000,20.76643994140625,0.2476571500301361,5.201996326446533,8.322237014770508
1710953004529397800,20.785397705078125,0.4618147611618042,5.164907455444336,8.453842163085938
1710953004548355600,20.80435546875,0.5479564070701599,5.162514686584473,8.85942554473877
1710953004567313400,20.8233134765625,0.592223584651947,5.134997367858887,9.141778945922852
1710953004586271500,20.842271484375,0.7334001660346985,5.162514686584473,9.282955169677734
1710953004605229300,20.861229248046875,0.9571290612220764,5.131408214569092,9.123832702636719
1710953004624187100,20.880187255859376,0.916451096534729,5.065605640411377,8.773283958435059
1710953004643145200,20.899145263671876,0.5886343717575073,5.054837703704834,8.373682975769043
1710953004662103000,20.91810302734375,0.3565305769443512,5.06799840927124,7.946564197540283
1710953004681060900,20.937060791015625,0.31345975399017334,5.08355188369751,7.659425258636475
1710953004700018700,20.956018798828126,0.4785645306110382,4.992624282836914,7.679764270782471
1710953004718976800,20.974976806640626,0.7034898400306702,4.893322467803955,8.001599311828613
1710953004737934600,20.9939345703125,1.1341979503631592,4.884947299957275,8.328219413757324
1710953004756892700,21.012892578125,1.470389485359192,4.900500774383545,8.549555778503418
1710953004775850500,21.0318505859375,1.3986048698425293,4.783252239227295,8.733802795410156
1710953004794808300,21.050808349609376,1.1928220987319946,4.758127689361572,8.666803359985352
1710953004813766100,21.06976611328125,1.0504491329193115,4.886143684387207,8.445467948913574
1710953004832724200,21.08872412109375,0.9152546525001526,5.002195835113525,8.358129501342773
1710953004851682000,21.10768212890625,1.1234302520751953,4.983053207397461,8.646464347839355
1710953004870639900,21.126639892578126,1.2538390159606934,5.018945693969727,8.81515884399414
1710953004889598000,21.145597900390626,1.109073281288147,4.924428939819336,8.648857116699219
1710953004908555800,21.1645556640625,0.7010970115661621,4.622933387756348,8.02193832397461
1710953004927513600,21.183513671875,0.7968099117279053,4.5714874267578125,7.671389579772949
1710953004946471400,21.202471435546876,1.0157532691955566,4.843072891235352,8.242077827453613
1710953004965429500,21.221429443359376,1.0133603811264038,4.887340068817139,8.522037506103516
1710953004984387300,21.24038720703125,0.9690931439399719,4.682754039764404,8.6967134475708
1710953005003345200,21.25934521484375,1.4416756629943848,4.473381996154785,8.801998138427734
1710953005022303200,21.27830322265625,2.1128623485565186,4.681557655334473,8.924032211303711
1710953005041261000,21.297260986328126,2.124826431274414,5.07517671585083,9.388239860534668
1710953005060219100,21.31621923828125,1.97407865524292,5.1565327644348145,9.594022750854492
1710953005079177000,21.335177001953124,1.9369899034500122,4.925625324249268,9.538987159729004
1710953005098134800,21.354134765625,1.848455548286438,4.667200565338135,9.081958770751953
1710953005117092900,21.3730927734375,1.412961721420288,4.455435752868652,8.266005516052246
1710953005136050700,21.39205078125,0.8303094506263733,4.4374895095825195,7.963313579559326
1710953005155008500,21.411008544921874,0.8817551732063293,4.426722049713135,7.9489569664001465
1710953005173966600,21.429966552734374,1.2430713176727295,4.311866283416748,8.389236450195312
1710953005192924400,21.44892431640625,1.805384635925293,4.350151538848877,8.85942554473877
1710953005211882200,21.46788232421875,2.352144718170166,4.584648132324219,8.988637924194336
1710953005230840300,21.48684033203125,2.489732027053833,4.704289436340332,8.447860717773438
1710953005249798100,21.505798095703124,2.094916343688965,4.604987144470215,8.076972961425781
1710953005268756200,21.524756103515625,1.5900306701660156,4.529613494873047,7.197610378265381
1710953005287714000,21.543714111328125,1.0612168312072754,4.583451747894287,6.888936519622803
1710953005306671900,21.562671875,1.4524433612823486,4.770092010498047,7.436892986297607
1710953005325630000,21.5816298828125,2.025524377822876,4.753342151641846,8.304290771484375
1710953005344587800,21.600587890625,2.495713949203491,4.668396949768066,9.016156196594238
1710953005363545600,21.619545654296875,3.047259569168091,4.569094657897949,9.468399047851562
1710953005382503700,21.638503662109375,2.86061954498291,4.553541660308838,8.897710800170898
1710953005401461500,21.65746142578125,2.0039889812469482,4.596612453460693,8.203792572021484
1710953005420419300,21.67641943359375,1.9453648328781128,4.7030930519104,8.045866012573242
1710953005439377400,21.69537744140625,2.1128623485565186,4.706682205200195,8.185846328735352
1710953005458335200,21.714335205078125,2.1475582122802734,4.676771640777588,8.128418922424316
1710953005477293000,21.73329296875,2.3162522315979004,4.481756687164307,8.267202377319336
1710953005496251100,21.752251220703126,2.458625316619873,4.311866283416748,8.258827209472656
1710953005515209200,21.771209228515627,2.3222343921661377,4.304687976837158,8.507680892944336
1710953005534167000,21.7901669921875,2.444268226623535,4.374079704284668,8.560322761535645
1710953005553124900,21.809124755859376,2.5363919734954834,4.436293125152588,8.677571296691895
1710953005572083000,21.8280830078125,2.675175666809082,4.301098823547363,8.842676162719727
1710953005591040800,21.847040771484377,2.744567632675171,4.2831525802612305,8.48734188079834
1710953005609998600,21.86599853515625,2.8522446155548096,4.658825874328613,8.398807525634766
1710953005628956700,21.884956787109374,2.9563324451446533,4.90408992767334,8.622536659240723
1710953005647914500,21.90391455078125,2.4873390197753906,4.636094093322754,8.816354751586914
1710953005666872600,21.92287255859375,3.0137600898742676,4.2281174659729,8.461020469665527
1710953005685830400,21.941830322265623,3.080759048461914,4.548755645751953,8.569893836975098
1710953005704788500,21.96078857421875,2.6811578273773193,5.142175674438477,8.311469078063965
1710953005723746300,21.979746337890624,2.3712873458862305,4.908875465393066,7.848458290100098
1710953005742704000,21.9987041015625,2.5112674236297607,4.351347923278809,7.418946743011475
1710953005761662200,22.017662109375,2.6967110633850098,4.401597023010254,7.347161769866943
1710953005780620300,22.036620361328126,2.551945447921753,5.221138954162598,7.88076114654541
1710953005799578000,22.055578125,2.42512583732605,5.0979084968566895,8.037490844726562
1710953005818536000,22.074535888671875,3.1142587661743164,4.147958278656006,7.551748275756836
1710953005837494000,22.093493896484375,3.339184045791626,4.1347975730896,7.781459331512451
1710953005856451800,22.112451904296876,2.853440999984741,4.656432628631592,8.202595710754395
1710953005875410000,22.131409912109376,2.4335005283355713,5.223531723022461,8.6907320022583
1710953005894367700,22.15036767578125,2.6847469806671143,5.419743061065674,8.61176872253418
1710953005913325600,22.16932568359375,3.1417760848999023,5.107480049133301,8.226524353027344
1710953005932283600,22.18828369140625,3.273381471633911,4.753342151641846,8.34018325805664
1710953005951241700,22.20724169921875,3.38105845451355,4.858626365661621,8.70628547668457
1710953005970199600,22.226199462890627,3.34995174407959,5.143372058868408,8.608179092407227
1710953005989157400,22.245157470703123,2.5076780319213867,5.335994720458984,7.765905857086182
1710953006008115500,22.264115478515624,-14.157135009765625,3.1932218074798584,3.053241729736328
1710953006027073300,22.2830732421875,6.0263237953186035,5.525027275085449,1.5900306701660156
1710953006046031400,22.30203125,-3.152543783187866,2.8426733016967773,6.8865437507629395
1710953006064989200,22.3209892578125,3.401397466659546,5.520241737365723,8.45743179321289
1710953006083947300,22.339947265625,1.4847464561462402,7.390232563018799,12.259626388549805
1710953006102905000,22.358905029296874,0.4331009089946747,8.410771369934082,11.84447193145752
1710953006121863200,22.37786328125,2.111665964126587,7.369893550872803,10.149157524108887
1710953006140821000,22.396821044921875,3.617947816848755,5.542973518371582,9.689735412597656
1710953006159778800,22.41577880859375,2.228914260864258,4.930410861968994,10.990234375
1710953006178737000,22.43473681640625,0.8063812255859375,5.37069034576416,9.321240425109863
1710953006197695000,22.453695068359377,0.6089733839035034,6.468996047973633,7.954938888549805
1710953006216652800,22.47265283203125,-0.50129634141922,6.703492641448975,6.68435001373291
1710953006235611000,22.49161083984375,-1.222732424736023,6.654439926147461,5.1840500831604
1710953006254568700,22.510568603515626,-2.764906644821167,5.940182209014893,3.6777684688568115
1710953006273526500,22.529526611328127,-1.7718851566314697,5.61116886138916,3.651447296142578
1710953006292484600,22.548484619140623,3.245863914489746,8.951549530029297,3.8632121086120605
1710953006311442400,22.5674423828125,0.5180460810661316,8.904889106750488,6.839883327484131
1710953006330400500,22.586400390625,0.4103690981864929,8.571090698242188,8.291130065917969
1710953006349358600,22.605358642578125,0.46061834692955017,8.398807525634766,8.536395072937012
1710953006368316400,22.62431640625,-2.3736801147460938,5.614758491516113,6.892525672912598
1710953006387274200,22.643274169921874,-5.385047435760498,4.089334011077881,3.7435710430145264
1710953006406232300,22.662232421875,1.9417755603790283,4.840680122375488,1.8388842344284058
1710953006425190100,22.681190185546875,4.186243057250977,9.745966911315918,6.197410583496094
1710953006444148200,22.700148193359375,0.576670229434967,10.05823040008545,7.685746192932129
1710953006463106300,22.719106201171876,-1.1018948554992676,9.903892517089844,7.4261250495910645
1710953006482064100,22.738064208984376,-0.8769695162773132,9.863214492797852,6.595815658569336
1710953006501022200,22.757022216796877,1.4177473783493042,9.921838760375977,6.105287075042725
1710953006519980000,22.77597998046875,1.1724830865859985,9.30449104309082,5.587240695953369
1710953006538937900,22.794937744140626,0.9116654396057129,8.310273170471191,5.162514686584473
1710953006557896000,22.81389599609375,0.8997012972831726,8.673981666564941,5.496313571929932
1710953006576854000,22.83285400390625,1.3363914489746094,9.54496955871582,5.3216376304626465
1710953006595811800,22.851811767578123,1.2765709161758423,9.82373332977295,4.71027135848999
1710953006614770000,22.87077001953125,0.5000999569892883,9.067601203918457,4.1623148918151855
1710953006633727700,22.889727783203124,-0.18783657252788544,8.325826644897461,3.284149169921875
1710953006652685800,22.908685791015625,-0.3613162338733673,8.584251403808594,2.2265214920043945
1710953006671643600,22.9276435546875,-0.40797626972198486,9.667003631591797,1.7670994997024536
1710953006690601700,22.946601806640626,-0.34217363595962524,10.320243835449219,1.810170292854309
1710953006709559600,22.9655595703125,-0.4378865361213684,10.37767219543457,2.203789710998535
1710953006728517600,22.984517578125,-0.24287149310112,9.856036186218262,2.5088746547698975
1710953006747475500,23.003475341796875,0.1902294009923935,9.336793899536133,2.5423741340637207
1710953006766433500,23.02243359375,0.5730810165405273,9.032905578613281,2.4574289321899414
1710953006785391400,23.041391357421876,0.851844847202301,8.93838882446289,2.266003131866455
1710953006804349400,23.060349365234377,1.0085747241973877,8.773283958435059,2.152343988418579
1710953006823307300,23.079307373046873,0.9774680733680725,8.445467948913574,2.025524377822876
1710953006842265300,23.098265380859374,1.057627558708191,8.458627700805664,1.6426727771759033
1710953006861223200,23.11722314453125,1.2741780281066895,8.93958568572998,1.124626636505127
1710953006880181200,23.13618115234375,1.4321043491363525,9.52941608428955,0.729810893535614
1710953006899139300,23.155139404296875,1.4871392250061035,9.851250648498535,0.6711867451667786
1710953006918097200,23.17409716796875,1.3710874319076538,9.976874351501465,1.031306505203247
1710953006937055200,23.19305517578125,1.0348957777023315,9.53061294555664,1.3878371715545654
1710953006956013000,23.212012939453125,0.7920243144035339,9.19561767578125,1.781456470489502
1710953006974971000,23.230970947265625,1.2275179624557495,9.07119083404541,2.1068804264068604
1710953006993929000,23.249928955078126,1.8999011516571045,9.232706069946289,2.063809633255005
1710953007012887000,23.268886962890626,2.231307029724121,9.512666702270508,2.021935224533081
1710953007031844900,23.287844970703127,2.179861545562744,9.565308570861816,2.2157537937164307
1710953007050803000,23.306802978515623,2.073380708694458,9.474381446838379,2.366501569747925
1710953007069760800,23.3257607421875,1.94297194480896,9.424132347106934,2.5950162410736084
1710953007088718800,23.34471875,2.0279171466827393,9.384650230407715,2.792423963546753
1710953007107676700,23.3636767578125,2.4634108543395996,9.231510162353516,1.7120646238327026
1710953007126634800,23.382634765625,2.069791555404663,9.019744873046875,2.1894326210021973
1710953007145592600,23.401592529296874,1.7120646238327026,9.111868858337402,2.423929452896118
1710953007164550700,23.420550537109374,1.4715858697891235,9.18724250793457,2.754138946533203
1710953007183508500,23.439508544921875,2.675175666809082,9.158528327941895,2.9934210777282715
1710953007202466600,23.458466552734375,3.0041887760162354,8.973084449768066,3.7363924980163574
1710953007221424600,23.477424560546876,2.396411895751953,8.796015739440918,3.7124643325805664
1710953007240382500,23.496382568359376,2.1822543144226074,8.94676399230957,3.181257724761963
1710953007259340500,23.515340576171877,1.8795621395111084,9.060422897338867,2.812762975692749
1710953007278298400,23.53429833984375,1.6271194219589233,9.285347938537598,2.7828526496887207
1710953007297256200,23.553256103515626,1.5672988891601562,9.456435203552246,2.7038896083831787
1710953007316214300,23.57221435546875,1.794616937637329,9.364311218261719,2.6321048736572266
1710953007335172400,23.59117236328125,2.1367905139923096,9.107083320617676,2.537588357925415
1710953007354130200,23.610130126953123,1.939382791519165,9.220742225646973,2.678765058517456
1710953007373088300,23.629088134765624,1.750349760055542,9.588040351867676,2.7361927032470703
1710953007392046000,23.648046142578124,1.5672988891601562,9.835697174072266,2.8833513259887695
1710953007411004200,23.667004150390625,1.5038890838623047,9.695717811584473,2.871387243270874
1710953007429962000,23.6859619140625,2.118844509124756,9.896714210510254,3.060420274734497
1710953007448920000,23.704920166015626,1.9776679277420044,9.747162818908691,2.592623233795166
1710953007467878000,23.7238779296875,1.6977076530456543,9.712467193603516,2.355733871459961
1710953007486836000,23.7428359375,1.6558332443237305,9.724431037902832,2.3234307765960693
1710953007505793800,23.761793701171875,1.5625132322311401,9.751948356628418,2.1882362365722656
1710953007524752000,23.780751953125,1.7024933099746704,9.617950439453125,2.194218397140503
1710953007543709700,23.799709716796876,1.8771693706512451,9.317651748657227,2.376072883605957
1710953007562667800,23.818667724609377,1.9716858863830566,9.129815101623535,2.493321180343628
1710953007581625600,23.83762548828125,1.8939191102981567,8.894122123718262,2.4909284114837646
1710953007600583700,23.856583740234374,1.5314065217971802,8.71346378326416,2.4562325477600098
1710953007619541500,23.87554150390625,1.2035897970199585,8.95394229888916,2.352144718170166
1710953007638499600,23.89449951171875,1.1509476900100708,9.757930755615234,2.0829520225524902
1710953007657457700,23.913457763671875,1.3651052713394165,10.48654556274414,1.7276179790496826
1710953007676415500,23.93241552734375,1.470389485359192,10.663614273071289,1.3148560523986816
1710953007695373600,23.95137353515625,1.293320655822754,10.326226234436035,0.9176474809646606
1710953007714331400,23.970331298828125,0.9667003750801086,9.701699256896973,0.47976094484329224
1710953007733289200,23.989289306640625,0.8207381963729858,9.177671432495117,0.2584248483181
1710953007752247300,24.008247314453126,0.9643075466156006,8.793622970581055,0.07058826833963394
1710953007771205400,24.027205322265626,1.207179069519043,8.810373306274414,-0.11724831163883209
1710953007790163200,24.0461630859375,1.439282774925232,9.463613510131836,-0.064606212079525
1710953007809121300,24.065121337890623,1.648654818534851,10.195816993713379,0.28953152894973755
1710953007828079000,24.0840791015625,1.836491346359253,10.429117202758789,0.6532405614852905
1710953007847037000,24.103036865234376,1.9716858863830566,10.083354949951172,0.7130611538887024
1710953007865995000,24.1219951171875,1.9441684484481812,9.738788604736328,0.6281159520149231
1710953007884953000,24.140953125,1.7383856773376465,9.477970123291016,0.6580262184143066
1710953007903911000,24.159910888671874,1.454836130142212,9.083154678344727,0.7465606927871704
1710953007922869000,24.178868896484374,1.1162517070770264,8.672785758972168,0.7992027401924133
1710953007941826800,24.197826904296875,0.9990034699440002,8.395217895507812,0.7465606927871704
1710953007960784600,24.21678466796875,0.9415757060050964,8.112865447998047,0.6101697683334351
1710953007979742700,24.23574267578125,0.7968099117279053,8.047062873840332,0.37806597352027893
1710953007998700800,24.25470068359375,0.8327022790908813,8.271987915039062,0.02751746028661728
1710953008017658600,24.27365869140625,0.8374879360198975,8.809176445007324,-0.607776939868927
1710953008036616700,24.29261669921875,0.5742774605751038,9.93978500366211,-1.4799607992172241
1710953008055574500,24.311574462890626,0.3852444589138031,11.236695289611816,-2.2480568885803223
1710953008074532400,24.330532470703126,0.349352091550827,11.929417610168457,-2.630908489227295
1710953008093490400,24.349490478515627,0.6329016089439392,11.548958778381348,-2.7493531703948975
1710953008112448500,24.368448486328123,1.0121639966964722,10.743773460388184,-2.196611166000366
1710953008131406300,24.38740625,1.1341979503631592,10.204192161560059,-1.2143574953079224
1710953008150364400,24.406364501953124,1.1832507848739624,9.744770050048828,-0.2715853750705719
1710953008169322200,24.425322265625,1.5038890838623047,9.383454322814941,0.43190449476242065
1710953008188280000,24.444280029296873,2.2468605041503906,9.359525680541992,0.9104689955711365
1710953008207238100,24.463238037109374,2.8223342895507812,9.394221305847168,0.9810572862625122
1710953008226196200,24.4821962890625,2.6009981632232666,9.284152030944824,0.32303106784820557
1710953008245154000,24.501154052734375,1.4967105388641357,10.27597713470459,-0.5252245664596558
1710953008264111900,24.52011181640625,-0.010767702013254166,11.148160934448242,-0.9499505758285522
1710953008283070000,24.539070068359376,-0.8075776696205139,10.594222068786621,-0.8231309652328491
1710953008302027800,24.55802783203125,-0.45224347710609436,9.273384094238281,-0.5563312768936157
1710953008320985900,24.57698583984375,0.33858439326286316,8.228917121887207,-0.2225325107574463
1710953008339943700,24.595943603515625,0.7250252366065979,8.070990562438965,0.22851456701755524
1710953008358901800,24.61490185546875,0.6604190468788147,8.58784008026123,0.6927221417427063
