time,seconds_elapsed,z,y,x
1711073187016642600,0.065642578125,-0.038560837507247925,0.0030543238390237093,-0.03611737862229347
1711073187035602200,0.084602294921875,-0.04741837829351425,-0.006108647678047419,-0.03825540840625763
1711073187054561800,0.103561767578125,-0.052916161715984344,-0.004581485874950886,-0.03306305781006813
1711073187073521400,0.122521484375,-0.05719221383333206,-0.01954767294228077,-0.02176205813884735
1711073187092480800,0.141480712890625,-0.06635518372058868,-0.03298669680953026,-0.0034361144062131643
1711073187111440400,0.1604404296875,-0.08468113094568253,-0.05925388261675835,0.030772313475608826
1711073187130400000,0.17939990234375,-0.07979421317577362,-0.06200277432799339,0.03138317912817001
1711073187149359600,0.198359619140625,-0.0965929925441742,-0.07483093440532684,0.022220205515623093
1711073187168319200,0.2173193359375,-0.11247547715902328,-0.0616973415017128,0.00603228947147727
1711073187187278600,0.236278564453125,-0.11766783148050308,-0.061391908675432205,0.0005345066892914474
1711073187206238200,0.25523828125,-0.10331250727176666,-0.017104214057326317,0.04024071618914604
1711073187225197800,0.27419775390625,-0.09017891436815262,0.005803215317428112,0.05367974191904068
1711073187244157400,0.293157470703125,-0.07704532146453857,-0.0204639695584774,0.03993528336286545
1711073187263117000,0.312116943359375,-0.04436405375599861,0.019242240116000175,0.039018988609313965
1711073187282076400,0.331076416015625,-0.043142326176166534,0.06475166976451874,0.03138317912817001
1711073187301036000,0.3500361328125,-0.10911571979522705,-0.1288924664258957,0.046654798090457916
1711073187319995600,0.36899560546875,-0.18516838550567627,-0.22785256803035736,0.0011453714687377214
1711073187338955300,0.387955322265625,-0.10483966767787933,-0.09040798991918564,0.043600473552942276
1711073187357914600,0.40691455078125,-0.08193223923444748,-0.08307760953903198,0.0631481483578682
1711073187376874200,0.425874267578125,-0.09995274990797043,-0.08613193035125732,0.027107125148177147
1711073187395833900,0.444833740234375,-0.09964732080698013,-0.06505709886550903,0.014584396965801716
1711073187414793500,0.46379345703125,-0.10209077596664429,-0.024434590712189674,0.004505127668380737
1711073187433753000,0.482753173828125,-0.08407026529312134,-0.03023780696094036,-0.012904518283903599
1711073187452712400,0.50171240234375,-0.08376483619213104,-0.02107483521103859,-0.037033677101135254
1711073187471672000,0.520672119140625,-0.09537126123905182,-0.01588248461484909,-0.05352702736854553
1711073187490631700,0.539631591796875,-0.09812015295028687,-0.023212861269712448,-0.050778135657310486
1711073187509591300,0.55859130859375,-0.09842558950185776,-0.020158538594841957,-0.04405862092971802
1711073187528551000,0.577551025390625,-0.09017891436815262,-0.0027488914784044027,-0.04864010959863663
1711073187547510300,0.59651025390625,-0.06604975461959839,0.01954767294228077,-0.057497646659612656
1711073187566470000,0.615469970703125,-0.04039343446493149,0.03237583488225937,-0.061162836849689484
1711073187585429500,0.634429443359375,-0.025121813639998436,0.04062250629067421,-0.05841394513845444
1711073187604389000,0.65338916015625,-0.01779143698513508,0.05039634555578232,-0.053832460194826126
1711073187623348500,0.672348388671875,0.002061668550595641,0.053145237267017365,-0.05871937796473503
1711073187642308000,0.69130810546875,0.027107125148177147,0.046425722539424896,-0.06085740402340889
1711073187661267700,0.710267822265625,0.03779725730419159,0.018631376326084137,-0.05841394513845444
1711073187680227300,0.729227294921875,0.03474293276667595,-0.022296564653515816,-0.049250971525907516
1711073187699187000,0.74818701171875,0.0243582334369421,-0.05192350596189499,-0.03153589367866516
1711073187718146300,0.767146240234375,0.01030834298580885,-0.06750056147575378,-0.013820815831422806
1711073187737106000,0.78610595703125,-0.015347977168858051,-0.07544180005788803,-0.0034361144062131643
1711073187756065500,0.8050654296875,-0.04894553869962692,-0.08338304609060287,-0.0034361144062131643
1711073187775025200,0.824025146484375,-0.07460185885429382,-0.08643736690282822,-0.0058795735239982605
1711073187793984800,0.84298486328125,-0.0758235901594162,-0.08399390429258347,-0.0077121676877141
1711073187812944100,0.861944091796875,-0.06818778067827225,-0.09407317638397217,-0.005268708802759647
1711073187831903700,0.88090380859375,-0.06604975461959839,-0.09682206809520721,0.004199695307761431
1711073187850863400,0.89986328125,-0.061162836849689484,-0.0818558782339096,0.004810560029000044
1711073187869823000,0.918822998046875,-0.04283689334988594,-0.0665842592716217,0.002672533504664898
1711073187888782600,0.937782470703125,-0.027259841561317444,-0.05345066636800766,0.012446369975805283
1711073187907742200,0.9567421875,-0.028176138177514076,-0.037262752652168274,0.020998476073145866
1711073187926701600,0.97570166015625,-0.031841326504945755,-0.013133592903614044,0.020082179456949234
1711073187945661200,0.9946611328125,-0.02756527252495289,0.008857538923621178,0.005421424750238657
1711073187964620800,1.013620849609375,-0.019929463043808937,0.0204639695584774,-0.008017600513994694
1711073187983580400,1.032580322265625,-0.019624030217528343,0.021991131827235222,-0.014737112447619438
1711073188002540000,1.0515400390625,-0.025121813639998436,0.01893680728971958,-0.015042545273900032
1711073188021499600,1.070499755859375,-0.029703300446271896,0.01893680728971958,-0.018096869811415672
1711073188040459000,1.089458984375,-0.029703300446271896,0.021685699000954628,-0.026038112118840218
1711073188059418600,1.108418701171875,-0.026343543082475662,0.025961752980947495,-0.028787001967430115
1711073188078378200,1.127378173828125,-0.021151192486286163,0.03390299528837204,-0.01870773360133171
1711073188097337900,1.146337890625,-0.01718057133257389,0.04245510324835777,-0.015042545273900032
1711073188116297500,1.16529736328125,-0.00038179047987796366,0.0412333719432354,-0.025121813639998436
1711073188135256800,1.1842568359375,0.00847574882209301,0.021991131827235222,-0.02848157100379467
1711073188154216400,1.203216552734375,0.006337722297757864,-0.003359756199643016,-0.02328922040760517
1711073188173176000,1.222176025390625,-0.007406735327094793,-0.02626718580722809,-0.02695440873503685
1711073188192135700,1.2411357421875,-0.017486004158854485,-0.032070402055978775,-0.0193185992538929
1711073188211095300,1.26009521484375,-0.015042545273900032,-0.020158538594841957,0.002672533504664898
1711073188230055000,1.279054931640625,-0.01779143698513508,-0.012522728182375431,0.006948587018996477
1711073188249014500,1.2980146484375,-0.0193185992538929,-0.0204639695584774,-0.0006872228696011007
1711073188267974100,1.31697412109375,-0.011988221667706966,-0.025350889191031456,-0.0006872228696011007
1711073188286933500,1.33593359375,-0.002825249684974551,-0.031154103577136993,0.002672533504664898
1711073188305893000,1.35489306640625,0.00755945174023509,-0.027488915249705315,0.007254019379615784
1711073188324852700,1.373852783203125,0.00847574882209301,-0.01435532234609127,0.006337722297757864
1711073188343812400,1.392812255859375,0.0023671009112149477,-0.003970621153712273,-0.0022143847309052944
1711073188362772000,1.41177197265625,-0.0012980876490473747,0.001221729558892548,-0.004352411720901728
1711073188381731600,1.430731689453125,-0.008017600513994694,0.005192350596189499,0.003894262947142124
1711073188400691200,1.449691162109375,-0.008933897130191326,0.011300998739898205,0.013057234697043896
1711073188419650600,1.468650634765625,-0.007101302966475487,0.012217295356094837,0.009392046369612217
1711073188438610400,1.4876103515625,-0.0016035200096666813,0.007941242307424545,0.003283398225903511
1711073188457570000,1.506570068359375,0.002061668550595641,0.0030543238390237093,0.000839939049910754
1711073188476529700,1.52552978515625,0.00511599238961935,0.007941242307424545,-0.0009926552884280682
1711073188495489000,1.544489013671875,0.00755945174023509,0.01435532234609127,0.001450803829357028
1711073188514448600,1.56344873046875,0.009697478264570236,0.015577051788568497,0.003894262947142124
1711073188533408300,1.582408203125,0.014889828860759735,0.01802051067352295,-0.0031306820455938578
1711073188552367900,1.601367919921875,0.01824958436191082,0.019242240116000175,-0.0034361144062131643
1711073188571327500,1.620327392578125,0.01611155830323696,0.0256563201546669,0.007864884100854397
1711073188590287000,1.639287109375,0.015806125476956367,0.0409279391169548,0.01030834298580885
1711073188609246700,1.658246826171875,0.020693045109510422,0.05406153202056885,-0.006490438245236874
1711073188628206300,1.677206298828125,0.019471315667033195,0.04734202101826668,-0.009850194677710533
1711073188647166000,1.696166015625,0.010919207707047462,0.026572618633508682,-0.012293653562664986
1711073188666125600,1.71512548828125,-0.005574141163378954,-0.002443459117785096,-0.021151192486286163
1711073188685085200,1.734085205078125,-0.012293653562664986,-0.011300998739898205,-0.008323032408952713
1711073188704044500,1.75304443359375,-0.007406735327094793,0.001832594396546483,0.013057234697043896
1711073188723004200,1.772004150390625,-0.005574141163378954,0.020158538594841957,0.013973532244563103
1711073188741964000,1.790964111328125,0.001450803829357028,0.02412915788590908,0.011530072428286076
1711073188760923400,1.80992333984375,0.013057234697043896,0.015577051788568497,0.015806125476956367
1711073188779883000,1.828883056640625,0.020387612283229828,0.004581485874950886,0.014278964139521122
1711073188798842600,1.847842529296875,0.025274530053138733,0.000305432389723137,0.013973532244563103
1711073188817802200,1.86680224609375,0.02283107116818428,0.005803215317428112,0.01030834298580885
1711073188836761900,1.885761962890625,0.017944153398275375,0.013133592903614044,0.000839939049910754
1711073188855721500,1.904721435546875,0.00603228947147727,0.007330377586185932,0.00022907429956831038
1711073188874681000,1.92368115234375,-0.008933897130191326,0.006414080038666725,0.010613775812089443
1711073188893640700,1.942640625,-0.00954476185142994,0.010079269297420979,0.014584396965801716
1711073188912600300,1.961600341796875,-0.0016035200096666813,0.008246674202382565,0.00755945174023509
1711073188931560000,1.980559814453125,0.008781181648373604,-0.0021380267571657896,0.0023671009112149477
1711073188950519600,1.99951953125,0.012751801870763302,-0.013744457624852657,0.003894262947142124
1711073188969479200,2.018479248046875,0.013362666592001915,-0.01435532234609127,0.005421424750238657
1711073188988438800,2.037438720703125,0.013057234697043896,-0.009773836471140385,0.00847574882209301
1711073189007398400,2.0563984375,0.006337722297757864,-0.0027488914784044027,0.006948587018996477
1711073189026358000,2.07535791015625,-0.00038179047987796366,0.0054977829568088055,0.001450803829357028
1711073189045317600,2.094317626953125,-0.0012980876490473747,0.01740964688360691,0.003283398225903511
1711073189064277200,2.11327734375,0.001450803829357028,0.029932374134659767,0.013362666592001915
1711073189083236900,2.13223681640625,0.004505127668380737,0.032070402055978775,0.008170315995812416
1711073189102196500,2.151196533203125,0.007864884100854397,0.024740023538470268,0.001450803829357028
1711073189121156000,2.170156005859375,0.006948587018996477,0.027488915249705315,-0.004657844081521034
1711073189140115700,2.18911572265625,0.002672533504664898,0.0256563201546669,-0.014431680552661419
1711073189159075300,2.208075439453125,-0.00954476185142994,0.003665188793092966,-0.015042545273900032
1711073189178035000,2.227034912109375,-0.011988221667706966,0.0015271619195118546,-0.006490438245236874
1711073189196994600,2.24599462890625,-0.005268708802759647,0.005803215317428112,-0.002825249684974551
1711073189215954200,2.2649541015625,-0.009850194677710533,0.005192350596189499,-0.004657844081521034
1711073189234913800,2.283913818359375,-0.013515383005142212,0.00946840364485979,-0.004657844081521034
1711073189253873400,2.302873291015625,-0.00679587060585618,0.011911863461136818,-0.003741546766832471
1711073189272833000,2.3218330078125,0.002672533504664898,0.005803215317428112,-0.0006872228696011007
1711073189291792600,2.340792724609375,0.006337722297757864,-0.007330377586185932,0.007254019379615784
1711073189310752300,2.359752197265625,-0.0012980876490473747,-0.012522728182375431,0.008170315995812416
1711073189329711900,2.3787119140625,-0.004657844081521034,-0.011606430634856224,0.003894262947142124
1711073189348671500,2.39767138671875,-0.005268708802759647,-0.014966187067329884,0.010919207707047462
1711073189367631000,2.416631103515625,-0.01626427471637726,-0.018631376326084137,0.021914774551987648
1711073189386590700,2.4355908203125,-0.01870773360133171,-0.01802051067352295,0.017333287745714188
1711073189405550300,2.45455029296875,-0.014126247726380825,-0.015577051788568497,0.006337722297757864
1711073189424510000,2.473510009765625,-0.01259908638894558,-0.013744457624852657,-0.014431680552661419
1711073189443469600,2.492469482421875,-0.054443322122097015,-0.043982263654470444,-0.04283689334988594
1711073189462429200,2.51142919921875,-0.12621992826461792,-0.0977383628487587,-0.03672824427485466
1711073189481388800,2.530388916015625,-0.16470441222190857,-0.09346231073141098,-0.034895651042461395
1711073189500348400,2.549348388671875,-0.13019055128097534,-0.024434590712189674,-0.04650207981467247
1711073189519308000,2.56830810546875,-0.041615162044763565,0.004276053514331579,-0.0550541877746582
1711073189538267600,2.587267578125,0.06956222653388977,0.020769402384757996,-0.017486004158854485
1711073189557227300,2.606227294921875,0.15874847769737244,0.03298669680953026,0.014278964139521122
1711073189576187000,2.625186767578125,0.20609050989151,0.034208428114652634,0.01000291109085083
1711073189595146500,2.644146484375,0.22991423308849335,0.04825831577181816,-0.005268708802759647
1711073189614106000,2.663106201171875,0.22441644966602325,0.0668896958231926,0.012751801870763302
1711073189633066000,2.68206591796875,0.20242531597614288,0.07605266571044922,0.042684175074100494
1711073189652025600,2.701025634765625,0.1700494885444641,0.06230820715427399,0.03535379841923714
1711073189670985200,2.719985107421875,0.045738499611616135,-0.002443459117785096,0.01030834298580885
1711073189689944800,2.73894482421875,-0.14026983082294464,-0.11026109009981155,0.024663666263222694
1711073189708904400,2.757904541015625,-0.2709949016571045,-0.12217295914888382,0.00511599238961935
1711073189727864000,2.776864013671875,-0.25755587220191956,-0.0256563201546669,-0.03520108386874199
1711073189746823700,2.79582373046875,-0.15645773708820343,0.05742128938436508,0.00755945174023509
1711073189765783300,2.814783203125,-0.06849320977926254,0.07391463965177536,0.0988837331533432
1711073189784743000,2.833742919921875,0.0029779658652842045,0.0308486707508564,0.15111267566680908
1711073189803702500,2.85270263671875,0.10102175921201706,-0.026878049597144127,0.1349247545003891
1711073189822662100,2.871662109375,0.2121991515159607,-0.02779434807598591,0.07047852128744125
1711073189841621800,2.890621826171875,0.20425790548324585,-0.025350889191031456,-0.002825249684974551
1711073189860581400,2.909581298828125,0.03657552972435951,-0.0616973415017128,-0.057497646659612656
1711073189879541000,2.928541015625,-0.11858412623405457,-0.04825831577181816,-0.116751529276371
1711073189898500600,2.94750048828125,-0.14973822236061096,0.018631376326084137,-0.12774710357189178
1711073189917460500,2.96646044921875,-0.11369720846414566,0.07269290834665298,-0.05474875494837761
1711073189936420000,2.985420166015625,-0.09231694042682648,0.0720820426940918,0.029245151206851006
1711073189955379700,3.004379638671875,-0.07887791097164154,0.015271619893610477,0.07444914430379868
1711073189974339300,3.02333935546875,-0.02176205813884735,-0.04306596517562866,0.07933606207370758
1711073189993299000,3.042298828125,0.07170025259256363,-0.04917461425065994,0.05826122686266899
1711073190012258600,3.061258544921875,0.1352301836013794,-0.008246674202382565,0.007864884100854397
1711073190031218200,3.08021826171875,0.09613484144210815,0.012522728182375431,-0.043142326176166534
1711073190050177800,3.099177734375,-0.02542724646627903,-0.014049889519810677,-0.0654388889670372
1711073190069137400,3.118137451171875,-0.12530364096164703,-0.022296564653515816,-0.1014799103140831
1711073190088097000,3.137096923828125,-0.14362958073616028,0.016798781231045723,-0.12255474925041199
1711073190107056600,3.156056640625,-0.1164461001753807,0.07452550530433655,-0.07735075056552887
1711073190126016500,3.1750166015625,-0.0755181610584259,0.09407317638397217,-0.023594651371240616
1711073190144976000,3.193975830078125,-0.028787001967430115,0.05497783049941063,-0.00038179047987796366
1711073190163935700,3.212935791015625,0.033826638013124466,0.007024944759905338,0.012140937149524689
1711073190182895400,3.231895263671875,0.09155336022377014,-0.001832594396546483,0.01000291109085083
1711073190201855000,3.25085498046875,0.09705114364624023,0.02932151034474373,-0.026038112118840218
1711073190220814600,3.269814697265625,0.03504836559295654,0.03787361457943916,-0.05199986323714256
1711073190239774200,3.288774169921875,-0.046807512640953064,0.01740964688360691,-0.05780307948589325
1711073190258733800,3.30773388671875,-0.10239620506763458,0.00946840364485979,-0.07735075056552887
1711073190277693700,3.326693603515625,-0.10819942504167557,0.021380268037319183,-0.06666062027215958
1711073190296653000,3.345653076171875,-0.09567669779062271,0.03848448023200035,-0.034895651042461395
1711073190315613000,3.364613037109375,-0.07673988491296768,0.02871064469218254,-0.022678354755043983
1711073190334572500,3.383572509765625,-0.04436405375599861,-0.010079269297420979,-0.019013166427612305
1711073190353532200,3.4025322265625,-0.00923932995647192,-0.030543239787220955,-0.0077121676877141
1711073190372491800,3.42149169921875,0.023441936820745468,-0.014966187067329884,-0.0022143847309052944
1711073190391451400,3.440451416015625,0.03352120518684387,0.010995565913617611,-0.008628465235233307
1711073190410411000,3.459410888671875,0.0243582334369421,0.019853105768561363,-0.012293653562664986
1711073190429370600,3.47837060546875,0.012446369975805283,0.017104214057326317,-0.010766491293907166
1711073190448330500,3.49733056640625,0.00603228947147727,0.01435532234609127,-0.002825249684974551
1711073190467290000,3.5162900390625,-0.016569707542657852,0.0204639695584774,-0.007406735327094793
1711073190486249700,3.535249755859375,-0.04558578506112099,0.01740964688360691,-0.02023489587008953
1711073190505209300,3.554209228515625,-0.07124210149049759,-0.000610864779446274,-0.02695440873503685
1711073190524169000,3.5731689453125,-0.08437569439411163,0.005803215317428112,-0.03214675933122635
1711073190543128600,3.592128662109375,-0.07521272450685501,0.03543015569448471,-0.037033677101135254
1711073190562088200,3.611088134765625,-0.03672824427485466,0.06719512492418289,-0.030314164236187935
1711073190581047800,3.6300478515625,0.0011453714687377214,0.07819069176912308,-0.013209951110184193
1711073190600007700,3.649007568359375,0.03260490670800209,0.04734202101826668,0.0005345066892914474
1711073190618967300,3.66796728515625,0.0524580143392086,-0.013439024798572063,0.0066431546583771706
1711073190637927000,3.686927001953125,0.05581776797771454,-0.029626941308379173,0.02741255611181259
1711073190656886500,3.705886474609375,0.053374309092760086,-0.003665188793092966,0.050319984555244446
1711073190675846100,3.72484619140625,0.033826638013124466,0.01435532234609127,0.046654798090457916
1711073190694805800,3.7438056640625,0.013668099418282509,0.03237583488225937,0.029245151206851006
1711073190713765400,3.762765380859375,0.002061668550595641,0.034208428114652634,0.01183550525456667
1711073190732725000,3.78172509765625,-0.0193185992538929,0.010384701192378998,-0.0025198173243552446
1711073190751684900,3.800684814453125,-0.037949975579977036,-0.010690134018659592,-0.013515383005142212
1711073190770644500,3.81964453125,-0.04344775900244713,-0.01954767294228077,-0.018096869811415672
1711073190789604000,3.83860400390625,-0.041615162044763565,-0.019853105768561363,-0.016569707542657852
1711073190808563700,3.857563720703125,-0.03581194952130318,-0.024740023538470268,-0.013209951110184193
1711073190827523300,3.8765234375,-0.028787001967430115,-0.0360410213470459,0.002672533504664898
1711073190846483000,3.89548291015625,-0.016875140368938446,-0.03543015569448471,0.022525638341903687
1711073190865442600,3.914442626953125,0.004810560029000044,-0.028099779039621353,0.029856016859412193
1711073190884402400,3.93340234375,0.017944153398275375,-0.02107483521103859,0.022220205515623093
1711073190903362000,3.952362060546875,0.023136503994464874,-0.010995565913617611,0.017944153398275375
1711073190922321700,3.97132177734375,0.025579962879419327,-0.004886918235570192,0.02130390889942646
1711073190941281300,3.99028125,0.01824958436191082,-0.004581485874950886,0.0191658828407526
1711073190960241000,4.009240966796875,0.004810560029000044,-0.0030543238390237093,0.012751801870763302
1711073190979200500,4.028200439453125,-0.007101302966475487,0.000610864779446274,0.0066431546583771706
1711073190998160400,4.047160400390625,-0.01107192412018776,0.008857538923621178,0.005421424750238657
1711073191017119700,4.06611962890625,-0.012293653562664986,0.01740964688360691,0.010613775812089443
1711073191036079600,4.08507958984375,-0.008933897130191326,0.01954767294228077,0.002672533504664898
1711073191055039200,4.104039306640625,-0.005574141163378954,0.007941242307424545,-0.004963276442140341
1711073191073998800,4.122998779296875,-0.005268708802759647,0.011606430634856224,-0.004963276442140341
1711073191092958500,4.14195849609375,0.00022907429956831038,0.021380268037319183,-0.013209951110184193
1711073191111918000,4.16091796875,-0.0009926552884280682,0.007330377586185932,-0.013515383005142212
1711073191130878000,4.1798779296875,-0.0031306820455938578,0.001221729558892548,0.0017562361899763346
1711073191149837600,4.198837646484375,-0.0025198173243552446,0.0027488914784044027,0.00603228947147727
1711073191168797200,4.217797119140625,-0.008017600513994694,0.0027488914784044027,-0.0034361144062131643
1711073191187756800,4.2367568359375,-0.008017600513994694,0.008857538923621178,-0.003741546766832471
1711073191206716400,4.25571630859375,-0.004352411720901728,0.010079269297420979,0.00022907429956831038
1711073191225676000,4.274676025390625,-0.008628465235233307,0,-0.002825249684974551
1711073191244636000,4.293635986328125,-0.006490438245236874,-0.009773836471140385,-0.004046979360282421
1711073191263595300,4.31259521484375,-0.005574141163378954,-0.01435532234609127,-0.005268708802759647
1711073191282555100,4.33155517578125,-0.010461059398949146,-0.014660755172371864,-0.013515383005142212
1711073191301514800,4.3505146484375,-0.015347977168858051,-0.021685699000954628,-0.014126247726380825
1711073191320474400,4.369474365234375,-0.02756527252495289,-0.034208428114652634,0.00022907429956831038
1711073191339434000,4.38843408203125,-0.03611737862229347,-0.03756818547844887,0.00847574882209301
1711073191358393600,4.4073935546875,-0.04039343446493149,-0.03695731982588768,0.00511599238961935
1711073191377353500,4.426353515625,-0.037949975579977036,-0.029016077518463135,-0.00007635809743078426
1711073191396313000,4.44531298828125,-0.03245219215750694,-0.021991131827235222,-0.006490438245236874
1711073191415272700,4.464272705078125,-0.03214675933122635,-0.02871064469218254,-0.00923932995647192
1711073191434232300,4.483232421875,-0.03764454275369644,-0.029626941308379173,-0.011682788841426373
1711073191453192000,4.50219189453125,-0.03672824427485466,-0.020769402384757996,-0.015042545273900032
1711073191472151600,4.521151611328125,-0.03214675933122635,-0.006414080038666725,-0.020540328696370125
1711073191491111400,4.540111328125,-0.026648975908756256,0.003970621153712273,-0.018402300775051117
1711073191510071000,4.559071044921875,-0.025732679292559624,0.0054977829568088055,-0.010461059398949146
1711073191529030700,4.57803076171875,-0.021456625312566757,0.007635809946805239,-0.011682788841426373
1711073191547990300,4.596990234375,-0.013209951110184193,0.008246674202382565,-0.0193185992538929
1711073191566950000,4.615949951171875,-0.008628465235233307,0.01282816007733345,-0.013820815831422806
1711073191585909500,4.634909423828125,0.001450803829357028,0.020158538594841957,-0.011377356946468353
1711073191604869000,4.653869140625,0.010613775812089443,0.007941242307424545,-0.008323032408952713
1711073191623829000,4.6728291015625,0.02649625949561596,-0.000610864779446274,0.020693045109510422
1711073191642788600,4.69178857421875,0.04085158184170723,0.003665188793092966,0.05001455545425415
1711073191661748200,4.710748291015625,0.04298960790038109,0.005192350596189499,0.0527634471654892
1711073191680707800,4.729707763671875,0.04451677203178406,0.005192350596189499,0.050319984555244446
1711073191699667500,4.74866748046875,0.04543306678533554,0.005803215317428112,0.0524580143392086
1711073191718627000,4.767626953125,0.03352120518684387,-0.0054977829568088055,0.051847148686647415
1711073191737587000,4.7865869140625,0.017333287745714188,-0.017104214057326317,0.04818195849657059
1711073191756546600,4.805546630859375,-0.0025198173243552446,-0.022907428443431854,0.03627009689807892
1711073191775506200,4.824506103515625,-0.03825540840625763,-0.03634645417332649,0.008170315995812416
1711073191794465800,4.8434658203125,-0.09231694042682648,-0.06230820715427399,-0.01718057133257389
1711073191813425400,4.86242529296875,-0.1482110619544983,-0.07605266571044922,-0.028176138177514076
1711073191832385300,4.88138525390625,-0.1677587330341339,-0.04978547990322113,-0.031841326504945755
1711073191851344600,4.9003447265625,-0.1369100660085678,0.0027488914784044027,-0.03245219215750694
1711073191870304500,4.919304443359375,-0.07154753804206848,0.03634645417332649,-0.02176205813884735
1711073191889264000,4.93826416015625,-0.0006872228696011007,0.024740023538470268,-0.007406735327094793
1711073191908223700,4.9572236328125,0.049709122627973557,-0.003970621153712273,0.0005345066892914474
1711073191927183400,4.976183349609375,0.07139482349157333,-0.020769402384757996,-0.0009926552884280682
1711073191946143000,4.99514306640625,0.07383827865123749,-0.01282816007733345,-0.006490438245236874
1711073191965102800,5.014102783203125,0.06375901401042938,0.011911863461136818,-0.009850194677710533
1711073191984062500,5.0330625,0.0423787422478199,0.031154103577136993,-0.004046979360282421
1711073192003022000,5.05202197265625,0.015195261687040329,0.030543239787220955,0.01611155830323696
1711073192021981700,5.070981689453125,0.0035888305865228176,0.014049889519810677,0.03168861195445061
1711073192040941300,5.08994140625,0.004810560029000044,-0.015271619893610477,0.029856016859412193
1711073192059901000,5.10890087890625,-0.0019089524867013097,-0.044898562133312225,0.0319940410554409
1711073192078860800,5.12786083984375,-0.002825249684974551,-0.05711585655808449,0.02802342176437378
1711073192097820400,5.1468203125,-0.007406735327094793,-0.06505709886550903,0.009086613543331623
1711073192116780000,5.165780029296875,-0.02909243479371071,-0.06444623321294785,0.0057268571108579636
1711073192135739400,5.184739501953125,-0.07979421317577362,-0.056199558079242706,-0.008933897130191326
1711073192154699300,5.20369921875,-0.14882193505764008,-0.05192350596189499,-0.050778135657310486
1711073192173659100,5.2226591796875,-0.1882227063179016,-0.022907428443431854,-0.08987347781658173
1711073192192618500,5.241618408203125,-0.1677587330341339,0.024434590712189674,-0.0910952091217041
1711073192211578400,5.260578369140625,-0.10728313028812408,0.047952886670827866,-0.05810851231217384
1711073192230538000,5.2795380859375,-0.03886627033352852,0.03543015569448471,-0.024816380813717842
1711073192249497600,5.29849755859375,0.022220205515623093,0.014660755172371864,-0.008628465235233307
1711073192268457200,5.317457275390625,0.083306685090065,0.011911863461136818,-0.0012980876490473747
1711073192287416800,5.336416748046875,0.12881611287593842,0.023518294095993042,0.01763872057199478
1711073192306376700,5.355376708984375,0.13889537751674652,0.03176496922969818,0.04176788032054901
1711073192325336300,5.37433642578125,0.1303432732820511,0.03451386094093323,0.05581776797771454
1711073192344296000,5.3932958984375,0.09644027799367905,0.025045456364750862,0.0576503649353981
1711073192363255600,5.412255615234375,0.04146244749426842,0,0.048792824149131775
1711073192382215200,5.431215087890625,-0.026648975908756256,-0.021380268037319183,0.03138317912817001
1711073192401174800,5.4501748046875,-0.08712458610534668,-0.020158538594841957,0.012140937149524689
1711073192420134700,5.469134765625,-0.10942115634679794,-0.002443459117785096,-0.0016035200096666813
1711073192439094300,5.48809423828125,-0.09689842909574509,0.014966187067329884,-0.0058795735239982605
1711073192458054000,5.507053955078125,-0.07276926934719086,0.010079269297420979,-0.014126247726380825
1711073192477013500,5.526013427734375,-0.030314164236187935,0.0009162971982732415,-0.02328922040760517
1711073192495973000,5.54497314453125,0.01030834298580885,0.0027488914784044027,-0.024816380813717842
1711073192514933000,5.56393310546875,0.04634936526417732,0.01954767294228077,-0.02848157100379467
1711073192533892400,5.582892333984375,0.06681333482265472,0.041844237595796585,-0.026648975908756256
1711073192552852200,5.601852294921875,0.07200568914413452,0.05803215503692627,-0.010766491293907166
1711073192571811800,5.620811767578125,0.07353284955024719,0.05955931544303894,-0.0025198173243552446
1711073192590771500,5.639771484375,0.0527634471654892,0.0409279391169548,-0.004352411720901728
1711073192609731000,5.65873095703125,0.03504836559295654,0.0360410213470459,0.015500693581998348
1711073192628690700,5.677690673828125,0.0243582334369421,0.04550942778587341,0.02893971838057041
1711073192647650600,5.696650634765625,0.010919207707047462,0.0461202897131443,0.015500693581998348
1711073192666610200,5.715610107421875,0.006948587018996477,0.03176496922969818,0.0057268571108579636
1711073192685569800,5.73456982421875,0.010613775812089443,0.010690134018659592,0.004810560029000044
1711073192704529400,5.753529296875,0.013973532244563103,-0.006719512399286032,0.0029779658652842045
1711073192723489000,5.772489013671875,0.013362666592001915,-0.014660755172371864,-0.0034361144062131643
1711073192742448600,5.79144873046875,0.008781181648373604,0.001221729558892548,-0.009850194677710533
1711073192761408500,5.810408447265625,0.015195261687040329,0.025961752980947495,-0.01779143698513508
1711073192780368100,5.8293681640625,0.02496909722685814,0.0308486707508564,-0.008628465235233307
1711073192799327700,5.84832763671875,0.02802342176437378,0.01649334840476513,0.01672242395579815
1711073192818287400,5.867287353515625,0.03962985426187515,0.004886918235570192,0.026801692321896553
1711073192837247000,5.8862470703125,0.06986765563488007,0.004581485874950886,0.04298960790038109
1711073192856206800,5.905206787109375,0.11354449391365051,0.006719512399286032,0.07994692772626877
1711073192875166500,5.92416650390625,0.15630502998828888,0.014966187067329884,0.12087486684322357
1711073192894126000,5.9431259765625,0.1969275325536728,0.021685699000954628,0.15355613827705383
1711073192913085700,5.962085693359375,0.22930335998535156,0.0256563201546669,0.17768529057502747
1711073192932045300,5.98104541015625,0.24152065813541412,0.021685699000954628,0.18501566350460052
1711073192951005200,6.000005126953125,0.22472187876701355,0.0030543238390237093,0.17432554066181183
1711073192969964800,6.01896484375,0.1553887277841568,-0.0308486707508564,0.15233440697193146
1711073192988924400,6.03792431640625,0.01672242395579815,-0.06505709886550903,0.10010546445846558
1711073193007884000,6.056884033203125,-0.15493057668209076,-0.0818558782339096,-0.0034361144062131643
1711073193026843600,6.07584375,-0.3161988854408264,-0.08124501258134842,-0.11522436887025833
1711073193045803500,6.094803466796875,-0.44264790415763855,-0.03634645417332649,-0.1839466542005539
1711073193064763100,6.11376318359375,-0.4499782621860504,0.023518294095993042,-0.2199876755475998
1711073193083722800,6.13272265625,-0.3846157491207123,0.05222893878817558,-0.20593778789043427
1711073193102682400,6.151682373046875,-0.29940009117126465,0.031154103577136993,-0.1424078494310379
1711073193121642000,6.17064208984375,-0.18058690428733826,-0.029626941308379173,-0.09934188425540924
1711073193140601600,6.1896015625,-0.05719221383333206,-0.0668896958231926,-0.11919499188661575
1711073193159561500,6.2085615234375,0.03871355578303337,-0.049480047076940536,-0.15004366636276245
1711073193178521000,6.22752099609375,0.0988837331533432,0.013439024798572063,-0.14454588294029236
1711073193197480700,6.246480712890625,0.13095413148403168,0.07910698652267456,-0.11858412623405457
1711073193216440600,6.265440673828125,0.14836378395557404,0.1081230640411377,-0.07460185885429382
1711073193235400000,6.28439990234375,0.15233440697193146,0.09407317638397217,-0.019013166427612305
1711073193254359800,6.30335986328125,0.14928008615970612,0.06047561392188072,0.032910339534282684
1711073193273319400,6.3223193359375,0.1450040340423584,0.029016077518463135,0.11323905736207962
1711073193292279000,6.341279052734375,0.14866921305656433,0.01649334840476513,0.22044582664966583
1711073193311239000,6.360239013671875,0.1651625633239746,0.01649334840476513,0.2903898358345032
1711073193330198500,6.379198486328125,0.17493639886379242,0.004581485874950886,0.2836703360080719
1711073193349158100,6.398158203125,0.14133884012699127,-0.014966187067329884,0.24885104596614838
1711073193368117800,6.41711767578125,0.06223184987902641,-0.023212861269712448,0.18471023440361023
1711073193387077600,6.43607763671875,-0.04405862092971802,-0.06047561392188072,0.09063705801963806
1711073193406037200,6.455037353515625,-0.15859577059745789,-0.1127045527100563,-0.004352411720901728
1711073193424996900,6.473996826171875,-0.25297439098358154,-0.14233149588108063,-0.06910407543182373
1711073193443956700,6.492956787109375,-0.27374377846717834,-0.13622283935546875,-0.09995274990797043
1711073193462916400,6.511916259765625,-0.23189954459667206,-0.11484257876873016,-0.08895718306303024
1711073193481876000,6.5308759765625,-0.16470441222190857,-0.08949168771505356,-0.04589121788740158
1711073193500835600,6.549835693359375,-0.06696604937314987,-0.05100720748305321,0.004810560029000044
1711073193519795500,6.56879541015625,0.05062541738152504,-0.011606430634856224,0.03962985426187515
1711073193538755000,6.587755126953125,0.13706278800964355,0.014966187067329884,0.06345357745885849
1711073193557714700,6.606714599609375,0.18318307399749756,0.012217295356094837,0.06681333482265472
1711073193576674600,6.625674560546875,0.19814926385879517,-0.016187917441129684,0.05948295816779137
1711073193595634200,6.64463427734375,0.18287764489650726,-0.030543239787220955,0.08086322247982025
1711073193614593800,6.66359375,0.14133884012699127,-0.0308486707508564,0.10621411353349686
1711073193633553400,6.682553466796875,0.08086322247982025,-0.01802051067352295,0.10132719576358795
1711073193652513300,6.70151318359375,0.037491824477910995,0.0027488914784044027,0.10041090101003647
1711073193671473000,6.720472900390625,0.015500693581998348,0.003665188793092966,0.114460788667202
1711073193690432800,6.739432861328125,0.0017562361899763346,-0.019242240116000175,0.1193477064371109
1711073193709392400,6.758392333984375,-0.0058795735239982605,-0.05864302068948746,0.10835213959217072
1711073193728352000,6.77735205078125,-0.00923932995647192,-0.09560033679008484,0.08758273720741272
1711073193747311600,6.7963115234375,-0.003741546766832471,-0.11728604137897491,0.058566659688949585
1711073193766271500,6.815271484375,0.002672533504664898,-0.1279761642217636,0.04146244749426842
1711073193785231000,6.834231201171875,-0.004963276442140341,-0.12370011955499649,0.04146244749426842
1711073193804190700,6.853190673828125,-0.011682788841426373,-0.10476330667734146,0.045738499611616135
1711073193823150600,6.872150634765625,-0.021151192486286163,-0.09162971377372742,0.033826638013124466
1711073193842110200,6.891110107421875,-0.03214675933122635,-0.07513637095689774,0.02588539570569992
1711073193861070000,6.910070068359375,-0.021456625312566757,-0.047036588191986084,0.030772313475608826
1711073193880029700,6.92902978515625,0.00603228947147727,-0.021991131827235222,0.04451677203178406
1711073193898989300,6.9479892578125,0.04940368980169296,-0.009162971749901772,0.06681333482265472
1711073193917949200,6.96694921875,0.10193806141614914,0.006414080038666725,0.09491311758756638
1711073193936908800,6.98590869140625,0.15874847769737244,0.03543015569448471,0.11323905736207962
1711073193955868400,7.004868408203125,0.2164752036333084,0.07238747924566269,0.12270746380090714
1711073193974828300,7.023828369140625,0.261984646320343,0.08063415437936783,0.13095413148403168
1711073193993788000,7.042787841796875,0.27695080637931824,0.07299833744764328,0.12698352336883545
1711073194012747800,7.061747802734375,0.24671301245689392,0.047952886670827866,0.1037706509232521
1711073194031707400,7.080707275390625,0.15141810476779938,-0.01649334840476513,0.05826122686266899
1711073194050667000,7.0996669921875,0.024663666263222694,-0.07605266571044922,-0.007101302966475487
1711073194069627000,7.118626953125,-0.0651334598660469,-0.07513637095689774,-0.0709366723895073
1711073194088586500,7.13758642578125,-0.09567669779062271,-0.028405211865901947,-0.10545053333044052
1711073194107546000,7.156546142578125,-0.10331250727176666,0.019853105768561363,-0.12408190965652466
1711073194126506000,7.175506103515625,-0.15401428937911987,0.03329212963581085,-0.1326340138912201
1711073194145465600,7.194465576171875,-0.23373213410377502,0.029932374134659767,-0.13599377870559692
1711073194164425500,7.213425537109375,-0.28504478931427,0.039706211537122726,-0.14546217024326324
1711073194183385000,7.232385009765625,-0.275270938873291,0.02718348242342472,-0.1320231556892395
1711073194202345000,7.251344970703125,-0.22579088807106018,-0.007941242307424545,-0.10575596243143082
1711073194221304600,7.2703046875,-0.14515674114227295,-0.029016077518463135,-0.0758235901594162
1711073194240264200,7.28926416015625,-0.037033677101135254,-0.03451386094093323,-0.05108356848359108
1711073194259224000,7.30822412109375,0.042684175074100494,-0.028405211865901947,-0.030925029888749123
1711073194278183700,7.32718359375,0.06772962957620621,0.000610864779446274,-0.00679587060585618
1711073194297143600,7.3461435546875,0.07750347256660461,0.034208428114652634,0.01977674663066864
1711073194316103200,7.365103271484375,0.10224349051713943,0.06322450190782547,0.0423787422478199
1711073194335062800,7.384062744140625,0.12698352336883545,0.0766635313630104,0.07536543905735016
1711073194354022700,7.403022705078125,0.145614892244339,0.050090912729501724,0.11201732605695724
1711073194372982300,7.421982177734375,0.14408773183822632,-0.006414080038666725,0.1508072465658188
1711073194391942100,7.440942138671875,0.12026400119066238,-0.04459312930703163,0.17982332408428192
1711073194410901800,7.45990185546875,0.08483384549617767,-0.05345066636800766,0.18959715962409973
1711073194429861600,7.478861572265625,0.04787652567028999,-0.05070177838206291,0.1856265366077423
1711073194448821200,7.4978212890625,0.003283398225903511,-0.0668896958231926,0.17707443237304688
1711073194467781000,7.516781005859375,-0.047723811119794846,-0.09132428467273712,0.14347685873508453
1711073194486740700,7.53574072265625,-0.10178534686565399,-0.11575887352228165,0.07689260691404343
1711073194505700400,7.554700439453125,-0.17753258347511292,-0.1597411334514618,0.01030834298580885
1711073194524660200,7.57366015625,-0.2648862302303314,-0.1902843713760376,-0.05322159454226494
1711073194543619800,7.592619873046875,-0.3070359230041504,-0.1695149689912796,-0.10850485414266586
1711073194562579700,7.611579833984375,-0.266107976436615,-0.08826996386051178,-0.12011128664016724
1711073194581539300,7.630539306640625,-0.15645773708820343,0.007635809946805239,-0.07857248187065125
1711073194600499200,7.649499267578125,-0.02542724646627903,0.05803215503692627,-0.026343543082475662
1711073194619458800,7.668458740234375,0.0836121141910553,0.06780599057674408,-0.004352411720901728
1711073194638418700,7.687418701171875,0.1654679924249649,0.07024945318698883,0.002061668550595641
1711073194657378300,7.70637841796875,0.2219729870557785,0.08155044913291931,0.0023671009112149477
1711073194676338200,7.725338134765625,0.2424369603395462,0.09132428467273712,0.009086613543331623
1711073194695297800,7.7442978515625,0.22288928925991058,0.09926552325487137,0.021914774551987648
1711073194714257700,7.763257568359375,0.1660788655281067,0.09193515032529831,0.045738499611616135
1711073194733217300,7.78221728515625,0.09613484144210815,0.07024945318698883,0.06589704006910324
1711073194752177000,7.801177001953125,0.014889828860759735,0.05070177838206291,0.08269581943750381
1711073194771136800,7.82013671875,-0.08804088830947876,0.05039634555578232,0.08666644245386124
1711073194790096400,7.839096435546875,-0.1885281354188919,0.07238747924566269,0.060093823820352554
1711073194809056300,7.85805615234375,-0.26763513684272766,0.12705987691879272,-0.0058795735239982605
1711073194828015900,7.877015869140625,-0.30245441198349,0.17043127119541168,-0.07521272450685501
1711073194846975700,7.895975830078125,-0.2929860055446625,0.16584978997707367,-0.12591449916362762
1711073194865935400,7.914935302734375,-0.2606101930141449,0.12247838824987411,-0.15065452456474304
1711073194884895200,7.933895263671875,-0.21876594424247742,0.06444623321294785,-0.1579848974943161
1711073194903854800,7.952854736328125,-0.16134466230869293,0.012522728182375431,-0.15370884537696838
1711073194922814500,7.971814453125,-0.10972658544778824,-0.02779434807598591,-0.14332415163516998
1711073194941774300,7.9907744140625,-0.08712458610534668,-0.0412333719432354,-0.11522436887025833
1711073194960734000,8.00973388671875,-0.07979421317577362,0.013744457624852657,-0.0910952091217041
1711073194979693800,8.02869384765625,-0.0397825688123703,0.1285870373249054,-0.07979421317577362
1711073194998653400,8.0476533203125,0.010613775812089443,0.23212862014770508,-0.05261072888970375
1711073195017613300,8.06661328125,0.061620984226465225,0.2733619809150696,-0.0025198173243552446
1711073195036573000,8.085572998046874,0.1037706509232521,0.2214384824037552,0.02588539570569992
1711073195055532800,8.10453271484375,0.13248129189014435,0.1331685185432434,0.0423787422478199
1711073195074492400,8.123492431640624,0.15691588819026947,0.06291907280683517,0.0628427118062973
1711073195093452300,8.142452392578125,0.16730059683322906,0.010079269297420979,0.061620984226465225
1711073195112412000,8.161411865234374,0.1559995859861374,-0.03848448023200035,0.05123628303408623
1711073195131371500,8.18037158203125,0.16332997381687164,-0.054672397673130035,0.053985174745321274
1711073195150331400,8.199331298828126,0.10315979272127151,-0.12003492563962936,0.02283107116818428
1711073195169291000,8.218291015625,-0.05230529606342316,-0.26022839546203613,0.04176788032054901
1711073195188251000,8.2372509765625,-0.2196822464466095,-0.31001389026641846,0.03565923124551773
1711073195207210500,8.25621044921875,-0.26763513684272766,-0.24220788478851318,-0.05627591907978058
1711073195226170400,8.27517041015625,-0.2248746007680893,-0.2052505612373352,-0.13813179731369019
1711073195245130000,8.2941298828125,-0.1729510873556137,-0.2605338394641876,-0.12835796177387238
1711073195264089900,8.31308984375,-0.13568833470344543,-0.3271180987358093,-0.08834631741046906
1711073195283049500,8.332049560546874,-0.07673988491296768,-0.3500255048274994,-0.03520108386874199
1711073195302009300,8.35100927734375,-0.00923932995647192,-0.33169957995414734,0.011224640533328056
1711073195320969000,8.369968994140624,0.045738499611616135,-0.2574795186519623,0.004810560029000044
1711073195339928600,8.388928466796875,0.07414371520280838,-0.16157373785972595,-0.0058795735239982605
1711073195358888400,8.407888427734376,0.03352120518684387,-0.16096286475658417,0.011530072428286076
1711073195377848000,8.42684814453125,-0.05841394513845444,-0.18814635276794434,0.026190826669335365
1711073195396808000,8.445807861328126,-0.11339177191257477,-0.10842850059270859,0.02130390889942646
1711073195415767600,8.464767578125,-0.09506583213806152,0.03756818547844887,0.03993528336286545
1711073195434727400,8.4837275390625,-0.02328922040760517,0.15271618962287903,0.07444914430379868
1711073195453687000,8.50268701171875,0.03657552972435951,0.1750127524137497,0.08910989761352539
1711073195472647000,8.52164697265625,0.0683404952287674,0.1279761642217636,0.0836121141910553
1711073195491606500,8.5406064453125,0.06620246917009354,0.05864302068948746,0.07383827865123749
1711073195510566400,8.55956640625,0.035964664071798325,0.04062250629067421,0.054901473224163055
1711073195529526000,8.578526123046874,0.0066431546583771706,0.08674279600381851,0.045738499611616135
1711073195548486000,8.59748583984375,-0.01870773360133171,0.14752385020256042,0.060704685747623444
1711073195567445500,8.616445556640626,-0.020540328696370125,0.18631376326084137,0.08513928204774857
1711073195586405400,8.6354052734375,0.022525638341903687,0.16279546916484833,0.08422297984361649
1711073195605365000,8.654364990234376,0.07506000995635986,0.08277218043804169,0.07108938694000244
1711073195624324900,8.673324951171875,0.09735657274723053,-0.021380268037319183,0.07780890166759491
1711073195643284500,8.692284423828125,0.08513928204774857,-0.10995566099882126,0.09521854668855667
1711073195662244000,8.711244140625,0.057955797761678696,-0.15271618962287903,0.10865757614374161
1711073195681204000,8.730203857421875,0.03168861195445061,-0.164322629570961,0.11018473654985428
1711073195700163600,8.74916357421875,-0.0022143847309052944,-0.17592905461788177,0.10041090101003647
1711073195719123500,8.76812353515625,-0.026343543082475662,-0.18295399844646454,0.0988837331533432
1711073195738083000,8.7870830078125,-0.04222602769732475,-0.20433427393436432,0.10774127393960953
1711073195757042700,8.806042724609375,-0.0550541877746582,-0.2208276242017746,0.11812597513198853
1711073195776002600,8.82500244140625,-0.05352702736854553,-0.19120067358016968,0.11293362826108932
1711073195794962200,8.843962158203125,-0.040088001638650894,-0.1331685185432434,0.07872519642114639
1711073195813922000,8.862922119140626,-0.0058795735239982605,-0.053756099194288254,0.03932442143559456
1711073195832881700,8.881881591796875,0.03504836559295654,0.009773836471140385,0.006337722297757864
1711073195851841500,8.900841552734375,0.06864593178033829,0.05345066636800766,-0.02084576152265072
1711073195870801200,8.91980126953125,0.09827287495136261,0.09132428467273712,-0.040088001638650894
1711073195889760800,8.9387607421875,0.11751510947942734,0.13225223124027252,-0.06177370250225067
1711073195908720600,8.957720703125,0.1193477064371109,0.1695149689912796,-0.08132137358188629
1711073195927680300,8.97668017578125,0.11537708342075348,0.210442915558815,-0.08773545175790787
1711073195946640100,8.99564013671875,0.10529781877994537,0.24281874299049377,-0.07124210149049759
1711073195965599700,9.014599853515625,0.10315979272127151,0.2669478952884674,-0.060551971197128296
1711073195984559600,9.0335595703125,0.11568251997232437,0.26939135789871216,-0.06391172856092453
1711073196003519200,9.052519287109375,0.11843141168355942,0.24373504519462585,-0.06085740402340889
1711073196022479000,9.07147900390625,0.11232276260852814,0.19211697578430176,-0.05230529606342316
1711073196041438700,9.090438720703125,0.09827287495136261,0.13041962683200836,-0.04283689334988594
1711073196060398300,9.1093984375,0.06681333482265472,0.07299833744764328,-0.01870773360133171
1711073196079358200,9.128358154296874,0.03535379841923714,0.035735588520765305,0.006337722297757864
1711073196098317800,9.14731787109375,0.009086613543331623,0.015577051788568497,0.008170315995812416
1711073196117277400,9.16627734375,-0.013209951110184193,-0.008246674202382565,0.008170315995812416
1711073196136237300,9.1852373046875,-0.0345902182161808,-0.04367683082818985,0.016416991129517555
1711073196155197000,9.204197021484376,-0.050778135657310486,-0.07086031138896942,0.0191658828407526
1711073196174156800,9.22315673828125,-0.05719221383333206,-0.09162971377372742,0.009086613543331623
1711073196193116400,9.242116455078126,-0.059635672718286514,-0.10720676928758621,-0.010155626572668552
1711073196212076300,9.261076171875,-0.05322159454226494,-0.1078176349401474,-0.030925029888749123
1711073196231036000,9.280035888671875,-0.04039343446493149,-0.09468404203653336,-0.04650207981467247
1711073196249995800,9.298995849609375,-0.038560837507247925,-0.07819069176912308,-0.043142326176166534
1711073196268955400,9.317955322265625,-0.037949975579977036,-0.06261363625526428,-0.03733910992741585
1711073196287915000,9.3369150390625,-0.030925029888749123,-0.035124726593494415,-0.04405862092971802
1711073196306875000,9.355875,-0.022067490965127945,-0.01588248461484909,-0.051389001309871674
1711073196325834500,9.37483447265625,-0.01779143698513508,-0.012217295356094837,-0.05108356848359108
1711073196344794000,9.393794189453125,-0.018096869811415672,-0.009162971749901772,-0.04894553869962692
1711073196363754000,9.41275390625,-0.021151192486286163,-0.010079269297420979,-0.04802924394607544
1711073196382713600,9.431713623046875,-0.028787001967430115,-0.013744457624852657,-0.04833467677235603
1711073196401673500,9.450673583984376,-0.04039343446493149,-0.009773836471140385,-0.05322159454226494
1711073196420633000,9.469633056640625,-0.05169443041086197,-0.006719512399286032,-0.06085740402340889
1711073196439593000,9.488593017578125,-0.0657443255186081,-0.008857538923621178,-0.05871937796473503
1711073196458552600,9.507552490234374,-0.08559742569923401,-0.011606430634856224,-0.053832460194826126
1711073196477512200,9.52651220703125,-0.08804088830947876,-0.004276053514331579,-0.05871937796473503
1711073196496472000,9.54547216796875,-0.08498656004667282,0.0015271619195118546,-0.06696604937314987
1711073196515431700,9.564431640625,-0.08468113094568253,0.0015271619195118546,-0.07124210149049759
1711073196534391300,9.583391357421876,-0.09445496648550034,-0.0021380267571657896,-0.08804088830947876
1711073196553351200,9.60235107421875,-0.09750928729772568,0.003970621153712273,-0.09262236952781677
1711073196572310800,9.621310791015626,-0.07612902671098709,0.022296564653515816,-0.07276926934719086
1711073196591270700,9.640270751953125,-0.06879864633083344,0.02107483521103859,-0.06727148592472076
1711073196610230300,9.659230224609376,-0.07796161621809006,0.010079269297420979,-0.07918334752321243
1711073196629190100,9.678190185546875,-0.08376483619213104,0.003359756199643016,-0.08437569439411163
1711073196648149800,9.697149658203125,-0.08926261961460114,0.001832594396546483,-0.08529199659824371
1711073196667109400,9.716109375,-0.09353867173194885,0.0027488914784044027,-0.08834631741046906
1711073196686069200,9.7350693359375,-0.08804088830947876,0.01435532234609127,-0.08437569439411163
1711073196705028900,9.75402880859375,-0.07857248187065125,0.022907428443431854,-0.08284853398799896
1711073196723988500,9.772988525390625,-0.070631243288517,0.021991131827235222,-0.07765618711709976
1711073196742948400,9.7919482421875,-0.06818778067827225,0.0256563201546669,-0.06299543380737305
1711073196761908000,9.810907958984375,-0.05780307948589325,0.03940077871084213,-0.05474875494837761
1711073196780867800,9.829867919921876,-0.046807512640953064,0.05039634555578232,-0.05658135190606117
1711073196799827500,9.848827392578125,-0.038560837507247925,0.05436696484684944,-0.05474875494837761
1711073196818787000,9.867787109375,-0.03917170315980911,0.04520399495959282,-0.0602465383708477
1711073196837747000,9.886746826171875,-0.046807512640953064,0.03237583488225937,-0.06146826967597008
1711073196856706600,9.90570654296875,-0.05261072888970375,0.023823726922273636,-0.059024810791015625
1711073196875666400,9.92466650390625,-0.06299543380737305,0.017104214057326317,-0.05413788929581642
1711073196894626000,9.9436259765625,-0.0807105079293251,-0.004581485874950886,-0.039477135986089706
1711073196913585700,9.962585693359374,-0.10300707072019577,-0.03695731982588768,-0.03672824427485466
1711073196932545300,9.981545166015625,-0.13080142438411713,-0.06291907280683517,-0.029703300446271896
1711073196951505200,10.000505126953126,-0.16378812491893768,-0.07483093440532684,-0.00954476185142994
1711073196970464800,10.01946484375,-0.18028147518634796,-0.06200277432799339,-0.00007635809743078426
1711073196989424600,10.038424560546876,-0.1735619604587555,-0.01802051067352295,-0.01565340906381607
1711073197008384300,10.05738427734375,-0.15584687888622284,0.02626718580722809,-0.033979352563619614
1711073197027344000,10.07634375,-0.1369100660085678,0.0409279391169548,-0.04894553869962692
1711073197046303500,10.095303466796874,-0.12591449916362762,0.04153880476951599,-0.06330086290836334
1711073197065263400,10.114263427734375,-0.11614066362380981,0.05955931544303894,-0.07673988491296768
1711073197084223000,10.133222900390624,-0.11217004805803299,0.10659590363502502,-0.11614066362380981
1711073197103182800,10.152182861328125,-0.11797326058149338,0.1798996776342392,-0.1787542998790741
1711073197122142500,10.171142578125,-0.1274416595697403,0.26878049969673157,-0.23709189891815186
1711073197141102000,10.19010205078125,-0.12988512217998505,0.3652971386909485,-0.2926805913448334
1711073197160062000,10.20906201171875,-0.12316560745239258,0.43463030457496643,-0.34552037715911865
1711073197179021600,10.228021484375,-0.10728313028812408,0.45509424805641174,-0.3879754841327667
1711073197197981200,10.246981201171875,-0.08834631741046906,0.42974337935447693,-0.42126762866973877
1711073197216941000,10.265941162109375,-0.08498656004667282,0.3799578845500946,-0.4551706314086914
1711073197235900700,10.284900634765625,-0.1326340138912201,0.33139413595199585,-0.4869355857372284
1711073197254860500,10.303860595703124,-0.22884522378444672,0.3173442482948303,-0.49823659658432007
1711073197273820200,10.322820068359375,-0.3165042996406555,0.3390299379825592,-0.5330559015274048
1711073197292779800,10.34177978515625,-0.404468834400177,0.3854556679725647,-0.6029998660087585
1711073197311739600,10.36073974609375,-0.5025126338005066,0.4224129915237427,-0.6659189462661743
1711073197330699300,10.37969921875,-0.5858956575393677,0.4685332775115967,-0.7230347990989685
1711073197349659100,10.3986591796875,-0.6613374948501587,0.5229002237319946,-0.7883973717689514
1711073197368618800,10.41761865234375,-0.7273108959197998,0.5381718873977661,-0.8635337352752686
1711073197387578400,10.436578369140625,-0.7908408045768738,0.4862483739852905,-0.9426407217979431
1711073197406538000,10.4555380859375,-0.8528435826301575,0.38331764936447144,-1.0229694843292236
1711073197425497900,10.474497802734374,-0.8989638686180115,0.2724456787109375,-1.1097122430801392
1711073197444457500,10.49345751953125,-0.9337831735610962,0.18570289015769958,-1.199814796447754
1711073197463417300,10.512417236328124,-0.9411135315895081,0.15668681263923645,-1.3054944276809692
1711073197482377000,10.531376953125,-0.9166789650917053,0.16126830875873566,-1.4478259086608887
1711073197501336600,10.550336669921874,-0.8876628875732422,0.1802051067352295,-1.579772710800171
1711073197520296400,10.56929638671875,-0.8794162273406982,0.2360992431640625,-1.6497167348861694
1711073197539256000,10.588256103515626,-0.884913980960846,0.23518294095993042,-1.6597959995269775
1711073197558215700,10.607215576171875,-0.9237039089202881,0.268169641494751,-1.662544846534729
1711073197577175600,10.626175537109376,-0.9453896284103394,0.34116798639297485,-1.6564362049102783
1711073197596135200,10.64513525390625,-0.8907172083854675,0.38820457458496094,-1.561752200126648
1711073197615095000,10.664094970703125,-0.7890082001686096,0.4584540128707886,-1.354974389076233
1711073197634054700,10.6830546875,-0.617660641670227,0.46547895669937134,-1.0345758199691772
1711073197653014500,10.7020146484375,-0.43256860971450806,0.4159989058971405,-0.6729438900947571
1711073197671974100,10.72097412109375,-0.2352592945098877,0.31062474846839905,-0.326583594083786
1711073197690933800,10.739933837890625,-0.05841394513845444,0.21807873249053955,-0.011377356946468353
1711073197709893400,10.758893310546876,0.11629338562488556,0.16768237948417664,0.24335326254367828
1711073197728853200,10.777853271484375,0.32246023416519165,0.16615521907806396,0.44982555508613586
1711073197747812900,10.796812744140626,0.5390118360519409,0.20341797173023224,0.6110938787460327
1711073197766772700,10.815772705078125,0.7445678114891052,0.22418737411499023,0.752203643321991
1711073197785732400,10.834732421875,0.9305761456489563,0.21197007596492767,0.8701004981994629
1711073197804692200,10.853692138671875,1.0900118350982666,0.13194678723812103,0.9959386587142944
1711073197823651800,10.87265185546875,1.2121847867965698,0.06322450190782547,1.1245256662368774
1711073197842611700,10.89161181640625,1.327332854270935,0.05253437161445618,1.217071771621704
1711073197861571300,10.9105712890625,1.4354559183120728,0.08674279600381851,1.2937352657318115
1711073197880531200,10.92953125,1.5136466026306152,0.06780599057674408,1.3007601499557495
1711073197899490800,10.94849072265625,1.5518256425857544,-0.057726722210645676,1.2619702816009521
1711073197918450400,10.967450439453126,1.5225040912628174,-0.18600831925868988,1.212795615196228
1711073197937410300,10.986410400390625,1.4421753883361816,-0.27977606654167175,1.1816415786743164
1711073197956370000,11.005369873046876,1.3154209852218628,-0.33536475896835327,1.1214714050292969
1711073197975329800,11.024329833984375,1.1541526317596436,-0.3555232882499695,1.0307579040527344
1711073197994289400,11.043289306640625,0.9760855436325073,-0.3582721948623657,0.8646027445793152
1711073198013249000,11.0622490234375,0.7888554930686951,-0.406530499458313,0.6486620306968689
1711073198032209000,11.081208984375,0.5845212340354919,-0.3845393657684326,0.4235583543777466
1711073198051168500,11.10016845703125,0.4064541459083557,-0.2663370370864868,0.22075125575065613
1711073198070128400,11.11912841796875,0.24396412074565887,-0.1484401375055313,0.07597630470991135
1711073198089088000,11.138087890625,0.07231111824512482,-0.11728604137897491,0.014584396965801716
1711073198108048000,11.1570478515625,-0.006490438245236874,-0.19700388610363007,-0.029703300446271896
1711073198127007500,11.176007568359376,-0.06727148592472076,-0.2733619809150696,-0.008323032408952713
1711073198145967400,11.19496728515625,-0.12560907006263733,-0.3066541254520416,0.07383827865123749
1711073198164927000,11.213927001953126,-0.20654866099357605,-0.33139413595199585,0.19723296165466309
1711073198183886800,11.232886962890625,-0.25297439098358154,-0.2715294063091278,0.3142135739326477
1711073198202846500,11.251846435546875,-0.23281583189964294,-0.08582650125026703,0.3407861888408661
1711073198221806300,11.270806396484375,-0.18180863559246063,0.19303326308727264,0.2699258625507355
1711073198240766000,11.289765869140625,-0.1931096315383911,0.4682278633117676,0.16913318634033203
1711073198259725800,11.308725830078124,-0.24258968234062195,0.6750055551528931,0.12576179206371307
1711073198278685400,11.327685546875,-0.24686573445796967,0.7082977294921875,0.1092684343457222
1711073198297645300,11.346645263671874,-0.2202931046485901,0.5668824911117554,0.11049016565084457
1711073198316605200,11.365605224609375,-0.12255474925041199,0.268169641494751,0.1092684343457222
1711073198335564800,11.384564697265626,-0.08162680268287659,0.0565049909055233,0.1450040340423584
1711073198354524400,11.4035244140625,-0.05994110554456711,0.01435532234609127,0.18012875318527222
1711073198373484300,11.422484375,-0.02542724646627903,0.08032871782779694,0.21891866624355316
1711073198392444000,11.44144384765625,-0.014126247726380825,0.1438586562871933,0.2687041461467743
1711073198411403800,11.46040380859375,0.09277509152889252,0.09315688163042068,0.3285689055919647
1711073198430363400,11.47936328125,0.3001636862754822,0.06230820715427399,0.4235583543777466
1711073198449323300,11.4983232421875,0.4837285578250885,0.0824667438864708,0.5258781909942627
1711073198468283100,11.517283203125,0.5872701406478882,0.16157373785972595,0.6538543701171875
1711073198487242800,11.53624267578125,0.6379718780517578,0.3249800503253937,0.7448732256889343
1711073198506202600,11.55520263671875,0.6327795386314392,0.448069304227829,0.7173843383789062
1711073198525162200,11.574162353515625,0.5909352898597717,0.45387253165245056,0.6184242367744446
1711073198544122000,11.5931220703125,0.5732202529907227,0.23945899307727814,0.5090794563293457
1711073198563081700,11.612081787109375,0.5939896106719971,-0.10506874322891235,0.4595993757247925
1711073198582041600,11.63104150390625,0.8655190467834473,-0.3790415823459625,0.26595523953437805
1711073198601001200,11.650001220703125,1.1773655414581299,-0.5030471682548523,-0.04222602769732475
1711073198619961000,11.668961181640626,1.287015676498413,-0.40378162264823914,-0.19097159802913666
1711073198638921000,11.6879208984375,1.1901936531066895,-0.13530655205249786,-0.11064288020133972
1711073198657880600,11.706880615234375,1.0325905084609985,0.06902772188186646,0.062537282705307
1711073198676840400,11.72584033203125,0.8930079340934753,0.06475166976451874,0.22533275187015533
1711073198695800000,11.744800048828125,0.779692530632019,-0.025350889191031456,0.3762163519859314
1711073198714760000,11.763760009765624,0.6752346754074097,-0.09560033679008484,0.493196964263916
1711073198733719800,11.7827197265625,0.604374349117279,-0.10690133273601532,0.5570323467254639
1711073198752679400,11.801679443359374,0.5438987016677856,-0.07147117704153061,0.5603920817375183
1711073198771639300,11.820639404296875,0.5084685683250427,0.035124726593494415,0.5432878732681274
1711073198790599000,11.839598876953126,0.5597811937332153,0.1853974610567093,0.5142717957496643
1711073198809558800,11.858558837890625,0.6208676695823669,0.22693626582622528,0.49655669927597046
1711073198828518700,11.8775185546875,0.6465240120887756,0.1597411334514618,0.49686214327812195
1711073198847478300,11.896478271484375,0.6621010899543762,0.07238747924566269,0.5090794563293457
1711073198866438100,11.915438232421875,0.6801216006278992,0.029016077518463135,0.5274053812026978
1711073198885397800,11.934397705078124,0.7018072605133057,0.059864748269319534,0.5674170255661011
1711073198904357600,11.953357666015625,0.7060832977294922,0.09590577334165573,0.5949059128761292
1711073198923317500,11.9723173828125,0.7378482818603516,0.10506874322891235,0.604374349117279
1711073198942277000,11.991277099609375,0.8157335519790649,0.06505709886550903,0.5949059128761292
1711073198961237000,12.010237060546874,0.9043089747428894,-0.059864748269319534,0.5619192123413086
1711073198980196600,12.029196533203125,0.9934952259063721,-0.23426663875579834,0.48128509521484375
1711073198999156500,12.048156494140626,1.0933716297149658,-0.2922987937927246,0.4333322048187256
1711073199018116400,12.067116455078125,1.1614830493927002,-0.24801109731197357,0.4211149215698242
1711073199037076200,12.086076171875,1.1529308557510376,-0.21258094906806946,0.45013099908828735
1711073199056035800,12.105035888671875,1.112308382987976,-0.16646064817905426,0.46021026372909546
1711073199074995700,12.12399560546875,1.0887900590896606,-0.09590577334165573,0.44554948806762695
1711073199093955600,12.14295556640625,1.0762673616409302,-0.037262752652168274,0.4336376488208771
1711073199112915200,12.161915283203125,1.0961204767227173,0.021685699000954628,0.4589885175228119
1711073199131875000,12.180875,1.103450894355774,0.010690134018659592,0.4745655655860901
1711073199150835000,12.1998349609375,1.1144464015960693,-0.07147117704153061,0.43944084644317627
1711073199169794600,12.218794677734374,1.2060761451721191,-0.14691297709941864,0.37988153100013733
1711073199188754400,12.23775439453125,1.2876266241073608,-0.22418737411499023,0.3288743197917938
1711073199207714000,12.256714111328124,1.31633722782135,-0.3326158821582794,0.31299182772636414
1711073199226674000,12.275673828125,1.360930323600769,-0.46059203147888184,0.29680392146110535
1711073199245633800,12.2946337890625,1.4388155937194824,-0.6062833070755005,0.23999349772930145
1711073199264593400,12.313593505859375,1.5304453372955322,-0.7367029190063477,0.18806999921798706
1711073199283553300,12.33255322265625,1.5903100967407227,-0.8616247773170471,0.1804341822862625
1711073199302513200,12.35151318359375,1.6831614971160889,-1.0048725605010986,0.24121522903442383
1711073199321472800,12.37047265625,1.8135812282562256,-1.1801908016204834,0.2787834107875824
1711073199340432600,12.3894326171875,1.952858328819275,-1.3561197519302368,0.28214317560195923
1711073199359392500,12.408392578125,2.0426554679870605,-1.4657700061798096,0.3148244321346283
1711073199378352000,12.42735205078125,2.063424825668335,-1.4303399324417114,0.42966702580451965
1711073199397312000,12.44631201171875,2.05242919921875,-1.3387101888656616,0.5637518167495728
1711073199416272000,12.46527197265625,2.0673954486846924,-1.240666389465332,0.6923388838768005
1711073199435231700,12.484231689453125,2.093968152999878,-1.22234046459198,0.797713041305542
1711073199454191400,12.50319140625,2.161774158477783,-1.3286309242248535,0.9149990677833557
1711073199473151200,12.522151123046875,2.214003086090088,-1.461493968963623,1.085430383682251
1711073199492111000,12.541111083984376,2.0502912998199463,-1.6844596862792969,1.217071771621704
1711073199511070700,12.56007080078125,1.5869503021240234,-2.0415101051330566,1.100701928138733
1711073199530030600,12.579030517578126,1.2091305255889893,-2.224464178085327,0.8090140223503113
1711073199548990500,12.597990478515625,1.205465316772461,-2.0879359245300293,0.4901426136493683
1711073199567950000,12.6169501953125,1.2946515083312988,-1.7925827503204346,0.21342088282108307
1711073199586910000,12.635909912109375,1.3465750217437744,-1.4929535388946533,0.1599702090024948
1711073199605869800,12.654869873046875,1.383226990699768,-1.2629629373550415,0.30107998847961426
1711073199624829400,12.673829345703124,1.3890300989151,-1.1695005893707275,0.367053359746933
1711073199643789300,12.692789306640625,1.3926953077316284,-1.101083755493164,0.3294851779937744
1711073199662749200,12.711749267578124,1.371620535850525,-1.0739002227783203,0.25068363547325134
1711073199681708800,12.730708740234375,1.3013710975646973,-1.0604612827301025,0.18990258872509003
1711073199700668700,12.749668701171874,1.1730895042419434,-1.0864230394363403,0.09705114364624023
1711073199719628500,12.768628662109375,1.0585522651672363,-1.0571014881134033,-0.0345902182161808
1711073199738588200,12.787588134765626,1.0261764526367188,-0.8649845123291016,-0.10942115634679794
1711073199757548000,12.806548095703125,1.0164026021957397,-0.6426297426223755,-0.06727148592472076
1711073199776508000,12.8255078125,0.9938006401062012,-0.5473348498344421,0.035964664071798325
1711073199795467800,12.8444677734375,0.9611193537712097,-0.6081159114837646,0.08452841639518738
1711073199814427400,12.863427490234375,0.8957568407058716,-0.7953459620475769,0.04634936526417732
1711073199833387300,12.88238720703125,0.7873283624649048,-1.0809252262115479,0.004505127668380737
1711073199852347100,12.90134716796875,0.6666825413703918,-1.273958444595337,-0.0019089524867013097
1711073199871306800,12.920306640625,0.5069414377212524,-1.2510510683059692,0.006948587018996477
1711073199890266600,12.9392666015625,0.24549128115177155,-1.1059707403182983,-0.01626427471637726
1711073199909226200,12.958226318359374,-0.05933023989200592,-0.925460159778595,-0.04069886729121208
1711073199928186000,12.97718603515625,-0.23861905932426453,-0.6795870661735535,-0.06421715766191483
1711073199947146000,12.99614599609375,-0.32016950845718384,-0.4111120104789734,-0.0397825688123703
1711073199966105600,13.015105712890625,-0.3323867917060852,-0.258395791053772,0.03932442143559456
1711073199985065500,13.0340654296875,-0.2810741662979126,-0.2837466895580292,0.17157664895057678
1711073200004025300,13.053025390625,-0.21235187351703644,-0.35735589265823364,0.2943604588508606
1711073200022985000,13.07198486328125,-0.17539454996585846,-0.41355544328689575,0.34261879324913025
1711073200041944800,13.09094482421875,-0.18761184811592102,-0.41844236850738525,0.3236819803714752
1711073200060904700,13.10990478515625,-0.2199876755475998,-0.33231043815612793,0.3239873945713043
1711073200079864300,13.1288642578125,-0.24136795103549957,-0.20738859474658966,0.3878227770328522
1711073200098824200,13.14782421875,-0.1983019858598709,-0.013744457624852657,0.4724275469779968
1711073200117784000,13.1667841796875,-0.13813179731369019,0.17531819641590118,0.5002219080924988
1711073200136744000,13.185743896484375,-0.09170607477426529,0.27550002932548523,0.40431612730026245
1711073200155703600,13.20470361328125,-0.02542724646627903,0.3546070158481598,0.2570977210998535
1711073200174663400,13.223663330078125,0.07780890166759491,0.42363473773002625,0.15935935080051422
1711073200193623300,13.242623291015626,0.2021198868751526,0.4627300798892975,0.11018473654985428
1711073200212583000,13.2615830078125,0.32337653636932373,0.46059203147888184,0.08177952468395233
1711073200231542800,13.280542724609376,0.4311941862106323,0.4535670876502991,0.053985174745321274
1711073200250502700,13.299502685546875,0.46570804715156555,0.42394015192985535,0.01000291109085083
1711073200269462300,13.318462158203126,0.39332056045532227,0.39889469742774963,-0.06421715766191483
1711073200288422100,13.337422119140625,0.25557056069374084,0.38331764936447144,-0.11980585753917694
1711073200307382000,13.356382080078125,0.12056943774223328,0.3601047992706299,-0.11217004805803299
1711073200326341600,13.375341552734374,-0.03000873140990734,0.35124725103378296,-0.0449749194085598
1711073200345301500,13.394301513671875,-0.20135630667209625,0.277332603931427,0.00847574882209301
1711073200364261000,13.41326123046875,-0.30886849761009216,0.22815799713134766,-0.013820815831422806
1711073200383221000,13.432220947265625,-0.3470475673675537,0.19394956529140472,-0.004657844081521034
1711073200402180900,13.451180908203124,-0.3165042996406555,0.06963858753442764,0.015500693581998348
1711073200421140500,13.470140380859375,-0.29817837476730347,-0.0720820426940918,0.017333287745714188
1711073200440100400,13.489100341796876,-0.31039565801620483,-0.14630211889743805,-0.04222602769732475
1711073200459060200,13.508060302734375,-0.30489787459373474,-0.07055488228797913,-0.1836412250995636
1711073200478019800,13.527019775390626,-0.24197880923748016,0.09101885557174683,-0.3577376902103424
1711073200496979700,13.545979736328125,-0.1265253722667694,0.1597411334514618,-0.5019017457962036
1711073200515939600,13.564939697265626,-0.0034361144062131643,0.07849612087011337,-0.5538252592086792
1711073200534899200,13.583899169921875,0.12056943774223328,-0.037262752652168274,-0.5315287113189697
1711073200553859000,13.602859130859375,0.22991423308849335,-0.10842850059270859,-0.5061778426170349
1711073200572818700,13.621818603515624,0.2848920524120331,-0.1288924664258957,-0.4704422354698181
1711073200591778600,13.640778564453125,0.298331081867218,-0.1127045527100563,-0.3830885887145996
1711073200610738400,13.659738525390624,0.2879463732242584,-0.07422006875276566,-0.2920697331428528
1711073200629698300,13.6786982421875,0.2525162398815155,-0.03756818547844887,-0.2719111740589142
1711073200648658000,13.697657958984376,0.18471023440361023,-0.008857538923621178,-0.2957349121570587
1711073200667617800,13.71661767578125,0.12545634806156158,0.00946840364485979,-0.2709949016571045
1711073200686577400,13.735577392578126,0.10224349051713943,0.01588248461484909,-0.2346484363079071
1711073200705537300,13.754537353515625,0.10315979272127151,0.004581485874950886,-0.2651916742324829
1711073200724497200,13.7734970703125,0.07475458085536957,-0.06444623321294785,-0.32352927327156067
1711073200743456800,13.792456787109375,0.01611155830323696,-0.12736530601978302,-0.33452481031417847
1711073200762416600,13.811416748046875,-0.03428478538990021,-0.11942406743764877,-0.321391224861145
1711073200781376500,13.83037646484375,-0.06635518372058868,-0.05406153202056885,-0.3131445646286011
1711073200800336100,13.849336181640625,-0.09231694042682648,-0.004581485874950886,-0.28779366612434387
1711073200819296000,13.8682958984375,-0.12621992826461792,0.004581485874950886,-0.23159411549568176
1711073200838255600,13.887255615234375,-0.15034909546375275,-0.00946840364485979,-0.1625663936138153
1711073200857215500,13.906215576171874,-0.15462514758110046,-0.010079269297420979,-0.09048434346914291
1711073200876175400,13.92517529296875,-0.14576761424541473,0.012217295356094837,-0.026648975908756256
1711073200895135000,13.944135009765626,-0.14546217024326324,0.04367683082818985,0.012140937149524689
1711073200914094800,13.9630947265625,-0.15523600578308105,0.07452550530433655,0.028328854590654373
1711073200933054500,13.982054443359376,-0.17050762474536896,0.08643736690282822,0.023136503994464874
1711073200952014300,14.001014404296875,-0.18241949379444122,0.07544180005788803,-0.008933897130191326
1711073200970974200,14.01997412109375,-0.173256516456604,0.05436696484684944,-0.03520108386874199
1711073200989933800,14.038933837890625,-0.15126539766788483,0.04917461425065994,-0.043753188103437424
1711073201008893700,14.057893798828125,-0.12377647310495377,0.03176496922969818,-0.038560837507247925
1711073201027853300,14.076853271484374,-0.10209077596664429,-0.004276053514331579,0.0005345066892914474
1711073201046813200,14.095813232421875,-0.09231694042682648,-0.0409279391169548,0.06436987966299057
1711073201065772800,14.114772705078124,-0.08712458610534668,-0.04062250629067421,0.093691386282444
1711073201084732700,14.133732666015625,-0.09750928729772568,-0.019242240116000175,0.10865757614374161
1711073201103692500,14.152692626953124,-0.10178534686565399,-0.0009162971982732415,0.13125957548618317
1711073201122652200,14.171652099609375,-0.08712458610534668,0.026572618633508682,0.13553562760353088
1711073201141612000,14.190612060546876,-0.057497646659612656,0.06230820715427399,0.1037706509232521
1711073201160571600,14.209571533203125,-0.03000873140990734,0.08521563559770584,0.048792824149131775
1711073201179531500,14.228531494140626,-0.0077121676877141,0.09376774728298187,-0.014737112447619438
1711073201198491400,14.247491455078125,0.004505127668380737,0.09040798991918564,-0.07948877662420273
1711073201217451000,14.266450927734375,0.018860450014472008,0.07574722915887833,-0.1427132785320282
1711073201236411000,14.285410888671874,0.02496909722685814,0.04581485688686371,-0.1891390085220337
1711073201255370500,14.30437060546875,0.01824958436191082,0.013439024798572063,-0.20502148568630219
1711073201274330400,14.323330322265624,0.006337722297757864,-0.016798781231045723,-0.19555309414863586
1711073201293290000,14.3422900390625,-0.0022143847309052944,-0.01954767294228077,-0.173256516456604
1711073201312249900,14.361249755859374,-0.02023489587008953,-0.011300998739898205,-0.1372154951095581
1711073201331209700,14.380209716796875,-0.049861837178468704,0.0027488914784044027,-0.09048434346914291
1711073201350169300,14.39916943359375,-0.08559742569923401,0.023823726922273636,-0.06207913160324097
1711073201369129200,14.418129150390625,-0.10545053333044052,0.05039634555578232,-0.029397867619991302
1711073201388088800,14.4370888671875,-0.0907897800207138,0.08491020649671555,0.01824958436191082
1711073201407048700,14.456048583984375,-0.061162836849689484,0.08796452730894089,0.05062541738152504
1711073201426008300,14.47500830078125,-0.036422811448574066,0.07299833744764328,0.0680350661277771
1711073201444968200,14.49396826171875,-0.019624030217528343,0.07269290834665298,0.07383827865123749
1711073201463927800,14.512927734375,-0.008017600513994694,0.08338304609060287,0.04696023091673851
1711073201482887700,14.5318876953125,-0.014737112447619438,0.07757982611656189,0.013668099418282509
1711073201501847600,14.55084765625,-0.03214675933122635,0.06566796451807022,-0.005574141163378954
1711073201520807200,14.56980712890625,-0.04069886729121208,0.06047561392188072,-0.019013166427612305
1711073201539767000,14.58876708984375,-0.03886627033352852,0.07299833744764328,-0.024205517023801804
1711073201558726700,14.6077265625,-0.047723811119794846,0.06627883017063141,-0.029703300446271896
1711073201577686500,14.6266865234375,-0.07215840369462967,0.02932151034474373,-0.05230529606342316
1711073201596646100,14.645646240234376,-0.09231694042682648,-0.003970621153712273,-0.059024810791015625
1711073201615606000,14.66460595703125,-0.0962875634431839,-0.02412915788590908,-0.0449749194085598
1711073201634565600,14.683565673828125,-0.08345939964056015,-0.03329212963581085,-0.03000873140990734
1711073201653525200,14.702525146484374,-0.06940951198339462,-0.050090912729501724,-0.013209951110184193
1711073201672485000,14.721485107421875,-0.06268999725580215,-0.07849612087011337,0.012751801870763302
1711073201691445000,14.740445068359374,-0.06452259421348572,-0.10537417232990265,0.03627009689807892
1711073201710404600,14.759404541015625,-0.07429642975330353,-0.10690133273601532,0.04696023091673851
1711073201729364500,14.778364501953124,-0.08956804871559143,-0.0974329337477684,0.06101011857390404
1711073201748324000,14.797323974609375,-0.1066722646355629,-0.0818558782339096,0.09155336022377014
1711073201767284000,14.816283935546876,-0.12621992826461792,-0.07299833744764328,0.11751510947942734
1711073201786243600,14.83524365234375,-0.1375209391117096,-0.06566796451807022,0.12759438157081604
1711073201805203500,14.854203369140626,-0.14026983082294464,-0.07483093440532684,0.1395062506198883
1711073201824163000,14.8731630859375,-0.14332415163516998,-0.10567960888147354,0.1611919403076172
1711073201843123000,14.892123046875,-0.14026983082294464,-0.1340848207473755,0.17157664895057678
1711073201862082600,14.91108251953125,-0.13477204740047455,-0.1493564397096634,0.1602756530046463
1711073201881042400,14.93004248046875,-0.13049599528312683,-0.15638138353824615,0.14744748175144196
1711073201900002000,14.949001953125,-0.12499820441007614,-0.16859868168830872,0.13125957548618317
1711073201918962000,14.9679619140625,-0.11400263756513596,-0.18875721096992493,0.11201732605695724
1711073201937921500,14.986921630859374,-0.09384410083293915,-0.1957821547985077,0.12881611287593842
1711073201956881400,15.00588134765625,-0.05108356848359108,-0.1792888194322586,0.15325069427490234
1711073201975841000,15.024841064453126,0.010613775812089443,-0.15638138353824615,0.1508072465658188
1711073201994801000,15.04380078125,0.07780890166759491,-0.10873392969369888,0.13278673589229584
1711073202013760500,15.062760498046876,0.14805835485458374,-0.07055488228797913,0.0939968153834343
1711073202032720400,15.081720458984375,0.22624903917312622,-0.015271619893610477,0.062537282705307
1711073202051680000,15.100679931640625,0.3132972717285156,0.051618073135614395,0.03840812295675278
1711073202070639900,15.119639892578125,0.36949682235717773,0.08491020649671555,0.010919207707047462
1711073202089599500,15.138599609375,0.3646099269390106,0.06383536756038666,0.003283398225903511
1711073202108559000,15.15755908203125,0.33284494280815125,0.01435532234609127,0.05001455545425415
1711073202127519000,15.17651904296875,0.30077454447746277,-0.03695731982588768,0.1242346242070198
1711073202146478600,15.195478515625,0.3084103465080261,-0.000610864779446274,0.15661045908927917
1711073202165438500,15.2144384765625,0.344451367855072,0.04886918142437935,0.1407279670238495
1711073202184398000,15.233398193359376,0.3591121435165405,0.013439024798572063,0.10193806141614914
1711073202203358000,15.25235791015625,0.33773186802864075,-0.09407317638397217,0.07750347256660461
1711073202222317600,15.271317626953126,0.3096320927143097,-0.1847866028547287,0.05367974191904068
1711073202241277400,15.29027734375,0.2900844216346741,-0.1795942485332489,0.03840812295675278
1711073202260237000,15.309237060546875,0.2687041461467743,-0.12034036219120026,0.05123628303408623
1711073202279197000,15.328197021484375,0.24915647506713867,-0.0668896958231926,0.055512335151433945
1711073202298156500,15.347156494140625,0.2277761995792389,-0.023823726922273636,0.04176788032054901
1711073202317116400,15.366116455078124,0.20547963678836823,-0.022296564653515816,0.05459604039788246
1711073202336076000,15.385075927734375,0.18776455521583557,-0.05253437161445618,0.11507165431976318
1711073202355036000,15.404035888671874,0.18196134269237518,-0.07880155742168427,0.20517420768737793
1711073202373995500,15.42299560546875,0.18776455521583557,-0.10109812021255493,0.274812787771225
1711073202392955400,15.441955322265626,0.19876012206077576,-0.12644900381565094,0.29680392146110535
1711073202411915000,15.4609150390625,0.21952952444553375,-0.1493564397096634,0.28580835461616516
1711073202430874600,15.47987451171875,0.283975750207901,-0.16249002516269684,0.25587597489356995
1711073202449834500,15.49883447265625,0.34170249104499817,-0.15638138353824615,0.2271653413772583
1711073202468794000,15.517794189453125,0.3545306324958801,-0.15210533142089844,0.2164752036333084
1711073202487754000,15.53675390625,0.4131736755371094,-0.12400554865598679,0.20914483070373535
1711073202506713600,15.555713623046875,0.5307651162147522,-0.07269290834665298,0.21861323714256287
1711073202525673500,15.574673583984374,0.6730966567993164,-0.06902772188186646,0.23571744561195374
1711073202544633000,15.593633056640625,0.8016836643218994,-0.14660754799842834,0.2534325122833252
1711073202563592700,15.6125927734375,0.8847612738609314,-0.25809037685394287,0.2690095901489258
1711073202582552600,15.631552490234375,0.9226348996162415,-0.3860665261745453,0.27542364597320557
1711073202601512200,15.65051220703125,0.9299652576446533,-0.5076286196708679,0.3108538091182709
1711073202620472000,15.66947216796875,0.9565379023551941,-0.5696313977241516,0.36766424775123596
1711073202639431700,15.688431640625,1.0069342851638794,-0.5907062292098999,0.42966702580451965
1711073202658391300,15.707391357421875,0.9883028268814087,-0.5656607747077942,0.4785361886024475
1711073202677351200,15.72635107421875,0.8752928972244263,-0.526870846748352,0.5048033595085144
1711073202696310800,15.745310791015624,0.7448732256889343,-0.4917461574077606,0.5316814184188843
1711073202715270700,15.764270751953125,0.6605738997459412,-0.4056142270565033,0.5533671379089355
1711073202734230300,15.783230224609374,0.6248382925987244,-0.3020726442337036,0.5466476082801819
1711073202753190100,15.802190185546875,0.5961276888847351,-0.23518294095993042,0.4938078224658966
1711073202772149800,15.821149658203124,0.5579485893249512,-0.18112140893936157,0.428139865398407
1711073202791109600,15.840109619140625,0.5151880979537964,-0.13988803327083588,0.3795761168003082
1711073202810069200,15.8590693359375,0.4876991808414459,-0.12217295914888382,0.33681556582450867
1711073202829028900,15.87802880859375,0.44982555508613586,-0.14110976457595825,0.2989419400691986
1711073202847988700,15.89698876953125,0.38873907923698425,-0.15607595443725586,0.28183773159980774
1711073202866948400,15.9159482421875,0.30718863010406494,-0.1337793916463852,0.3001636862754822
1711073202885908000,15.934907958984375,0.22472187876701355,-0.07483093440532684,0.30596688389778137
1711073202904867800,15.953867919921874,0.18287764489650726,0.00946840364485979,0.28611379861831665
1711073202923827500,15.972827392578125,0.15294526517391205,0.05894844979047775,0.24946190416812897
1711073202942787300,15.991787353515624,0.16974404454231262,0.07024945318698883,0.19814926385879517
1711073202961747000,16.010746826171875,0.22105668485164642,0.011911863461136818,0.13736821711063385
1711073202980706800,16.029706787109376,0.2644280791282654,-0.11423171311616898,0.0683404952287674
1711073202999666400,16.04866650390625,0.28092142939567566,-0.1640172004699707,0.03810269013047218
1711073203018626300,16.067626220703126,0.34872743487358093,-0.08582650125026703,0.08177952468395233
1711073203037586000,16.0865859375,0.502970814704895,0.043371398001909256,0.16332997381687164
1711073203056545500,16.105545654296876,0.6556869745254517,0.1747073233127594,0.2430478185415268
1711073203075505400,16.12450537109375,0.7241038084030151,0.22296564280986786,0.2928332984447479
1711073203094465000,16.143465087890625,0.7854957580566406,0.24373504519462585,0.2848920524120331
1711073203113425000,16.1624248046875,0.8181769847869873,0.28008151054382324,0.30138540267944336
1711073203132384500,16.181384521484375,0.8694896697998047,0.3280344009399414,0.31757333874702454
1711073203151344000,16.20034423828125,0.9354630708694458,0.35155269503593445,0.30260714888572693
1711073203170304000,16.219303955078125,0.955621600151062,0.3503309488296509,0.3401753306388855
1711073203189263600,16.238263671875,0.9421825408935547,0.38850998878479004,0.3908770978450775
1711073203208223500,16.257223388671875,0.8920916318893433,0.4459312856197357,0.3960694372653961
1711073203227183000,16.27618310546875,0.835586667060852,0.49663305282592773,0.36338818073272705
1711073203246143000,16.29514306640625,0.7778599262237549,0.5241219997406006,0.32154396176338196
1711073203265102600,16.3141025390625,0.6850084662437439,0.5500837564468384,0.3032180070877075
1711073203284062500,16.3330625,0.595211386680603,0.5106829404830933,0.3658316433429718
1711073203303022000,16.35202197265625,0.5829941034317017,0.37232208251953125,0.4363865256309509
1711073203321982000,16.37098193359375,0.6572141647338867,0.2513708472251892,0.5084685683250427
1711073203340941600,16.389941650390625,0.7714458703994751,0.06841685622930527,0.5539780259132385
1711073203359901200,16.408901123046874,0.8642973303794861,-0.13255766034126282,0.5316814184188843
1711073203378861000,16.427861083984375,0.8511636853218079,-0.16554436087608337,0.469678670167923
1711073203397820700,16.446820556640624,0.8755983114242554,-0.06566796451807022,0.48097965121269226
1711073203416780500,16.465780517578125,0.9818887710571289,0.038789913058280945,0.469678670167923
1711073203435740200,16.484740234375,1.075656533241272,-0.09040798991918564,0.07689260691404343
1711073203454700000,16.503699951171875,0.9507346749305725,-0.12675444781780243,-0.46860963106155396
1711073203473659600,16.52265966796875,0.3105483949184418,0.35063639283180237,-0.2612210512161255
1711073203492619500,16.54161962890625,0.05123628303408623,0.3607156574726105,-0.01259908638894558
1711073203511579100,16.5605791015625,0.46540260314941406,0.2052505612373352,0.17707443237304688
1711073203530539000,16.5795390625,0.7916043996810913,0.18325942754745483,0.21372631192207336
1711073203549498600,16.59849853515625,0.6245328783988953,0.12370011955499649,0.2323576956987381
1711073203568458500,16.61745849609375,0.391182541847229,-0.00946840364485979,0.28031057119369507
1711073203587418000,16.636418212890625,0.47609272599220276,-0.1233946830034256,0.27572908997535706
1711073203606378000,16.6553779296875,0.6993638277053833,-0.2360992431640625,0.28183773159980774
1711073203625337600,16.674337646484375,0.7766382098197937,-0.4373791813850403,0.32826346158981323
1711073203644297500,16.69329736328125,0.7241038084030151,-0.6096430420875549,0.3105483949184418
1711073203663257000,16.712257080078125,0.6798161268234253,-0.6221657991409302,0.2580140233039856
1711073203682216700,16.731216796875,0.696309506893158,-0.5018253922462463,0.2570977210998535
1711073203701176600,16.750176513671875,0.6895899772644043,-0.48013970255851746,0.26564982533454895
1711073203720136200,16.76913623046875,0.5961276888847351,-0.6444623470306396,0.31726789474487305
1711073203739096000,16.788095947265624,0.4794524908065796,-0.7171552777290344,0.3313177824020386
1711073203758055700,16.8070556640625,0.4177551567554474,-0.5711585879325867,0.27603453397750854
1711073203777015600,16.826015625,0.39820748567581177,-0.32009315490722656,0.21311545372009277
1711073203795975200,16.84497509765625,0.31604617834091187,-0.21258094906806946,0.1856265366077423
1711073203814935000,16.86393505859375,0.23388485610485077,-0.27366742491722107,0.09552398324012756
1711073203833894700,16.882894775390625,0.19234605133533478,-0.2153298407793045,0.07139482349157333
1711073203852854500,16.9018544921875,0.2225838601589203,-0.13561198115348816,0.047265663743019104
1711073203871814100,16.920814208984375,0.2008981555700302,-0.18784092366695404,-0.016569707542657852
1711073203890774000,16.93977392578125,0.15325069427490234,-0.13958260416984558,-0.06788235157728195
1711073203909733600,16.958733642578125,0.1453094631433487,0.0668896958231926,-0.12286017835140228
1711073203928693500,16.977693603515625,0.16332997381687164,0.1536324918270111,-0.1573740392923355
1711073203947653400,16.9966533203125,0.051847148686647415,0.29138249158859253,-0.09964732080698013
1711073203966613000,17.015613037109375,0.08452841639518738,0.2669478952884674,-0.037949975579977036
1711073203985572900,17.03457275390625,0.11140646785497665,0.2522871494293213,0.0781143307685852
1711073204004532500,17.053532470703125,0.06039925664663315,0.07391463965177536,0.18806999921798706
1711073204023492400,17.072492431640626,-0.02848157100379467,-0.17195843160152435,0.170965775847435
1711073204042452000,17.091451904296875,-0.02390008419752121,-0.2205221801996231,0.10835213959217072
1711073204061411800,17.110411865234376,-0.007406735327094793,-0.1130099818110466,0.0295505840331316
1711073204080371500,17.129371337890625,-0.095982126891613,-0.04581485688686371,0.017944153398275375
1711073204099331300,17.148331298828126,-0.07185296714305878,0.012522728182375431,-0.09537126123905182
1711073204118291000,17.167291015625,0.0631481483578682,0.258395791053772,-0.13049599528312683
1711073204137250800,17.186250732421875,0.18501566350460052,0.3072649836540222,-0.20715951919555664
1711073204156210700,17.205210693359376,0.2012035846710205,0.18814635276794434,-0.19646938145160675
1711073204175170300,17.22417041015625,0.13339759409427643,0.08429934084415436,-0.17692171037197113
1711073204194130200,17.243130126953126,0.05917752534151077,0.035124726593494415,-0.10361793637275696
1711073204213089800,17.26208984375,0.0781143307685852,0.006719512399286032,-0.022067490965127945
1711073204232049700,17.281049560546876,0.02649625949561596,-0.0870482325553894,0.08727730810642242
1711073204251009300,17.30000927734375,0.029856016859412193,-0.23548837006092072,0.11598794907331467
1711073204269969200,17.31896923828125,0.09827287495136261,-0.2614501118659973,0.12209659814834595
1711073204288928800,17.3379287109375,0.14866921305656433,-0.23976442217826843,0.11843141168355942
1711073204307888600,17.356888671875,0.04940368980169296,-0.19303326308727264,0.05367974191904068
1711073204326848500,17.3758486328125,-0.05230529606342316,-0.18325942754745483,-0.031230462715029716
1711073204345808100,17.39480810546875,-0.015958841890096664,-0.18081597983837128,-0.05627591907978058
1711073204364767700,17.413767822265626,0.03168861195445061,-0.09987638890743256,-0.018402300775051117
1711073204383727600,17.4327275390625,0.06528617441654205,-0.12980876863002777,-0.04711294546723366
1711073204402687200,17.451687255859376,-0.027870705351233482,-0.11881320178508759,-0.08651372790336609
1711073204421647000,17.470647216796873,0.00022907429956831038,0.03023780696094036,-0.05047270283102989
1711073204440607000,17.48960693359375,0.09980003535747528,0.19883649051189423,0.006948587018996477
1711073204459566600,17.508566650390627,0.17737986147403717,0.21960589289665222,0.00847574882209301
1711073204478526500,17.5275263671875,0.13248129189014435,0.21502439677715302,-0.011988221667706966
1711073204497486000,17.546486083984377,0.083306685090065,0.28069236874580383,0.03474293276667595
1711073204516446000,17.565446044921874,0.11110103130340576,0.5161807537078857,0.07506000995635986
1711073204535405600,17.584405517578126,0.07750347256660461,0.5445859432220459,0.12545634806156158
1711073204554365400,17.603365478515624,-0.059635672718286514,0.28954991698265076,0.2977202236652374
1711073204573325300,17.6223251953125,-0.26824599504470825,0.17348559200763702,0.4791470468044281
1711073204592285000,17.641284912109374,-0.43867728114128113,0.11514800786972046,0.6911171674728394
1711073204611244800,17.660244873046874,-0.5477166175842285,-0.028099779039621353,0.6703477501869202
1711073204630204400,17.679204345703123,-0.44356417655944824,-0.1542433500289917,0.5713876485824585
1711073204649164300,17.698164306640624,-0.31375542283058167,-0.05253437161445618,0.44127345085144043
1711073204668124000,17.7171240234375,-0.23739732801914215,0.2364046722650528,0.16363540291786194
1711073204687083800,17.736083740234374,-0.043142326176166534,0.5219839811325073,-0.1274416595697403
1711073204706043400,17.75504345703125,0.07964149862527847,0.78648841381073,-0.3424660563468933
1711073204725003300,17.774003173828124,0.1654679924249649,0.767857015132904,-0.3901135325431824
1711073204743963100,17.792963134765625,0.15386156737804413,0.5494728684425354,-0.3589594066143036
1711073204762922800,17.8119228515625,0.09582941234111786,0.22785256803035736,-0.1995237022638321
1711073204781882600,17.830882568359375,-0.006185005884617567,-0.09407317638397217,-0.012293653562664986
1711073204800842200,17.84984228515625,-0.08223766833543777,-0.2577849328517914,0.1196531355381012
1711073204819802000,17.868802001953124,-0.11094831675291061,-0.3961458206176758,0.20028728246688843
1711073204838761700,17.88776171875,-0.07185296714305878,-0.5146535634994507,0.28244858980178833
1711073204857721600,17.9067216796875,-0.08529199659824371,-0.6734784245491028,0.32673630118370056
1711073204876681500,17.925681396484375,-0.09812015295028687,-0.8396336436271667,0.3151298761367798
1711073204895641000,17.94464111328125,0.0035888305865228176,-0.7840449213981628,0.2778671085834503
1711073204914601000,17.96360107421875,0.17768529057502747,-0.6334667801856995,0.3191004991531372
1711073204933560600,17.982560546875,0.30688318610191345,-0.7754928469657898,0.40462157130241394
1711073204952520400,18.0015205078125,0.34231334924697876,-1.1713331937789917,0.47761988639831543
1711073204971480000,18.02047998046875,0.330706924200058,-1.4651591777801514,0.5793288946151733
1711073204990440000,18.03943994140625,0.32704174518585205,-1.5607595443725586,0.6584358811378479
1711073205009399800,18.05839990234375,0.20364704728126526,-1.5625921487808228,0.6437751054763794
1711073205028359400,18.077359375,0.12789981067180634,-1.1615593433380127,0.5478693246841431
1711073205047319300,18.0963193359375,0.17829616367816925,-0.48044514656066895,0.391182541847229
1711073205066279000,18.11527880859375,0.2271653413772583,-0.007941242307424545,0.23602287471294403
1711073205085238800,18.13423876953125,0.2720639109611511,0.13530655205249786,0.083306685090065
1711073205104198400,18.153198486328126,0.3878227770328522,0.22907429933547974,-0.05413788929581642
1711073205123158300,18.172158203125,0.44585493206977844,0.3387245237827301,-0.13324488699436188
1711073205142118000,18.191117919921876,0.3304014801979065,0.42791077494621277,-0.12988512217998505
1711073205161077800,18.210077880859377,0.17799071967601776,0.4728093445301056,-0.1323285847902298
1711073205180037400,18.229037353515626,0.06711876392364502,0.4111120104789734,-0.19127702713012695
1711073205198997200,18.247997314453126,0.06650790572166443,0.526870846748352,-0.24381139874458313
1711073205217957000,18.26695703125,0.06956222653388977,0.41813695430755615,-0.15645773708820343
1711073205236916700,18.285916748046876,-0.008933897130191326,0.12492185086011887,-0.06940951198339462
1711073205255876600,18.304876708984374,-0.034895651042461395,0.02626718580722809,-0.010461059398949146
1711073205274836200,18.323836181640626,-0.059635672718286514,0.05222893878817558,-0.03275762498378754
1711073205293796000,18.342796142578123,-0.07796161621809006,0.1432477980852127,-0.05474875494837761
1711073205312755700,18.361755615234376,-0.10972658544778824,0.30573782324790955,-0.07429642975330353
1711073205331715600,18.380715576171873,-0.1476002037525177,0.43463030457496643,-0.09017891436815262
1711073205350675200,18.39967529296875,-0.09384410083293915,0.5855138897895813,-0.16012293100357056
1711073205369635000,18.418635009765627,-0.08223766833543777,0.6637045741081238,-0.2041051983833313
1711073205388594700,18.4375947265625,-0.05047270283102989,0.6490437984466553,-0.1527925580739975
1711073205407554600,18.456554443359376,-0.061162836849689484,0.5403099060058594,-0.09842558950185776
1711073205426514400,18.475514404296874,-0.05719221383333206,0.5155698657035828,-0.03306305781006813
1711073205445474000,18.49447412109375,-0.010155626572668552,0.555276095867157,-0.0755181610584259
1711073205464434000,18.513433837890624,0.011224640533328056,0.4404335021972656,-0.09048434346914291
1711073205483393500,18.5323935546875,-0.004046979360282421,0.33536475896835327,-0.07673988491296768
1711073205502353400,18.551353515625,-0.040088001638650894,0.20677772164344788,-0.021151192486286163
1711073205521313000,18.57031298828125,-0.04802924394607544,0.1542433500289917,0.02802342176437378
1711073205540272600,18.589272705078123,-0.07490729540586472,0.0616973415017128,0.06742420047521591
1711073205559232500,18.608232421875,-0.07307469844818115,-0.06750056147575378,0.036880962550640106
1711073205578192100,18.627192138671877,-0.05413788929581642,-0.19425499439239502,0.032910339534282684
1711073205597152000,18.646152099609374,-0.019929463043808937,-0.2721402645111084,0.014889828860759735
1711073205616111900,18.66511181640625,-0.0025198173243552446,-0.19822561740875244,-0.03917170315980911
1711073205635071500,18.684071533203124,-0.023594651371240616,-0.1490510106086731,-0.08865175396203995
1711073205654031400,18.70303125,-0.007406735327094793,-0.17898337543010712,-0.1430187225341797
1711073205672991000,18.721990966796874,0.08300124853849411,-0.14813470840454102,-0.04894553869962692
1711073205691950800,18.740950927734374,0.13797907531261444,-0.19853104650974274,0.10743584483861923
1711073205710910500,18.759910400390623,-0.06299543380737305,-0.49021899700164795,0.11323905736207962
1711073205729870300,18.778870361328124,-0.1576794683933258,-0.8808670043945312,0.10529781877994537
1711073205748830000,18.797829833984373,0.013973532244563103,-0.9349285364151001,0.2063959389925003
1711073205767789800,18.816789794921874,0.14347685873508453,-0.8756746649742126,0.22899793088436127
1711073205786749400,18.83574951171875,0.12056943774223328,-0.9563088417053223,0.1651625633239746
1711073205805709300,18.854709228515624,0.11323905736207962,-0.8549052476882935,0.12301289290189743
1711073205824669000,18.8736689453125,0.1862373948097229,-0.5149590373039246,0.06375901401042938
1711073205843628800,18.89262890625,0.18806999921798706,-0.3637699782848358,0.08788817375898361
1711073205862588400,18.91158837890625,0.06528617441654205,-0.30146175622940063,0.15630502998828888
1711073205881548300,18.93054833984375,0.013973532244563103,-0.2660316228866577,0.19234605133533478
1711073205900508000,18.9495078125,0.00511599238961935,-0.314289927482605,0.15355613827705383
1711073205919467800,18.9684677734375,-0.040088001638650894,-0.2559523284435272,0.21097742021083832
1711073205938427400,18.987427490234374,-0.14149154722690582,-0.13072505593299866,0.33345580101013184
1711073205957387300,19.00638720703125,-0.18730641901493073,-0.1230892539024353,0.3404807448387146
1711073205976347000,19.025346923828124,-0.18486295640468597,-0.038789913058280945,0.19784383475780487
1711073205995306500,19.044306396484377,-0.1222493126988411,0.004886918235570192,-0.008628465235233307
1711073206014266400,19.063266357421874,0.04634936526417732,0.23365578055381775,-0.17600540816783905
1711073206033226000,19.08222607421875,0.12026400119066238,0.7861829996109009,-0.3027598559856415
1711073206052185900,19.101185791015624,0.04176788032054901,1.1417062282562256,-0.3739255964756012
1711073206071145500,19.1201455078125,0.027717988938093185,0.8390227556228638,-0.368122398853302
1711073206090105300,19.139105224609374,0.10713040828704834,0.4361574649810791,-0.2749654948711395
1711073206109065000,19.15806494140625,0.11598794907331467,0.3124573230743408,-0.18180863559246063
1711073206128024800,19.17702490234375,0.11110103130340576,0.25870123505592346,-0.19158247113227844
1711073206146984400,19.195984375,0.05673406645655632,0.3955349326133728,-0.27863070368766785
1711073206165944300,19.2149443359375,0.029245151206851006,0.6276635527610779,-0.3079521954059601
1711073206184904000,19.233904052734374,0.06681333482265472,0.6371319890022278,-0.28932082653045654
1711073206203863800,19.25286376953125,0.09002619981765747,0.41905322670936584,-0.35590508580207825
1711073206222823400,19.271823486328124,0.09674570709466934,0.25442516803741455,-0.4612792730331421
1711073206241783300,19.290783203125,0.14317142963409424,0.2467893660068512,-0.5950586795806885
1711073206260743000,19.309742919921874,0.11201732605695724,0.3274235129356384,-0.6307942271232605
1711073206279702800,19.328702880859375,-0.0022143847309052944,0.25350889563560486,-0.6445387005805969
1711073206298662400,19.347662353515624,-0.1369100660085678,-0.0027488914784044027,-0.6494256258010864
1711073206317622000,19.3666220703125,-0.17753258347511292,-0.17562362551689148,-0.571234941482544
1711073206336582000,19.385581787109373,-0.27863070368766785,-0.20372340083122253,-0.5483275055885315
1711073206355541500,19.40454150390625,-0.20318889617919922,-0.04520399495959282,-0.5034289360046387
1711073206374501400,19.42350146484375,-0.1472947746515274,0.09957095980644226,-0.46769335865974426
1711073206393461000,19.4424609375,-0.24167338013648987,0.1178968995809555,-0.3571268320083618
1711073206412420900,19.4614208984375,-0.35621052980422974,0.03695731982588768,-0.26855143904685974
1711073206431380500,19.48038037109375,-0.3937787115573883,0.004886918235570192,-0.28412848711013794
1711073206450340400,19.49934033203125,-0.32383468747138977,0.02626718580722809,-0.3574322462081909
1711073206469300000,19.518300048828124,-0.19494222104549408,0.08674279600381851,-0.40660688281059265
1711073206488259800,19.537259765625,-0.0031306820455938578,0.1178968995809555,-0.4001927971839905
1711073206507219500,19.556219482421874,-0.03917170315980911,0.04245510324835777,-0.3329976499080658
1711073206526179300,19.575179443359374,-0.07735075056552887,-0.09865466505289078,-0.23800818622112274
1711073206545139000,19.594138916015623,-0.11125374585390091,-0.09834922850131989,-0.14607304334640503
1711073206564098800,19.613098876953124,-0.018402300775051117,0.10048725455999374,-0.1265253722667694
1711073206583058400,19.632058349609373,-0.010155626572668552,0.4929678738117218,-0.11308634281158447
1711073206602018000,19.65101806640625,0.07933606207370758,0.6973021626472473,0.1550832986831665
1711073206620978000,19.66997802734375,0.10713040828704834,0.4098902642726898,0.45013099908828735
1711073206639937500,19.6889375,0.3239873945713043,0.0565049909055233,0.2638172209262848
1711073206658897200,19.707897216796876,0.6914225816726685,-0.08002328872680664,-0.14485131204128265
1711073206677857000,19.72685693359375,0.7671698331832886,0.1750127524137497,-0.362930029630661
1711073206696816600,19.745816650390626,0.4794524908065796,0.4584540128707886,-0.48388126492500305
1711073206715776500,19.764776611328124,0.3930151164531708,0.5775726437568665,-0.5406916737556458
1711073206734736100,19.783736083984376,0.5906298756599426,0.4819723069667816,-0.451200008392334
1711073206753696000,19.802696044921873,0.733572244644165,0.2556469142436981,-0.49823659658432007
1711073206772655600,19.821655517578126,0.6636282205581665,0.1340848207473755,-0.5153408050537109
1711073206791615500,19.840615478515623,0.5261836647987366,0.17715078592300415,-0.399887353181839
1711073206810575000,19.8595751953125,0.36827510595321655,0.1957821547985077,-0.24136795103549957
1711073206829534700,19.87853466796875,0.27023130655288696,0.15179990231990814,-0.09873101860284805
1711073206848494600,19.89749462890625,0.18776455521583557,0.19303326308727264,-0.024510949850082397
1711073206867454200,19.9164541015625,0.0732274129986763,0.10903936624526978,0.06650790572166443
1711073206886413800,19.935413818359375,0.027717988938093185,-0.09621120244264603,0.1401171088218689
1711073206905373700,19.954373779296876,0.020387612283229828,-0.18692462146282196,0.16180281341075897
1711073206924333300,19.973333251953125,-0.018402300775051117,-0.22174391150474548,0.14347685873508453
1711073206943293200,19.992293212890626,-0.024205517023801804,-0.11178825795650482,0.08452841639518738
1711073206962252800,20.011252685546875,-0.02328922040760517,-0.022296564653515816,0.027717988938093185
1711073206981212700,20.030212646484376,0.01183550525456667,0.015271619893610477,-0.06085740402340889
1711073207000172300,20.04917236328125,0.0295505840331316,0.07483093440532684,-0.13049599528312683
1711073207019132000,20.0681318359375,0.010613775812089443,0.09162971377372742,-0.08223766833543777
1711073207038091500,20.087091552734375,-0.01259908638894558,0.051618073135614395,-0.057497646659612656
1711073207057051400,20.106051513671876,-0.02909243479371071,-0.006414080038666725,-0.07704532146453857
1711073207076011000,20.125010986328125,-0.028176138177514076,-0.047952886670827866,-0.09750928729772568
1711073207094971000,20.143970947265625,-0.051389001309871674,-0.08949168771505356,-0.12835796177387238
1711073207113930500,20.162930419921874,-0.050778135657310486,-0.07788526266813278,-0.10331250727176666
1711073207132890400,20.181890380859375,-0.01565340906381607,-0.06291907280683517,-0.10422880202531815
1711073207151850000,20.20085009765625,-0.04558578506112099,-0.03329212963581085,-0.08498656004667282
1711073207170809600,20.2198095703125,-0.11278090626001358,-0.08155044913291931,-0.06177370250225067
1711073207189769200,20.238769287109374,-0.14882193505764008,-0.11148282140493393,-0.04405862092971802
1711073207208729000,20.25772900390625,-0.12591449916362762,-0.10934479534626007,-0.027870705351233482
1711073207227688700,20.276688720703124,-0.095982126891613,-0.0513126403093338,-0.013209951110184193
1711073207246648600,20.295648681640625,-0.07429642975330353,-0.06627883017063141,-0.004352411720901728
1711073207265608200,20.314608154296874,-0.014431680552661419,-0.1029307171702385,-0.012293653562664986
1711073207284567800,20.33356787109375,0.0371863916516304,-0.08155044913291931,-0.040088001638650894
1711073207303527700,20.352527587890624,0.07475458085536957,0.03543015569448471,-0.07612902671098709
1711073207322487300,20.3714873046875,0.08575014024972916,0.17745621502399445,-0.08559742569923401
1711073207341447000,20.390447021484373,0.09033162891864777,0.18906265497207642,-0.08345939964056015
1711073207360406800,20.40940673828125,0.07200568914413452,0.03451386094093323,-0.08162680268287659
1711073207379366400,20.428366455078127,0.01977674663066864,-0.08674279600381851,-0.06604975461959839
1711073207398326300,20.447326171875,-0.04741837829351425,-0.08491020649671555,-0.044669486582279205
1711073207417286000,20.466285888671877,-0.08284853398799896,-0.09071341902017593,-0.01107192412018776
1711073207436245500,20.48524560546875,-0.10270164161920547,-0.07605266571044922,0.01824958436191082
1711073207455205400,20.504205322265626,-0.0907897800207138,-0.07757982611656189,-0.0016035200096666813
1711073207474165000,20.5231650390625,-0.05688678100705147,-0.032681263983249664,-0.00923932995647192
1711073207493124600,20.54212451171875,0.030161447823047638,0.010995565913617611,-0.027870705351233482
1711073207512084500,20.56108447265625,0.06436987966299057,0.06352993845939636,-0.057497646659612656
1711073207531044000,20.580044189453126,0.023441936820745468,0.09407317638397217,-0.06635518372058868
1711073207550003700,20.599003662109375,0.02496909722685814,0.07238747924566269,-0.05871937796473503
1711073207568963600,20.617963623046876,0.0319940410554409,0.029932374134659767,-0.04344775900244713
1711073207587923200,20.636923095703125,-0.0034361144062131643,-0.018631376326084137,-0.014431680552661419
1711073207606882800,20.6558828125,-0.010766491293907166,-0.044898562133312225,0.011224640533328056
1711073207625842700,20.6748427734375,-0.00954476185142994,-0.07147117704153061,0.016416991129517555
1711073207644802300,20.69380224609375,-0.040088001638650894,-0.03817904740571976,0.013362666592001915
1711073207663762000,20.712761962890625,-0.030925029888749123,0.004581485874950886,0.006337722297757864
1711073207682721800,20.7317216796875,-0.029397867619991302,0.028099779039621353,0.0057268571108579636
1711073207701681400,20.750681396484374,-0.041615162044763565,0.02412915788590908,0.001450803829357028
1711073207720641000,20.76964111328125,-0.014431680552661419,0.015577051788568497,0.014278964139521122
1711073207739601000,20.788600830078124,0.011224640533328056,0.0256563201546669,0.01672242395579815
1711073207758560500,20.807560546875,0.002061668550595641,-0.001221729558892548,0.010613775812089443
1711073207777520400,20.826520263671874,-0.013820815831422806,0.01435532234609127,0.036880962550640106
1711073207796480000,20.84547998046875,-0.004963276442140341,0.004581485874950886,0.04482220485806465
1711073207815439600,20.864439697265624,-0.02237292192876339,-0.024434590712189674,0.05306887626647949
1711073207834399200,20.883399169921876,-0.03000873140990734,-0.003359756199643016,0.04390590637922287
1711073207853359000,20.902359130859374,-0.01107192412018776,0.05345066636800766,0.04909825697541237
1711073207872318700,20.921318603515626,-0.00038179047987796366,0.027488915249705315,0.08422297984361649
1711073207891278600,20.940278564453124,-0.008628465235233307,-0.06444623321294785,0.08269581943750381
1711073207910238200,20.95923828125,-0.033979352563619614,-0.13988803327083588,0.08147408813238144
1711073207929197800,20.97819775390625,-0.0034361144062131643,-0.1230892539024353,0.07506000995635986
1711073207948157400,20.997157470703126,0.042684175074100494,-0.11148282140493393,0.050319984555244446
1711073207967117300,21.016117431640627,0.083306685090065,-0.10170898586511612,-0.0034361144062131643
1711073207986077000,21.035076904296876,0.07903063297271729,-0.011606430634856224,-0.07979421317577362
1711073208005036500,21.05403662109375,0.11476621776819229,0.1081230640411377,-0.14118611812591553
1711073208023996400,21.072996337890626,0.1608865112066269,0.15515965223312378,-0.15126539766788483
1711073208042956000,21.0919560546875,0.19387321174144745,0.13530655205249786,-0.22640176117420197
1711073208061916000,21.110916015625,0.1862373948097229,0.11545344442129135,-0.28809911012649536
1711073208080875500,21.12987548828125,0.1764635592699051,0.1795942485332489,-0.2749654948711395
1711073208099835100,21.148835205078125,0.20547963678836823,0.25992295145988464,-0.21021384000778198
1711073208118794800,21.167794677734374,0.19020801782608032,0.18295399844646454,-0.13874267041683197
1711073208137754600,21.186754638671875,0.15325069427490234,-0.010690134018659592,-0.09170607477426529
1711073208156714200,21.20571435546875,0.10499238222837448,-0.10506874322891235,-0.1066722646355629
1711073208175674000,21.224674072265625,0.10102175921201706,-0.011300998739898205,-0.1934150606393814
1711073208194633700,21.2436337890625,0.15722131729125977,0.1337793916463852,-0.23159411549568176
1711073208213593300,21.26259326171875,0.2018144577741623,0.2507599890232086,-0.26366451382637024
1711073208232553200,21.28155322265625,0.22563818097114563,0.3274235129356384,-0.2346484363079071
1711073208251512800,21.300512939453125,0.2934441566467285,0.3081812858581543,-0.2044106274843216
1711073208270472400,21.319472412109373,0.24152065813541412,0.20463970303535461,-0.19646938145160675
1711073208289432300,21.338432373046874,0.18715369701385498,0.1747073233127594,-0.12713623046875
1711073208308392000,21.357391845703123,0.14103341102600098,0.16096286475658417,-0.053832460194826126
1711073208327351800,21.376351806640624,0.06345357745885849,0.07330377399921417,-0.004046979360282421
1711073208346311400,21.3953115234375,-0.049250971525907516,-0.023518294095993042,0.03871355578303337
1711073208365271000,21.41427099609375,-0.11430807411670685,-0.09071341902017593,0.07444914430379868
1711073208384231000,21.43323095703125,-0.10422880202531815,-0.14996729791164398,0.08666644245386124
1711073208403190500,21.4521904296875,-0.08987347781658173,-0.09712749719619751,0.07872519642114639
1711073208422150100,21.471150146484376,-0.04802924394607544,0.03543015569448471,0.06223184987902641
1711073208441110000,21.490110107421874,0.042073313146829605,0.1081230640411377,0.01977674663066864
1711073208460069600,21.509069580078126,0.1043815165758133,0.1487455666065216,-0.026648975908756256
1711073208479029500,21.528029541015623,0.10529781877994537,0.18387030065059662,-0.06849320977926254
1711073208497989000,21.546989013671876,0.10560324788093567,0.21349723637104034,-0.0550541877746582
1711073208516948700,21.56594873046875,0.07200568914413452,0.189673513174057,-0.015347977168858051
1711073208535908600,21.58490869140625,-0.004352411720901728,0.12461641430854797,0.048792824149131775
1711073208554868200,21.6038681640625,-0.09995274990797043,-0.011606430634856224,0.08819360285997391
1711073208573828000,21.622828125,-0.1631772518157959,-0.14630211889743805,0.11537708342075348
1711073208592787700,21.64178759765625,-0.19280420243740082,-0.21685700118541718,0.1089630052447319
1711073208611747300,21.660747314453126,-0.224569171667099,-0.277332603931427,0.10468695312738419
1711073208630707200,21.679707275390626,-0.19646938145160675,-0.25534147024154663,0.13767364621162415
1711073208649666800,21.698666748046875,-0.14546217024326324,-0.23212862014770508,0.14286600053310394
1711073208668626700,21.717626708984376,-0.09812015295028687,-0.13561198115348816,0.10743584483861923
1711073208687586300,21.73658642578125,-0.053832460194826126,-0.02412915788590908,0.04543306678533554
1711073208706546000,21.7555458984375,-0.003741546766832471,0.05436696484684944,0.020998476073145866
1711073208725505800,21.774505859375,0.0322994738817215,0.08826996386051178,0.013668099418282509
1711073208744465400,21.79346533203125,0.0322994738817215,0.06963858753442764,0.015500693581998348
1711073208763425300,21.81242529296875,0.028328854590654373,0.05497783049941063,0.013973532244563103
1711073208782385000,21.831385009765626,0.017944153398275375,0.08460476994514465,0.040546149015426636
1711073208801344800,21.8503447265625,-0.019013166427612305,0.05955931544303894,0.06895136088132858
1711073208820304400,21.869304443359376,-0.06085740402340889,-0.057726722210645676,0.11140646785497665
1711073208839264000,21.888263916015624,-0.0862082913517952,-0.14996729791164398,0.13278673589229584
1711073208858223900,21.907223876953125,-0.06635518372058868,-0.09590577334165573,0.09582941234111786
1711073208877183500,21.92618359375,-0.03428478538990021,0.024740023538470268,0.07353284955024719
1711073208896143400,21.945143310546875,0.046654798090457916,0.12461641430854797,0.041157014667987823
1711073208915103000,21.96410302734375,0.09277509152889252,0.1340848207473755,-0.0058795735239982605
1711073208934062800,21.983062744140625,0.11384992301464081,0.11087195575237274,-0.04436405375599861
1711073208953022500,22.0020224609375,0.11384992301464081,0.13927717506885529,-0.06268999725580215
1711073208971982300,22.020982421875,0.09155336022377014,0.12614357471466064,-0.05933023989200592
1711073208990942000,22.03994189453125,0.06650790572166443,0.06719512492418289,-0.06207913160324097
1711073209009901800,22.05890185546875,0.02649625949561596,0.001221729558892548,-0.06910407543182373
1711073209028861400,22.077861328125,-0.008323032408952713,-0.06627883017063141,-0.0703258067369461
1711073209047821300,22.0968212890625,0.0057268571108579636,-0.08949168771505356,-0.07338013499975204
1711073209066781000,22.115781005859375,0.06956222653388977,-0.014966187067329884,-0.0807105079293251
1711073209085740800,22.13474072265625,0.06223184987902641,0.08338304609060287,-0.06910407543182373
1711073209104700400,22.153700439453125,0.043600473552942276,0.04153880476951599,-0.060551971197128296
1711073209123660300,22.172660400390626,0.07750347256660461,-0.015271619893610477,-0.04405862092971802
1711073209142620000,22.191619873046875,0.09308052062988281,0.013439024798572063,-0.0397825688123703
1711073209161579500,22.21057958984375,0.06711876392364502,0.05100720748305321,-0.016875140368938446
1711073209180539400,22.229539306640625,-0.0034361144062131643,0.02626718580722809,0.008781181648373604
1711073209199499000,22.2484990234375,-0.03306305781006813,-0.04428769648075104,0.023136503994464874
1711073209218459000,22.267458984375,-0.013515383005142212,-0.05345066636800766,0.005421424750238657
1711073209237418500,22.28641845703125,-0.014431680552661419,-0.02718348242342472,0.012446369975805283
1711073209256378400,22.30537841796875,0.012751801870763302,0.012217295356094837,0.000839939049910754
1711073209275338000,22.324337890625,0.027717988938093185,0.03848448023200035,-0.0031306820455938578
1711073209294297900,22.3432978515625,0.03168861195445061,0.057726722210645676,0.009392046369612217
1711073209313257500,22.362257568359375,0.001450803829357028,0.05222893878817558,0.044211339205503464
1711073209332217300,22.38121728515625,-0.04253146052360535,0.007330377586185932,0.054901473224163055
1711073209351177000,22.400177001953125,-0.05810851231217384,-0.07788526266813278,0.05612320080399513
1711073209370136800,22.41913671875,-0.07399099320173264,-0.16829325258731842,0.03627009689807892
1711073209389096400,22.438096435546875,-0.06910407543182373,-0.1951712965965271,0.014584396965801716
1711073209408056300,22.457056396484376,0.013057234697043896,-0.1026252806186676,-0.03550651669502258
1711073209427016000,22.476015869140625,0.08819360285997391,0.04978547990322113,-0.08009964227676392
1711073209445975800,22.494975830078126,0.12759438157081604,0.08032871782779694,-0.1219438835978508
1711073209464935700,22.513935791015626,0.13889537751674652,0.035124726593494415,-0.15462514758110046
1711073209483895300,22.532895263671875,0.12545634806156158,0.056199558079242706,-0.14851650595664978
1711073209502855200,22.551855224609376,0.10804671049118042,0.0769689604640007,-0.12316560745239258
1711073209521814800,22.570814697265625,0.07139482349157333,0.048563748598098755,-0.07215840369462967
1711073209540774700,22.589774658203126,0.05826122686266899,0.03298669680953026,-0.053832460194826126
1711073209559734300,22.608734375,0.040546149015426636,0.016798781231045723,-0.025732679292559624
1711073209578694100,22.627694091796876,0.02588539570569992,0.036651886999607086,-0.038560837507247925
1711073209597653800,22.64665380859375,0.04451677203178406,0.1432477980852127,-0.04894553869962692
1711073209616613400,22.66561328125,-0.06146826967597008,0.19303326308727264,-0.03764454275369644
1711073209635573200,22.6845732421875,-0.08529199659824371,0.33719736337661743,-0.054443322122097015
1711073209654532900,22.703532958984376,-0.20532692968845367,0.4251618981361389,0.0017562361899763346
1711073209673492700,22.72249267578125,-0.2541961073875427,0.22204934060573578,0.13248129189014435
1711073209692452400,22.741452392578125,-0.06696604937314987,-0.12583814561367035,0.19265148043632507
1711073209711412200,22.760412109375,-0.0550541877746582,-0.3185659945011139,0.23877176642417908
1711073209730371800,22.779371826171875,-0.02390008419752121,-0.16096286475658417,0.22563818097114563
1711073209749331700,22.798331787109376,0.05001455545425415,0.035735588520765305,0.23999349772930145
1711073209768291600,22.81729150390625,0.08819360285997391,0.18325942754745483,0.2677878439426422
1711073209787251200,22.836251220703126,0.04146244749426842,0.16096286475658417,0.24976733326911926
1711073209806211000,22.855211181640627,0.012140937149524689,0.0256563201546669,0.23907721042633057
1711073209825170700,22.874170654296876,0.010919207707047462,-0.10384701192378998,0.2586248815059662
1711073209844130600,22.893130615234377,0.08972076326608658,-0.1637117564678192,0.25526511669158936
1711073209863090200,22.912090087890626,0.15752676129341125,-0.15179990231990814,0.1407279670238495
1711073209882050000,22.931050048828126,0.050319984555244446,-0.12522727251052856,0.08055779337882996
1711073209901009700,22.950009765625,-0.028787001967430115,-0.011911863461136818,0.023136503994464874
1711073209919969500,22.968969482421876,-0.009850194677710533,0.0717766135931015,-0.027870705351233482
1711073209938929200,22.98792919921875,-0.003741546766832471,0.04214967042207718,-0.03917170315980911
