time,seconds_elapsed,z,y,x
1711508679213450200,0.0864501953125,0,0,0
1711508679232409900,0.105409912109375,0.3330087661743164,0.17821264266967773,-0.25471973419189453
1711508679251369500,0.124369384765625,-0.1785573959350586,-0.04496288299560547,-0.06691938638687134
1711508679270329300,0.143329345703125,-1.636749267578125,-0.0011725425720214844,0.672988772392273
1711508679289289000,0.1622890625,-2.0859804153442383,-0.09415721893310547,0.5781382322311401
1711508679308248800,0.181248779296875,-0.6094741821289062,0.1416492462158203,0.21714776754379272
1711508679327208400,0.20020849609375,0.7223453521728516,0.3453364372253418,-0.12263989448547363
1711508679346168300,0.219168212890625,1.7945470809936523,0.18474197387695312,-0.9664040803909302
1711508679365128000,0.2381279296875,1.2215690612792969,0.46895313262939453,-0.8179581165313721
1711508679384087800,0.257087890625,-0.09279632568359375,-0.30932092666625977,0.6119728088378906
1711508679403047400,0.27604736328125,1.827235221862793,-0.8545980453491211,0.6501518487930298
1711508679422007300,0.29500732421875,-0.6029930114746094,-1.1869122982025146,-2.545102596282959
1711508679440967000,0.313966796875,-1.4794321060180664,0.22480487823486328,-3.4445157051086426
1711508679459926500,0.332926513671875,-0.021218299865722656,-0.16144418716430664,-2.049224853515625
1711508679478886400,0.351886474609375,-1.6875219345092773,0.0846414566040039,-0.0028061866760253906
1711508679497846000,0.370845947265625,-1.0399723052978516,1.1167054176330566,1.5331051349639893
1711508679516806000,0.389805908203125,-0.7354507446289062,0.15789318084716797,1.314144492149353
1711508679535765500,0.408765625,1.281773567199707,0.03490018844604492,0.3094906806945801
1711508679554725400,0.427725341796875,0.5014715194702148,-0.0521240234375,-0.3896733522415161
1711508679573685000,0.44668505859375,-0.2843971252441406,-0.5789225101470947,-0.21323168277740479
1711508679592644900,0.465644775390625,-1.0759644508361816,0.23494601249694824,0.0701742172241211
1711508679611604500,0.4846044921875,-1.307420253753662,0.6701345443725586,0.575021505355835
1711508679630564400,0.503564453125,-1.2150874137878418,0.13143372535705566,1.0910600423812866
1711508679649524200,0.522524169921875,-0.5439977645874023,0.17670583724975586,1.1239012479782104
1711508679668483800,0.54148388671875,0.629298210144043,0.2584950923919678,1.0878448486328125
1711508679687443700,0.560443603515625,1.3830385208129883,0.7651307582855225,0.6691232919692993
1711508679706403300,0.5794033203125,2.5491771697998047,1.7307403087615967,-0.6122214794158936
1711508679725363200,0.59836328125,2.0493011474609375,1.5139777660369873,0.2512812614440918
1711508679744322800,0.61732275390625,1.5438241958618164,1.186389684677124,0.5916937589645386
1711508679763282700,0.63628271484375,1.3592910766601562,0.847294807434082,0.651121973991394
1711508679782242600,0.65524267578125,1.083261489868164,0.28855252265930176,0.6726663112640381
1711508679801202200,0.6742021484375,0.5890560150146484,-0.2392216920852661,0.4415135383605957
1711508679820162000,0.693162109375,0.001194000244140625,-0.5117983818054199,0.2951369285583496
1711508679839122000,0.712121826171875,-0.185943603515625,-0.786224901676178,0.09071063995361328
1711508679858081500,0.73108154296875,0.1923351287841797,-0.9917924404144287,-0.11471152305603027
1711508679877041400,0.75004150390625,-0.3684253692626953,-0.9178155660629272,-0.25130438804626465
1711508679896001300,0.769001220703125,-1.1419334411621094,-0.4903425872325897,-0.012974023818969727
1711508679914961200,0.787961181640625,-0.9583463668823242,-0.3953259289264679,-0.39835572242736816
1711508679933920800,0.806920654296875,-0.6920108795166016,-0.7584536671638489,-0.6395487785339355
1711508679952880600,0.825880615234375,-0.9225168228149414,-0.7578637599945068,-0.39615297317504883
1711508679971840500,0.844840576171875,-1.095870018005371,-0.5796577334403992,-0.34020090103149414
1711508679990800100,0.863800048828125,-1.0097227096557617,-0.40158993005752563,-0.23607778549194336
1711508680009760000,0.882760009765625,-0.7659683227539062,-0.1157183051109314,-0.12257003784179688
1711508680028719900,0.901719970703125,-0.1720590591430664,0.17657530307769775,-0.10566258430480957
1711508680047679500,0.920679443359375,-0.7272815704345703,0.43936002254486084,0.17547178268432617
1711508680066639400,0.939639404296875,-0.38454246520996094,0.24541616439819336,0.2903134822845459
1711508680085599200,0.95859912109375,0.17839813232421875,-0.08259987831115723,-0.00719141960144043
1711508680104559000,0.97755908203125,-0.7017087936401367,-0.364416241645813,0.03821063041687012
1711508680123518700,0.996518798828125,-1.2122793197631836,0.2730121612548828,0.3794372081756592
1711508680142478600,1.015478515625,-0.3591489791870117,0.5445959568023682,0.5354325771331787
1711508680161438500,1.0344384765625,1.5279159545898438,0.4117053747177124,0.384607195854187
1711508680180398300,1.0533984375,1.8360595703125,0.4197201728820801,0.16507959365844727
1711508680199358200,1.072358154296875,0.19195079803466797,0.7082051038742065,0.24018073081970215
1711508680218317800,1.09131787109375,-0.33355045318603516,0.42844778299331665,0.44880592823028564
1711508680237277700,1.110277587890625,0.005635261535644531,-0.18738052248954773,0.6757414937019348
1711508680256237600,1.129237548828125,-0.1694316864013672,-0.6585648059844971,0.24552536010742188
1711508680275197400,1.148197509765625,-0.8171529769897461,-0.45238783955574036,0.41278183460235596
1711508680294157300,1.1671572265625,-0.3729972839355469,-0.18493330478668213,0.29639002680778503
1711508680313117200,1.1861171875,0.2986154556274414,-0.07409298419952393,0.2702435851097107
1711508680332077000,1.2050771484375,1.1569032669067383,0.07486021518707275,-0.26419180631637573
1711508680351036700,1.22403662109375,0.9366941452026367,0.4917427897453308,-0.4517974853515625
1711508680369996500,1.24299658203125,-0.1004343032836914,0.5530628561973572,-0.5268282890319824
1711508680388956400,1.261956298828125,-0.46248340606689453,0.27505922317504883,-0.8312721252441406
1711508680407916300,1.280916259765625,-1.4235038757324219,0.6212930679321289,-0.8764467835426331
1711508680426876200,1.299876220703125,-0.8634872436523438,0.639633297920227,-0.7809897661209106
1711508680445836000,1.3188359375,-0.29520606994628906,0.8024649620056152,-0.5575401782989502
1711508680464796000,1.3377958984375,0.8787727355957031,1.1978750228881836,0.6680862903594971
1711508680483755800,1.356755859375,0.8876466751098633,0.8553378582000732,0.5539464950561523
1711508680502715400,1.37571533203125,1.5315608978271484,0.6754782199859619,0.17946672439575195
1711508680521675500,1.394675537109375,1.2162303924560547,1.1515872478485107,-1.2768328189849854
1711508680540635400,1.413635498046875,-0.9288616180419922,0.3077387809753418,0.27651119232177734
1711508680559595000,1.432594970703125,-0.5761556625366211,-0.3424501419067383,0.1757946014404297
1711508680578555000,1.451554931640625,1.0479307174682617,-0.9800957441329956,0.8488538265228271
1711508680597515000,1.470514892578125,1.8645410537719727,-1.244591236114502,0.5216891765594482
1711508680616474600,1.489474609375,1.1328058242797852,0.13751602172851562,0.7760968208312988
1711508680635434500,1.5084345703125,1.049696922302246,1.3766460418701172,0.8044865131378174
1711508680654394400,1.527394287109375,1.3663063049316406,1.6816091537475586,0.770946741104126
1711508680673354200,1.546354248046875,1.7091217041015625,0.3144702911376953,2.0354976654052734
1711508680692314000,1.565314208984375,2.173537254333496,-0.7816729545593262,1.4468543529510498
1711508680711274000,1.58427392578125,1.1016130447387695,0.8757503032684326,1.0009222030639648
1711508680730233900,1.60323388671875,0.7238254547119141,1.9946293830871582,0.12810063362121582
1711508680749193700,1.62219384765625,1.3224802017211914,3.441030740737915,1.0067861080169678
1711508680768153900,1.64115380859375,3.036041259765625,2.8710527420043945,3.245328664779663
1711508680787113700,1.66011376953125,2.176166534423828,1.1343902349472046,3.5976080894470215
1711508680806073300,1.6790732421875,-0.8509864807128906,-0.31266528367996216,2.729905605316162
1711508680825033200,1.698033203125,-1.9299697875976562,-0.3866994380950928,2.4137072563171387
1711508680843993300,1.716993408203125,-1.6158761978149414,1.7178409099578857,-2.04901123046875
1711508680862953200,1.735953125,-0.3639230728149414,0.7369065284729004,-2.8966875076293945
1711508680881913000,1.7549130859375,-0.8626108169555664,-2.3133742809295654,0.5977990627288818
1711508680900873000,1.773873046875,2.8305234909057617,-3.5329232215881348,3.3007397651672363
1711508680919832800,1.792832763671875,1.0662660598754883,-2.5885062217712402,2.821796417236328
1711508680938792700,1.811792724609375,-2.6115036010742188,-1.9337067604064941,-0.025788486003875732
1711508680957752600,1.830752685546875,-6.746170520782471,-0.881464958190918,-3.3184823989868164
1711508680976712400,1.84971240234375,-7.205770492553711,0.20087647438049316,-4.208200931549072
1711508680995672300,1.86867236328125,-5.324007987976074,-1.4206067323684692,-2.0352120399475098
1711508681014632200,1.887632080078125,-3.827197551727295,-1.4288287162780762,-0.7976130247116089
1711508681033592000,1.906592041015625,-5.8773064613342285,-0.49236440658569336,-1.0064609050750732
1711508681052552200,1.92555224609375,-7.582268714904785,-0.1112440824508667,-1.6115612983703613
1711508681071512000,1.944511962890625,-5.922569751739502,-0.30857622623443604,-2.673332452774048
1711508681090472000,1.963471923828125,6.196871757507324,-3.1251220703125,-2.210118532180786
1711508681109431800,1.982431884765625,15.855331420898438,-4.393282890319824,-0.9613467454910278
1711508681128391700,2.0013916015625,-2.942626953125,-2.1981701850891113,-2.664492607116699
1711508681147351600,2.0203515625,1.0906410217285156,-0.5258455276489258,-0.8206341862678528
1711508681166311400,2.0393115234375,-0.9153051376342773,0.5412812232971191,1.5056475400924683
1711508681185271600,2.058271484375,-1.224203109741211,0.9894728660583496,2.535403251647949
1711508681204231400,2.0772314453125,-3.730790138244629,0.7863085269927979,1.7093243598937988
1711508681223191300,2.09619140625,2.5467424392700195,-1.0574109554290771,-0.7158403396606445
1711508681242151200,2.115151123046875,-0.6575069427490234,-1.8236922025680542,-2.3729400634765625
1711508681261111000,2.134111083984375,-1.9785141944885254,-1.0962741374969482,-2.4476211071014404
1711508681280071200,2.1530712890625,-1.025054931640625,-1.389228343963623,-1.568184733390808
1711508681299031000,2.172031005859375,0.31740283966064453,-1.5178704261779785,-1.322811484336853
1711508681317991000,2.190990966796875,1.2230510711669922,-1.9661355018615723,-0.7077541351318359
1711508681336951000,2.209950927734375,1.3037996292114258,-1.3700388669967651,0.19498991966247559
1711508681355911000,2.228910888671875,-0.1165924072265625,-0.24901339411735535,1.6909773349761963
1711508681374870800,2.247870849609375,-1.5102958679199219,0.6884969472885132,2.4375202655792236
1711508681393830700,2.26683056640625,-1.2526426315307617,2.1058993339538574,3.1961562633514404
1711508681412790500,2.28579052734375,0.6725149154663086,3.914057731628418,2.968362331390381
1711508681431750400,2.30475048828125,0.8232593536376953,4.821406841278076,2.2995901107788086
1711508681450710500,2.32371044921875,1.4932680130004883,3.225451707839966,2.8593063354492188
1711508681469670400,2.34267041015625,0.6118545532226562,2.0433826446533203,2.560701370239258
1711508681488630500,2.361630615234375,-0.012709617614746094,1.4256539344787598,-0.11512136459350586
1711508681507590400,2.38059033203125,0.9959926605224609,0.6743291616439819,-2.5051116943359375
1711508681526550300,2.39955029296875,4.404441833496094,0.3138052523136139,-1.8577778339385986
1711508681545510100,2.41851025390625,4.640761375427246,-0.16060250997543335,0.0969552993774414
1711508681564470000,2.437469970703125,-2.079230308532715,2.9131765365600586,0.390779972076416
1711508681583430100,2.45643017578125,3.7828359603881836,-1.5010180473327637,3.0495336055755615
1711508681602390000,2.47539013671875,0.30062198638916016,-2.3795509338378906,3.7248787879943848
1711508681621350000,2.494349853515625,1.0178422927856445,-4.691797733306885,1.6311204433441162
1711508681640309800,2.513309814453125,1.3476505279541016,-4.728368759155273,0.20848441123962402
1711508681659270000,2.532269775390625,-1.260054588317871,-5.0829854011535645,-1.2298569679260254
1711508681678229800,2.551229736328125,-1.2826385498046875,-4.036858081817627,-0.32262468338012695
1711508681697190000,2.57018994140625,-2.087307929992676,-5.229277610778809,1.2118875980377197
1711508681716149800,2.589149658203125,-0.6107425689697266,2.1853461265563965,-2.0307765007019043
1711508681735109600,2.608109619140625,-1.0125389099121094,4.53693151473999,1.3670861721038818
1711508681754069800,2.62706982421875,0.8237228393554688,3.2919294834136963,3.260392189025879
1711508681773029600,2.646029541015625,-0.014754295349121094,2.9338879585266113,1.568716287612915
1711508681791989500,2.664989501953125,2.128063201904297,0.8729643225669861,0.8251857757568359
1711508681810949600,2.68394970703125,0.5046291351318359,-0.8361295461654663,1.9524869918823242
1711508681829909500,2.702909423828125,0.7917098999023438,-2.7030129432678223,1.6129798889160156
1711508681848869400,2.721869384765625,1.417266845703125,-4.623478889465332,0.31392669677734375
1711508681867829500,2.74082958984375,1.578028678894043,-6.412633895874023,-1.2921242713928223
1711508681886789400,2.759789306640625,0.7933206558227539,-6.249442100524902,-2.7230591773986816
1711508681905749200,2.778749267578125,1.250864028930664,-1.0178340673446655,-0.5691814422607422
1711508681924709400,2.79770947265625,0.011761665344238281,2.2578930854797363,0.6547796726226807
1711508681943669200,2.816669189453125,-1.504049301147461,3.1946113109588623,1.3800098896026611
1711508681962629400,2.83562939453125,-0.6610774993896484,2.992481231689453,0.18686622381210327
1711508681981589200,2.85458935546875,-2.7633447647094727,2.4542412757873535,-1.799628734588623
1711508682000549400,2.87354931640625,-2.2310051918029785,1.8717886209487915,-3.1226871013641357
1711508682019509200,2.89250927734375,-0.9432830810546875,1.303086280822754,-2.7029032707214355
1711508682038469400,2.911469482421875,0.03056049346923828,1.5196181535720825,0.1350264549255371
1711508682057429200,2.93042919921875,-0.4863862991333008,0.8031163215637207,1.4195846319198608
1711508682076389000,2.94938916015625,1.0595722198486328,-0.5685054659843445,1.867737889289856
1711508682095349200,2.968349365234375,0.44263744354248047,-1.0312848091125488,2.340911865234375
1711508682114309000,2.98730908203125,-0.31468963623046875,-0.9212074875831604,2.0104103088378906
1711508682133269200,3.006269287109375,-0.5146369934082031,-0.7049877643585205,1.1619863510131836
1711508682152229000,3.02522900390625,-0.6580677032470703,-0.03991878032684326,0.6434715390205383
1711508682171189000,3.04418896484375,-2.3849973678588867,0.6787331104278564,-0.5037020444869995
1711508682190149000,3.063149169921875,-1.9476652145385742,0.3199174404144287,-0.8676239252090454
1711508682209109000,3.08210888671875,-0.5120267868041992,-0.3311828374862671,-1.5876474380493164
1711508682228069000,3.101069091796875,-0.47461700439453125,-0.8987128138542175,0.5837543606758118
1711508682247029000,3.120029052734375,0.5195941925048828,-0.45689111948013306,-0.06745579838752747
1711508682265989000,3.138989013671875,-0.009695053100585938,1.3183929920196533,1.1199504137039185
1711508682284949000,3.157948974609375,0.5251455307006836,2.8491764068603516,1.958317756652832
1711508682303908900,3.176908935546875,0.27228450775146484,2.7841155529022217,3.530949115753174
1711508682322869000,3.195868896484375,1.1512165069580078,-0.9549440145492554,2.418071985244751
1711508682341828900,3.214828857421875,-2.7343263626098633,-2.443227767944336,0.5480496287345886
1711508682360789000,3.2337890625,-0.6673526763916016,-2.4317626953125,-0.9027538299560547
1711508682379748900,3.252748779296875,-2.518157958984375,-1.2668200731277466,0.4241633415222168
1711508682398709000,3.271708984375,0.14281558990478516,-0.8062999248504639,0.1965503692626953
1711508682417668900,3.2906689453125,-2.046761989593506,1.0855849981307983,-0.9181957244873047
1711508682436629000,3.30962890625,-1.5900473594665527,0.709418535232544,-0.02218794822692871
1711508682455588900,3.3285888671875,-0.05687522888183594,0.3300331234931946,-4.868601322174072
1711508682474549000,3.347549072265625,-0.8987846374511719,-0.7948543429374695,-11.595531463623047
1711508682493508900,3.3665087890625,-1.8335800170898438,3.051325798034668,-8.497156143188477
1711508682512469000,3.385468994140625,1.8392133712768555,4.5260419845581055,-2.035098075866699
1711508682531428900,3.404428955078125,1.6827421188354492,3.007708787918091,1.0170567035675049
1711508682550389000,3.423388916015625,1.938492774963379,3.5864553451538086,2.2975292205810547
1711508682569348900,3.442348876953125,1.957535743713379,4.612010955810547,7.161971092224121
1711508682588309000,3.46130908203125,1.436614990234375,1.9286733865737915,5.8917365074157715
1711508682607268900,3.480268798828125,-1.459355354309082,-2.1530113220214844,0.25131964683532715
1711508682626229000,3.49922900390625,-1.610835075378418,-3.9589524269104004,-1.7261221408843994
1711508682645188900,3.51818896484375,-1.3241682052612305,-3.9391045570373535,-2.3198037147521973
1711508682664149000,3.53714892578125,-0.3194999694824219,-3.5813536643981934,-2.6153292655944824
1711508682683108900,3.55610888671875,0.13016605377197266,-2.334094762802124,-1.7655599117279053
1711508682702069000,3.575069091796875,0.6977405548095703,-1.2128889560699463,0.5804149508476257
1711508682721028900,3.59402880859375,1.845046043395996,-0.6786463260650635,3.3778414726257324
1711508682739989000,3.612989013671875,1.7519989013671875,-1.1551728248596191,3.6512246131896973
1711508682758948900,3.631948974609375,0.680729866027832,-2.5098814964294434,0.2892603874206543
1711508682777909000,3.650908935546875,1.9859399795532227,-3.402514934539795,-0.3415071368217468
1711508682796868900,3.669868896484375,0.7084856033325195,-3.5177364349365234,0.29534226655960083
1711508682815829000,3.6888291015625,-2.161351203918457,-2.2349331378936768,-1.0006675720214844
1711508682834789000,3.7077890625,-4.072304725646973,1.0332598686218262,-1.7654445171356201
1711508682853749000,3.7267490234375,-6.20425271987915,4.266167640686035,-3.207886219024658
1711508682872709000,3.745709228515625,-7.547183990478516,6.111757278442383,-4.061465263366699
1711508682891669000,3.7646689453125,-10.15041446685791,6.9627685546875,-0.932003378868103
1711508682910629000,3.783629150390625,-11.444656372070312,6.615400791168213,2.9038710594177246
1711508682929589000,3.802589111328125,-5.249619483947754,4.27684211730957,5.701291561126709
1711508682948549000,3.821549072265625,27.431560516357422,-7.079812049865723,2.8855819702148438
1711508682967509000,3.840509033203125,-9.979000091552734,-7.250026702880859,-7.325309753417969
1711508682986469000,3.85946923828125,0.005512714385986328,-2.11734676361084,0.9778661727905273
1711508683005429200,3.87842919921875,-1.6514244079589844,2.9839284420013428,-0.3578672409057617
1711508683024389000,3.89738916015625,2.295093297958374,4.247493267059326,5.525834083557129
1711508683043349200,3.916349365234375,2.2917861938476562,1.2324094772338867,3.399564743041992
1711508683062309000,3.93530908203125,3.8148207664489746,-1.6487774848937988,0.6867742538452148
1711508683081269200,3.954269287109375,3.8735463619232178,-3.460433006286621,1.9680814743041992
1711508683100229000,3.97322900390625,2.6902196407318115,-3.365870952606201,4.658513069152832
1711508683119189200,3.992189208984375,3.8841934204101562,-3.6359148025512695,4.420915603637695
1711508683138149400,4.0111494140625,3.0748515129089355,-3.5794975757598877,5.563638687133789
1711508683157109200,4.030109130859375,-0.49834203720092773,-2.2702152729034424,4.069149971008301
1711508683176069400,4.0490693359375,0.018841266632080078,-1.848466157913208,0.399932861328125
1711508683195029200,4.068029296875,-0.8090019226074219,-1.0309579372406006,-0.4014739990234375
1711508683213989400,4.0869892578125,-1.6374974250793457,0.09594893455505371,1.30979585647583
1711508683232949200,4.10594921875,-0.3703160285949707,0.9620883464813232,4.832192897796631
1711508683251909400,4.124909423828125,-1.2196507453918457,0.8338525295257568,3.944533348083496
1711508683270869200,4.143869140625,-1.0368480682373047,0.0418701171875,5.01533842086792
1711508683289829400,4.162829345703125,-2.133676528930664,0.46538448333740234,5.330424785614014
1711508683308789500,4.18178955078125,-1.0211372375488281,1.8144478797912598,4.749838352203369
1711508683327749400,4.200749267578125,-3.307900905609131,2.074699878692627,4.161235332489014
1711508683346709500,4.21970947265625,-4.636518478393555,-1.075483798980713,-1.017606496810913
1711508683365669400,4.23866943359375,-3.78011417388916,-4.010679244995117,-3.377711296081543
1711508683384629500,4.25762939453125,-3.738962173461914,-2.576009511947632,-4.106236934661865
1711508683403589600,4.276589599609375,-3.212477684020996,-0.5708327293395996,-5.89873743057251
1711508683422549500,4.295549560546875,-0.17781448364257812,1.3027856349945068,-5.464980602264404
1711508683441509600,4.314509521484375,0.8141164779663086,0.8727524280548096,-4.398715496063232
1711508683460469500,4.333469482421875,-0.2981748580932617,1.0478184223175049,-2.9246878623962402
1711508683479429600,4.3524296875,-3.280989646911621,2.353821277618408,0.007254242897033691
1711508683498389800,4.3713896484375,-2.582493782043457,1.7555537223815918,-0.10859155654907227
1711508683517349600,4.390349609375,0.9384479522705078,-0.3135218620300293,-2.0114641189575195
1711508683536309800,4.409309814453125,0.9583187103271484,-0.9401230812072754,-1.994671106338501
1711508683555270000,4.428269775390625,-0.8471221923828125,2.567948341369629,1.2830491065979004
1711508683574229800,4.447229736328125,-1.1896476745605469,2.5220203399658203,0.9776096343994141
1711508683593190000,4.46618994140625,-2.6457266807556152,0.9834845066070557,-1.0186443328857422
1711508683612149800,4.485149658203125,-3.5313754081726074,0.09422898292541504,-1.3202390670776367
1711508683631110000,4.50410986328125,-2.8031206130981445,-0.6773478984832764,-3.085822582244873
1711508683650069800,4.52306982421875,-4.576260566711426,-0.7002627849578857,-1.7347559928894043
1711508683669030000,4.54202978515625,-3.754362106323242,-0.19451117515563965,1.566497802734375
1711508683687989800,4.56098974609375,-0.9913420677185059,-1.0583508014678955,0.2683906555175781
1711508683706950000,4.579949951171875,1.2186416387557983,-1.6716396808624268,-1.7509422302246094
1711508683725910000,4.598909912109375,-0.011295318603515625,-0.16362786293029785,0.3260354995727539
1711508683744870000,4.617869873046875,0.696088969707489,-0.363208532333374,1.0600109100341797
1711508683763830000,4.636830078125,2.1267013549804688,-1.685957670211792,-1.064976692199707
1711508683782790100,4.6557900390625,2.905022144317627,-0.4524662494659424,4.435185432434082
1711508683801750000,4.67475,4.068851470947266,-0.2961287498474121,7.366337776184082
1711508683820710100,4.693710205078125,2.969689130783081,-1.284848928451538,1.6499547958374023
1711508683839670300,4.712670166015625,2.068739414215088,-2.148437738418579,1.3906059265136719
1711508683858630100,4.731630126953125,1.6450748443603516,-1.7146923542022705,1.9159154891967773
1711508683877590300,4.75059033203125,1.0700364112854004,-0.369596004486084,2.2349634170532227
1711508683896550400,4.76955029296875,1.0913786888122559,1.4077086448669434,3.513003349304199
1711508683915510300,4.78851025390625,-0.017004013061523438,0.03949785232543945,3.372865676879883
1711508683934470400,4.807470458984375,-0.29233646392822266,-1.5666780471801758,3.011702537536621
1711508683953430300,4.82643017578125,-0.9848964214324951,-1.9405226707458496,2.4788894653320312
1711508683972390400,4.845390380859375,-1.4012470245361328,-0.4574112892150879,1.7202868461608887
1711508683991350500,4.8643505859375,-2.1436614990234375,0.428347110748291,1.576155662536621
1711508684010310400,4.883310302734375,-3.209709882736206,0.44417476654052734,0.875791072845459
1711508684029270500,4.9022705078125,-4.363734245300293,-0.24569988250732422,-2.046879291534424
1711508684048230400,4.92123046875,-2.1453986167907715,-0.1791362762451172,-0.9465756416320801
1711508684067190500,4.9401904296875,-1.1643085479736328,-0.5902109146118164,-0.29638171195983887
1711508684086150700,4.959150634765625,-1.0567173957824707,-0.49643707275390625,0.4907498359680176
1711508684105110500,4.978110595703125,-1.837125301361084,0.021715164184570312,0.0599825382232666
1711508684124070700,4.997070556640625,-1.0822162628173828,-0.6617550849914551,-0.7506213188171387
1711508684143030800,5.01603076171875,-0.6536846160888672,-1.9623427391052246,-1.3774046897888184
1711508684161990700,5.03499072265625,-0.4191575050354004,-0.7031545639038086,-0.16189241409301758
1711508684180950800,5.05395068359375,0.14910602569580078,0.5354843139648438,1.9324495792388916
1711508684199910700,5.07291064453125,0.4986381530761719,-0.3326854705810547,0.6850504875183105
1711508684218870800,5.091870849609375,1.1332502365112305,0.9977340698242188,-0.16343200206756592
1711508684237831000,5.110830810546875,1.7906408309936523,0.6357011795043945,3.545938491821289
1711508684256790800,5.129790771484375,-1.1289105415344238,-0.2622056007385254,0.8640283346176147
1711508684275751000,5.1487509765625,-2.3161325454711914,0.4858407974243164,-2.47419810295105
1711508684294711000,5.1677109375,-2.511014461517334,-0.13454723358154297,-3.7102324962615967
1711508684313671000,5.1866708984375,-3.0927348136901855,-0.4308195114135742,-4.5523152351379395
1711508684332631000,5.205631103515625,-2.3303046226501465,1.3992910385131836,-2.751265287399292
1711508684351591000,5.2245908203125,-0.8899369239807129,1.638491153717041,-3.1307902336120605
1711508684370551000,5.243551025390625,-1.3708457946777344,2.2469358444213867,-1.8429313898086548
1711508684389511200,5.26251123046875,-1.815584659576416,0.8178186416625977,-1.5226848125457764
1711508684408471000,5.281470947265625,-2.417386054992676,0.36163330078125,0.7555603981018066
1711508684427431200,5.30043115234375,-1.2690281867980957,-1.103614330291748,0.5075511932373047
1711508684446391300,5.319391357421875,-0.4421505928039551,-0.9539227485656738,-0.3455052375793457
1711508684465351200,5.33835107421875,-0.8826503753662109,-1.6726436614990234,-0.7191977500915527
1711508684484311300,5.357311279296875,-0.8963484764099121,-3.421489715576172,-2.848716974258423
1711508684503271400,5.376271484375,-2.1800241470336914,-0.9775748252868652,1.9151325225830078
1711508684522231300,5.395231201171875,-0.24285602569580078,0.24446868896484375,4.487491130828857
1711508684541191400,5.41419140625,0.883129358291626,0.09525680541992188,2.4814281463623047
1711508684560151600,5.433151611328125,1.7961430549621582,0.25556373596191406,-2.0424118041992188
1711508684579111400,5.452111328125,-0.34974849224090576,2.003626823425293,-3.47109317779541
1711508684598071600,5.471071533203125,-2.6900439262390137,3.2508106231689453,-1.0708074569702148
1711508684617031400,5.490031494140625,-1.3531415462493896,3.350132465362549,2.3571176528930664
1711508684635991600,5.508991455078125,0.4655563533306122,1.6539826393127441,0.4878969192504883
1711508684654951400,5.527951416015625,0.7216358780860901,0.9820795059204102,-3.792534828186035
1711508684673911600,5.54691162109375,-0.6881533861160278,1.1383538246154785,-2.0088424682617188
1711508684692871700,5.56587158203125,1.3114018440246582,-1.2098140716552734,4.1562299728393555
1711508684711831600,5.58483154296875,2.2617268562316895,-4.402215957641602,2.653738021850586
1711508684730791700,5.603791748046875,2.7082884311676025,-2.829084873199463,1.2845191955566406
1711508684749751800,5.622751708984375,2.873867988586426,-0.031713008880615234,2.8431882858276367
1711508684768711700,5.641711669921875,1.2014552354812622,-0.363034725189209,2.5145912170410156
1711508684787671800,5.660671875,0.6969607472419739,-0.4099597930908203,3.283982276916504
1711508684806632000,5.6796318359375,0.8620696067810059,1.036633014678955,3.2068796157836914
1711508684825591800,5.698591796875,1.1108839511871338,0.24306869506835938,2.3699965476989746
1711508684844552000,5.717552001953125,2.3237059116363525,-1.183553695678711,1.7389264106750488
1711508684863512000,5.736511962890625,1.0197573900222778,-1.5619845390319824,2.4873228073120117
1711508684882472000,5.755471923828125,-0.21796908974647522,-0.5706000328063965,3.0546979904174805
1711508684901432000,5.77443212890625,-1.047433614730835,0.6465072631835938,2.564969062805176
1711508684920392200,5.79339208984375,-0.00817561149597168,0.7757091522216797,1.349471092224121
1711508684939352000,5.81235205078125,1.3058007955551147,0.3007240295410156,0.15913152694702148
1711508684958312200,5.831312255859375,0.2589399814605713,0.8876395225524902,1.5107064247131348
1711508684977272000,5.85027197265625,-1.1238751411437988,0.6325898170471191,2.108813762664795
1711508684996232200,5.869232177734375,-1.785005807876587,-0.31518983840942383,1.3087053298950195
1711508685015192300,5.8881923828125,-2.4177818298339844,-0.3927478790283203,1.0817756652832031
1711508685034152200,5.907152099609375,-2.4922800064086914,-0.48188352584838867,0.4847846031188965
1711508685053112300,5.9261123046875,-3.415834665298462,-0.7866787910461426,-0.6542658805847168
1711508685072072400,5.945072509765625,-3.289069652557373,-1.2942118644714355,-0.5763664245605469
1711508685091032300,5.9640322265625,-2.784346103668213,-1.0233063697814941,-0.9633448123931885
1711508685109992400,5.982992431640625,-1.3359103202819824,-0.4210991859436035,-0.0016319751739501953
1711508685128952600,6.00195263671875,-0.16968727111816406,-0.3519272804260254,1.0125997066497803
1711508685147912400,6.020912353515625,0.3668222427368164,-1.3735504150390625,0.6314036846160889
1711508685166872600,6.03987255859375,-1.11924409866333,-2.27579927444458,-1.0575201511383057
1711508685185832700,6.058832763671875,-2.2415454387664795,-1.3538599014282227,-2.291093587875366
1711508685204792600,6.07779248046875,-1.9910564422607422,0.7766227722167969,-1.2528687715530396
1711508685223752700,6.096752685546875,-0.2688870429992676,1.2665691375732422,-0.6452571153640747
1711508685242712600,6.115712646484375,0.0631093978881836,0.6571493148803711,0.024912118911743164
1711508685261672700,6.134672607421875,0.01052093505859375,-0.3168821334838867,-0.7796852588653564
1711508685280632800,6.1536328125,-0.39855098724365234,-0.44173431396484375,-0.7975058555603027
1711508685299593000,6.172593017578125,-0.8323516845703125,-0.4148554801940918,-1.1843643188476562
1711508685318552800,6.191552734375,-1.9000039100646973,0.6686410903930664,-0.9449970722198486
1711508685337513000,6.210512939453125,-1.330134391784668,0.3330111503601074,-1.5778758525848389
1711508685356473000,6.22947314453125,-0.8621916770935059,-0.3907308578491211,-0.9434778690338135
1711508685375433000,6.248432861328125,-0.9510502815246582,-0.8603534698486328,1.0002703666687012
1711508685394393000,6.26739306640625,0.210662841796875,-1.4278645515441895,0.436861515045166
1711508685413353200,6.286353271484375,0.03500175476074219,-0.6480073928833008,1.0110363960266113
1711508685432313300,6.305313232421875,1.358797550201416,-0.5381946563720703,0.7336454391479492
1711508685451273200,6.324273193359375,0.8871579170227051,-2.0090479850769043,-0.055947303771972656
1711508685470233300,6.3432333984375,-0.9764764308929443,-2.0522971153259277,-0.4779071807861328
1711508685489193200,6.362193115234375,-1.7672712802886963,-1.12996244430542,-1.0648865699768066
1711508685508153300,6.3811533203125,-0.9314000606536865,0.0477447509765625,-1.8626484870910645
1711508685527113500,6.400113525390625,-0.4817311763763428,0.9213194847106934,-1.330810546875
1711508685546073600,6.419073486328125,-1.0446362495422363,0.9965147972106934,-1.5180854797363281
1711508685565033500,6.438033447265625,-0.6912064552307129,0.019525527954101562,-2.030949115753174
1711508685583993600,6.45699365234375,-0.4824310541152954,-0.4473137855529785,0.18359756469726562
1711508685602953700,6.47595361328125,1.967839002609253,-0.10782337188720703,3.38032865524292
1711508685621913900,6.494913818359375,3.2469115257263184,0.6328048706054688,3.4490766525268555
1711508685640873700,6.513873779296875,3.6498970985412598,1.3588223457336426,3.7297987937927246
1711508685659833900,6.532833740234375,3.155651330947876,0.7636089324951172,3.2150650024414062
1711508685678793700,6.551793701171875,2.6760144233703613,0.09644365310668945,2.59976863861084
1711508685697753900,6.57075390625,1.6754448413848877,-0.22885560989379883,1.066584587097168
1711508685716714000,6.5897138671875,0.6724052429199219,0.13452434539794922,1.1916508674621582
1711508685735674000,6.608674072265625,-0.451108455657959,0.5586943626403809,1.009664535522461
1711508685754634200,6.62763427734375,-1.334526538848877,1.0704607963562012,-0.20554161071777344
1711508685773594000,6.646593994140625,-1.238079309463501,1.1850509643554688,-0.8622794151306152
1711508685792554200,6.66555419921875,-1.1836304664611816,0.6767230033874512,-0.42033958435058594
1711508685811514400,6.684514404296875,-0.42134904861450195,0.863433837890625,-0.09922122955322266
1711508685830474200,6.70347412109375,-0.5841693878173828,0.7203612327575684,-1.4575676918029785
1711508685849434400,6.722434326171875,-0.7258787155151367,0.5467557907104492,-0.9897756576538086
1711508685868394500,6.74139453125,-0.9451284408569336,-0.13965129852294922,-0.9254283905029297
1711508685887354600,6.760354736328125,-0.8356213569641113,-0.4346785545349121,-1.2808146476745605
1711508685906314800,6.779314697265625,-0.3161892890930176,-0.043207645416259766,-0.7337217330932617
1711508685925275000,6.79827490234375,0.7492318153381348,-0.01585245132446289,0.1904430389404297
1711508685944234800,6.81723486328125,0.8735694885253906,0.1839609146118164,0.30527830123901367
1711508685963195000,6.83619482421875,0.6031570434570312,-0.11485958099365234,-0.2093186378479004
1711508685982155000,6.855155029296875,0.034487247467041016,-0.4607582092285156,-0.650672435760498
1711508686001115100,6.874115234375,-1.3920421600341797,-0.14754962921142578,-1.312577247619629
1711508686020075000,6.893074951171875,-1.2131831645965576,-0.09076642990112305,-1.7720551490783691
1711508686039035100,6.91203515625,-0.9065103530883789,-0.0780329704284668,-1.6848697662353516
1711508686057995300,6.930995361328125,0.31536293029785156,-0.14861583709716797,-0.3808012008666992
1711508686076955400,6.949955322265625,0.6643943786621094,-0.37331485748291016,-0.0876321792602539
1711508686095915500,6.96891552734375,0.25026559829711914,-0.22791028022766113,-0.266512393951416
1711508686114875400,6.98787548828125,0.40863990783691406,-0.362457275390625,-1.6613612174987793
1711508686133835500,7.00683544921875,-0.853323221206665,0.225783109664917,2.2573461532592773
1711508686152795600,7.025795654296875,0.9102573394775391,0.5721702575683594,1.4861984252929688
1711508686171755800,7.044755859375,0.22309255599975586,-0.0025763511657714844,0.6377725601196289
1711508686190716000,7.0637158203125,-0.3307366371154785,-0.36136484146118164,-0.29536914825439453
1711508686209676000,7.082676025390625,-0.2292804718017578,-0.26103734970092773,-0.6090517044067383
1711508686228636000,7.101635986328125,0.12343215942382812,0.5206811428070068,-0.6569924354553223
1711508686247596000,7.120595947265625,0.15433835983276367,0.6617898941040039,-0.10728931427001953
1711508686266556200,7.13955615234375,1.4108119010925293,0.11844611167907715,0.24289608001708984
1711508686285516300,7.158516357421875,0.5814452171325684,0.17193913459777832,0.5738630294799805
1711508686304476400,7.177476318359375,0.03713250160217285,0.20599746704101562,0.4320335388183594
1711508686323436500,7.1964365234375,-0.08903932571411133,0.14462566375732422,-0.254486083984375
1711508686342396700,7.215396728515625,-0.4878227710723877,0.038172245025634766,-0.6912345886230469
1711508686361356500,7.2343564453125,-0.7720355987548828,0.12241625785827637,-1.3304004669189453
1711508686380316700,7.253316650390625,-0.5908486843109131,0.15682601928710938,-0.49915027618408203
1711508686399276800,7.27227685546875,0.19988489151000977,-0.027592182159423828,0.07509517669677734
1711508686418237000,7.29123681640625,-0.4017214775085449,0.15964126586914062,0.08277416229248047
1711508686437197000,7.310197021484375,0.06864809989929199,0.21823477745056152,0.511631965637207
1711508686456157200,7.3291572265625,0.19009113311767578,-0.16893553733825684,0.9868192672729492
1711508686475117300,7.348117431640625,0.6963438987731934,-0.9545981884002686,1.5054445266723633
1711508686494077400,7.367077392578125,-0.2642056941986084,-0.458111047744751,-0.5261192321777344
1711508686513037600,7.38603759765625,0.5066871643066406,-0.05924344062805176,-1.2805309295654297
1711508686531997700,7.404997802734375,0.47656679153442383,0.49108028411865234,-1.3113880157470703
1711508686550957800,7.423957763671875,-1.8258655071258545,1.8240485191345215,-2.1696557998657227
1711508686569917700,7.442917724609375,0.11211228370666504,0.6762418746948242,-0.05543327331542969
1711508686588877800,7.4618779296875,0.7607789039611816,-0.5246515274047852,0.5206174850463867
1711508686607838000,7.480837890625,0.3753969669342041,-0.761268138885498,0.44612693786621094
1711508686626798000,7.499798095703125,0.3742692470550537,-0.3239169120788574,0.22191333770751953
1711508686645758200,7.51875830078125,0.08923101425170898,0.26343369483947754,-1.0063886642456055
1711508686664718300,7.53771826171875,-1.3494893312454224,0.2797398567199707,-1.6376171112060547
1711508686683678500,7.556678466796875,-0.791234016418457,-0.17319965362548828,-1.8348217010498047
1711508686702638600,7.575638671875,0.6570196151733398,0.11788797378540039,1.182882308959961
1711508686721598700,7.5945986328125,0.14910227060317993,0.24071097373962402,1.3363780975341797
1711508686740558800,7.613558837890625,0.05939406156539917,0.5824377536773682,0.6287727355957031
1711508686759519000,7.63251904296875,0.07618778944015503,1.0121517181396484,-0.4613628387451172
1711508686778479000,7.65147900390625,0.4990918040275574,0.4495563507080078,-0.10275077819824219
1711508686797439200,7.670439208984375,1.0151556730270386,-0.06485533714294434,1.527085304260254
1711508686816399400,7.6893994140625,1.454539179801941,-0.09589862823486328,1.4160614013671875
1711508686835359500,7.708359375,1.0912976264953613,-0.3234595060348511,0.006569862365722656
1711508686854319600,7.727319580078125,1.8746156692504883,-1.5676499605178833,1.7156744003295898
1711508686873279700,7.74627978515625,2.3542888164520264,-1.2360448837280273,0.7700586318969727
1711508686892240000,7.765239990234375,-0.7787613868713379,1.1920433044433594,0.9675083160400391
1711508686911200000,7.784199951171875,-0.461331844329834,1.8622825145721436,1.012939453125
1711508686930160000,7.80316015625,-0.6710414886474609,0.47606921195983887,-0.6363916397094727
1711508686949120300,7.822120361328125,-0.44120001792907715,-1.005807638168335,-1.1206254959106445
1711508686968080400,7.841080322265625,0.3279714584350586,-1.4958971738815308,-0.24131488800048828
1711508686987040500,7.86004052734375,0.35999608039855957,-0.690284013748169,0.8400173187255859
1711508687006000600,7.879000732421875,-0.09608793258666992,0.05766868591308594,0.15569210052490234
1711508687024960800,7.897960693359375,-0.5470097064971924,0.016278505325317383,-0.5373201370239258
1711508687043921000,7.9169208984375,-0.3454899787902832,-0.8361680507659912,-0.8200359344482422
1711508687062881000,7.935881103515625,-0.7199468612670898,-1.4687917232513428,0.6917839050292969
1711508687081841200,7.954841064453125,-1.3863582611083984,-0.9858801364898682,0.8417491912841797
1711508687100801300,7.97380126953125,-1.4937019348144531,-0.27604079246520996,-0.1991281509399414
1711508687119761700,7.99276171875,-0.5239310264587402,0.05051374435424805,-0.7713871002197266
1711508687138721500,8.011721435546875,-0.20800209045410156,-0.2523651123046875,0.6826920509338379
1711508687157682000,8.030681884765626,0.5103893280029297,-0.2777724266052246,1.2865724563598633
1711508687176642000,8.04964208984375,0.402801513671875,-0.0330352783203125,1.004615306854248
1711508687195602200,8.068602294921876,-0.3265414237976074,0.033733367919921875,0.09999513626098633
1711508687214562300,8.087562255859375,-0.9578166007995605,-0.15236663818359375,-1.2728385925292969
1711508687233522400,8.1065224609375,-1.5134003162384033,-0.25415706634521484,-1.043907642364502
1711508687252482600,8.125482666015625,-0.8576130867004395,-0.31397151947021484,-0.9328241348266602
1711508687271442700,8.144442626953126,-0.5639629364013672,-0.40645837783813477,-1.6094870567321777
1711508687290402800,8.16340283203125,-0.637775182723999,0.17933273315429688,-2.3920555114746094
1711508687309363000,8.182363037109376,-0.4973173141479492,0.4641714096069336,-2.094285011291504
1711508687328323300,8.2013232421875,0.31815624237060547,0.1949000358581543,-1.2717852592468262
1711508687347283200,8.220283203125,1.4881534576416016,0.1036081314086914,1.272158145904541
1711508687366243600,8.23924365234375,2.140078544616699,0.09148788452148438,2.864790439605713
1711508687385203700,8.25820361328125,0.8828771114349365,-0.15450286865234375,1.5004558563232422
1711508687404163800,8.277163818359375,0.6980016231536865,-0.23048114776611328,0.03134632110595703
1711508687423124000,8.2961240234375,0.7374663352966309,-0.06842947006225586,-0.07207250595092773
1711508687442084000,8.315083984375,0.6902790069580078,0.029419422149658203,1.2466907501220703
1711508687461044500,8.33404443359375,-0.27666306495666504,0.33684349060058594,-0.3864936828613281
1711508687480004400,8.35300439453125,-0.9449610710144043,0.13133478164672852,-1.5633392333984375
1711508687498964700,8.37196484375,-1.1187046766281128,0.045865535736083984,-1.6399993896484375
1711508687517924900,8.3909248046875,-0.8203737735748291,0.2205820083618164,-0.8819770812988281
1711508687536885000,8.409885009765626,-0.5065902471542358,0.5522060394287109,0.007304191589355469
1711508687555845000,8.42884521484375,-0.28176307678222656,0.8343329429626465,-0.6096973419189453
1711508687574805500,8.447805419921876,-0.36710381507873535,0.7408690452575684,-1.5652837753295898
1711508687593765600,8.466765625,-0.1856752634048462,0.9936127662658691,-0.4612846374511719
1711508687612725800,8.485725830078126,0.838024377822876,0.5384860038757324,-1.0037388801574707
1711508687631686000,8.504685791015625,0.3622285723686218,0.985267162322998,0.7873859405517578
1711508687650646000,8.52364599609375,-0.15037304162979126,0.9011240005493164,1.0117549896240234
1711508687669606100,8.542606201171875,-0.4746326208114624,0.12033414840698242,-1.4193696975708008
1711508687688566500,8.56156640625,-1.1225391626358032,0.15993642807006836,-2.776916980743408
1711508687707526700,8.580526611328125,-0.14390337467193604,0.8851480484008789,-0.5578222274780273
1711508687726486800,8.59948681640625,0.7714836597442627,0.07514381408691406,0.20023155212402344
1711508687745447000,8.618447021484375,1.5168992280960083,-1.4787793159484863,0.8844423294067383
1711508687764407300,8.6374072265625,0.6669710874557495,-1.3769845962524414,0.5737848281860352
1711508687783367400,8.656367431640625,-0.2450859546661377,0.23984098434448242,0.2713794708251953
1711508687802327600,8.67532763671875,0.5318241119384766,0.6586389541625977,0.7499713897705078
1711508687821287700,8.69428759765625,2.219423294067383,-1.8119392395019531,3.7534360885620117
1711508687840247800,8.713247802734376,4.034848213195801,-3.397979259490967,4.532193183898926
1711508687859208200,8.732208251953125,3.4060168266296387,-0.12901639938354492,2.928159713745117
1711508687878168300,8.751168212890626,1.8599408864974976,0.858100414276123,3.6997623443603516
1711508687897128400,8.77012841796875,0.3096160888671875,0.29305315017700195,3.445063591003418
1711508687916088600,8.789088623046876,-0.8185198307037354,-0.7520589828491211,1.6013450622558594
1711508687935049000,8.808049072265625,-2.010016679763794,-1.3649654388427734,0.12039947509765625
1711508687954009000,8.827009033203124,-2.000852108001709,-0.6560482978820801,-1.2915406227111816
1711508687972969200,8.84596923828125,-2.30117130279541,0.73065185546875,-0.9621181488037109
1711508687991929300,8.864929443359374,-0.35908785462379456,1.6898083686828613,-0.1513843536376953
1711508688010889700,8.8838896484375,-0.48518502712249756,1.311441421508789,0.5518627166748047
1711508688029849900,8.902849853515624,-0.43924617767333984,-0.037322044372558594,0.0018396377563476562
1711508688048810000,8.92181005859375,-0.5368688106536865,-0.5471749305725098,-0.5891733169555664
1711508688067770400,8.940770263671874,-0.4756908416748047,-0.12665510177612305,-0.5411581993103027
1711508688086730500,8.95973046875,-0.7407639026641846,0.4292902946472168,-0.5627508163452148
1711508688105690600,8.978690673828124,-0.6114041805267334,0.2011117935180664,-0.2645082473754883
1711508688124651000,8.997651123046875,-0.09935379028320312,-0.2362079620361328,-0.23995256423950195
1711508688143611100,9.016611083984374,0.21865391731262207,-0.2650432586669922,0.3031749725341797
1711508688162571300,9.0355712890625,-0.42685580253601074,-0.22066211700439453,0.6222505569458008
1711508688181531400,9.054531494140624,-1.3121142387390137,-0.28081321716308594,-0.3119697570800781
1711508688200491800,9.07349169921875,-1.7908259630203247,-0.3592109680175781,-1.5535874366760254
1711508688219452000,9.092451904296874,-1.4822967052459717,-0.12826967239379883,-1.707977294921875
1711508688238412000,9.111412109375,-1.0606505870819092,0.2156376838684082,-0.8667993545532227
1711508688257372200,9.1303720703125,-0.09427928924560547,0.1818556785583496,-0.6260848045349121
1711508688276332500,9.14933251953125,-0.14611220359802246,0.3205709457397461,0.11011552810668945
1711508688295293000,9.16829296875,0.04216456413269043,0.22072982788085938,-0.40189027786254883
1711508688314253000,9.187253173828125,-0.17280006408691406,-0.08499717712402344,-0.47678565979003906
1711508688333213200,9.206213134765624,-0.6183376312255859,-0.5870285034179688,0.26969289779663086
1711508688352173300,9.22517333984375,-0.6798710823059082,-0.027941226959228516,-0.4557485580444336
1711508688371133700,9.2441337890625,-0.4601442813873291,-0.037175655364990234,-0.47113895416259766
1711508688390093800,9.26309375,0.574282169342041,-0.1654810905456543,0.18552255630493164
1711508688409054000,9.282053955078124,0.9311974048614502,0.09401130676269531,0.07120323181152344
1711508688428014300,9.301014404296875,-1.2794244289398193,0.41878175735473633,-0.9186267852783203
1711508688446974500,9.319974365234375,-1.911482572555542,-0.5313019752502441,-2.179283618927002
1711508688465934600,9.3389345703125,-1.1770896911621094,-0.7870683670043945,-1.1254243850708008
1711508688484895000,9.35789501953125,-1.9954744577407837,-0.23082923889160156,-1.0685296058654785
1711508688503855000,9.376855224609375,-3.195646286010742,0.6227140426635742,-2.343735694885254
1711508688522815200,9.395815185546875,-0.672544002532959,0.09245872497558594,-1.8925480842590332
1711508688541775600,9.414775634765626,0.9136366844177246,-1.0362153053283691,1.0849404335021973
1711508688560735700,9.43373583984375,1.7314141988754272,-0.7761263847351074,2.0250582695007324
1711508688579696000,9.452696044921876,-0.7342883348464966,0.33821678161621094,0.524261474609375
1711508688598656300,9.47165625,-1.2656654119491577,0.7232785224914551,-1.8496270179748535
1711508688617616400,9.490616455078126,0.060395121574401855,0.38701486587524414,-1.0291295051574707
1711508688636576800,9.50957666015625,1.6645708084106445,0.8873896598815918,2.775595188140869
1711508688655537000,9.528536865234376,3.7947161197662354,0.6793503761291504,5.010351181030273
1711508688674497000,9.5474970703125,3.4084677696228027,-0.17812061309814453,5.0928521156311035
1711508688693457400,9.56645751953125,-0.04403206706047058,0.06716108322143555,1.806586742401123
1711508688712417500,9.58541748046875,-1.9732611179351807,0.9881067276000977,-1.3367657661437988
1711508688731377700,9.604377685546876,-0.9794356822967529,1.5654640197753906,-0.9344673156738281
1711508688750338000,9.623338134765625,1.2504597902297974,1.3147296905517578,0.6408662796020508
1711508688769298200,9.642298095703126,1.0561741590499878,0.5081138610839844,-0.09135103225708008
1711508688788258300,9.66125830078125,-0.8831082582473755,0.3415813446044922,-2.006502151489258
1711508688807218700,9.68021875,-0.015100859105587006,0.578463077545166,-1.5999040603637695
1711508688826178800,9.6991787109375,1.9688817262649536,-0.6247014999389648,0.05517768859863281
1711508688845139000,9.718138916015626,1.7710912227630615,-1.3065037727355957,0.22687292098999023
1711508688864099300,9.737099365234375,0.601263165473938,-1.2685179710388184,-0.5702204704284668
1711508688883059500,9.7560595703125,0.5324794054031372,-1.1787633895874023,-1.2245674133300781
1711508688902019600,9.77501953125,0.5468534231185913,-0.9109048843383789,-1.3520708084106445
1711508688920980000,9.79397998046875,0.7883954048156738,-0.4432106018066406,-0.38294124603271484
1711508688939940000,9.812940185546875,0.6955839395523071,0.15233659744262695,1.3145532608032227
1711508688958900500,9.831900390625,1.565485954284668,0.19986820220947266,1.9998068809509277
1711508688977860600,9.850860595703125,1.8343653678894043,0.3347015380859375,1.6068873405456543
1711508688996820700,9.86982080078125,0.8973428010940552,0.6008005142211914,0.8404922485351562
1711508689015781000,9.888781005859375,-0.5410343408584595,0.772529125213623,0.2781352996826172
1711508689034741200,9.9077412109375,-0.7972394227981567,0.5523982048034668,0.2922182083129883
1711508689053701400,9.926701416015625,0.014186620712280273,-0.0560002326965332,0.5873384475708008
1711508689072661800,9.945661865234374,0.2524869441986084,-0.9283552169799805,0.01381683349609375
1711508689091622000,9.964621826171875,-0.3135960102081299,-0.6139531135559082,-0.367703914642334
1711508689110582000,9.98358203125,-1.3463371992111206,0.20433902740478516,-0.7964901924133301
1711508689129542400,10.00254248046875,-1.3595302104949951,0.2369375228881836,-1.187859058380127
1711508689148502500,10.02150244140625,-1.9606091976165771,-0.07976293563842773,-1.3452496528625488
1711508689167462700,10.040462646484375,-0.435843825340271,-0.19908380508422852,-1.0188093185424805
1711508689186422800,10.0594228515625,0.2668496370315552,-0.003738880157470703,0.44861555099487305
1711508689205383200,10.078383056640625,0.5361309051513672,0.058791160583496094,1.406010627746582
1711508689224343600,10.097343505859374,0.5234601497650146,-0.12439823150634766,1.0224580764770508
1711508689243303700,10.1163037109375,0.7366940975189209,-0.02464914321899414,0.2839665412902832
1711508689262263800,10.135263916015624,0.5557771921157837,0.21520090103149414,0.11922836303710938
1711508689281224000,10.154223876953125,-0.1800757646560669,0.34473514556884766,-0.022442340850830078
1711508689300184300,10.173184326171874,-0.6180750131607056,0.4674186706542969,-0.6964550018310547
1711508689319144400,10.19214453125,-0.3893008232116699,0.4053492546081543,-1.1821293830871582
1711508689338104600,10.2111044921875,-0.18792784214019775,0.3194890022277832,-1.0959014892578125
1711508689357065000,10.23006494140625,-2.4345176219940186,0.6788315773010254,-0.9252190589904785
1711508689376025000,10.249025146484374,0.20816099643707275,0.4055814743041992,-0.7911720275878906
1711508689394985200,10.267985107421875,0.5618596076965332,0.1363358497619629,0.20719337463378906
1711508689413945600,10.286945556640624,0.7932441234588623,0.10238027572631836,0.5983743667602539
1711508689432905700,10.30590576171875,0.8097730875015259,0.042583465576171875,0.4302949905395508
1711508689451865900,10.324865966796875,0.6469219923019409,-0.056453704833984375,0.8189668655395508
1711508689470826200,10.343826171875,0.07079577445983887,0.01322793960571289,0.8897790908813477
1711508689489786400,10.362786376953125,-0.20846545696258545,0.18932723999023438,0.05954742431640625
1711508689508746500,10.38174658203125,-0.4424933195114136,0.404543399810791,-0.4930839538574219
1711508689527707000,10.400706787109375,-0.3251856565475464,0.36177539825439453,-0.49127864837646484
1711508689546667000,10.4196669921875,-0.37301015853881836,0.23583173751831055,-0.23295879364013672
1711508689565627100,10.438627197265625,-0.31533682346343994,0.6097197532653809,-0.09601211547851562
1711508689584587300,10.457587158203125,-0.07402706146240234,0.417452335357666,0.23729896545410156
1711508689603547600,10.476547607421875,0.12809443473815918,-0.012928485870361328,0.1073312759399414
1711508689622507800,10.4955078125,-0.0644688606262207,-0.2209172248840332,-0.3535900115966797
1711508689641468000,10.514468017578125,-0.605778694152832,-0.10774421691894531,-0.963322639465332
1711508689660428300,10.53342822265625,-1.0343976020812988,0.20928955078125,-1.4591064453125
1711508689679388400,10.552388427734375,-0.8612368106842041,0.31558656692504883,-1.2569971084594727
1711508689698348500,10.5713486328125,-0.38743114471435547,0.12497901916503906,-0.6438946723937988
1711508689717308700,10.59030859375,0.06011855602264404,-0.02615213394165039,0.4950246810913086
1711508689736269000,10.60926904296875,0.32224249839782715,-0.08259344100952148,0.32761096954345703
1711508689755229200,10.628229248046875,0.06900978088378906,0.07542276382446289,-0.27214813232421875
1711508689774189300,10.647189208984376,-0.5893069505691528,0.22114086151123047,-0.24486446380615234
1711508689793149700,10.666149658203125,-0.9350323677062988,0.29372215270996094,-0.3841972351074219
1711508689812109800,10.68510986328125,-0.4253716468811035,0.15398526191711426,-0.2734184265136719
1711508689831070000,10.704070068359375,-0.08523380756378174,0.048615217208862305,-0.09456825256347656
1711508689850030000,10.723030029296876,-0.03495997190475464,0.20529770851135254,-0.26290225982666016
1711508689868990500,10.741990478515625,0.24240094423294067,0.3095555305480957,0.10915184020996094
1711508689887950600,10.76095068359375,0.5972235202789307,0.16868972778320312,0.5347318649291992
1711508689906910700,10.77991064453125,0.6041589975357056,0.1539456844329834,0.3254108428955078
1711508689925870800,10.798870849609376,0.4767104983329773,0.3292567729949951,-0.1996288299560547
1711508689944831200,10.817831298828125,0.08037665486335754,0.40801310539245605,-0.2766599655151367
1711508689963791400,10.836791259765626,0.20402690768241882,0.333298921585083,0.06692981719970703
1711508689982751500,10.85575146484375,0.47590723633766174,0.2082996368408203,0.5462713241577148
1711508690001711900,10.8747119140625,0.5613967180252075,0.11263442039489746,0.2633657455444336
1711508690020671700,10.893671630859375,0.4075796604156494,0.06138801574707031,-0.13582515716552734
1711508690039632100,10.912632080078126,-0.035036951303482056,0.20394635200500488,-0.3141469955444336
1711508690058592300,10.93159228515625,-0.12435570359230042,0.25061845779418945,-0.14679908752441406
1711508690077552400,10.950552490234376,-0.06399981677532196,0.1636509895324707,-0.1589956283569336
1711508690096512800,10.9695126953125,-0.20619870722293854,0.17621302604675293,-0.26773643493652344
1711508690115473000,10.988472900390626,-0.4074826240539551,0.11987829208374023,-0.33330821990966797
1711508690134433000,11.00743310546875,-0.35864245891571045,0.055097341537475586,-0.9200639724731445
1711508690153393200,11.02639306640625,0.022679179906845093,0.16085171699523926,1.0181083679199219
1711508690172353500,11.045353515625,0.8584033250808716,0.051572561264038086,0.623652458190918
1711508690191313700,11.064313720703124,0.36316150426864624,-0.011959552764892578,0.4539785385131836
1711508690210273800,11.083273681640625,-0.4782642126083374,0.041509151458740234,-0.4047079086303711
1711508690229234000,11.10223388671875,-1.1150695085525513,0.10648226737976074,-1.2774276733398438
1711508690248194000,11.121194091796875,-1.00545334815979,0.26650094985961914,-1.2586450576782227
1711508690267154400,11.140154541015624,0.29376453161239624,0.32352471351623535,-0.5364847183227539
1711508690286114600,11.159114501953125,1.8262648582458496,0.28142333030700684,0.3823575973510742
1711508690305074700,11.17807470703125,1.3319133520126343,-0.2499861717224121,1.7718791961669922
1711508690324034800,11.197034912109375,0.4835599958896637,-0.06562042236328125,1.071249008178711
1711508690342995200,11.2159951171875,0.03421592712402344,0.3653395175933838,-0.11813831329345703
1711508690361955000,11.234955078125,0.26778531074523926,0.42978358268737793,-0.3973245620727539
1711508690380915500,11.25391552734375,0.24411076307296753,0.4572117328643799,-0.012200355529785156
1711508690399875600,11.27287548828125,0.1509838104248047,0.3424375057220459,0.1773834228515625
1711508690418835700,11.291835693359374,-0.31587153673171997,0.11542868614196777,-0.3375062942504883
1711508690437795800,11.3107958984375,-0.4396880269050598,0.13556861877441406,-1.0251617431640625
1711508690456756200,11.329756103515624,-0.5702469348907471,-0.02595996856689453,-1.1390600204467773
1711508690475716400,11.34871630859375,-2.01608943939209,0.48766231536865234,-0.6943731307983398
1711508690494676500,11.367676513671874,-0.9579614400863647,-0.7776110172271729,-0.19551467895507812
1711508690513636600,11.38663671875,1.6423697471618652,-0.4414374828338623,-0.5963401794433594
1711508690532596700,11.4055966796875,0.8400403261184692,0.29584836959838867,1.1242408752441406
1711508690551556900,11.424556884765625,1.0180734395980835,0.9662046432495117,1.244659423828125
1711508690570517200,11.443517333984374,0.736607015132904,0.6889398097991943,1.1092443466186523
1711508690589477400,11.462477294921875,0.5789799094200134,-0.09794926643371582,1.3564939498901367
1711508690608437500,11.4814375,0.5343167781829834,-0.27632808685302734,1.2560510635375977
1711508690627397600,11.500397705078125,-0.35436326265335083,-0.12000370025634766,0.05910301208496094
1711508690646357800,11.519357666015624,-2.1232502460479736,0.31073880195617676,-1.9207868576049805
1711508690665318000,11.53831787109375,-1.6574323177337646,-0.14994525909423828,-3.18214750289917
1711508690684278000,11.557278076171874,-1.3524531126022339,-0.02648186683654785,-1.503964900970459
1711508690703238400,11.57623828125,0.8091176152229309,0.4852292537689209,1.2167243957519531
1711508690722198500,11.595198486328124,2.1186933517456055,1.0291335582733154,1.276627540588379
1711508690741158700,11.61415869140625,1.3750596046447754,-0.0162200927734375,0.641291618347168
1711508690760118800,11.633118896484374,0.6782150864601135,-0.25835752487182617,0.2828350067138672
1711508690779079000,11.652078857421875,-0.4857602119445801,0.09150242805480957,-0.06385421752929688
1711508690798039000,11.6710390625,-1.7017616033554077,-1.0304633378982544,-0.32926368713378906
1711508690816999200,11.689999267578125,1.4917939901351929,-1.0306659936904907,-3.2780795097351074
1711508690835959600,11.70895947265625,-0.021219968795776367,-0.07194232940673828,-0.01892375946044922
1711508690854919700,11.727919677734375,-1.184980869293213,0.4955251216888428,0.9571771621704102
1711508690873879800,11.7468798828125,-0.4226090908050537,0.3988792896270752,-0.15937519073486328
1711508690892840000,11.76583984375,0.06221580505371094,-0.6346628665924072,-0.6717538833618164
1711508690911800000,11.784800048828124,-0.09401631355285645,-0.9854857921600342,-1.4292616844177246
1711508690930760200,11.80376025390625,-0.1264500617980957,-0.09490823745727539,-2.108180046081543
1711508690949720300,11.82272021484375,0.11871111392974854,0.6920316219329834,-2.3453750610351562
1711508690968680400,11.841680419921875,0.2534066438674927,0.48862719535827637,-1.6233534812927246
1711508690987640800,11.860640869140624,0.3016246557235718,0.25795722007751465,0.008160591125488281
1711508691006600700,11.8796005859375,0.9969971179962158,0.450314998626709,1.5329885482788086
1711508691025561000,11.89856103515625,1.614990234375,0.22966480255126953,2.6591644287109375
1711508691044521200,11.917521240234375,1.0568171739578247,-1.5871367454528809,2.2602834701538086
1711508691063481300,11.9364814453125,0.08719706535339355,-2.153895139694214,1.742422103881836
1711508691082441500,11.95544140625,-0.8112245798110962,-0.7001142501831055,1.3786048889160156
1711508691101401600,11.974401611328124,-1.5781364440917969,0.25377511978149414,0.9890651702880859
1711508691120361700,11.99336181640625,-2.0443553924560547,-1.0672731399536133,-0.25467777252197266
1711508691139321900,12.01232177734375,-1.735864520072937,-1.673159122467041,-0.9394512176513672
1711508691158282000,12.031281982421875,-1.09577214717865,-0.7913722991943359,-0.38173770904541016
1711508691177242000,12.0502421875,-0.5766147375106812,0.36070728302001953,0.7598171234130859
1711508691196202200,12.0692021484375,0.291373610496521,0.2232065200805664,1.2256736755371094
1711508691215162400,12.088162353515624,0.8422050476074219,-0.2446746826171875,1.0434160232543945
1711508691234122500,12.10712255859375,0.5466816425323486,-0.09691095352172852,0.8847260475158691
1711508691253082600,12.12608251953125,-0.07541882991790771,0.11070871353149414,0.5294589996337891
1711508691272043000,12.14504296875,-0.5080336332321167,-0.03793668746948242,0.003585338592529297
1711508691291003100,12.164003173828124,-0.6040945649147034,-0.039821624755859375,-0.4891982078552246
1711508691309963000,12.182962890625,-0.3716691732406616,0.18474912643432617,-0.5330114364624023
1711508691328923400,12.20192333984375,-0.143263041973114,0.07334661483764648,-0.26949644088745117
1711508691347883500,12.220883544921875,-0.373529314994812,0.18025445938110352,0.08612966537475586
1711508691366843600,12.23984375,-0.03246462345123291,0.28023195266723633,0.3358941078186035
1711508691385803800,12.2588037109375,0.20180445909500122,0.17969894409179688,0.7818775177001953
1711508691404764000,12.277763916015624,0.13495898246765137,-0.11185550689697266,1.1336851119995117
1711508691423724000,12.29672412109375,-0.07752376794815063,-0.1089925765991211,1.311718463897705
1711508691442684200,12.31568408203125,-0.18282318115234375,0.12271451950073242,1.3616247177124023
1711508691461644300,12.334644287109375,-0.05925470590591431,0.19136428833007812,1.1228976249694824
1711508691480604400,12.3536044921875,0.20587503910064697,-0.03743600845336914,0.732414722442627
1711508691499564500,12.372564453125,0.021524250507354736,-0.1880817413330078,0.7580981254577637
1711508691518524700,12.391524658203124,-0.7007127404212952,-0.06021690368652344,0.6851344108581543
1711508691537484800,12.41048486328125,-1.0666539669036865,0.35474109649658203,-0.261655330657959
1711508691556445000,12.42944482421875,-0.9076588153839111,0.13840389251708984,-0.8723917007446289
1711508691575405000,12.448405029296875,-1.4325780868530273,-0.09104251861572266,-0.5928983688354492
1711508691594365200,12.467365234375,-1.1464942693710327,-0.0718231201171875,-0.06933069229125977
1711508691613325300,12.4863251953125,-0.3917868137359619,0.17594337463378906,0.7068243026733398
1711508691632285400,12.505285400390624,-0.21379226446151733,0.07043266296386719,0.6299915313720703
1711508691651245600,12.52424560546875,-0.32349878549575806,-0.626765251159668,0.4444093704223633
1711508691670205700,12.543205810546874,-0.5690792202949524,-0.5215387344360352,0.562126636505127
1711508691689165800,12.562165771484375,-0.7808719873428345,0.3274102210998535,0.36176490783691406
1711508691708126000,12.5811259765625,-1.0773704051971436,0.886260986328125,-0.1508331298828125
1711508691727086000,12.600086181640625,-1.0550949573516846,0.792241096496582,-0.31580686569213867
1711508691746046200,12.619046142578124,-0.5596817135810852,0.3798975944519043,0.016533374786376953
1711508691765006300,12.63800634765625,-0.05123698711395264,0.05719709396362305,0.39226388931274414
1711508691783966500,12.656966552734374,0.23382991552352905,0.43331050872802734,0.49309492111206055
1711508691802926600,12.675926513671875,0.009887337684631348,0.03852128982543945,-1.28410005569458
1711508691821886700,12.69488671875,0.16398119926452637,-0.6160836219787598,-1.4227409362792969
1711508691840846800,12.713846923828125,-0.13445502519607544,-1.0595526695251465,-2.1365551948547363
1711508691859807000,12.732806884765624,-0.5927011966705322,0.8320913314819336,-1.4750785827636719
1711508691878766800,12.751766845703125,-0.5677188634872437,0.5157241821289062,-1.5709614753723145
1711508691897727000,12.77072705078125,0.11194628477096558,-2.5633606910705566,-1.4764251708984375
1711508691916687000,12.78968701171875,0.5906408429145813,-0.8975472450256348,0.6605730056762695
1711508691935647500,12.8086474609375,0.2546263635158539,0.665682315826416,0.7183384895324707
1711508691954607600,12.827607666015625,-0.3136497735977173,1.7850522994995117,-0.9675507545471191
1711508691973567500,12.8465673828125,-0.9353553652763367,-0.003841876983642578,-1.7864775657653809
1711508691992527600,12.865527587890625,-0.19311749935150146,0.34820032119750977,-0.9363722801208496
1711508692011487700,12.88448779296875,0.1879526972770691,1.074666976928711,0.5188393592834473
1711508692030447900,12.90344775390625,0.5492379069328308,0.8548169136047363,-0.02849721908569336
1711508692049408000,12.922407958984374,0.1659422218799591,-0.1397571563720703,-0.1549363136291504
1711508692068368100,12.9413681640625,-0.019327163696289062,-0.2051401138305664,0.4690694808959961
1711508692087328300,12.960328369140624,0.24368922412395477,-0.13304376602172852,0.9866604804992676
1711508692106288400,12.979288330078125,-0.3492096960544586,0.36371469497680664,0.277860164642334
1711508692125248500,12.99824853515625,-0.5546404719352722,0.6560797691345215,0.5324029922485352
1711508692144208600,13.017208740234375,-0.5882477760314941,0.28436708450317383,0.44869136810302734
1711508692163168500,13.03616845703125,0.052108198404312134,0.0080413818359375,0.6440482139587402
1711508692182128600,13.055128662109375,0.21907371282577515,0.07955455780029297,0.8385982513427734
1711508692201088800,13.0740888671875,-0.43653225898742676,1.0253667831420898,0.7921900749206543
1711508692220049000,13.093048828125,-0.17540502548217773,0.7799663543701172,0.5053610801696777
1711508692239009000,13.112009033203124,0.2556111812591553,0.11281919479370117,1.0093088150024414
1711508692257969200,13.13096923828125,-0.07320070266723633,-0.21373796463012695,0.8400073051452637
1711508692276929300,13.14992919921875,-0.993821382522583,0.08044576644897461,0.1678466796875
1711508692295889400,13.168889404296875,-1.3884189128875732,-0.027587890625,-0.7736606597900391
1711508692314849500,13.187849609375,-1.0568616390228271,-0.1917877197265625,-1.0074701309204102
1711508692333809700,13.2068095703125,-0.9899065494537354,-0.22792911529541016,-1.074472427368164
1711508692352769800,13.225769775390624,-1.244056224822998,-0.3594341278076172,-1.185896873474121
1711508692371729700,13.244729736328125,-0.7418639659881592,-0.5134315490722656,-1.0566582679748535
1711508692390689800,13.263689697265624,0.33182525634765625,-0.06924819946289062,-0.032901763916015625
1711508692409650000,13.28264990234375,0.5560345649719238,0.19771957397460938,0.6206870079040527
1711508692428610000,13.301610107421874,0.05750131607055664,0.2922091484069824,0.15097856521606445
1711508692447570200,13.320570068359375,-0.04185771942138672,-0.09990596771240234,-0.09965753555297852
1711508692466530300,13.3395302734375,-0.30358219146728516,-0.6587052345275879,-0.42053842544555664
1711508692485490400,13.358490478515625,-0.6075687408447266,-0.15942859649658203,-1.0032706260681152
1711508692504450600,13.377450439453124,-1.0945470333099365,0.005745887756347656,-1.0864782333374023
1711508692523410700,13.39641064453125,-0.2438058853149414,0.578608512878418,0.5277304649353027
1711508692542370800,13.415370849609374,0.6177177429199219,0.9344096183776855,1.1386666297912598
1711508692561331000,13.4343310546875,0.672238826751709,0.9543676376342773,1.2872724533081055
1711508692580290800,13.453290771484374,0.07608890533447266,0.9274053573608398,0.4527587890625
1711508692599251000,13.4722509765625,-0.13323688507080078,0.3929786682128906,0.39309000968933105
1711508692618211000,13.491211181640624,0.7064170837402344,0.44866180419921875,1.3225560188293457
1711508692637171200,13.510171142578125,0.039671897888183594,0.07131719589233398,1.1014776229858398
1711508692656131300,13.52913134765625,-1.1192622184753418,-0.9739093780517578,-0.6864311695098877
1711508692675091500,13.548091552734375,-1.822122573852539,-2.7017898559570312,-2.2672104835510254
1711508692694051300,13.56705126953125,-1.0625333786010742,-1.6916723251342773,-1.119286060333252
1711508692713011500,13.586011474609375,-0.2435922622680664,0.41689300537109375,0.22067785263061523
1711508692731971600,13.6049716796875,0.27074480056762695,0.5117230415344238,0.08222079277038574
1711508692750931700,13.623931640625,0.9510235786437988,-0.19393253326416016,0.8483693599700928
1711508692769891800,13.642891845703126,0.835176944732666,-1.3326873779296875,1.02374267578125
1711508692788852000,13.66185205078125,-0.3972463607788086,-1.1331233978271484,0.276841402053833
1711508692807812000,13.68081201171875,-0.9545316696166992,-1.3320879936218262,-1.4359830617904663
1711508692826772200,13.699772216796875,-0.5134668350219727,-0.8843059539794922,-0.7101964950561523
1711508692845732400,13.718732421875,-0.3314518928527832,-0.12186431884765625,0.6058416366577148
1711508692864692200,13.737692138671875,0.17975616455078125,0.3726010322570801,0.5844829082489014
1711508692883652400,13.75665234375,-0.023413658142089844,0.08011293411254883,-0.041036367416381836
1711508692902612500,13.775612548828125,-0.5551586151123047,-0.9911017417907715,-1.378706455230713
1711508692921572600,13.794572509765626,0.4151744842529297,-0.904149055480957,0.26084065437316895
1711508692940532700,13.81353271484375,1.2194180488586426,-0.16984033584594727,2.2959916591644287
1711508692959492900,13.832492919921876,0.13608694076538086,-0.6990737915039062,1.8357934951782227
1711508692978452700,13.85145263671875,-1.2058868408203125,-0.618229866027832,-0.5845892429351807
1711508692997412900,13.870412841796876,-0.08842658996582031,0.5734281539916992,-1.5735442638397217
1711508693016373000,13.889373046875,-0.0586695671081543,1.167299747467041,-0.8277156352996826
1711508693035333000,13.9083330078125,-0.05289936065673828,0.33381175994873047,1.1459131240844727
1711508693054293000,13.92729296875,0.3492469787597656,0.010908126831054688,1.509148120880127
1711508693073253000,13.946253173828126,-0.4261174201965332,-0.04470396041870117,-0.0043032169342041016
1711508693092213200,13.965213134765625,-0.4868292808532715,0.533574104309082,-1.4292155504226685
1711508693111173400,13.98417333984375,-0.30706262588500977,0.3105454444885254,-1.3678275346755981
1711508693130133500,14.003133544921875,-0.9731917381286621,0.21605396270751953,-0.6106650829315186
1711508693149093600,14.02209375,0.030540943145751953,0.9371194839477539,0.3273932933807373
1711508693168053800,14.0410537109375,0.7517552375793457,1.2705950736999512,1.234208583831787
1711508693187013600,14.060013671875,0.5706582069396973,0.31658315658569336,0.9909055233001709
1711508693205973800,14.078973876953125,0.0543212890625,-1.3748221397399902,-0.049132585525512695
1711508693224934000,14.097933837890626,0.22184419631958008,-1.7744131088256836,-0.31267309188842773
1711508693243894000,14.11689404296875,0.2877507209777832,-1.5785903930664062,-0.028461217880249023
1711508693262854100,14.135854248046876,-0.5147080421447754,-1.275644302368164,-0.5051877498626709
1711508693281814000,14.15481396484375,-1.2779440879821777,-1.1683259010314941,-0.9276790618896484
1711508693300774100,14.173774169921876,-0.9697966575622559,-0.9476571083068848,-0.7237780094146729
1711508693319734300,14.192734375,-0.31983041763305664,-0.3917360305786133,0.025222301483154297
1711508693338694100,14.211694091796875,-0.23901128768920898,-0.36785888671875,0.057477474212646484
1711508693357654300,14.230654296875,-0.5304813385009766,-0.23095464706420898,-0.1403648853302002
1711508693376614400,14.249614501953126,-0.34635448455810547,0.013593196868896484,-0.022324800491333008
1711508693395574500,14.268574462890625,0.336273193359375,0.2718782424926758,0.49309229850769043
1711508693414534700,14.28753466796875,0.5018982887268066,0.09952926635742188,0.6405823230743408
1711508693433494800,14.306494873046875,0.3216114044189453,0.3443584442138672,0.555452823638916
1711508693452454700,14.32545458984375,0.23743343353271484,0.31562137603759766,0.24211359024047852
1711508693471414800,14.344414794921875,0.11706352233886719,0.05722856521606445,0.02889275550842285
1711508693490374700,14.363374755859375,0.109283447265625,-0.2620110511779785,-0.12799549102783203
1711508693509334800,14.382334716796874,0.41666650772094727,0.23099422454833984,0.2565474510192871
1711508693528295000,14.401294921875,0.5862054824829102,0.43316650390625,0.6143245697021484
1711508693547255000,14.420255126953125,0.5234589576721191,0.3492441177368164,0.6518664360046387
1711508693566215200,14.439215087890625,0.5564465522766113,0.2111673355102539,0.9326457977294922
1711508693585175000,14.458175048828124,0.43894529342651367,0.19922304153442383,0.6685562133789062
1711508693604135200,14.47713525390625,0.5007476806640625,0.30365562438964844,0.43447113037109375
1711508693623095300,14.49609521484375,0.08376789093017578,-0.005336284637451172,0.13088655471801758
1711508693642055400,14.515055419921875,0.07362031936645508,-0.2508988380432129,0.12353181838989258
1711508693661015300,14.534015380859374,0.1356363296508789,-0.20605230331420898,0.19269943237304688
1711508693679975400,14.552975341796875,0.14332866668701172,-0.08320283889770508,0.15937089920043945
1711508693698935600,14.571935546875,-0.08522510528564453,-0.06811046600341797,0.00011348724365234375
1711508693717895400,14.5908955078125,-0.1092061996459961,-0.035172462463378906,-0.07419586181640625
1711508693736855600,14.60985546875,0.19994688034057617,0.17207860946655273,0.3244595527648926
1711508693755815700,14.628815673828125,0.15475225448608398,0.3489375114440918,0.663693904876709
1711508693774775800,14.64777587890625,0.22454166412353516,0.33629655838012695,0.5918087959289551
1711508693793735700,14.666735595703125,0.3641505241394043,0.22878122329711914,0.42680788040161133
1711508693812695800,14.68569580078125,0.2679581642150879,0.2210521697998047,0.4194459915161133
1711508693831656000,14.704656005859375,0.08891677856445312,0.07967758178710938,0.5371179580688477
1711508693850615800,14.72361572265625,-0.24812078475952148,0.09783077239990234,0.24353504180908203
1711508693869576000,14.742575927734375,-0.24638080596923828,0.025898456573486328,0.05849146842956543
1711508693888536000,14.7615361328125,0.16567373275756836,0.017597198486328125,0.06781196594238281
1711508693907496000,14.780495849609375,0.3181900978088379,0.10314512252807617,0.5984313488006592
1711508693926456000,14.7994560546875,-0.06612825393676758,-0.15816879272460938,0.18400049209594727
1711508693945416200,14.818416259765625,-0.4650425910949707,-0.5934243202209473,-0.29934215545654297
1711508693964376300,14.837376220703124,-0.594001293182373,-0.5724482536315918,-0.4595174789428711
1711508693983336200,14.856336181640625,-0.4626345634460449,-0.2556934356689453,-0.20667386054992676
1711508694002296300,14.87529638671875,-0.20762395858764648,-0.03750419616699219,-0.027051687240600586
1711508694021256400,14.89425634765625,-0.3846549987792969,-0.14948081970214844,-0.0491640567779541
1711508694040216300,14.91321630859375,-0.32974672317504883,-0.04148292541503906,-0.041037559509277344
1711508694059176400,14.932176513671875,-0.1904768943786621,-0.13881635665893555,-0.07075858116149902
1711508694078136300,14.95113623046875,-0.11866426467895508,-0.17260313034057617,0.014386892318725586
1711508694097096400,14.970096435546875,-0.22357177734375,-0.13115787506103516,0.04833173751831055
1711508694116056600,14.989056640625,-0.08319520950317383,-0.07684469223022461,-0.07875704765319824
1711508694135016700,15.0080166015625,-0.070068359375,-0.026986122131347656,-0.05436372756958008
1711508694153976600,15.0269765625,-0.044766902923583984,-0.21165847778320312,-0.014864683151245117
1711508694172936700,15.045936767578125,0.28100061416625977,0.10246992111206055,0.4039444923400879
1711508694191896800,15.064896728515626,0.3533787727355957,0.08294963836669922,0.5178258419036865
1711508694210856700,15.083856689453125,0.16975879669189453,0.019252777099609375,0.2536814212799072
1711508694229816800,15.10281689453125,-0.13234758377075195,-0.08547544479370117,-0.006251335144042969
1711508694248777000,15.12177685546875,-0.30050134658813477,-0.3103761672973633,-0.19318842887878418
1711508694267736800,15.14073681640625,0.11352205276489258,-0.15522289276123047,-0.04874420166015625
1711508694286697000,15.159697021484375,0.29564857482910156,0.08880186080932617,0.20885896682739258
1711508694305657000,15.178656982421876,0.005847454071044922,-0.005184650421142578,0.2206592559814453
1711508694324617000,15.197616943359375,-0.14094305038452148,-0.2723550796508789,0.007268428802490234
1711508694343577000,15.2165771484375,-0.14425897598266602,-0.20806312561035156,-0.09477782249450684
1711508694362537000,15.235536865234375,0.017771244049072266,-0.06812047958374023,0.03570556640625
1711508694381497000,15.2544970703125,-0.10256242752075195,-0.06944751739501953,0.14263010025024414
1711508694400457200,15.273457275390625,-0.1638350486755371,-0.2146167755126953,-0.05217385292053223
1711508694419417000,15.2924169921875,-0.008503913879394531,-0.05484962463378906,0.05962038040161133
1711508694438377200,15.311377197265625,-0.0009479522705078125,0.014404773712158203,0.15700483322143555
1711508694457337300,15.33033740234375,-0.05792951583862305,-0.09495973587036133,-0.006604909896850586
1711508694476297200,15.349297119140624,0.0623164176940918,-0.09768152236938477,0.038277387619018555
1711508694495257300,15.36825732421875,0.0493316650390625,-0.0444483757019043,0.2520942687988281
1711508694514217500,15.387217529296874,0.026085853576660156,0.04004478454589844,0.11939501762390137
1711508694533177300,15.40617724609375,-0.036795616149902344,-0.04065990447998047,-0.044579267501831055
1711508694552137500,15.425137451171874,-0.277127742767334,-0.17268705368041992,-0.21764898300170898
1711508694571097600,15.44409765625,-0.6942214965820312,-0.37980175018310547,-0.5221014022827148
1711508694590057500,15.463057373046874,-1.4181938171386719,-0.8617763519287109,-1.12062406539917
1711508694609017600,15.482017578125,-1.9362778663635254,-1.3928132057189941,-1.7468379735946655
1711508694627977500,15.5009775390625,-1.5887174606323242,-1.0501627922058105,-1.7350590229034424
1711508694646937600,15.5199375,-1.3449406623840332,-0.5549936294555664,-1.3152952194213867
1711508694665897500,15.5388974609375,-1.4198241233825684,-0.40512609481811523,-1.4002256393432617
1711508694684857600,15.557857666015625,-1.1321382522583008,-0.4710354804992676,-1.319361686706543
1711508694703817500,15.5768173828125,-0.8769478797912598,-0.4718766212463379,-1.3062734603881836
1711508694722777600,15.595777587890625,-0.8369708061218262,-0.4292316436767578,-1.0515856742858887
1711508694741737700,15.61473779296875,-0.6618506908416748,-0.07233619689941406,-0.7924833297729492
1711508694760697600,15.633697509765625,-0.7757835388183594,0.9693865776062012,-0.9165787696838379
1711508694779657700,15.65265771484375,-0.23798918724060059,0.5731911659240723,-1.1904926300048828
1711508694798617600,15.67161767578125,0.08249187469482422,2.9810590744018555,0.14012908935546875
1711508694817577700,15.69057763671875,0.7066044807434082,1.7786755561828613,-0.6837763786315918
1711508694836537600,15.70953759765625,1.070702314376831,0.9325876235961914,-0.9323930740356445
1711508694855497700,15.728497802734376,0.6206815242767334,0.9283771514892578,-1.9285118579864502
1711508694874457600,15.74745751953125,-0.7796065807342529,2.506070613861084,-2.174344778060913
1711508694893417700,15.766417724609376,-2.392301082611084,3.561537265777588,-2.832486629486084
1711508694912377900,15.7853779296875,-2.1118030548095703,2.8409833908081055,-3.059880018234253
1711508694931337700,15.804337646484376,-2.111518383026123,1.741373062133789,-3.1200547218322754
1711508694950297900,15.8232978515625,-3.055924892425537,1.32562255859375,-1.5691049098968506
1711508694969257700,15.8422578125,-2.8138010501861572,1.9559001922607422,0.7972688674926758
1711508694988217900,15.8612177734375,-3.0824546813964844,2.570298194885254,3.1984894275665283
1711508695007177700,15.880177734375,-2.001204013824463,2.284648895263672,6.302905082702637
1711508695026137900,15.899137939453125,-0.9867416620254517,0.31606483459472656,5.509879112243652
1711508695045097700,15.91809765625,-0.6603381037712097,0.6082439422607422,5.057347774505615
1711508695064057900,15.937057861328125,-0.05749112367630005,0.9117879867553711,4.765721321105957
1711508695083017700,15.956017822265625,0.33919811248779297,0.27105712890625,3.6072816848754883
1711508695101977900,15.974977783203125,0.10202395915985107,0.4424114227294922,2.1628804206848145
1711508695120937700,15.993937744140625,-0.4905862808227539,1.100346565246582,1.3877931833267212
1711508695139897900,16.01289794921875,-0.8209942579269409,0.7711381912231445,1.7989306449890137
1711508695158858000,16.03185791015625,-0.026004791259765625,-0.1345806121826172,1.7666220664978027
1711508695177817900,16.05081787109375,0.8723957538604736,-0.5572662353515625,1.2885584831237793
1711508695196778000,16.069778076171875,0.8421258926391602,-0.5549354553222656,0.40543079376220703
1711508695215737900,16.08873779296875,0.6092278957366943,-0.007838249206542969,-0.5307815074920654
1711508695234698000,16.107697998046874,-1.298598051071167,1.0667648315429688,-1.6280187368392944
1711508695253657900,16.126657958984374,-4.001718997955322,1.3572196960449219,-2.7050907611846924
1711508695272618000,16.145617919921875,-3.5958285331726074,0.8577823638916016,-3.2786803245544434
1711508695291577900,16.164577880859376,-2.434746265411377,0.03716278076171875,-2.5085272789001465
1711508695310538000,16.1835380859375,-1.4013011455535889,-0.5066776275634766,0.4641690254211426
1711508695329497900,16.202497802734374,0.28882431983947754,-0.7929620742797852,3.394765615463257
1711508695348458000,16.2214580078125,1.409867286682129,-0.38272953033447266,4.666051387786865
1711508695367417900,16.24041796875,1.3900508880615234,-0.27092742919921875,3.451972484588623
1711508695386378000,16.2593779296875,0.687636137008667,-0.260772705078125,1.2291820049285889
1711508695405337900,16.278337890625,-0.53375244140625,-0.47879791259765625,-0.645747184753418
1711508695424298000,16.297298095703123,-1.2443645000457764,-0.5481233596801758,-1.7468470335006714
1711508695443258000,16.316258056640624,-1.205287218093872,-0.2860383987426758,-1.4067891836166382
1711508695462218000,16.335218017578125,-0.3621809482574463,-0.14064502716064453,-0.11648547649383545
1711508695481178000,16.35417822265625,0.6944239139556885,-0.08547496795654297,1.0836683511734009
1711508695500138000,16.373137939453127,1.1338205337524414,-0.08032798767089844,1.8397393226623535
1711508695519098000,16.39209814453125,1.0101985931396484,-0.17888164520263672,2.11044979095459
1711508695538058000,16.41105810546875,0.6968457698822021,-0.17540931701660156,2.0822670459747314
1711508695557018000,16.43001806640625,-0.0070989131927490234,-0.03291606903076172,1.4099628925323486
1711508695575978000,16.44897802734375,-0.2284994125366211,0.0037431716918945312,1.1955363750457764
1711508695594938000,16.467938232421876,-0.013780832290649414,-0.2889232635498047,1.1435797214508057
1711508695613898000,16.48689794921875,-0.10223078727722168,-0.37152576446533203,1.1769404411315918
1711508695632858000,16.505858154296874,0.02942514419555664,-0.7325849533081055,1.3715715408325195
1711508695651818000,16.52481787109375,0.1505894660949707,-0.8920164108276367,1.4206602573394775
1711508695670778000,16.543778076171876,-0.3363759517669678,-0.6228160858154297,1.0236296653747559
1711508695689738200,16.56273828125,-1.032015323638916,-0.33634185791015625,0.6903733015060425
1711508695708698000,16.581697998046874,-1.2101174592971802,-0.05188751220703125,0.23823070526123047
1711508695727658200,16.600658203125,-1.1641359329223633,0.10693740844726562,-0.3958621025085449
1711508695746618000,16.6196181640625,-1.0216283798217773,0.18236064910888672,-1.0148192644119263
1711508695765578200,16.638578125,-0.9874598979949951,0.2329273223876953,-1.3604624271392822
1711508695784538000,16.6575380859375,-1.1518443822860718,0.06548309326171875,-1.516981840133667
1711508695803498200,16.676498291015626,-1.2821687459945679,-0.05501556396484375,-1.4319727420806885
1711508695822458000,16.6954580078125,-1.1375850439071655,0.037116050720214844,-1.2993206977844238
1711508695841418200,16.714418212890624,-0.8669551610946655,0.2837381362915039,-1.0459165573120117
1711508695860378000,16.733378173828125,-0.5749748945236206,0.3594188690185547,-0.9761364459991455
1711508695879338200,16.752338134765626,-0.36650407314300537,0.43837451934814453,-1.1494803428649902
1711508695898298000,16.771298095703123,-0.2653195261955261,0.6918535232543945,-1.3649723529815674
1711508695917258200,16.79025830078125,-0.23210150003433228,1.2804183959960938,-1.4585636854171753
1711508695936218000,16.809218017578125,-0.24050110578536987,1.648890495300293,-1.3738179206848145
1711508695955178200,16.82817822265625,-0.11295533180236816,1.4835329055786133,-1.4011893272399902
1711508695974138400,16.847138427734375,0.034390151500701904,1.2204723358154297,-1.4164009094238281
1711508695993098200,16.86609814453125,0.051729559898376465,1.200571060180664,-1.4522409439086914
1711508696012058400,16.885058349609373,-0.4633695185184479,1.2037286758422852,-1.275710105895996
1711508696031018200,16.904018310546874,-0.48705631494522095,1.3219242095947266,-0.8080501556396484
1711508696049978400,16.922978271484375,-0.11025476455688477,1.274484634399414,-0.6678171157836914
1711508696068938500,16.9419384765625,-0.08247964829206467,0.9243202209472656,-0.719017505645752
1711508696087898400,16.9608984375,-0.017391495406627655,0.9081926345825195,-0.2959303855895996
1711508696106858500,16.9798583984375,0.0705527737736702,0.9143228530883789,-0.31322765350341797
1711508696125818400,16.998818359375,-0.2738117277622223,1.1347923278808594,-0.41797780990600586
1711508696144778500,17.017778564453124,-0.45348572731018066,1.3102178573608398,-0.4674217700958252
1711508696163738600,17.036738525390625,-0.5557166337966919,1.2538042068481445,-0.6981964111328125
1711508696182698500,17.055698486328126,-0.5876254439353943,1.0876235961914062,-1.0541815757751465
1711508696201658600,17.07465869140625,-0.7333297729492188,0.9179306030273438,-1.2397913932800293
1711508696220618500,17.093618408203124,-0.8891326189041138,0.6585292816162109,-1.3392797708511353
1711508696239578600,17.11257861328125,-1.002919316291809,0.42636871337890625,-1.4546523094177246
1711508696258538800,17.131538818359374,-1.0804194211959839,0.5589723587036133,-1.1116434335708618
1711508696277498600,17.15049853515625,-1.193505883216858,0.8234977722167969,-0.4444551467895508
1711508696296458800,17.169458740234376,-0.9840915203094482,0.9338579177856445,0.12585926055908203
1711508696315418600,17.188418701171877,-0.5494359135627747,0.6154031753540039,0.13096106052398682
1711508696334378800,17.207378662109374,-0.2065739631652832,0.680389404296875,0.18321716785430908
1711508696353338600,17.226338623046875,-0.06127059459686279,0.76947021484375,-0.0317535400390625
1711508696372298800,17.245298828125,-0.1278829574584961,0.5601959228515625,-0.548363447189331
1711508696391259000,17.2642587890625,-0.5776824951171875,0.4112052917480469,-0.7685115337371826
1711508696410218800,17.28321875,-0.9459848403930664,0.046820640563964844,-0.776423454284668
1711508696429179000,17.302178955078126,-1.242032527923584,-0.46849536895751953,-0.8503544330596924
1711508696448139000,17.321138916015624,-1.3396958112716675,-0.8199405670166016,-0.516523003578186
1711508696467099000,17.340098876953125,-1.301173210144043,-1.0102005004882812,0.06503176689147949
1711508696486059000,17.35905908203125,-0.9011580944061279,-0.8881978988647461,0.42839550971984863
1711508696505019000,17.378018798828126,-0.8106236457824707,-0.9906082153320312,0.7700965404510498
1711508696523979000,17.39697900390625,-0.45119452476501465,-1.4022197723388672,0.646160364151001
1711508696542939100,17.415939208984376,-0.36968278884887695,-1.4443740844726562,0.5999317169189453
1711508696561899000,17.43489892578125,-0.38170957565307617,-1.4613265991210938,0.26900386810302734
1711508696580859100,17.453859130859374,-0.22952914237976074,-1.5353927612304688,0.36907386779785156
1711508696599819300,17.4728193359375,0.18662166595458984,-1.6511187553405762,0.27049779891967773
1711508696618779100,17.491779052734376,0.5877962112426758,-1.072763442993164,0.42682695388793945
1711508696637739300,17.5107392578125,1.0691630840301514,-0.21320819854736328,1.0325589179992676
1711508696656699100,17.52969921875,1.2678563594818115,0.5939393043518066,1.512557029724121
1711508696675659300,17.5486591796875,1.2640949487686157,0.8771705627441406,1.9382696151733398
1711508696694619400,17.567619384765624,1.3238497972488403,0.2252187728881836,2.009476661682129
1711508696713579300,17.586579345703125,1.1786272525787354,-0.4381132125854492,1.3649277687072754
1711508696732539400,17.605539306640626,0.7490200996398926,-0.5566315650939941,1.068220615386963
1711508696751499500,17.62449951171875,0.0559840202331543,-0.5216865539550781,0.8309340476989746
1711508696770459400,17.64345947265625,-0.427051305770874,-0.602867603302002,0.42190027236938477
1711508696789419500,17.66241943359375,-0.7458325028419495,-0.965507984161377,0.0634164810180664
1711508696808379400,17.68137939453125,-0.5529748201370239,-1.4102725982666016,0.23323583602905273
1711508696827339500,17.700339599609375,-0.024674618616700172,-1.206629753112793,0.7859330177307129
1711508696846299600,17.719299560546876,0.5290439128875732,-0.41422033309936523,1.5236868858337402
1711508696865259500,17.738259521484373,0.9077597856521606,-0.05212736129760742,1.6705036163330078
1711508696884219600,17.7572197265625,1.0986155271530151,-0.04419136047363281,1.6754522323608398
1711508696903179800,17.7761796875,1.1700490713119507,0.15215063095092773,1.3039140701293945
1711508696922139600,17.7951396484375,0.9752634763717651,0.3792576789855957,0.9563131332397461
1711508696941099800,17.814099853515625,0.6178156137466431,0.5474481582641602,0.337371826171875
1711508696960060000,17.833059814453126,0.14734387397766113,0.5133328437805176,-0.15528011322021484
1711508696979019800,17.852019775390627,-0.19887232780456543,0.3442521095275879,-1.0606708526611328
1711508696997980000,17.87097998046875,-0.2846353054046631,0.3438832759857178,-1.599255084991455
1711508697016939800,17.889939697265625,-0.25619256496429443,0.32027602195739746,-1.5630426406860352
1711508697035900000,17.90889990234375,0.04528343677520752,0.43283581733703613,-1.2485122680664062
1711508697054860000,17.927860107421875,0.5911291837692261,0.8715057373046875,-0.6628217697143555
1711508697073820000,17.94681982421875,1.0211517810821533,0.945300817489624,0.13635635375976562
1711508697092780000,17.965780029296877,1.7336525917053223,0.6373684406280518,1.0268964767456055
1711508697111740000,17.984739990234374,2.2314846515655518,-0.3957812786102295,1.0756282806396484
1711508697130700000,18.003699951171875,1.8017325401306152,-1.442992925643921,0.2624635696411133
1711508697149660200,18.02266015625,0.8650331497192383,-0.8489687442779541,-0.704554557800293
1711508697168620000,18.0416201171875,0.03384256362915039,0.5432250499725342,-0.5684146881103516
1711508697187580200,18.060580078125,0.00031363964080810547,1.175417184829712,0.6274480819702148
1711508697206540300,18.079540283203126,0.38500726222991943,0.6479489803314209,1.25250244140625
1711508697225500200,18.098500244140624,1.103329062461853,-0.13726115226745605,1.7180747985839844
1711508697244460300,18.117460205078125,1.594614028930664,-0.6303974390029907,2.0357398986816406
1711508697263420400,18.13642041015625,1.272708535194397,-0.6077018976211548,1.5589590072631836
1711508697282380300,18.15538037109375,0.3405085802078247,-0.021546602249145508,0.5877199172973633
1711508697301340400,18.17434033203125,-0.6579114198684692,0.250141978263855,-0.5458526611328125
1711508697320300300,18.19330029296875,-0.7437689304351807,0.08246469497680664,-1.8536710739135742
1711508697339260400,18.212260498046874,-1.1919277906417847,-0.3598766326904297,-3.2011818885803223
1711508697358220300,18.23122021484375,-1.3122769594192505,-0.5139131546020508,-3.204275131225586
1711508697377180400,18.250180419921875,-0.8349668979644775,-0.2697904109954834,-2.3386030197143555
1711508697396140500,18.269140625,-0.39218878746032715,0.07605457305908203,-1.6019115447998047
1711508697415100400,18.288100341796873,0.031161904335021973,0.3568298816680908,-0.6283941268920898
1711508697434060500,18.307060546875,0.5705456733703613,0.4250677824020386,0.41901493072509766
1711508697453020400,18.3260205078125,1.0725693702697754,0.16337978839874268,0.8997631072998047
1711508697471980500,18.34498046875,1.2393687963485718,-0.1426088809967041,0.7815694808959961
1711508697490940700,18.363940673828125,0.6791826486587524,0.07958126068115234,0.6200447082519531
1711508697509900500,18.382900634765626,-0.019936084747314453,0.4718747138977051,0.38698291778564453
1711508697528860700,18.401860595703123,-0.6482416391372681,0.5752689838409424,0.14830875396728516
1711508697547820800,18.42082080078125,-1.009084939956665,0.5448191165924072,0.27435302734375
1711508697566780700,18.43978076171875,-1.8834762573242188,0.5659701824188232,0.38113975524902344
1711508697585740800,18.45874072265625,-1.5786242485046387,0.25399208068847656,-0.43470191955566406
1711508697604700700,18.47770068359375,-0.8419456481933594,0.3506810665130615,-0.7850418090820312
1711508697623660800,18.496660888671876,-0.17160046100616455,0.9590411186218262,-0.9073209762573242
1711508697642621000,18.515620849609373,0.4010889530181885,1.4482526779174805,-0.4004373550415039
1711508697661580800,18.534580810546874,0.22956740856170654,1.6495437622070312,0.1937847137451172
1711508697680541000,18.553541015625,0.14678716659545898,1.7317054271697998,0.529240608215332
1711508697699500800,18.572500732421876,0.002238631248474121,1.6841416358947754,0.8611917495727539
1711508697718461000,18.5914609375,0.020968198776245117,1.4371757507324219,1.3443994522094727
1711508697737420800,18.6104208984375,0.09918320178985596,1.0564732551574707,1.1679019927978516
1711508697756381000,18.629380859375,0.48983240127563477,0.6268260478973389,0.705021858215332
1711508697775340800,18.6483408203125,0.05899620056152344,0.22360610961914062,-0.09931564331054688
1711508697794301000,18.667301025390625,-0.5578955411911011,0.08739137649536133,-0.9436655044555664
1711508697813261000,18.686260986328126,-1.2135499715805054,0.37146568298339844,-1.1865110397338867
1711508697832221000,18.705220947265627,-1.3652336597442627,0.942711591720581,-1.0822553634643555
1711508697851181000,18.72418115234375,-1.0258784294128418,1.236400842666626,-0.9119749069213867
1711508697870141000,18.743140869140625,-0.6146817803382874,1.0506677627563477,-0.8842592239379883
1711508697889101000,18.76210107421875,-0.5237869024276733,0.6543171405792236,-1.2431583404541016
1711508697908061200,18.781061279296875,-0.7809365391731262,0.27112388610839844,-1.6521110534667969
1711508697927021000,18.80002099609375,-0.9189122915267944,0.19169926643371582,-1.0764083862304688
1711508697945981200,18.818981201171876,-0.6589822769165039,0.6528522968292236,-0.07059383392333984
1711508697964941000,18.837941162109374,-0.18763554096221924,0.8809618949890137,0.7029170989990234
1711508697983901200,18.856901123046875,-0.22787249088287354,0.44780683517456055,1.00946044921875
1711508698002861000,18.875861083984375,-0.1489328145980835,-0.21276521682739258,0.8133077621459961
1711508698021821200,18.8948212890625,0.31361091136932373,-0.2451615333557129,0.18659210205078125
1711508698040781300,18.91378125,0.72513347864151,0.15718531608581543,-0.2658662796020508
1711508698059741200,18.9327412109375,0.8867072463035583,0.5249414443969727,0.017215728759765625
1711508698078701300,18.951701416015624,1.0825992822647095,0.7683577537536621,0.6521120071411133
1711508698097661200,18.9706611328125,1.5478122234344482,0.9667558670043945,1.202103614807129
1711508698116621300,18.989621337890625,2.272613048553467,0.4673004150390625,0.9653778076171875
1711508698135581200,19.008581298828126,2.009721040725708,-0.27303600311279297,0.3914604187011719
1711508698154541300,19.027541259765623,1.3322007656097412,-0.33166027069091797,0.3364410400390625
1711508698173501400,19.04650146484375,0.8569664359092712,0.22371268272399902,0.3595542907714844
1711508698192461300,19.06546142578125,0.5204393863677979,0.1672501564025879,-0.10484981536865234
1711508698211421400,19.08442138671875,-0.048692524433135986,-0.3203713893890381,-1.1271820068359375
1711508698230381300,19.10338134765625,-0.4276995062828064,-0.7459399700164795,-1.3066082000732422
1711508698249341400,19.122341552734376,-0.4678574204444885,-0.7584428787231445,-1.1311516761779785
1711508698268301300,19.14130126953125,-0.5456863045692444,-0.49473071098327637,-0.9042844772338867
1711508698287261400,19.160261474609374,-0.43346107006073,-0.16221094131469727,-0.594904899597168
1711508698306221300,19.17922119140625,-0.30789923667907715,-0.16526412963867188,-0.19044780731201172
1711508698325181400,19.198181396484376,-0.4309946298599243,-0.26848888397216797,0.42356395721435547
1711508698344141300,19.217141357421873,-0.4328593611717224,-0.4598829746246338,0.9890584945678711
1711508698363101400,19.236101318359374,-0.28256726264953613,-0.7365124225616455,1.1542434692382812
1711508698382061300,19.255061279296875,-0.24999070167541504,-0.7216587066650391,1.1495189666748047
1711508698401021400,19.274021484375,-0.28376972675323486,-0.39663267135620117,1.1756772994995117
1711508698419981300,19.292981201171877,-0.19312024116516113,-0.10180926322937012,1.098557472229004
1711508698438941400,19.31194140625,-0.07819747924804688,-0.1843578815460205,0.9733219146728516
1711508698457901300,19.3309013671875,0.17522704601287842,-0.3148481845855713,1.000375747680664
1711508698476861400,19.349861328125,0.15786337852478027,-0.28228759765625,0.9785757064819336
1711508698495821300,19.3688212890625,-0.15594804286956787,-0.09385013580322266,0.8030796051025391
1711508698514781400,19.387781494140626,-0.5810385942459106,0.0602717399597168,0.6825685501098633
1711508698533741600,19.406741455078127,-0.8218977451324463,-0.037518978118896484,0.45272064208984375
1711508698552701400,19.425701416015624,-0.7559490203857422,-0.14395403861999512,0.5555343627929688
1711508698571661300,19.444661376953125,-0.573001503944397,0.010500431060791016,0.5809535980224609
1711508698590621400,19.463621337890626,-0.3602020740509033,-0.0880734920501709,0.4723796844482422
1711508698609581300,19.482581298828126,-0.015287280082702637,-0.050650596618652344,-0.2464618682861328
1711508698628541400,19.50154150390625,-0.011202096939086914,-0.22084856033325195,-1.1886653900146484
1711508698647501300,19.520501220703125,-0.05084872245788574,0.2200024127960205,-1.314453125
1711508698666461400,19.53946142578125,0.08587098121643066,0.7687530517578125,-0.6301870346069336
1711508698685421300,19.55842138671875,0.6667585372924805,0.9190361499786377,-0.4480152130126953
1711508698704381400,19.57738134765625,1.6448330879211426,0.7301363945007324,-0.5422697067260742
1711508698723341300,19.59634130859375,2.3736977577209473,0.5489776134490967,-0.1084604263305664
1711508698742301400,19.615301513671874,2.3284194469451904,0.28811049461364746,0.5248403549194336
1711508698761261300,19.63426123046875,1.8170390129089355,-0.24847102165222168,1.058858871459961
1711508698780221400,19.653221435546875,0.618500828742981,-0.03410196304321289,0.7854042053222656
1711508698799181300,19.672181396484376,-0.4594982862472534,0.5384352207183838,0.1758251190185547
1711508698818141400,19.691141357421873,-0.76642906665802,0.6451270580291748,-0.07402515411376953
1711508698837101300,19.710101318359374,-0.23637175559997559,0.11253094673156738,-0.9511632919311523
1711508698856061400,19.7290615234375,0.2654404640197754,0.024826526641845703,-1.548177719116211
1711508698875021300,19.748021240234376,1.1797831058502197,0.26702022552490234,-0.7152976989746094
1711508698893981400,19.7669814453125,1.9027477502822876,0.1647024154663086,0.053508758544921875
1711508698912941300,19.78594140625,1.7397747039794922,-0.32325565814971924,0.7628288269042969
1711508698931901200,19.804901123046875,0.9008870720863342,-0.9452564716339111,1.519270896911621
1711508698950861300,19.823861328125,-0.06069684028625488,-1.576288104057312,2.242565155029297
1711508698969821200,19.8428212890625,-0.7315996885299683,-1.3329170942306519,2.932766914367676
1711508698988781300,19.86178125,-3.1184911727905273,-0.7085921764373779,2.2199039459228516
1711508699007741200,19.8807412109375,-3.770047187805176,-0.8380903601646423,0.4844827651977539
1711508699026701300,19.899701416015624,-4.260481357574463,-0.2229825258255005,-1.4538822174072266
1711508699045661200,19.9186611328125,-1.9654455184936523,1.9730198383331299,-4.082362174987793
1711508699064621000,19.93762109375,-1.5251290798187256,2.357116937637329,-4.740335464477539
1711508699083581200,19.956581298828127,-0.9729658961296082,0.6364645957946777,-3.2201738357543945
1711508699102541000,19.975541015625,-0.12145733833312988,-0.2394493818283081,-0.9762554168701172
1711508699121501200,19.994501220703125,0.16247200965881348,-0.014210700988769531,1.1906166076660156
1711508699140461000,20.0134609375,-0.07273149490356445,0.19165277481079102,2.330876350402832
1711508699159421200,20.032421142578126,-0.09332132339477539,0.6083893775939941,1.393045425415039
1711508699178381000,20.051381103515624,0.544102668762207,0.8737325668334961,0.290985107421875
1711508699197341000,20.0703408203125,0.9909142255783081,0.876863956451416,-0.22745800018310547
1711508699216301000,20.089301025390625,1.752211570739746,1.4448857307434082,0.7677297592163086
1711508699235261000,20.108260986328126,2.4080567359924316,1.0801920890808105,2.078680992126465
1711508699254221000,20.127220947265624,2.293797492980957,0.26841115951538086,2.3607044219970703
1711508699273181000,20.146180908203124,1.8390142917633057,0.011141777038574219,1.493194580078125
1711508699292140800,20.165140869140625,1.2387553453445435,-0.06030702590942383,0.43941593170166016
1711508699311101000,20.184100830078126,0.40688908100128174,-0.36360692977905273,0.008994102478027344
1711508699330060800,20.203060791015623,-0.23629391193389893,-0.5818102359771729,-0.2708444595336914
1711508699349021000,20.22202099609375,-0.7631819248199463,-0.9026951789855957,-0.41971874237060547
1711508699367980800,20.240980712890625,-0.5907394886016846,-0.7820301055908203,-0.4796895980834961
1711508699386941000,20.25994091796875,-0.30255258083343506,-0.39481210708618164,-0.18710613250732422
1711508699405900800,20.27890087890625,0.5795370936393738,-0.269744873046875,-0.047718048095703125
1711508699424861000,20.29786083984375,0.7563983798027039,-0.10703957080841064,-0.5137825012207031
1711508699443820800,20.31682080078125,0.49784815311431885,-0.02802419662475586,0.1033945083618164
1711508699462780700,20.33578076171875,-0.03220057487487793,0.35275495052337646,0.3886432647705078
1711508699481740800,20.35474072265625,0.23393535614013672,0.7630858421325684,-0.02553272247314453
1711508699500700700,20.37370068359375,0.8522398471832275,0.6436264514923096,-0.5369796752929688
1711508699519660500,20.39266064453125,0.5923817157745361,0.382839560508728,-0.4559965133666992
1711508699538620700,20.41162060546875,0.2669406533241272,0.4176098108291626,-0.43230628967285156
1711508699557580500,20.43058056640625,0.14667224884033203,0.1623474359512329,-0.5014886856079102
1711508699576540400,20.44954052734375,0.11476749181747437,-0.32515621185302734,-0.31153392791748047
1711508699595500500,20.46850048828125,-0.18017655611038208,-0.5684038400650024,0.032032012939453125
1711508699614460400,20.48746044921875,-0.7079858779907227,-0.28575098514556885,0.28339576721191406
1711508699633420300,20.506420166015626,-0.717002272605896,0.09243595600128174,0.6829128265380859
1711508699652380400,20.52538037109375,0.0962991714477539,0.22592473030090332,0.6674041748046875
1711508699671340300,20.54434033203125,0.19199812412261963,0.29780113697052,0.41773223876953125
1711508699690300400,20.563300537109374,-0.2757229208946228,0.2503242492675781,0.04743385314941406
1711508699709260300,20.58226025390625,-0.4294799566268921,-0.09649491310119629,-0.516413688659668
1711508699728220400,20.601220458984375,-0.566668689250946,-0.1899418830871582,-0.8243408203125
1711508699747180300,20.62018017578125,-1.0375268459320068,-0.2884331941604614,-0.4153318405151367
1711508699766140200,20.63914013671875,-1.8417718410491943,-0.4465961456298828,0.33780384063720703
1711508699785100300,20.658100341796874,-1.651252269744873,-0.512902021408081,0.5902652740478516
1711508699804060200,20.67706005859375,-1.337487816810608,-1.024617314338684,0.8114042282104492
1711508699823020000,20.69602001953125,-1.8249919414520264,-1.1341009140014648,0.8684501647949219
1711508699841980200,20.714980224609373,-1.6381783485412598,-0.8021255731582642,0.43427276611328125
1711508699860940000,20.73393994140625,-0.6385608315467834,0.061376094818115234,-0.41621971130371094
1711508699879900000,20.75289990234375,-0.15838369727134705,0.6751348972320557,-0.2700471878051758
1711508699898859800,20.77185986328125,0.4433741569519043,1.0368311405181885,-0.32234764099121094
1711508699917820000,20.79081982421875,0.8469229936599731,0.9512743949890137,-0.4165058135986328
1711508699936779800,20.80977978515625,1.2000871896743774,0.438676118850708,-0.7409038543701172
1711508699955740000,20.828739990234375,0.685995876789093,0.12702131271362305,-0.27361488342285156
1711508699974699800,20.84769970703125,0.09572361409664154,0.07452106475830078,0.2460346221923828
1711508699993659600,20.86665966796875,-0.6597098112106323,-0.07713079452514648,0.4290046691894531
1711508700012619800,20.885619873046874,-0.8263929486274719,-0.31577014923095703,0.5053005218505859
1711508700031579600,20.90457958984375,-0.816803514957428,0.27849388122558594,0.1388568878173828
1711508700050539500,20.92353955078125,-0.3692077398300171,0.7221622467041016,0.02916717529296875
1711508700069499600,20.942499755859377,0.13020896911621094,0.5885086059570312,-0.734705924987793
1711508700088459500,20.96145947265625,-0.11382043361663818,0.5996038913726807,-1.6295208930969238
1711508700107419400,20.98041943359375,-0.6215003728866577,0.7937252521514893,-2.0485572814941406
1711508700126379300,20.999379150390624,-0.4594074487686157,0.48095250129699707,-2.0881714820861816
1711508700145339400,21.01833935546875,-0.46942663192749023,-0.2463381290435791,-1.3057737350463867
1711508700164299300,21.03729931640625,-0.6996178030967712,-0.44332361221313477,-0.7068271636962891
1711508700183259100,21.056259033203126,-0.729621171951294,-0.19029688835144043,-0.4862689971923828
1711508700202219300,21.07521923828125,-0.5643981695175171,0.26078104972839355,-0.2800159454345703
1711508700221179100,21.09417919921875,-0.08735859394073486,0.19794297218322754,-0.28685760498046875
1711508700240139300,21.11313916015625,0.014479517936706543,-0.7738983631134033,-0.38437461853027344
1711508700259099100,21.13209912109375,-0.20076262950897217,-1.6944291591644287,0.3445463180541992
1711508700278059000,21.15105908203125,-1.1048208475112915,-2.432675361633301,1.1151952743530273
1711508700297019000,21.170018798828124,-0.26798951625823975,-2.4022536277770996,0.5369548797607422
1711508700315979000,21.18897900390625,0.4854578971862793,-1.5876288414001465,-0.6547918319702148
1711508700334939000,21.20793896484375,-0.37848663330078125,-0.38864898681640625,-1.1973228454589844
1711508700353898800,21.226898681640623,-0.9833741188049316,-0.24441766738891602,-1.188547134399414
1711508700372859000,21.24585888671875,-1.1459757089614868,-0.7856998443603516,-0.7045917510986328
1711508700391818800,21.26481884765625,-1.036359429359436,-0.6048431396484375,0.28015804290771484
1711508700410778600,21.283778564453126,-0.6223263740539551,-0.33970069885253906,1.8324079513549805
1711508700429738800,21.30273876953125,0.00841379165649414,-1.0068120956420898,1.5423355102539062
1711508700448698600,21.32169873046875,-0.17291808128356934,-0.7092187404632568,1.4920597076416016
1711508700467658500,21.340658447265625,-0.25078463554382324,-0.15311574935913086,1.2661075592041016
1711508700486618600,21.35961865234375,0.6490368843078613,-0.6596982479095459,0.8209018707275391
1711508700505578500,21.37857861328125,0.0665132999420166,-0.7033138275146484,0.9903545379638672
1711508700524538400,21.397538330078124,0.18578362464904785,-0.403397798538208,0.5993404388427734
1711508700543498500,21.41649853515625,0.7100057601928711,-0.7322051525115967,-0.14158916473388672
1711508700562458400,21.435458251953126,0.47324395179748535,-0.9777723550796509,-0.2997159957885742
1711508700581418200,21.454418212890626,0.0724329948425293,-0.5540422201156616,-0.14466571807861328
1711508700600378400,21.47337841796875,-0.6889922618865967,0.10593032836914062,0.02355194091796875
1711508700619338200,21.492338134765625,-0.8058671951293945,0.6759923696517944,0.41287994384765625
1711508700638298000,21.511298095703125,-0.0664224624633789,0.7818148136138916,0.579258918762207
1711508700657258200,21.53025830078125,0.4452357292175293,0.620668888092041,0.6104564666748047
1711508700676218000,21.549218017578124,0.9595556259155273,0.5778007507324219,0.7348594665527344
1711508700695178200,21.56817822265625,0.9798445701599121,1.5115346908569336,0.7609882354736328
1711508700714138000,21.58713818359375,1.0669832229614258,2.120225429534912,1.9314546585083008
1711508700733098000,21.606097900390626,1.6930162906646729,0.9903664588928223,2.2565813064575195
1711508700752058000,21.62505810546875,2.018531322479248,-0.12901830673217773,1.1189203262329102
1711508700771018000,21.64401806640625,1.6578278541564941,0.10764074325561523,0.2130298614501953
1711508700789977900,21.662977783203125,0.8022620677947998,0.5950229167938232,0.4803438186645508
1711508700808937700,21.681937744140626,0.24006295204162598,0.8371827602386475,0.7054910659790039
1711508700827897900,21.70089794921875,0.023728609085083008,0.8363158702850342,0.23572731018066406
1711508700846857700,21.719857666015624,0.13011932373046875,0.8592288494110107,0.08572864532470703
1711508700865817600,21.738817626953125,0.3086874485015869,0.5284245014190674,-0.30867481231689453
1711508700884777700,21.75777783203125,0.2200162410736084,0.3332970142364502,-0.29435253143310547
1711508700903737600,21.776737548828127,-0.3394817113876343,0.24355149269104004,-0.31160640716552734
1711508700922697700,21.79569775390625,-0.5189197063446045,0.3048579692840576,0.04945182800292969
1711508700941657600,21.81465771484375,-0.1242990493774414,0.40790343284606934,0.041398048400878906
1711508700960617500,21.833617431640626,0.1160128116607666,0.27219319343566895,0.08836078643798828
1711508700979577600,21.85257763671875,0.13924312591552734,0.39085865020751953,0.2071523666381836
1711508700998537500,21.871537353515624,0.27809035778045654,0.51277756690979,-0.0653524398803711
1711508701017497600,21.89049755859375,0.35936295986175537,0.43497252464294434,0.10065364837646484
1711508701036457500,21.90945751953125,0.24035048484802246,0.516507625579834,0.1025543212890625
1711508701055417300,21.928417236328126,0.14776313304901123,1.0208444595336914,0.34944629669189453
1711508701074377500,21.94737744140625,0.45098769664764404,0.6495928764343262,0.6627607345581055
1711508701093337300,21.96633740234375,0.8136653900146484,0.09574222564697266,0.06104278564453125
1711508701112297500,21.98529736328125,0.31878507137298584,0.33893823623657227,-0.3363056182861328
1711508701131257300,22.00425732421875,-0.15504240989685059,0.20640993118286133,-0.017801284790039062
1711508701150217200,22.02321728515625,0.00871729850769043,-0.04444384574890137,-0.014769554138183594
1711508701169177300,22.04217724609375,0.2442387342453003,0.005003690719604492,-0.1322154998779297
1711508701188137200,22.06113720703125,0.17490851879119873,-0.15246224403381348,-0.705378532409668
1711508701207097000,22.08009716796875,-0.19972848892211914,-0.4844484329223633,-0.9507932662963867
1711508701226057200,22.09905712890625,-0.29585719108581543,-0.27848243713378906,-0.9200859069824219
1711508701245017000,22.11801708984375,-0.16305315494537354,-0.3681936264038086,-0.677696704864502
1711508701263977200,22.136977294921873,0.298970103263855,-0.8667216300964355,-0.5030851364135742
1711508701282937000,22.15593701171875,0.4349691867828369,0.27704954147338867,0.6454067230224609
1711508701301897000,22.17489697265625,-0.028988003730773926,1.3946843147277832,1.2543916702270508
1711508701320857000,22.193857177734376,0.8765571117401123,1.0939264297485352,1.5108833312988281
1711508701339817000,22.21281689453125,1.0941519737243652,1.5427417755126953,1.8159208297729492
1711508701358777000,22.231777099609374,1.145484209060669,1.6195740699768066,1.0580759048461914
1711508701377737000,22.250737060546875,1.148585557937622,0.38794851303100586,0.43616485595703125
1711508701396697000,22.269697021484376,1.3796662092208862,-0.20893096923828125,0.10054206848144531
1711508701415657000,22.288656982421877,1.5740025043487549,-0.12450265884399414,0.2991600036621094
1711508701434617000,22.3076171875,1.0854352712631226,0.1443800926208496,0.6663651466369629
1711508701453577000,22.326576904296875,1.337120532989502,-0.22284698486328125,0.8612575531005859
1711508701472537000,22.345537109375,1.5487109422683716,-0.6143608093261719,0.6379451751708984
1711508701491497000,22.3644970703125,0.9233349561691284,-0.6428165435791016,0.30395030975341797
1711508701510457000,22.38345703125,0.718697190284729,-0.8034868240356445,0.21084928512573242
1711508701529417000,22.4024169921875,0.3761312961578369,-0.47248125076293945,0.5549302101135254
1711508701548376800,22.421376953125,0.2161647081375122,-0.30184507369995117,0.7834224700927734
1711508701567337000,22.4403369140625,0.16715478897094727,-1.357363224029541,0.11813688278198242
1711508701586296800,22.459296875,0.12820196151733398,-2.536637306213379,-0.44969606399536133
1711508701605257000,22.478257080078127,-0.5298149585723877,-2.5065455436706543,-0.20700407028198242
1711508701624216800,22.497216796875,0.7055702209472656,-1.710024356842041,0.6375360488891602
1711508701643177000,22.516177001953125,0.754016637802124,-0.12095928192138672,0.8911137580871582
1711508701662136800,22.53513671875,0.35945606231689453,0.537590503692627,0.0028295516967773438
1711508701681097000,22.554096923828126,0.14807653427124023,0.4687643051147461,-0.7184257507324219
1711508701700056800,22.573056884765624,0.8727822303771973,0.5801777839660645,0.16295194625854492
1711508701719017000,22.592016845703125,1.428987979888916,-0.29518985748291016,0.33777523040771484
1711508701737976800,22.610976806640625,1.0396513938903809,-0.5103559494018555,-0.3874993324279785
1711508701756936700,22.629936767578126,0.6528522968292236,-0.4877290725708008,-0.7953643798828125
1711508701775896800,22.648896728515624,0.7122330665588379,-0.18857669830322266,-0.4058394432067871
1711508701794856700,22.667856689453124,1.2101244926452637,-0.21159076690673828,-0.14611101150512695
1711508701813816800,22.68681689453125,0.554966926574707,-0.6607952117919922,-0.6175470352172852
1711508701832776700,22.705776611328126,0.243668794631958,-0.9803466796875,-0.7594194412231445
1711508701851736800,22.72473681640625,0.3869044780731201,-0.8064475059509277,-0.6371326446533203
1711508701870696700,22.74369677734375,0.7625818252563477,-0.677269458770752,-0.2965054512023926
1711508701889656800,22.76265673828125,0.49335241317749023,-0.8395137786865234,-0.06766843795776367
1711508701908616700,22.78161669921875,-0.49886631965637207,-0.5368719100952148,-0.38135719299316406
1711508701927576800,22.800576904296875,-1.9414913654327393,0.12592315673828125,-0.9896178245544434
1711508701946536700,22.81953662109375,-1.674311876296997,0.4273037910461426,-1.7210259437561035
1711508701965496800,22.838496826171873,-1.1525273323059082,0.9118471145629883,-0.850407600402832
1711508701984456700,22.857456787109374,-0.6424028873443604,0.2843055725097656,-0.02247333526611328
1711508702003416600,22.87641650390625,0.02853083610534668,-0.8542923927307129,0.36005115509033203
1711508702022376700,22.895376708984376,0.20886564254760742,-1.3095955848693848,-0.06601381301879883
1711508702041336600,22.914336669921877,1.486137866973877,-1.070671558380127,0.608799934387207
1711508702060296700,22.933296630859374,1.6376514434814453,-0.0570068359375,1.2462916374206543
1711508702079256600,22.952256591796875,0.8616244792938232,0.09043359756469727,0.780726432800293
1711508702098216700,22.971216796875,0.8312849998474121,0.8655357360839844,-0.1033792495727539
1711508702117176600,22.990176513671877,-0.5176587104797363,0.8599987030029297,-0.7111763954162598
1711508702136136700,23.00913671875,-0.8552732467651367,0.6100687980651855,-0.8548450469970703
1711508702155096600,23.0280966796875,-1.258386492729187,0.05992555618286133,-0.9503722190856934
1711508702174056700,23.047056640625,-1.2305245399475098,-0.1096658706665039,-0.5982322692871094
1711508702193016600,23.0660166015625,-1.0823866128921509,-0.4771242141723633,-0.3674197196960449
1711508702211976700,23.084976806640626,-0.40029454231262207,-0.4491386413574219,0.19291162490844727
1711508702230936600,23.1039365234375,-0.3239877223968506,-0.33483076095581055,0.2566514015197754
1711508702249896700,23.122896728515624,-0.4669814109802246,-0.2687568664550781,0.13309240341186523
1711508702268856600,23.141856689453125,-0.44563615322113037,0.018907546997070312,0.16062593460083008
1711508702287816400,23.16081640625,-0.3303706645965576,0.45023345947265625,0.5261611938476562
1711508702306776600,23.179776611328126,0.0488123893737793,0.5997352600097656,0.40968942642211914
1711508702325736400,23.198736328125,0.18578052520751953,0.561100959777832,0.20008039474487305
1711508702344696600,23.217696533203124,0.271730899810791,0.6033587455749512,0.4383668899536133
1711508702363656400,23.236656494140625,0.47873640060424805,0.6487774848937988,0.306732177734375
1711508702382616600,23.255616455078126,0.5129826068878174,0.30365705490112305,0.15137910842895508
1711508702401576400,23.274576416015623,0.7657632827758789,0.12007331848144531,-0.10369443893432617
1711508702420536600,23.29353662109375,0.7060985565185547,0.27338695526123047,-0.07610845565795898
1711508702439496400,23.312496337890625,0.6579501628875732,0.5687999725341797,0.6204185485839844
1711508702458456600,23.33145654296875,0.9795308113098145,-0.03198671340942383,0.17462635040283203
1711508702477416400,23.35041650390625,1.0708680152893066,-0.6070351600646973,-0.21710443496704102
1711508702496376300,23.369376220703124,0.8091590404510498,-0.7404422760009766,-0.12323427200317383
1711508702515336400,23.38833642578125,0.6206619739532471,-0.32726573944091797,0.12751436233520508
1711508702534296300,23.40729638671875,0.5967223644256592,0.06573009490966797,0.4256424903869629
1711508702553256400,23.42625634765625,0.7624168395996094,-0.0539703369140625,0.25318098068237305
1711508702572216300,23.44521630859375,0.8118975162506104,-0.04123973846435547,-0.0560603141784668
1711508702591176400,23.464176513671877,0.4531385898590088,0.23453569412231445,-0.27072620391845703
1711508702610136300,23.48313623046875,0.32910871505737305,-0.1652851104736328,-0.8267087936401367
1711508702629096400,23.502096435546875,0.2602884769439697,-0.40343284606933594,-0.854522705078125
1711508702648056300,23.521056396484376,0.11196446418762207,0.02155923843383789,-0.5825700759887695
1711508702667016400,23.540016357421877,-0.02413654327392578,-0.030458450317382812,-0.37585878372192383
1711508702685976300,23.558976318359374,-0.16770029067993164,-0.03360700607299805,-0.405881404876709
1711508702704936400,23.5779365234375,-0.37076783180236816,-0.11557292938232422,-0.5345449447631836
1711508702723896300,23.596896240234376,-0.7707247734069824,0.9723963737487793,1.0192346572875977
1711508702742856400,23.6158564453125,-0.6203789710998535,-0.28315067291259766,-0.9623665809631348
1711508702761816300,23.63481640625,-0.7398437261581421,0.9683017730712891,0.7153973579406738
